[{"success":true,"trial_type":"fullscreen","trial_index":0,"time_elapsed":91360,"internal_node_id":"0.0-0.0","subject_id":"60c858000992b15e7485e788","study_id":"6197b3f67c2b5cd3b6d9596a","session_id":"6197b9eec389e594bfc2b8bf","condition":"contingent","relevant_dimensions":["antennae","wings"],"bee_group":{"antennae":"B","wings":"2","pattern":"X","legs":"X"},"bonus":0.5600000000000006},{"success":true,"timeout":false,"failed_images":[],"failed_audio":[],"failed_video":[],"trial_type":"preload","trial_index":1,"time_elapsed":95794,"internal_node_id":"0.0-1.0","subject_id":"60c858000992b15e7485e788","study_id":"6197b3f67c2b5cd3b6d9596a","session_id":"6197b9eec389e594bfc2b8bf","condition":"contingent","relevant_dimensions":["antennae","wings"],"bee_group":{"antennae":"B","wings":"2","pattern":"X","legs":"X"},"bonus":0.5600000000000006},{"rt":2290.199999988079,"stimulus":"Welcome! Press any key to begin.","response":" ","trial_type":"html-keyboard-response","trial_index":2,"time_elapsed":98087,"internal_node_id":"0.0-2.0","subject_id":"60c858000992b15e7485e788","study_id":"6197b3f67c2b5cd3b6d9596a","session_id":"6197b9eec389e594bfc2b8bf","condition":"contingent","relevant_dimensions":["antennae","wings"],"bee_group":{"antennae":"B","wings":"2","pattern":"X","legs":"X"},"bonus":0.5600000000000006},{"view_history":[{"page_index":0,"viewing_time":4027.2000000178814},{"page_index":1,"viewing_time":10184},{"page_index":2,"viewing_time":9455.899999976158},{"page_index":3,"viewing_time":14383.800000011921},{"page_index":4,"viewing_time":5648.0999999940395},{"page_index":5,"viewing_time":6280.300000011921},{"page_index":6,"viewing_time":7751.699999988079},{"page_index":7,"viewing_time":6224},{"page_index":8,"viewing_time":4271.9000000059605},{"page_index":9,"viewing_time":3632.199999988079},{"page_index":10,"viewing_time":2191.9000000059605},{"page_index":11,"viewing_time":6296},{"page_index":12,"viewing_time":7880.0999999940395},{"page_index":13,"viewing_time":1791.9000000059605},{"page_index":14,"viewing_time":3256}],"rt":93275.20000001788,"trial_type":"instructions","trial_index":3,"time_elapsed":191364,"internal_node_id":"0.0-3.0-0.0","subject_id":"60c858000992b15e7485e788","study_id":"6197b3f67c2b5cd3b6d9596a","session_id":"6197b9eec389e594bfc2b8bf","condition":"contingent","relevant_dimensions":["antennae","wings"],"bee_group":{"antennae":"B","wings":"2","pattern":"X","legs":"X"},"bonus":0.5600000000000006},{"rt":13059.90000000596,"response":{"Q0":["Two or six legs","Stripes or spots on body","Single or double wings","Antennae or no antennae"]},"question_order":[0],"trial_type":"survey-multi-select","trial_index":4,"time_elapsed":204429,"internal_node_id":"0.0-3.0-1.0","subject_id":"60c858000992b15e7485e788","study_id":"6197b3f67c2b5cd3b6d9596a","session_id":"6197b9eec389e594bfc2b8bf","condition":"contingent","relevant_dimensions":["antennae","wings"],"bee_group":{"antennae":"B","wings":"2","pattern":"X","legs":"X"},"correct":true,"bonus":0.5600000000000006},{"rt":22229.20000001788,"response":{"Q1":"No.","Q2":"Based on the four features of the bee.","Q3":"You do not learn if it was friendly or dangerous, and do not alter your bonus."},"question_order":[0,1,2],"trial_type":"survey-multi-choice","trial_index":5,"time_elapsed":226661,"internal_node_id":"0.0-3.0-2.0","subject_id":"60c858000992b15e7485e788","study_id":"6197b3f67c2b5cd3b6d9596a","session_id":"6197b9eec389e594bfc2b8bf","condition":"contingent","relevant_dimensions":["antennae","wings"],"bee_group":{"antennae":"B","wings":"2","pattern":"X","legs":"X"},"correct":true,"bonus":0.5600000000000006},{"rt":3781.5,"stimulus":"<p>Congrats, you got everything right<br>When you're ready, click the button below to continue to the experiment.</p>","response":0,"trial_type":"html-button-response","trial_index":6,"time_elapsed":230444,"internal_node_id":"0.0-3.0-3.0","subject_id":"60c858000992b15e7485e788","study_id":"6197b3f67c2b5cd3b6d9596a","session_id":"6197b9eec389e594bfc2b8bf","condition":"contingent","relevant_dimensions":["antennae","wings"],"bee_group":{"antennae":"B","wings":"2","pattern":"X","legs":"X"},"bonus":0.5600000000000006},{"rt":2628.699999988079,"stimulus":"bees-with-color/bee-A2SM.svg","response":0,"trial_type":"image-button-response","trial_index":7,"time_elapsed":233077,"internal_node_id":"0.0-4.0-0.0","subject_id":"60c858000992b15e7485e788","study_id":"6197b3f67c2b5cd3b6d9596a","session_id":"6197b9eec389e594bfc2b8bf","condition":"contingent","relevant_dimensions":["antennae","wings"],"bee_group":{"antennae":"B","wings":"2","pattern":"X","legs":"X"},"action":"harvest","summary":"good-harvest","bonus":0.5600000000000006},{"rt":4421.0999999940395,"stimulus":"\n                    <p><b>Action: <em>harvest</em></b></p>\n                    <p>This is the bee that you just saw.</p>\n                    <img src=\"bees-with-color/bee-A2SM.svg\" width=\"200\">\n                    <p><span class=\"greenText\"><b>Successful harvest!</b></span><br>Your pay has increased by $0.02. Your bonus pay is now $0.56.</p>\n            ","response":0,"trial_type":"html-button-response","trial_index":8,"time_elapsed":237500,"internal_node_id":"0.0-4.0-1.0","subject_id":"60c858000992b15e7485e788","study_id":"6197b3f67c2b5cd3b6d9596a","session_id":"6197b9eec389e594bfc2b8bf","condition":"contingent","relevant_dimensions":["antennae","wings"],"bee_group":{"antennae":"B","wings":"2","pattern":"X","legs":"X"},"bonus":0.5600000000000006},{"rt":2837.300000011921,"stimulus":"bees-with-color/bee-B2SF.svg","response":1,"trial_type":"image-button-response","trial_index":9,"time_elapsed":240340,"internal_node_id":"0.0-4.0-0.1","subject_id":"60c858000992b15e7485e788","study_id":"6197b3f67c2b5cd3b6d9596a","session_id":"6197b9eec389e594bfc2b8bf","condition":"contingent","relevant_dimensions":["antennae","wings"],"bee_group":{"antennae":"B","wings":"2","pattern":"X","legs":"X"},"action":"avoid","summary":"good-avoid","bonus":0.5600000000000006},{"rt":3653.2999999821186,"stimulus":"\n                    <p><b>Action: <em>avoid</em></b></p>\n                    <p>This is the bee that you just saw.</p>\n                    <img src=\"bees-with-color/bee-B2SF.svg\" width=\"200\">\n                    <p><br>Your bonus pay is unchanged, and remains at $0.56.</p>\n            ","response":0,"trial_type":"html-button-response","trial_index":10,"time_elapsed":243996,"internal_node_id":"0.0-4.0-1.1","subject_id":"60c858000992b15e7485e788","study_id":"6197b3f67c2b5cd3b6d9596a","session_id":"6197b9eec389e594bfc2b8bf","condition":"contingent","relevant_dimensions":["antennae","wings"],"bee_group":{"antennae":"B","wings":"2","pattern":"X","legs":"X"},"bonus":0.5600000000000006},{"rt":2245.300000011921,"stimulus":"bees-with-color/bee-A1DF.svg","response":0,"trial_type":"image-button-response","trial_index":11,"time_elapsed":246244,"internal_node_id":"0.0-4.0-0.2","subject_id":"60c858000992b15e7485e788","study_id":"6197b3f67c2b5cd3b6d9596a","session_id":"6197b9eec389e594bfc2b8bf","condition":"contingent","relevant_dimensions":["antennae","wings"],"bee_group":{"antennae":"B","wings":"2","pattern":"X","legs":"X"},"action":"harvest","summary":"good-harvest","bonus":0.5600000000000006},{"rt":1819.7000000178814,"stimulus":"\n                    <p><b>Action: <em>harvest</em></b></p>\n                    <p>This is the bee that you just saw.</p>\n                    <img src=\"bees-with-color/bee-A1DF.svg\" width=\"200\">\n                    <p><span class=\"greenText\"><b>Successful harvest!</b></span><br>Your pay has increased by $0.02. Your bonus pay is now $0.58.</p>\n            ","response":0,"trial_type":"html-button-response","trial_index":12,"time_elapsed":248068,"internal_node_id":"0.0-4.0-1.2","subject_id":"60c858000992b15e7485e788","study_id":"6197b3f67c2b5cd3b6d9596a","session_id":"6197b9eec389e594bfc2b8bf","condition":"contingent","relevant_dimensions":["antennae","wings"],"bee_group":{"antennae":"B","wings":"2","pattern":"X","legs":"X"},"bonus":0.5600000000000006},{"rt":3237.9000000059605,"stimulus":"bees-with-color/bee-A2SF.svg","response":1,"trial_type":"image-button-response","trial_index":13,"time_elapsed":251309,"internal_node_id":"0.0-4.0-0.3","subject_id":"60c858000992b15e7485e788","study_id":"6197b3f67c2b5cd3b6d9596a","session_id":"6197b9eec389e594bfc2b8bf","condition":"contingent","relevant_dimensions":["antennae","wings"],"bee_group":{"antennae":"B","wings":"2","pattern":"X","legs":"X"},"action":"avoid","summary":"bad-avoid","bonus":0.5600000000000006},{"rt":2141.699999988079,"stimulus":"\n                    <p><b>Action: <em>avoid</em></b></p>\n                    <p>This is the bee that you just saw.</p>\n                    <img src=\"bees-with-color/bee-A2SF.svg\" width=\"200\">\n                    <p><br>Your bonus pay is unchanged, and remains at $0.58.</p>\n            ","response":0,"trial_type":"html-button-response","trial_index":14,"time_elapsed":253452,"internal_node_id":"0.0-4.0-1.3","subject_id":"60c858000992b15e7485e788","study_id":"6197b3f67c2b5cd3b6d9596a","session_id":"6197b9eec389e594bfc2b8bf","condition":"contingent","relevant_dimensions":["antennae","wings"],"bee_group":{"antennae":"B","wings":"2","pattern":"X","legs":"X"},"bonus":0.5600000000000006},{"rt":958.1999999880791,"stimulus":"bees-with-color/bee-B2SM.svg","response":0,"trial_type":"image-button-response","trial_index":15,"time_elapsed":254412,"internal_node_id":"0.0-4.0-0.4","subject_id":"60c858000992b15e7485e788","study_id":"6197b3f67c2b5cd3b6d9596a","session_id":"6197b9eec389e594bfc2b8bf","condition":"contingent","relevant_dimensions":["antennae","wings"],"bee_group":{"antennae":"B","wings":"2","pattern":"X","legs":"X"},"action":"harvest","summary":"bad-harvest","bonus":0.5600000000000006},{"rt":8406.300000011921,"stimulus":"\n                    <p><b>Action: <em>harvest</em></b></p>\n                    <p>This is the bee that you just saw.</p>\n                    <img src=\"bees-with-color/bee-B2SM.svg\" width=\"200\">\n                    <p><span class=\"redText\">Bad choice, the bee was angry.</span><br><b>You have been stung!</b><br>Your pay has been decreased by $0.10. Your bonus pay is now $0.48.</p>\n            ","response":0,"trial_type":"html-button-response","trial_index":16,"time_elapsed":262820,"internal_node_id":"0.0-4.0-1.4","subject_id":"60c858000992b15e7485e788","study_id":"6197b3f67c2b5cd3b6d9596a","session_id":"6197b9eec389e594bfc2b8bf","condition":"contingent","relevant_dimensions":["antennae","wings"],"bee_group":{"antennae":"B","wings":"2","pattern":"X","legs":"X"},"bonus":0.5600000000000006},{"rt":1637.699999988079,"stimulus":"bees-with-color/bee-B1DM.svg","response":0,"trial_type":"image-button-response","trial_index":17,"time_elapsed":264460,"internal_node_id":"0.0-4.0-0.5","subject_id":"60c858000992b15e7485e788","study_id":"6197b3f67c2b5cd3b6d9596a","session_id":"6197b9eec389e594bfc2b8bf","condition":"contingent","relevant_dimensions":["antennae","wings"],"bee_group":{"antennae":"B","wings":"2","pattern":"X","legs":"X"},"action":"harvest","summary":"good-harvest","bonus":0.5600000000000006},{"rt":1695.1000000238419,"stimulus":"\n                    <p><b>Action: <em>harvest</em></b></p>\n                    <p>This is the bee that you just saw.</p>\n                    <img src=\"bees-with-color/bee-B1DM.svg\" width=\"200\">\n                    <p><span class=\"greenText\"><b>Successful harvest!</b></span><br>Your pay has increased by $0.02. Your bonus pay is now $0.50.</p>\n            ","response":0,"trial_type":"html-button-response","trial_index":18,"time_elapsed":266157,"internal_node_id":"0.0-4.0-1.5","subject_id":"60c858000992b15e7485e788","study_id":"6197b3f67c2b5cd3b6d9596a","session_id":"6197b9eec389e594bfc2b8bf","condition":"contingent","relevant_dimensions":["antennae","wings"],"bee_group":{"antennae":"B","wings":"2","pattern":"X","legs":"X"},"bonus":0.5600000000000006},{"rt":1525.7000000178814,"stimulus":"bees-with-color/bee-A1SF.svg","response":0,"trial_type":"image-button-response","trial_index":19,"time_elapsed":267684,"internal_node_id":"0.0-4.0-0.6","subject_id":"60c858000992b15e7485e788","study_id":"6197b3f67c2b5cd3b6d9596a","session_id":"6197b9eec389e594bfc2b8bf","condition":"contingent","relevant_dimensions":["antennae","wings"],"bee_group":{"antennae":"B","wings":"2","pattern":"X","legs":"X"},"action":"harvest","summary":"good-harvest","bonus":0.5600000000000006},{"rt":1758.2999999821186,"stimulus":"\n                    <p><b>Action: <em>harvest</em></b></p>\n                    <p>This is the bee that you just saw.</p>\n                    <img src=\"bees-with-color/bee-A1SF.svg\" width=\"200\">\n                    <p><span class=\"greenText\"><b>Successful harvest!</b></span><br>Your pay has increased by $0.02. Your bonus pay is now $0.52.</p>\n            ","response":0,"trial_type":"html-button-response","trial_index":20,"time_elapsed":269444,"internal_node_id":"0.0-4.0-1.6","subject_id":"60c858000992b15e7485e788","study_id":"6197b3f67c2b5cd3b6d9596a","session_id":"6197b9eec389e594bfc2b8bf","condition":"contingent","relevant_dimensions":["antennae","wings"],"bee_group":{"antennae":"B","wings":"2","pattern":"X","legs":"X"},"bonus":0.5600000000000006},{"rt":1430,"stimulus":"bees-with-color/bee-A2DM.svg","response":0,"trial_type":"image-button-response","trial_index":21,"time_elapsed":270876,"internal_node_id":"0.0-4.0-0.7","subject_id":"60c858000992b15e7485e788","study_id":"6197b3f67c2b5cd3b6d9596a","session_id":"6197b9eec389e594bfc2b8bf","condition":"contingent","relevant_dimensions":["antennae","wings"],"bee_group":{"antennae":"B","wings":"2","pattern":"X","legs":"X"},"action":"harvest","summary":"good-harvest","bonus":0.5600000000000006},{"rt":1926.199999988079,"stimulus":"\n                    <p><b>Action: <em>harvest</em></b></p>\n                    <p>This is the bee that you just saw.</p>\n                    <img src=\"bees-with-color/bee-A2DM.svg\" width=\"200\">\n                    <p><span class=\"greenText\"><b>Successful harvest!</b></span><br>Your pay has increased by $0.02. Your bonus pay is now $0.54.</p>\n            ","response":0,"trial_type":"html-button-response","trial_index":22,"time_elapsed":272804,"internal_node_id":"0.0-4.0-1.7","subject_id":"60c858000992b15e7485e788","study_id":"6197b3f67c2b5cd3b6d9596a","session_id":"6197b9eec389e594bfc2b8bf","condition":"contingent","relevant_dimensions":["antennae","wings"],"bee_group":{"antennae":"B","wings":"2","pattern":"X","legs":"X"},"bonus":0.5600000000000006},{"rt":1597.6000000238419,"stimulus":"bees-with-color/bee-A2DF.svg","response":0,"trial_type":"image-button-response","trial_index":23,"time_elapsed":274404,"internal_node_id":"0.0-4.0-0.8","subject_id":"60c858000992b15e7485e788","study_id":"6197b3f67c2b5cd3b6d9596a","session_id":"6197b9eec389e594bfc2b8bf","condition":"contingent","relevant_dimensions":["antennae","wings"],"bee_group":{"antennae":"B","wings":"2","pattern":"X","legs":"X"},"action":"harvest","summary":"good-harvest","bonus":0.5600000000000006},{"rt":998.0999999940395,"stimulus":"\n                    <p><b>Action: <em>harvest</em></b></p>\n                    <p>This is the bee that you just saw.</p>\n                    <img src=\"bees-with-color/bee-A2DF.svg\" width=\"200\">\n                    <p><span class=\"greenText\"><b>Successful harvest!</b></span><br>Your pay has increased by $0.02. Your bonus pay is now $0.56.</p>\n            ","response":0,"trial_type":"html-button-response","trial_index":24,"time_elapsed":275404,"internal_node_id":"0.0-4.0-1.8","subject_id":"60c858000992b15e7485e788","study_id":"6197b3f67c2b5cd3b6d9596a","session_id":"6197b9eec389e594bfc2b8bf","condition":"contingent","relevant_dimensions":["antennae","wings"],"bee_group":{"antennae":"B","wings":"2","pattern":"X","legs":"X"},"bonus":0.5600000000000006},{"rt":1589.800000011921,"stimulus":"bees-with-color/bee-B2DF.svg","response":0,"trial_type":"image-button-response","trial_index":25,"time_elapsed":276996,"internal_node_id":"0.0-4.0-0.9","subject_id":"60c858000992b15e7485e788","study_id":"6197b3f67c2b5cd3b6d9596a","session_id":"6197b9eec389e594bfc2b8bf","condition":"contingent","relevant_dimensions":["antennae","wings"],"bee_group":{"antennae":"B","wings":"2","pattern":"X","legs":"X"},"action":"harvest","summary":"bad-harvest","bonus":0.5600000000000006},{"rt":3718.300000011921,"stimulus":"\n                    <p><b>Action: <em>harvest</em></b></p>\n                    <p>This is the bee that you just saw.</p>\n                    <img src=\"bees-with-color/bee-B2DF.svg\" width=\"200\">\n                    <p><span class=\"redText\">Bad choice, the bee was angry.</span><br><b>You have been stung!</b><br>Your pay has been decreased by $0.10. Your bonus pay is now $0.46.</p>\n            ","response":0,"trial_type":"html-button-response","trial_index":26,"time_elapsed":280716,"internal_node_id":"0.0-4.0-1.9","subject_id":"60c858000992b15e7485e788","study_id":"6197b3f67c2b5cd3b6d9596a","session_id":"6197b9eec389e594bfc2b8bf","condition":"contingent","relevant_dimensions":["antennae","wings"],"bee_group":{"antennae":"B","wings":"2","pattern":"X","legs":"X"},"bonus":0.5600000000000006},{"rt":2078.0999999940395,"stimulus":"bees-with-color/bee-B1SM.svg","response":0,"trial_type":"image-button-response","trial_index":27,"time_elapsed":282796,"internal_node_id":"0.0-4.0-0.10","subject_id":"60c858000992b15e7485e788","study_id":"6197b3f67c2b5cd3b6d9596a","session_id":"6197b9eec389e594bfc2b8bf","condition":"contingent","relevant_dimensions":["antennae","wings"],"bee_group":{"antennae":"B","wings":"2","pattern":"X","legs":"X"},"action":"harvest","summary":"good-harvest","bonus":0.5600000000000006},{"rt":2470.699999988079,"stimulus":"\n                    <p><b>Action: <em>harvest</em></b></p>\n                    <p>This is the bee that you just saw.</p>\n                    <img src=\"bees-with-color/bee-B1SM.svg\" width=\"200\">\n                    <p><span class=\"greenText\"><b>Successful harvest!</b></span><br>Your pay has increased by $0.02. Your bonus pay is now $0.48.</p>\n            ","response":0,"trial_type":"html-button-response","trial_index":28,"time_elapsed":285268,"internal_node_id":"0.0-4.0-1.10","subject_id":"60c858000992b15e7485e788","study_id":"6197b3f67c2b5cd3b6d9596a","session_id":"6197b9eec389e594bfc2b8bf","condition":"contingent","relevant_dimensions":["antennae","wings"],"bee_group":{"antennae":"B","wings":"2","pattern":"X","legs":"X"},"bonus":0.5600000000000006},{"rt":2741.9000000059605,"stimulus":"bees-with-color/bee-A1DM.svg","response":0,"trial_type":"image-button-response","trial_index":29,"time_elapsed":288012,"internal_node_id":"0.0-4.0-0.11","subject_id":"60c858000992b15e7485e788","study_id":"6197b3f67c2b5cd3b6d9596a","session_id":"6197b9eec389e594bfc2b8bf","condition":"contingent","relevant_dimensions":["antennae","wings"],"bee_group":{"antennae":"B","wings":"2","pattern":"X","legs":"X"},"action":"harvest","summary":"good-harvest","bonus":0.5600000000000006},{"rt":1534.2000000178814,"stimulus":"\n                    <p><b>Action: <em>harvest</em></b></p>\n                    <p>This is the bee that you just saw.</p>\n                    <img src=\"bees-with-color/bee-A1DM.svg\" width=\"200\">\n                    <p><span class=\"greenText\"><b>Successful harvest!</b></span><br>Your pay has increased by $0.02. Your bonus pay is now $0.50.</p>\n            ","response":0,"trial_type":"html-button-response","trial_index":30,"time_elapsed":289548,"internal_node_id":"0.0-4.0-1.11","subject_id":"60c858000992b15e7485e788","study_id":"6197b3f67c2b5cd3b6d9596a","session_id":"6197b9eec389e594bfc2b8bf","condition":"contingent","relevant_dimensions":["antennae","wings"],"bee_group":{"antennae":"B","wings":"2","pattern":"X","legs":"X"},"bonus":0.5600000000000006},{"rt":2462,"stimulus":"bees-with-color/bee-B2DM.svg","response":1,"trial_type":"image-button-response","trial_index":31,"time_elapsed":292012,"internal_node_id":"0.0-4.0-0.12","subject_id":"60c858000992b15e7485e788","study_id":"6197b3f67c2b5cd3b6d9596a","session_id":"6197b9eec389e594bfc2b8bf","condition":"contingent","relevant_dimensions":["antennae","wings"],"bee_group":{"antennae":"B","wings":"2","pattern":"X","legs":"X"},"action":"avoid","summary":"good-avoid","bonus":0.5600000000000006},{"rt":1270.4000000059605,"stimulus":"\n                    <p><b>Action: <em>avoid</em></b></p>\n                    <p>This is the bee that you just saw.</p>\n                    <img src=\"bees-with-color/bee-B2DM.svg\" width=\"200\">\n                    <p><br>Your bonus pay is unchanged, and remains at $0.50.</p>\n            ","response":0,"trial_type":"html-button-response","trial_index":32,"time_elapsed":293284,"internal_node_id":"0.0-4.0-1.12","subject_id":"60c858000992b15e7485e788","study_id":"6197b3f67c2b5cd3b6d9596a","session_id":"6197b9eec389e594bfc2b8bf","condition":"contingent","relevant_dimensions":["antennae","wings"],"bee_group":{"antennae":"B","wings":"2","pattern":"X","legs":"X"},"bonus":0.5600000000000006},{"rt":1493.6000000238419,"stimulus":"bees-with-color/bee-B1DF.svg","response":0,"trial_type":"image-button-response","trial_index":33,"time_elapsed":294780,"internal_node_id":"0.0-4.0-0.13","subject_id":"60c858000992b15e7485e788","study_id":"6197b3f67c2b5cd3b6d9596a","session_id":"6197b9eec389e594bfc2b8bf","condition":"contingent","relevant_dimensions":["antennae","wings"],"bee_group":{"antennae":"B","wings":"2","pattern":"X","legs":"X"},"action":"harvest","summary":"good-harvest","bonus":0.5600000000000006},{"rt":1262.300000011921,"stimulus":"\n                    <p><b>Action: <em>harvest</em></b></p>\n                    <p>This is the bee that you just saw.</p>\n                    <img src=\"bees-with-color/bee-B1DF.svg\" width=\"200\">\n                    <p><span class=\"greenText\"><b>Successful harvest!</b></span><br>Your pay has increased by $0.02. Your bonus pay is now $0.52.</p>\n            ","response":0,"trial_type":"html-button-response","trial_index":34,"time_elapsed":296044,"internal_node_id":"0.0-4.0-1.13","subject_id":"60c858000992b15e7485e788","study_id":"6197b3f67c2b5cd3b6d9596a","session_id":"6197b9eec389e594bfc2b8bf","condition":"contingent","relevant_dimensions":["antennae","wings"],"bee_group":{"antennae":"B","wings":"2","pattern":"X","legs":"X"},"bonus":0.5600000000000006},{"rt":2878.5,"stimulus":"bees-with-color/bee-A1SM.svg","response":1,"trial_type":"image-button-response","trial_index":35,"time_elapsed":298924,"internal_node_id":"0.0-4.0-0.14","subject_id":"60c858000992b15e7485e788","study_id":"6197b3f67c2b5cd3b6d9596a","session_id":"6197b9eec389e594bfc2b8bf","condition":"contingent","relevant_dimensions":["antennae","wings"],"bee_group":{"antennae":"B","wings":"2","pattern":"X","legs":"X"},"action":"avoid","summary":"bad-avoid","bonus":0.5600000000000006},{"rt":1014.3000000119209,"stimulus":"\n                    <p><b>Action: <em>avoid</em></b></p>\n                    <p>This is the bee that you just saw.</p>\n                    <img src=\"bees-with-color/bee-A1SM.svg\" width=\"200\">\n                    <p><br>Your bonus pay is unchanged, and remains at $0.52.</p>\n            ","response":0,"trial_type":"html-button-response","trial_index":36,"time_elapsed":299940,"internal_node_id":"0.0-4.0-1.14","subject_id":"60c858000992b15e7485e788","study_id":"6197b3f67c2b5cd3b6d9596a","session_id":"6197b9eec389e594bfc2b8bf","condition":"contingent","relevant_dimensions":["antennae","wings"],"bee_group":{"antennae":"B","wings":"2","pattern":"X","legs":"X"},"bonus":0.5600000000000006},{"rt":1463.300000011921,"stimulus":"bees-with-color/bee-B1SF.svg","response":0,"trial_type":"image-button-response","trial_index":37,"time_elapsed":301405,"internal_node_id":"0.0-4.0-0.15","subject_id":"60c858000992b15e7485e788","study_id":"6197b3f67c2b5cd3b6d9596a","session_id":"6197b9eec389e594bfc2b8bf","condition":"contingent","relevant_dimensions":["antennae","wings"],"bee_group":{"antennae":"B","wings":"2","pattern":"X","legs":"X"},"action":"harvest","summary":"good-harvest","bonus":0.5600000000000006},{"rt":1405.199999988079,"stimulus":"\n                    <p><b>Action: <em>harvest</em></b></p>\n                    <p>This is the bee that you just saw.</p>\n                    <img src=\"bees-with-color/bee-B1SF.svg\" width=\"200\">\n                    <p><span class=\"greenText\"><b>Successful harvest!</b></span><br>Your pay has increased by $0.02. Your bonus pay is now $0.54.</p>\n            ","response":0,"trial_type":"html-button-response","trial_index":38,"time_elapsed":302812,"internal_node_id":"0.0-4.0-1.15","subject_id":"60c858000992b15e7485e788","study_id":"6197b3f67c2b5cd3b6d9596a","session_id":"6197b9eec389e594bfc2b8bf","condition":"contingent","relevant_dimensions":["antennae","wings"],"bee_group":{"antennae":"B","wings":"2","pattern":"X","legs":"X"},"bonus":0.5600000000000006},{"rt":2126.4000000059605,"stimulus":"bees-with-color/bee-A2SM.svg","response":1,"trial_type":"image-button-response","trial_index":39,"time_elapsed":304940,"internal_node_id":"0.0-4.0-0.16","subject_id":"60c858000992b15e7485e788","study_id":"6197b3f67c2b5cd3b6d9596a","session_id":"6197b9eec389e594bfc2b8bf","condition":"contingent","relevant_dimensions":["antennae","wings"],"bee_group":{"antennae":"B","wings":"2","pattern":"X","legs":"X"},"action":"avoid","summary":"bad-avoid","bonus":0.5600000000000006},{"rt":974.2000000178814,"stimulus":"\n                    <p><b>Action: <em>avoid</em></b></p>\n                    <p>This is the bee that you just saw.</p>\n                    <img src=\"bees-with-color/bee-A2SM.svg\" width=\"200\">\n                    <p><br>Your bonus pay is unchanged, and remains at $0.54.</p>\n            ","response":0,"trial_type":"html-button-response","trial_index":40,"time_elapsed":305916,"internal_node_id":"0.0-4.0-1.16","subject_id":"60c858000992b15e7485e788","study_id":"6197b3f67c2b5cd3b6d9596a","session_id":"6197b9eec389e594bfc2b8bf","condition":"contingent","relevant_dimensions":["antennae","wings"],"bee_group":{"antennae":"B","wings":"2","pattern":"X","legs":"X"},"bonus":0.5600000000000006},{"rt":1326,"stimulus":"bees-with-color/bee-B2DF.svg","response":0,"trial_type":"image-button-response","trial_index":41,"time_elapsed":307244,"internal_node_id":"0.0-4.0-0.17","subject_id":"60c858000992b15e7485e788","study_id":"6197b3f67c2b5cd3b6d9596a","session_id":"6197b9eec389e594bfc2b8bf","condition":"contingent","relevant_dimensions":["antennae","wings"],"bee_group":{"antennae":"B","wings":"2","pattern":"X","legs":"X"},"action":"harvest","summary":"bad-harvest","bonus":0.5600000000000006},{"rt":4022.2000000178814,"stimulus":"\n                    <p><b>Action: <em>harvest</em></b></p>\n                    <p>This is the bee that you just saw.</p>\n                    <img src=\"bees-with-color/bee-B2DF.svg\" width=\"200\">\n                    <p><span class=\"redText\">Bad choice, the bee was angry.</span><br><b>You have been stung!</b><br>Your pay has been decreased by $0.10. Your bonus pay is now $0.44.</p>\n            ","response":0,"trial_type":"html-button-response","trial_index":42,"time_elapsed":311268,"internal_node_id":"0.0-4.0-1.17","subject_id":"60c858000992b15e7485e788","study_id":"6197b3f67c2b5cd3b6d9596a","session_id":"6197b9eec389e594bfc2b8bf","condition":"contingent","relevant_dimensions":["antennae","wings"],"bee_group":{"antennae":"B","wings":"2","pattern":"X","legs":"X"},"bonus":0.5600000000000006},{"rt":2317.5,"stimulus":"bees-with-color/bee-B1SM.svg","response":0,"trial_type":"image-button-response","trial_index":43,"time_elapsed":313588,"internal_node_id":"0.0-4.0-0.18","subject_id":"60c858000992b15e7485e788","study_id":"6197b3f67c2b5cd3b6d9596a","session_id":"6197b9eec389e594bfc2b8bf","condition":"contingent","relevant_dimensions":["antennae","wings"],"bee_group":{"antennae":"B","wings":"2","pattern":"X","legs":"X"},"action":"harvest","summary":"good-harvest","bonus":0.5600000000000006},{"rt":2926.300000011921,"stimulus":"\n                    <p><b>Action: <em>harvest</em></b></p>\n                    <p>This is the bee that you just saw.</p>\n                    <img src=\"bees-with-color/bee-B1SM.svg\" width=\"200\">\n                    <p><span class=\"greenText\"><b>Successful harvest!</b></span><br>Your pay has increased by $0.02. Your bonus pay is now $0.46.</p>\n            ","response":0,"trial_type":"html-button-response","trial_index":44,"time_elapsed":316516,"internal_node_id":"0.0-4.0-1.18","subject_id":"60c858000992b15e7485e788","study_id":"6197b3f67c2b5cd3b6d9596a","session_id":"6197b9eec389e594bfc2b8bf","condition":"contingent","relevant_dimensions":["antennae","wings"],"bee_group":{"antennae":"B","wings":"2","pattern":"X","legs":"X"},"bonus":0.5600000000000006},{"rt":1453.7000000178814,"stimulus":"bees-with-color/bee-A2SF.svg","response":0,"trial_type":"image-button-response","trial_index":45,"time_elapsed":317972,"internal_node_id":"0.0-4.0-0.19","subject_id":"60c858000992b15e7485e788","study_id":"6197b3f67c2b5cd3b6d9596a","session_id":"6197b9eec389e594bfc2b8bf","condition":"contingent","relevant_dimensions":["antennae","wings"],"bee_group":{"antennae":"B","wings":"2","pattern":"X","legs":"X"},"action":"harvest","summary":"good-harvest","bonus":0.5600000000000006},{"rt":1230.300000011921,"stimulus":"\n                    <p><b>Action: <em>harvest</em></b></p>\n                    <p>This is the bee that you just saw.</p>\n                    <img src=\"bees-with-color/bee-A2SF.svg\" width=\"200\">\n                    <p><span class=\"greenText\"><b>Successful harvest!</b></span><br>Your pay has increased by $0.02. Your bonus pay is now $0.48.</p>\n            ","response":0,"trial_type":"html-button-response","trial_index":46,"time_elapsed":319204,"internal_node_id":"0.0-4.0-1.19","subject_id":"60c858000992b15e7485e788","study_id":"6197b3f67c2b5cd3b6d9596a","session_id":"6197b9eec389e594bfc2b8bf","condition":"contingent","relevant_dimensions":["antennae","wings"],"bee_group":{"antennae":"B","wings":"2","pattern":"X","legs":"X"},"bonus":0.5600000000000006},{"rt":1630.2999999821186,"stimulus":"bees-with-color/bee-B1SF.svg","response":0,"trial_type":"image-button-response","trial_index":47,"time_elapsed":320836,"internal_node_id":"0.0-4.0-0.20","subject_id":"60c858000992b15e7485e788","study_id":"6197b3f67c2b5cd3b6d9596a","session_id":"6197b9eec389e594bfc2b8bf","condition":"contingent","relevant_dimensions":["antennae","wings"],"bee_group":{"antennae":"B","wings":"2","pattern":"X","legs":"X"},"action":"harvest","summary":"good-harvest","bonus":0.5600000000000006},{"rt":1541.800000011921,"stimulus":"\n                    <p><b>Action: <em>harvest</em></b></p>\n                    <p>This is the bee that you just saw.</p>\n                    <img src=\"bees-with-color/bee-B1SF.svg\" width=\"200\">\n                    <p><span class=\"greenText\"><b>Successful harvest!</b></span><br>Your pay has increased by $0.02. Your bonus pay is now $0.50.</p>\n            ","response":0,"trial_type":"html-button-response","trial_index":48,"time_elapsed":322380,"internal_node_id":"0.0-4.0-1.20","subject_id":"60c858000992b15e7485e788","study_id":"6197b3f67c2b5cd3b6d9596a","session_id":"6197b9eec389e594bfc2b8bf","condition":"contingent","relevant_dimensions":["antennae","wings"],"bee_group":{"antennae":"B","wings":"2","pattern":"X","legs":"X"},"bonus":0.5600000000000006},{"rt":2966.300000011921,"stimulus":"bees-with-color/bee-A1SF.svg","response":0,"trial_type":"image-button-response","trial_index":49,"time_elapsed":325348,"internal_node_id":"0.0-4.0-0.21","subject_id":"60c858000992b15e7485e788","study_id":"6197b3f67c2b5cd3b6d9596a","session_id":"6197b9eec389e594bfc2b8bf","condition":"contingent","relevant_dimensions":["antennae","wings"],"bee_group":{"antennae":"B","wings":"2","pattern":"X","legs":"X"},"action":"harvest","summary":"good-harvest","bonus":0.5600000000000006},{"rt":1094.1000000238419,"stimulus":"\n                    <p><b>Action: <em>harvest</em></b></p>\n                    <p>This is the bee that you just saw.</p>\n                    <img src=\"bees-with-color/bee-A1SF.svg\" width=\"200\">\n                    <p><span class=\"greenText\"><b>Successful harvest!</b></span><br>Your pay has increased by $0.02. Your bonus pay is now $0.52.</p>\n            ","response":0,"trial_type":"html-button-response","trial_index":50,"time_elapsed":326444,"internal_node_id":"0.0-4.0-1.21","subject_id":"60c858000992b15e7485e788","study_id":"6197b3f67c2b5cd3b6d9596a","session_id":"6197b9eec389e594bfc2b8bf","condition":"contingent","relevant_dimensions":["antennae","wings"],"bee_group":{"antennae":"B","wings":"2","pattern":"X","legs":"X"},"bonus":0.5600000000000006},{"rt":2342.199999988079,"stimulus":"bees-with-color/bee-A1SM.svg","response":1,"trial_type":"image-button-response","trial_index":51,"time_elapsed":328788,"internal_node_id":"0.0-4.0-0.22","subject_id":"60c858000992b15e7485e788","study_id":"6197b3f67c2b5cd3b6d9596a","session_id":"6197b9eec389e594bfc2b8bf","condition":"contingent","relevant_dimensions":["antennae","wings"],"bee_group":{"antennae":"B","wings":"2","pattern":"X","legs":"X"},"action":"avoid","summary":"bad-avoid","bonus":0.5600000000000006},{"rt":1253.9000000059605,"stimulus":"\n                    <p><b>Action: <em>avoid</em></b></p>\n                    <p>This is the bee that you just saw.</p>\n                    <img src=\"bees-with-color/bee-A1SM.svg\" width=\"200\">\n                    <p><br>Your bonus pay is unchanged, and remains at $0.52.</p>\n            ","response":0,"trial_type":"html-button-response","trial_index":52,"time_elapsed":330044,"internal_node_id":"0.0-4.0-1.22","subject_id":"60c858000992b15e7485e788","study_id":"6197b3f67c2b5cd3b6d9596a","session_id":"6197b9eec389e594bfc2b8bf","condition":"contingent","relevant_dimensions":["antennae","wings"],"bee_group":{"antennae":"B","wings":"2","pattern":"X","legs":"X"},"bonus":0.5600000000000006},{"rt":2590.300000011921,"stimulus":"bees-with-color/bee-B2DM.svg","response":0,"trial_type":"image-button-response","trial_index":53,"time_elapsed":332636,"internal_node_id":"0.0-4.0-0.23","subject_id":"60c858000992b15e7485e788","study_id":"6197b3f67c2b5cd3b6d9596a","session_id":"6197b9eec389e594bfc2b8bf","condition":"contingent","relevant_dimensions":["antennae","wings"],"bee_group":{"antennae":"B","wings":"2","pattern":"X","legs":"X"},"action":"harvest","summary":"bad-harvest","bonus":0.5600000000000006},{"rt":1102.199999988079,"stimulus":"\n                    <p><b>Action: <em>harvest</em></b></p>\n                    <p>This is the bee that you just saw.</p>\n                    <img src=\"bees-with-color/bee-B2DM.svg\" width=\"200\">\n                    <p><span class=\"redText\">Bad choice, the bee was angry.</span><br><b>You have been stung!</b><br>Your pay has been decreased by $0.10. Your bonus pay is now $0.42.</p>\n            ","response":0,"trial_type":"html-button-response","trial_index":54,"time_elapsed":333740,"internal_node_id":"0.0-4.0-1.23","subject_id":"60c858000992b15e7485e788","study_id":"6197b3f67c2b5cd3b6d9596a","session_id":"6197b9eec389e594bfc2b8bf","condition":"contingent","relevant_dimensions":["antennae","wings"],"bee_group":{"antennae":"B","wings":"2","pattern":"X","legs":"X"},"bonus":0.5600000000000006},{"rt":2917.699999988079,"stimulus":"bees-with-color/bee-B2SF.svg","response":0,"trial_type":"image-button-response","trial_index":55,"time_elapsed":336660,"internal_node_id":"0.0-4.0-0.24","subject_id":"60c858000992b15e7485e788","study_id":"6197b3f67c2b5cd3b6d9596a","session_id":"6197b9eec389e594bfc2b8bf","condition":"contingent","relevant_dimensions":["antennae","wings"],"bee_group":{"antennae":"B","wings":"2","pattern":"X","legs":"X"},"action":"harvest","summary":"bad-harvest","bonus":0.5600000000000006},{"rt":1030.5999999940395,"stimulus":"\n                    <p><b>Action: <em>harvest</em></b></p>\n                    <p>This is the bee that you just saw.</p>\n                    <img src=\"bees-with-color/bee-B2SF.svg\" width=\"200\">\n                    <p><span class=\"redText\">Bad choice, the bee was angry.</span><br><b>You have been stung!</b><br>Your pay has been decreased by $0.10. Your bonus pay is now $0.32.</p>\n            ","response":0,"trial_type":"html-button-response","trial_index":56,"time_elapsed":337692,"internal_node_id":"0.0-4.0-1.24","subject_id":"60c858000992b15e7485e788","study_id":"6197b3f67c2b5cd3b6d9596a","session_id":"6197b9eec389e594bfc2b8bf","condition":"contingent","relevant_dimensions":["antennae","wings"],"bee_group":{"antennae":"B","wings":"2","pattern":"X","legs":"X"},"bonus":0.5600000000000006},{"rt":1470.300000011921,"stimulus":"bees-with-color/bee-A2DM.svg","response":0,"trial_type":"image-button-response","trial_index":57,"time_elapsed":339164,"internal_node_id":"0.0-4.0-0.25","subject_id":"60c858000992b15e7485e788","study_id":"6197b3f67c2b5cd3b6d9596a","session_id":"6197b9eec389e594bfc2b8bf","condition":"contingent","relevant_dimensions":["antennae","wings"],"bee_group":{"antennae":"B","wings":"2","pattern":"X","legs":"X"},"action":"harvest","summary":"good-harvest","bonus":0.5600000000000006},{"rt":1174.5,"stimulus":"\n                    <p><b>Action: <em>harvest</em></b></p>\n                    <p>This is the bee that you just saw.</p>\n                    <img src=\"bees-with-color/bee-A2DM.svg\" width=\"200\">\n                    <p><span class=\"greenText\"><b>Successful harvest!</b></span><br>Your pay has increased by $0.02. Your bonus pay is now $0.34.</p>\n            ","response":0,"trial_type":"html-button-response","trial_index":58,"time_elapsed":340340,"internal_node_id":"0.0-4.0-1.25","subject_id":"60c858000992b15e7485e788","study_id":"6197b3f67c2b5cd3b6d9596a","session_id":"6197b9eec389e594bfc2b8bf","condition":"contingent","relevant_dimensions":["antennae","wings"],"bee_group":{"antennae":"B","wings":"2","pattern":"X","legs":"X"},"bonus":0.5600000000000006},{"rt":1302.2000000178814,"stimulus":"bees-with-color/bee-B1DF.svg","response":0,"trial_type":"image-button-response","trial_index":59,"time_elapsed":341644,"internal_node_id":"0.0-4.0-0.26","subject_id":"60c858000992b15e7485e788","study_id":"6197b3f67c2b5cd3b6d9596a","session_id":"6197b9eec389e594bfc2b8bf","condition":"contingent","relevant_dimensions":["antennae","wings"],"bee_group":{"antennae":"B","wings":"2","pattern":"X","legs":"X"},"action":"harvest","summary":"good-harvest","bonus":0.5600000000000006},{"rt":1246.800000011921,"stimulus":"\n                    <p><b>Action: <em>harvest</em></b></p>\n                    <p>This is the bee that you just saw.</p>\n                    <img src=\"bees-with-color/bee-B1DF.svg\" width=\"200\">\n                    <p><span class=\"greenText\"><b>Successful harvest!</b></span><br>Your pay has increased by $0.02. Your bonus pay is now $0.36.</p>\n            ","response":0,"trial_type":"html-button-response","trial_index":60,"time_elapsed":342892,"internal_node_id":"0.0-4.0-1.26","subject_id":"60c858000992b15e7485e788","study_id":"6197b3f67c2b5cd3b6d9596a","session_id":"6197b9eec389e594bfc2b8bf","condition":"contingent","relevant_dimensions":["antennae","wings"],"bee_group":{"antennae":"B","wings":"2","pattern":"X","legs":"X"},"bonus":0.5600000000000006},{"rt":3230.4000000059605,"stimulus":"bees-with-color/bee-A2DF.svg","response":0,"trial_type":"image-button-response","trial_index":61,"time_elapsed":346124,"internal_node_id":"0.0-4.0-0.27","subject_id":"60c858000992b15e7485e788","study_id":"6197b3f67c2b5cd3b6d9596a","session_id":"6197b9eec389e594bfc2b8bf","condition":"contingent","relevant_dimensions":["antennae","wings"],"bee_group":{"antennae":"B","wings":"2","pattern":"X","legs":"X"},"action":"harvest","summary":"good-harvest","bonus":0.5600000000000006},{"rt":1342,"stimulus":"\n                    <p><b>Action: <em>harvest</em></b></p>\n                    <p>This is the bee that you just saw.</p>\n                    <img src=\"bees-with-color/bee-A2DF.svg\" width=\"200\">\n                    <p><span class=\"greenText\"><b>Successful harvest!</b></span><br>Your pay has increased by $0.02. Your bonus pay is now $0.38.</p>\n            ","response":0,"trial_type":"html-button-response","trial_index":62,"time_elapsed":347468,"internal_node_id":"0.0-4.0-1.27","subject_id":"60c858000992b15e7485e788","study_id":"6197b3f67c2b5cd3b6d9596a","session_id":"6197b9eec389e594bfc2b8bf","condition":"contingent","relevant_dimensions":["antennae","wings"],"bee_group":{"antennae":"B","wings":"2","pattern":"X","legs":"X"},"bonus":0.5600000000000006},{"rt":1902.2000000178814,"stimulus":"bees-with-color/bee-A1DM.svg","response":1,"trial_type":"image-button-response","trial_index":63,"time_elapsed":349372,"internal_node_id":"0.0-4.0-0.28","subject_id":"60c858000992b15e7485e788","study_id":"6197b3f67c2b5cd3b6d9596a","session_id":"6197b9eec389e594bfc2b8bf","condition":"contingent","relevant_dimensions":["antennae","wings"],"bee_group":{"antennae":"B","wings":"2","pattern":"X","legs":"X"},"action":"avoid","summary":"bad-avoid","bonus":0.5600000000000006},{"rt":1038.2999999821186,"stimulus":"\n                    <p><b>Action: <em>avoid</em></b></p>\n                    <p>This is the bee that you just saw.</p>\n                    <img src=\"bees-with-color/bee-A1DM.svg\" width=\"200\">\n                    <p><br>Your bonus pay is unchanged, and remains at $0.38.</p>\n            ","response":0,"trial_type":"html-button-response","trial_index":64,"time_elapsed":350412,"internal_node_id":"0.0-4.0-1.28","subject_id":"60c858000992b15e7485e788","study_id":"6197b3f67c2b5cd3b6d9596a","session_id":"6197b9eec389e594bfc2b8bf","condition":"contingent","relevant_dimensions":["antennae","wings"],"bee_group":{"antennae":"B","wings":"2","pattern":"X","legs":"X"},"bonus":0.5600000000000006},{"rt":1622.300000011921,"stimulus":"bees-with-color/bee-A1DF.svg","response":0,"trial_type":"image-button-response","trial_index":65,"time_elapsed":352036,"internal_node_id":"0.0-4.0-0.29","subject_id":"60c858000992b15e7485e788","study_id":"6197b3f67c2b5cd3b6d9596a","session_id":"6197b9eec389e594bfc2b8bf","condition":"contingent","relevant_dimensions":["antennae","wings"],"bee_group":{"antennae":"B","wings":"2","pattern":"X","legs":"X"},"action":"harvest","summary":"good-harvest","bonus":0.5600000000000006},{"rt":822.8000000119209,"stimulus":"\n                    <p><b>Action: <em>harvest</em></b></p>\n                    <p>This is the bee that you just saw.</p>\n                    <img src=\"bees-with-color/bee-A1DF.svg\" width=\"200\">\n                    <p><span class=\"greenText\"><b>Successful harvest!</b></span><br>Your pay has increased by $0.02. Your bonus pay is now $0.40.</p>\n            ","response":0,"trial_type":"html-button-response","trial_index":66,"time_elapsed":352860,"internal_node_id":"0.0-4.0-1.29","subject_id":"60c858000992b15e7485e788","study_id":"6197b3f67c2b5cd3b6d9596a","session_id":"6197b9eec389e594bfc2b8bf","condition":"contingent","relevant_dimensions":["antennae","wings"],"bee_group":{"antennae":"B","wings":"2","pattern":"X","legs":"X"},"bonus":0.5600000000000006},{"rt":1614.5,"stimulus":"bees-with-color/bee-B1DM.svg","response":1,"trial_type":"image-button-response","trial_index":67,"time_elapsed":354476,"internal_node_id":"0.0-4.0-0.30","subject_id":"60c858000992b15e7485e788","study_id":"6197b3f67c2b5cd3b6d9596a","session_id":"6197b9eec389e594bfc2b8bf","condition":"contingent","relevant_dimensions":["antennae","wings"],"bee_group":{"antennae":"B","wings":"2","pattern":"X","legs":"X"},"action":"avoid","summary":"bad-avoid","bonus":0.5600000000000006},{"rt":750.2999999821186,"stimulus":"\n                    <p><b>Action: <em>avoid</em></b></p>\n                    <p>This is the bee that you just saw.</p>\n                    <img src=\"bees-with-color/bee-B1DM.svg\" width=\"200\">\n                    <p><br>Your bonus pay is unchanged, and remains at $0.40.</p>\n            ","response":0,"trial_type":"html-button-response","trial_index":68,"time_elapsed":355228,"internal_node_id":"0.0-4.0-1.30","subject_id":"60c858000992b15e7485e788","study_id":"6197b3f67c2b5cd3b6d9596a","session_id":"6197b9eec389e594bfc2b8bf","condition":"contingent","relevant_dimensions":["antennae","wings"],"bee_group":{"antennae":"B","wings":"2","pattern":"X","legs":"X"},"bonus":0.5600000000000006},{"rt":1622.199999988079,"stimulus":"bees-with-color/bee-B2SM.svg","response":0,"trial_type":"image-button-response","trial_index":69,"time_elapsed":356852,"internal_node_id":"0.0-4.0-0.31","subject_id":"60c858000992b15e7485e788","study_id":"6197b3f67c2b5cd3b6d9596a","session_id":"6197b9eec389e594bfc2b8bf","condition":"contingent","relevant_dimensions":["antennae","wings"],"bee_group":{"antennae":"B","wings":"2","pattern":"X","legs":"X"},"action":"harvest","summary":"bad-harvest","bonus":0.5600000000000006},{"rt":1774.7000000178814,"stimulus":"\n                    <p><b>Action: <em>harvest</em></b></p>\n                    <p>This is the bee that you just saw.</p>\n                    <img src=\"bees-with-color/bee-B2SM.svg\" width=\"200\">\n                    <p><span class=\"redText\">Bad choice, the bee was angry.</span><br><b>You have been stung!</b><br>Your pay has been decreased by $0.10. Your bonus pay is now $0.30.</p>\n            ","response":0,"trial_type":"html-button-response","trial_index":70,"time_elapsed":358628,"internal_node_id":"0.0-4.0-1.31","subject_id":"60c858000992b15e7485e788","study_id":"6197b3f67c2b5cd3b6d9596a","session_id":"6197b9eec389e594bfc2b8bf","condition":"contingent","relevant_dimensions":["antennae","wings"],"bee_group":{"antennae":"B","wings":"2","pattern":"X","legs":"X"},"bonus":0.5600000000000006},{"rt":2614.2999999821186,"stimulus":"bees-with-color/bee-B1DM.svg","response":0,"trial_type":"image-button-response","trial_index":71,"time_elapsed":361244,"internal_node_id":"0.0-4.0-0.32","subject_id":"60c858000992b15e7485e788","study_id":"6197b3f67c2b5cd3b6d9596a","session_id":"6197b9eec389e594bfc2b8bf","condition":"contingent","relevant_dimensions":["antennae","wings"],"bee_group":{"antennae":"B","wings":"2","pattern":"X","legs":"X"},"action":"harvest","summary":"good-harvest","bonus":0.5600000000000006},{"rt":982.2999999821186,"stimulus":"\n                    <p><b>Action: <em>harvest</em></b></p>\n                    <p>This is the bee that you just saw.</p>\n                    <img src=\"bees-with-color/bee-B1DM.svg\" width=\"200\">\n                    <p><span class=\"greenText\"><b>Successful harvest!</b></span><br>Your pay has increased by $0.02. Your bonus pay is now $0.32.</p>\n            ","response":0,"trial_type":"html-button-response","trial_index":72,"time_elapsed":362228,"internal_node_id":"0.0-4.0-1.32","subject_id":"60c858000992b15e7485e788","study_id":"6197b3f67c2b5cd3b6d9596a","session_id":"6197b9eec389e594bfc2b8bf","condition":"contingent","relevant_dimensions":["antennae","wings"],"bee_group":{"antennae":"B","wings":"2","pattern":"X","legs":"X"},"bonus":0.5600000000000006},{"rt":1390.2000000178814,"stimulus":"bees-with-color/bee-A1SF.svg","response":0,"trial_type":"image-button-response","trial_index":73,"time_elapsed":363620,"internal_node_id":"0.0-4.0-0.33","subject_id":"60c858000992b15e7485e788","study_id":"6197b3f67c2b5cd3b6d9596a","session_id":"6197b9eec389e594bfc2b8bf","condition":"contingent","relevant_dimensions":["antennae","wings"],"bee_group":{"antennae":"B","wings":"2","pattern":"X","legs":"X"},"action":"harvest","summary":"good-harvest","bonus":0.5600000000000006},{"rt":950.2000000178814,"stimulus":"\n                    <p><b>Action: <em>harvest</em></b></p>\n                    <p>This is the bee that you just saw.</p>\n                    <img src=\"bees-with-color/bee-A1SF.svg\" width=\"200\">\n                    <p><span class=\"greenText\"><b>Successful harvest!</b></span><br>Your pay has increased by $0.02. Your bonus pay is now $0.34.</p>\n            ","response":0,"trial_type":"html-button-response","trial_index":74,"time_elapsed":364572,"internal_node_id":"0.0-4.0-1.33","subject_id":"60c858000992b15e7485e788","study_id":"6197b3f67c2b5cd3b6d9596a","session_id":"6197b9eec389e594bfc2b8bf","condition":"contingent","relevant_dimensions":["antennae","wings"],"bee_group":{"antennae":"B","wings":"2","pattern":"X","legs":"X"},"bonus":0.5600000000000006},{"rt":3878.2999999821186,"stimulus":"bees-with-color/bee-B2SM.svg","response":0,"trial_type":"image-button-response","trial_index":75,"time_elapsed":368452,"internal_node_id":"0.0-4.0-0.34","subject_id":"60c858000992b15e7485e788","study_id":"6197b3f67c2b5cd3b6d9596a","session_id":"6197b9eec389e594bfc2b8bf","condition":"contingent","relevant_dimensions":["antennae","wings"],"bee_group":{"antennae":"B","wings":"2","pattern":"X","legs":"X"},"action":"harvest","summary":"bad-harvest","bonus":0.5600000000000006},{"rt":902.5999999940395,"stimulus":"\n                    <p><b>Action: <em>harvest</em></b></p>\n                    <p>This is the bee that you just saw.</p>\n                    <img src=\"bees-with-color/bee-B2SM.svg\" width=\"200\">\n                    <p><span class=\"redText\">Bad choice, the bee was angry.</span><br><b>You have been stung!</b><br>Your pay has been decreased by $0.10. Your bonus pay is now $0.24.</p>\n            ","response":0,"trial_type":"html-button-response","trial_index":76,"time_elapsed":369356,"internal_node_id":"0.0-4.0-1.34","subject_id":"60c858000992b15e7485e788","study_id":"6197b3f67c2b5cd3b6d9596a","session_id":"6197b9eec389e594bfc2b8bf","condition":"contingent","relevant_dimensions":["antennae","wings"],"bee_group":{"antennae":"B","wings":"2","pattern":"X","legs":"X"},"bonus":0.5600000000000006},{"rt":1870.0999999940395,"stimulus":"bees-with-color/bee-A2SM.svg","response":0,"trial_type":"image-button-response","trial_index":77,"time_elapsed":371228,"internal_node_id":"0.0-4.0-0.35","subject_id":"60c858000992b15e7485e788","study_id":"6197b3f67c2b5cd3b6d9596a","session_id":"6197b9eec389e594bfc2b8bf","condition":"contingent","relevant_dimensions":["antennae","wings"],"bee_group":{"antennae":"B","wings":"2","pattern":"X","legs":"X"},"action":"harvest","summary":"good-harvest","bonus":0.5600000000000006},{"rt":973.8999999761581,"stimulus":"\n                    <p><b>Action: <em>harvest</em></b></p>\n                    <p>This is the bee that you just saw.</p>\n                    <img src=\"bees-with-color/bee-A2SM.svg\" width=\"200\">\n                    <p><span class=\"greenText\"><b>Successful harvest!</b></span><br>Your pay has increased by $0.02. Your bonus pay is now $0.26.</p>\n            ","response":0,"trial_type":"html-button-response","trial_index":78,"time_elapsed":372204,"internal_node_id":"0.0-4.0-1.35","subject_id":"60c858000992b15e7485e788","study_id":"6197b3f67c2b5cd3b6d9596a","session_id":"6197b9eec389e594bfc2b8bf","condition":"contingent","relevant_dimensions":["antennae","wings"],"bee_group":{"antennae":"B","wings":"2","pattern":"X","legs":"X"},"bonus":0.5600000000000006},{"rt":1494.2999999821186,"stimulus":"bees-with-color/bee-A2DF.svg","response":0,"trial_type":"image-button-response","trial_index":79,"time_elapsed":373700,"internal_node_id":"0.0-4.0-0.36","subject_id":"60c858000992b15e7485e788","study_id":"6197b3f67c2b5cd3b6d9596a","session_id":"6197b9eec389e594bfc2b8bf","condition":"contingent","relevant_dimensions":["antennae","wings"],"bee_group":{"antennae":"B","wings":"2","pattern":"X","legs":"X"},"action":"harvest","summary":"good-harvest","bonus":0.5600000000000006},{"rt":734.8000000119209,"stimulus":"\n                    <p><b>Action: <em>harvest</em></b></p>\n                    <p>This is the bee that you just saw.</p>\n                    <img src=\"bees-with-color/bee-A2DF.svg\" width=\"200\">\n                    <p><span class=\"greenText\"><b>Successful harvest!</b></span><br>Your pay has increased by $0.02. Your bonus pay is now $0.28.</p>\n            ","response":0,"trial_type":"html-button-response","trial_index":80,"time_elapsed":374437,"internal_node_id":"0.0-4.0-1.36","subject_id":"60c858000992b15e7485e788","study_id":"6197b3f67c2b5cd3b6d9596a","session_id":"6197b9eec389e594bfc2b8bf","condition":"contingent","relevant_dimensions":["antennae","wings"],"bee_group":{"antennae":"B","wings":"2","pattern":"X","legs":"X"},"bonus":0.5600000000000006},{"rt":2125.4000000059605,"stimulus":"bees-with-color/bee-B2SF.svg","response":0,"trial_type":"image-button-response","trial_index":81,"time_elapsed":376564,"internal_node_id":"0.0-4.0-0.37","subject_id":"60c858000992b15e7485e788","study_id":"6197b3f67c2b5cd3b6d9596a","session_id":"6197b9eec389e594bfc2b8bf","condition":"contingent","relevant_dimensions":["antennae","wings"],"bee_group":{"antennae":"B","wings":"2","pattern":"X","legs":"X"},"action":"harvest","summary":"bad-harvest","bonus":0.5600000000000006},{"rt":677.7999999821186,"stimulus":"\n                    <p><b>Action: <em>harvest</em></b></p>\n                    <p>This is the bee that you just saw.</p>\n                    <img src=\"bees-with-color/bee-B2SF.svg\" width=\"200\">\n                    <p><span class=\"redText\">Bad choice, the bee was angry.</span><br><b>You have been stung!</b><br>Your pay has been decreased by $0.10. Your bonus pay is now $0.18.</p>\n            ","response":0,"trial_type":"html-button-response","trial_index":82,"time_elapsed":377244,"internal_node_id":"0.0-4.0-1.37","subject_id":"60c858000992b15e7485e788","study_id":"6197b3f67c2b5cd3b6d9596a","session_id":"6197b9eec389e594bfc2b8bf","condition":"contingent","relevant_dimensions":["antennae","wings"],"bee_group":{"antennae":"B","wings":"2","pattern":"X","legs":"X"},"bonus":0.5600000000000006},{"rt":1982.300000011921,"stimulus":"bees-with-color/bee-A2SF.svg","response":0,"trial_type":"image-button-response","trial_index":83,"time_elapsed":379228,"internal_node_id":"0.0-4.0-0.38","subject_id":"60c858000992b15e7485e788","study_id":"6197b3f67c2b5cd3b6d9596a","session_id":"6197b9eec389e594bfc2b8bf","condition":"contingent","relevant_dimensions":["antennae","wings"],"bee_group":{"antennae":"B","wings":"2","pattern":"X","legs":"X"},"action":"harvest","summary":"good-harvest","bonus":0.5600000000000006},{"rt":733.8999999761581,"stimulus":"\n                    <p><b>Action: <em>harvest</em></b></p>\n                    <p>This is the bee that you just saw.</p>\n                    <img src=\"bees-with-color/bee-A2SF.svg\" width=\"200\">\n                    <p><span class=\"greenText\"><b>Successful harvest!</b></span><br>Your pay has increased by $0.02. Your bonus pay is now $0.20.</p>\n            ","response":0,"trial_type":"html-button-response","trial_index":84,"time_elapsed":379964,"internal_node_id":"0.0-4.0-1.38","subject_id":"60c858000992b15e7485e788","study_id":"6197b3f67c2b5cd3b6d9596a","session_id":"6197b9eec389e594bfc2b8bf","condition":"contingent","relevant_dimensions":["antennae","wings"],"bee_group":{"antennae":"B","wings":"2","pattern":"X","legs":"X"},"bonus":0.5600000000000006},{"rt":1373.8999999761581,"stimulus":"bees-with-color/bee-B1SF.svg","response":1,"trial_type":"image-button-response","trial_index":85,"time_elapsed":381340,"internal_node_id":"0.0-4.0-0.39","subject_id":"60c858000992b15e7485e788","study_id":"6197b3f67c2b5cd3b6d9596a","session_id":"6197b9eec389e594bfc2b8bf","condition":"contingent","relevant_dimensions":["antennae","wings"],"bee_group":{"antennae":"B","wings":"2","pattern":"X","legs":"X"},"action":"avoid","summary":"bad-avoid","bonus":0.5600000000000006},{"rt":598.2000000178814,"stimulus":"\n                    <p><b>Action: <em>avoid</em></b></p>\n                    <p>This is the bee that you just saw.</p>\n                    <img src=\"bees-with-color/bee-B1SF.svg\" width=\"200\">\n                    <p><br>Your bonus pay is unchanged, and remains at $0.20.</p>\n            ","response":0,"trial_type":"html-button-response","trial_index":86,"time_elapsed":381940,"internal_node_id":"0.0-4.0-1.39","subject_id":"60c858000992b15e7485e788","study_id":"6197b3f67c2b5cd3b6d9596a","session_id":"6197b9eec389e594bfc2b8bf","condition":"contingent","relevant_dimensions":["antennae","wings"],"bee_group":{"antennae":"B","wings":"2","pattern":"X","legs":"X"},"bonus":0.5600000000000006},{"rt":1534.2999999821186,"stimulus":"bees-with-color/bee-B2DM.svg","response":0,"trial_type":"image-button-response","trial_index":87,"time_elapsed":383476,"internal_node_id":"0.0-4.0-0.40","subject_id":"60c858000992b15e7485e788","study_id":"6197b3f67c2b5cd3b6d9596a","session_id":"6197b9eec389e594bfc2b8bf","condition":"contingent","relevant_dimensions":["antennae","wings"],"bee_group":{"antennae":"B","wings":"2","pattern":"X","legs":"X"},"action":"harvest","summary":"bad-harvest","bonus":0.5600000000000006},{"rt":710.1000000238419,"stimulus":"\n                    <p><b>Action: <em>harvest</em></b></p>\n                    <p>This is the bee that you just saw.</p>\n                    <img src=\"bees-with-color/bee-B2DM.svg\" width=\"200\">\n                    <p><span class=\"redText\">Bad choice, the bee was angry.</span><br><b>You have been stung!</b><br>Your pay has been decreased by $0.10. Your bonus pay is now $0.10.</p>\n            ","response":0,"trial_type":"html-button-response","trial_index":88,"time_elapsed":384188,"internal_node_id":"0.0-4.0-1.40","subject_id":"60c858000992b15e7485e788","study_id":"6197b3f67c2b5cd3b6d9596a","session_id":"6197b9eec389e594bfc2b8bf","condition":"contingent","relevant_dimensions":["antennae","wings"],"bee_group":{"antennae":"B","wings":"2","pattern":"X","legs":"X"},"bonus":0.5600000000000006},{"rt":1318.0999999940395,"stimulus":"bees-with-color/bee-A2DM.svg","response":0,"trial_type":"image-button-response","trial_index":89,"time_elapsed":385508,"internal_node_id":"0.0-4.0-0.41","subject_id":"60c858000992b15e7485e788","study_id":"6197b3f67c2b5cd3b6d9596a","session_id":"6197b9eec389e594bfc2b8bf","condition":"contingent","relevant_dimensions":["antennae","wings"],"bee_group":{"antennae":"B","wings":"2","pattern":"X","legs":"X"},"action":"harvest","summary":"good-harvest","bonus":0.5600000000000006},{"rt":606.2000000178814,"stimulus":"\n                    <p><b>Action: <em>harvest</em></b></p>\n                    <p>This is the bee that you just saw.</p>\n                    <img src=\"bees-with-color/bee-A2DM.svg\" width=\"200\">\n                    <p><span class=\"greenText\"><b>Successful harvest!</b></span><br>Your pay has increased by $0.02. Your bonus pay is now $0.12.</p>\n            ","response":0,"trial_type":"html-button-response","trial_index":90,"time_elapsed":386116,"internal_node_id":"0.0-4.0-1.41","subject_id":"60c858000992b15e7485e788","study_id":"6197b3f67c2b5cd3b6d9596a","session_id":"6197b9eec389e594bfc2b8bf","condition":"contingent","relevant_dimensions":["antennae","wings"],"bee_group":{"antennae":"B","wings":"2","pattern":"X","legs":"X"},"bonus":0.5600000000000006},{"rt":1014.5,"stimulus":"bees-with-color/bee-A1SM.svg","response":0,"trial_type":"image-button-response","trial_index":91,"time_elapsed":387132,"internal_node_id":"0.0-4.0-0.42","subject_id":"60c858000992b15e7485e788","study_id":"6197b3f67c2b5cd3b6d9596a","session_id":"6197b9eec389e594bfc2b8bf","condition":"contingent","relevant_dimensions":["antennae","wings"],"bee_group":{"antennae":"B","wings":"2","pattern":"X","legs":"X"},"action":"harvest","summary":"good-harvest","bonus":0.5600000000000006},{"rt":542.6000000238419,"stimulus":"\n                    <p><b>Action: <em>harvest</em></b></p>\n                    <p>This is the bee that you just saw.</p>\n                    <img src=\"bees-with-color/bee-A1SM.svg\" width=\"200\">\n                    <p><span class=\"greenText\"><b>Successful harvest!</b></span><br>Your pay has increased by $0.02. Your bonus pay is now $0.14.</p>\n            ","response":0,"trial_type":"html-button-response","trial_index":92,"time_elapsed":387676,"internal_node_id":"0.0-4.0-1.42","subject_id":"60c858000992b15e7485e788","study_id":"6197b3f67c2b5cd3b6d9596a","session_id":"6197b9eec389e594bfc2b8bf","condition":"contingent","relevant_dimensions":["antennae","wings"],"bee_group":{"antennae":"B","wings":"2","pattern":"X","legs":"X"},"bonus":0.5600000000000006},{"rt":1014.6999999880791,"stimulus":"bees-with-color/bee-B2DF.svg","response":1,"trial_type":"image-button-response","trial_index":93,"time_elapsed":388692,"internal_node_id":"0.0-4.0-0.43","subject_id":"60c858000992b15e7485e788","study_id":"6197b3f67c2b5cd3b6d9596a","session_id":"6197b9eec389e594bfc2b8bf","condition":"contingent","relevant_dimensions":["antennae","wings"],"bee_group":{"antennae":"B","wings":"2","pattern":"X","legs":"X"},"action":"avoid","summary":"good-avoid","bonus":0.5600000000000006},{"rt":622.5999999940395,"stimulus":"\n                    <p><b>Action: <em>avoid</em></b></p>\n                    <p>This is the bee that you just saw.</p>\n                    <img src=\"bees-with-color/bee-B2DF.svg\" width=\"200\">\n                    <p><br>Your bonus pay is unchanged, and remains at $0.14.</p>\n            ","response":0,"trial_type":"html-button-response","trial_index":94,"time_elapsed":389316,"internal_node_id":"0.0-4.0-1.43","subject_id":"60c858000992b15e7485e788","study_id":"6197b3f67c2b5cd3b6d9596a","session_id":"6197b9eec389e594bfc2b8bf","condition":"contingent","relevant_dimensions":["antennae","wings"],"bee_group":{"antennae":"B","wings":"2","pattern":"X","legs":"X"},"bonus":0.5600000000000006},{"rt":990.6999999880791,"stimulus":"bees-with-color/bee-A1DM.svg","response":0,"trial_type":"image-button-response","trial_index":95,"time_elapsed":390308,"internal_node_id":"0.0-4.0-0.44","subject_id":"60c858000992b15e7485e788","study_id":"6197b3f67c2b5cd3b6d9596a","session_id":"6197b9eec389e594bfc2b8bf","condition":"contingent","relevant_dimensions":["antennae","wings"],"bee_group":{"antennae":"B","wings":"2","pattern":"X","legs":"X"},"action":"harvest","summary":"good-harvest","bonus":0.5600000000000006},{"rt":598.6000000238419,"stimulus":"\n                    <p><b>Action: <em>harvest</em></b></p>\n                    <p>This is the bee that you just saw.</p>\n                    <img src=\"bees-with-color/bee-A1DM.svg\" width=\"200\">\n                    <p><span class=\"greenText\"><b>Successful harvest!</b></span><br>Your pay has increased by $0.02. Your bonus pay is now $0.16.</p>\n            ","response":0,"trial_type":"html-button-response","trial_index":96,"time_elapsed":390908,"internal_node_id":"0.0-4.0-1.44","subject_id":"60c858000992b15e7485e788","study_id":"6197b3f67c2b5cd3b6d9596a","session_id":"6197b9eec389e594bfc2b8bf","condition":"contingent","relevant_dimensions":["antennae","wings"],"bee_group":{"antennae":"B","wings":"2","pattern":"X","legs":"X"},"bonus":0.5600000000000006},{"rt":1382.5,"stimulus":"bees-with-color/bee-A1DF.svg","response":0,"trial_type":"image-button-response","trial_index":97,"time_elapsed":392292,"internal_node_id":"0.0-4.0-0.45","subject_id":"60c858000992b15e7485e788","study_id":"6197b3f67c2b5cd3b6d9596a","session_id":"6197b9eec389e594bfc2b8bf","condition":"contingent","relevant_dimensions":["antennae","wings"],"bee_group":{"antennae":"B","wings":"2","pattern":"X","legs":"X"},"action":"harvest","summary":"good-harvest","bonus":0.5600000000000006},{"rt":710.3999999761581,"stimulus":"\n                    <p><b>Action: <em>harvest</em></b></p>\n                    <p>This is the bee that you just saw.</p>\n                    <img src=\"bees-with-color/bee-A1DF.svg\" width=\"200\">\n                    <p><span class=\"greenText\"><b>Successful harvest!</b></span><br>Your pay has increased by $0.02. Your bonus pay is now $0.18.</p>\n            ","response":0,"trial_type":"html-button-response","trial_index":98,"time_elapsed":393004,"internal_node_id":"0.0-4.0-1.45","subject_id":"60c858000992b15e7485e788","study_id":"6197b3f67c2b5cd3b6d9596a","session_id":"6197b9eec389e594bfc2b8bf","condition":"contingent","relevant_dimensions":["antennae","wings"],"bee_group":{"antennae":"B","wings":"2","pattern":"X","legs":"X"},"bonus":0.5600000000000006},{"rt":862.7000000178814,"stimulus":"bees-with-color/bee-B1SM.svg","response":1,"trial_type":"image-button-response","trial_index":99,"time_elapsed":393868,"internal_node_id":"0.0-4.0-0.46","subject_id":"60c858000992b15e7485e788","study_id":"6197b3f67c2b5cd3b6d9596a","session_id":"6197b9eec389e594bfc2b8bf","condition":"contingent","relevant_dimensions":["antennae","wings"],"bee_group":{"antennae":"B","wings":"2","pattern":"X","legs":"X"},"action":"avoid","summary":"bad-avoid","bonus":0.5600000000000006},{"rt":598.5999999940395,"stimulus":"\n                    <p><b>Action: <em>avoid</em></b></p>\n                    <p>This is the bee that you just saw.</p>\n                    <img src=\"bees-with-color/bee-B1SM.svg\" width=\"200\">\n                    <p><br>Your bonus pay is unchanged, and remains at $0.18.</p>\n            ","response":0,"trial_type":"html-button-response","trial_index":100,"time_elapsed":394468,"internal_node_id":"0.0-4.0-1.46","subject_id":"60c858000992b15e7485e788","study_id":"6197b3f67c2b5cd3b6d9596a","session_id":"6197b9eec389e594bfc2b8bf","condition":"contingent","relevant_dimensions":["antennae","wings"],"bee_group":{"antennae":"B","wings":"2","pattern":"X","legs":"X"},"bonus":0.5600000000000006},{"rt":1430.4000000059605,"stimulus":"bees-with-color/bee-B1DF.svg","response":1,"trial_type":"image-button-response","trial_index":101,"time_elapsed":395900,"internal_node_id":"0.0-4.0-0.47","subject_id":"60c858000992b15e7485e788","study_id":"6197b3f67c2b5cd3b6d9596a","session_id":"6197b9eec389e594bfc2b8bf","condition":"contingent","relevant_dimensions":["antennae","wings"],"bee_group":{"antennae":"B","wings":"2","pattern":"X","legs":"X"},"action":"avoid","summary":"bad-avoid","bonus":0.5600000000000006},{"rt":462.7999999821186,"stimulus":"\n                    <p><b>Action: <em>avoid</em></b></p>\n                    <p>This is the bee that you just saw.</p>\n                    <img src=\"bees-with-color/bee-B1DF.svg\" width=\"200\">\n                    <p><br>Your bonus pay is unchanged, and remains at $0.18.</p>\n            ","response":0,"trial_type":"html-button-response","trial_index":102,"time_elapsed":396364,"internal_node_id":"0.0-4.0-1.47","subject_id":"60c858000992b15e7485e788","study_id":"6197b3f67c2b5cd3b6d9596a","session_id":"6197b9eec389e594bfc2b8bf","condition":"contingent","relevant_dimensions":["antennae","wings"],"bee_group":{"antennae":"B","wings":"2","pattern":"X","legs":"X"},"bonus":0.5600000000000006},{"rt":1478.0999999940395,"stimulus":"bees-with-color/bee-A2DF.svg","response":0,"trial_type":"image-button-response","trial_index":103,"time_elapsed":397844,"internal_node_id":"0.0-4.0-0.48","subject_id":"60c858000992b15e7485e788","study_id":"6197b3f67c2b5cd3b6d9596a","session_id":"6197b9eec389e594bfc2b8bf","condition":"contingent","relevant_dimensions":["antennae","wings"],"bee_group":{"antennae":"B","wings":"2","pattern":"X","legs":"X"},"action":"harvest","summary":"good-harvest","bonus":0.5600000000000006},{"rt":574.6000000238419,"stimulus":"\n                    <p><b>Action: <em>harvest</em></b></p>\n                    <p>This is the bee that you just saw.</p>\n                    <img src=\"bees-with-color/bee-A2DF.svg\" width=\"200\">\n                    <p><span class=\"greenText\"><b>Successful harvest!</b></span><br>Your pay has increased by $0.02. Your bonus pay is now $0.20.</p>\n            ","response":0,"trial_type":"html-button-response","trial_index":104,"time_elapsed":398420,"internal_node_id":"0.0-4.0-1.48","subject_id":"60c858000992b15e7485e788","study_id":"6197b3f67c2b5cd3b6d9596a","session_id":"6197b9eec389e594bfc2b8bf","condition":"contingent","relevant_dimensions":["antennae","wings"],"bee_group":{"antennae":"B","wings":"2","pattern":"X","legs":"X"},"bonus":0.5600000000000006},{"rt":1062.6000000238419,"stimulus":"bees-with-color/bee-B2DM.svg","response":1,"trial_type":"image-button-response","trial_index":105,"time_elapsed":399484,"internal_node_id":"0.0-4.0-0.49","subject_id":"60c858000992b15e7485e788","study_id":"6197b3f67c2b5cd3b6d9596a","session_id":"6197b9eec389e594bfc2b8bf","condition":"contingent","relevant_dimensions":["antennae","wings"],"bee_group":{"antennae":"B","wings":"2","pattern":"X","legs":"X"},"action":"avoid","summary":"good-avoid","bonus":0.5600000000000006},{"rt":974.2999999821186,"stimulus":"\n                    <p><b>Action: <em>avoid</em></b></p>\n                    <p>This is the bee that you just saw.</p>\n                    <img src=\"bees-with-color/bee-B2DM.svg\" width=\"200\">\n                    <p><br>Your bonus pay is unchanged, and remains at $0.20.</p>\n            ","response":0,"trial_type":"html-button-response","trial_index":106,"time_elapsed":400460,"internal_node_id":"0.0-4.0-1.49","subject_id":"60c858000992b15e7485e788","study_id":"6197b3f67c2b5cd3b6d9596a","session_id":"6197b9eec389e594bfc2b8bf","condition":"contingent","relevant_dimensions":["antennae","wings"],"bee_group":{"antennae":"B","wings":"2","pattern":"X","legs":"X"},"bonus":0.5600000000000006},{"rt":1558.5,"stimulus":"bees-with-color/bee-B1SM.svg","response":1,"trial_type":"image-button-response","trial_index":107,"time_elapsed":402020,"internal_node_id":"0.0-4.0-0.50","subject_id":"60c858000992b15e7485e788","study_id":"6197b3f67c2b5cd3b6d9596a","session_id":"6197b9eec389e594bfc2b8bf","condition":"contingent","relevant_dimensions":["antennae","wings"],"bee_group":{"antennae":"B","wings":"2","pattern":"X","legs":"X"},"action":"avoid","summary":"bad-avoid","bonus":0.5600000000000006},{"rt":422.2999999821186,"stimulus":"\n                    <p><b>Action: <em>avoid</em></b></p>\n                    <p>This is the bee that you just saw.</p>\n                    <img src=\"bees-with-color/bee-B1SM.svg\" width=\"200\">\n                    <p><br>Your bonus pay is unchanged, and remains at $0.20.</p>\n            ","response":0,"trial_type":"html-button-response","trial_index":108,"time_elapsed":402444,"internal_node_id":"0.0-4.0-1.50","subject_id":"60c858000992b15e7485e788","study_id":"6197b3f67c2b5cd3b6d9596a","session_id":"6197b9eec389e594bfc2b8bf","condition":"contingent","relevant_dimensions":["antennae","wings"],"bee_group":{"antennae":"B","wings":"2","pattern":"X","legs":"X"},"bonus":0.5600000000000006},{"rt":1350.5,"stimulus":"bees-with-color/bee-A2SF.svg","response":0,"trial_type":"image-button-response","trial_index":109,"time_elapsed":403796,"internal_node_id":"0.0-4.0-0.51","subject_id":"60c858000992b15e7485e788","study_id":"6197b3f67c2b5cd3b6d9596a","session_id":"6197b9eec389e594bfc2b8bf","condition":"contingent","relevant_dimensions":["antennae","wings"],"bee_group":{"antennae":"B","wings":"2","pattern":"X","legs":"X"},"action":"harvest","summary":"good-harvest","bonus":0.5600000000000006},{"rt":542,"stimulus":"\n                    <p><b>Action: <em>harvest</em></b></p>\n                    <p>This is the bee that you just saw.</p>\n                    <img src=\"bees-with-color/bee-A2SF.svg\" width=\"200\">\n                    <p><span class=\"greenText\"><b>Successful harvest!</b></span><br>Your pay has increased by $0.02. Your bonus pay is now $0.22.</p>\n            ","response":0,"trial_type":"html-button-response","trial_index":110,"time_elapsed":404340,"internal_node_id":"0.0-4.0-1.51","subject_id":"60c858000992b15e7485e788","study_id":"6197b3f67c2b5cd3b6d9596a","session_id":"6197b9eec389e594bfc2b8bf","condition":"contingent","relevant_dimensions":["antennae","wings"],"bee_group":{"antennae":"B","wings":"2","pattern":"X","legs":"X"},"bonus":0.5600000000000006},{"rt":966.5,"stimulus":"bees-with-color/bee-B1DM.svg","response":1,"trial_type":"image-button-response","trial_index":111,"time_elapsed":405308,"internal_node_id":"0.0-4.0-0.52","subject_id":"60c858000992b15e7485e788","study_id":"6197b3f67c2b5cd3b6d9596a","session_id":"6197b9eec389e594bfc2b8bf","condition":"contingent","relevant_dimensions":["antennae","wings"],"bee_group":{"antennae":"B","wings":"2","pattern":"X","legs":"X"},"action":"avoid","summary":"bad-avoid","bonus":0.5600000000000006},{"rt":462.2999999821186,"stimulus":"\n                    <p><b>Action: <em>avoid</em></b></p>\n                    <p>This is the bee that you just saw.</p>\n                    <img src=\"bees-with-color/bee-B1DM.svg\" width=\"200\">\n                    <p><br>Your bonus pay is unchanged, and remains at $0.22.</p>\n            ","response":0,"trial_type":"html-button-response","trial_index":112,"time_elapsed":405772,"internal_node_id":"0.0-4.0-1.52","subject_id":"60c858000992b15e7485e788","study_id":"6197b3f67c2b5cd3b6d9596a","session_id":"6197b9eec389e594bfc2b8bf","condition":"contingent","relevant_dimensions":["antennae","wings"],"bee_group":{"antennae":"B","wings":"2","pattern":"X","legs":"X"},"bonus":0.5600000000000006},{"rt":1334.7000000178814,"stimulus":"bees-with-color/bee-B2SF.svg","response":0,"trial_type":"image-button-response","trial_index":113,"time_elapsed":407108,"internal_node_id":"0.0-4.0-0.53","subject_id":"60c858000992b15e7485e788","study_id":"6197b3f67c2b5cd3b6d9596a","session_id":"6197b9eec389e594bfc2b8bf","condition":"contingent","relevant_dimensions":["antennae","wings"],"bee_group":{"antennae":"B","wings":"2","pattern":"X","legs":"X"},"action":"harvest","summary":"bad-harvest","bonus":0.5600000000000006},{"rt":862.2999999821186,"stimulus":"\n                    <p><b>Action: <em>harvest</em></b></p>\n                    <p>This is the bee that you just saw.</p>\n                    <img src=\"bees-with-color/bee-B2SF.svg\" width=\"200\">\n                    <p><span class=\"redText\">Bad choice, the bee was angry.</span><br><b>You have been stung!</b><br>Your pay has been decreased by $0.10. Your bonus pay is now $0.12.</p>\n            ","response":0,"trial_type":"html-button-response","trial_index":114,"time_elapsed":407972,"internal_node_id":"0.0-4.0-1.53","subject_id":"60c858000992b15e7485e788","study_id":"6197b3f67c2b5cd3b6d9596a","session_id":"6197b9eec389e594bfc2b8bf","condition":"contingent","relevant_dimensions":["antennae","wings"],"bee_group":{"antennae":"B","wings":"2","pattern":"X","legs":"X"},"bonus":0.5600000000000006},{"rt":5158.600000023842,"stimulus":"bees-with-color/bee-A2DM.svg","response":0,"trial_type":"image-button-response","trial_index":115,"time_elapsed":413132,"internal_node_id":"0.0-4.0-0.54","subject_id":"60c858000992b15e7485e788","study_id":"6197b3f67c2b5cd3b6d9596a","session_id":"6197b9eec389e594bfc2b8bf","condition":"contingent","relevant_dimensions":["antennae","wings"],"bee_group":{"antennae":"B","wings":"2","pattern":"X","legs":"X"},"action":"harvest","summary":"good-harvest","bonus":0.5600000000000006},{"rt":454.19999998807907,"stimulus":"\n                    <p><b>Action: <em>harvest</em></b></p>\n                    <p>This is the bee that you just saw.</p>\n                    <img src=\"bees-with-color/bee-A2DM.svg\" width=\"200\">\n                    <p><span class=\"greenText\"><b>Successful harvest!</b></span><br>Your pay has increased by $0.02. Your bonus pay is now $0.14.</p>\n            ","response":0,"trial_type":"html-button-response","trial_index":116,"time_elapsed":413588,"internal_node_id":"0.0-4.0-1.54","subject_id":"60c858000992b15e7485e788","study_id":"6197b3f67c2b5cd3b6d9596a","session_id":"6197b9eec389e594bfc2b8bf","condition":"contingent","relevant_dimensions":["antennae","wings"],"bee_group":{"antennae":"B","wings":"2","pattern":"X","legs":"X"},"bonus":0.5600000000000006},{"rt":1078.0999999940395,"stimulus":"bees-with-color/bee-B1DF.svg","response":1,"trial_type":"image-button-response","trial_index":117,"time_elapsed":414668,"internal_node_id":"0.0-4.0-0.55","subject_id":"60c858000992b15e7485e788","study_id":"6197b3f67c2b5cd3b6d9596a","session_id":"6197b9eec389e594bfc2b8bf","condition":"contingent","relevant_dimensions":["antennae","wings"],"bee_group":{"antennae":"B","wings":"2","pattern":"X","legs":"X"},"action":"avoid","summary":"bad-avoid","bonus":0.5600000000000006},{"rt":422.09999999403954,"stimulus":"\n                    <p><b>Action: <em>avoid</em></b></p>\n                    <p>This is the bee that you just saw.</p>\n                    <img src=\"bees-with-color/bee-B1DF.svg\" width=\"200\">\n                    <p><br>Your bonus pay is unchanged, and remains at $0.14.</p>\n            ","response":0,"trial_type":"html-button-response","trial_index":118,"time_elapsed":415092,"internal_node_id":"0.0-4.0-1.55","subject_id":"60c858000992b15e7485e788","study_id":"6197b3f67c2b5cd3b6d9596a","session_id":"6197b9eec389e594bfc2b8bf","condition":"contingent","relevant_dimensions":["antennae","wings"],"bee_group":{"antennae":"B","wings":"2","pattern":"X","legs":"X"},"bonus":0.5600000000000006},{"rt":1310.3999999761581,"stimulus":"bees-with-color/bee-A1SM.svg","response":0,"trial_type":"image-button-response","trial_index":119,"time_elapsed":416404,"internal_node_id":"0.0-4.0-0.56","subject_id":"60c858000992b15e7485e788","study_id":"6197b3f67c2b5cd3b6d9596a","session_id":"6197b9eec389e594bfc2b8bf","condition":"contingent","relevant_dimensions":["antennae","wings"],"bee_group":{"antennae":"B","wings":"2","pattern":"X","legs":"X"},"action":"harvest","summary":"good-harvest","bonus":0.5600000000000006},{"rt":438.19999998807907,"stimulus":"\n                    <p><b>Action: <em>harvest</em></b></p>\n                    <p>This is the bee that you just saw.</p>\n                    <img src=\"bees-with-color/bee-A1SM.svg\" width=\"200\">\n                    <p><span class=\"greenText\"><b>Successful harvest!</b></span><br>Your pay has increased by $0.02. Your bonus pay is now $0.16.</p>\n            ","response":0,"trial_type":"html-button-response","trial_index":120,"time_elapsed":416844,"internal_node_id":"0.0-4.0-1.56","subject_id":"60c858000992b15e7485e788","study_id":"6197b3f67c2b5cd3b6d9596a","session_id":"6197b9eec389e594bfc2b8bf","condition":"contingent","relevant_dimensions":["antennae","wings"],"bee_group":{"antennae":"B","wings":"2","pattern":"X","legs":"X"},"bonus":0.5600000000000006},{"rt":966.2000000178814,"stimulus":"bees-with-color/bee-A1SF.svg","response":0,"trial_type":"image-button-response","trial_index":121,"time_elapsed":417812,"internal_node_id":"0.0-4.0-0.57","subject_id":"60c858000992b15e7485e788","study_id":"6197b3f67c2b5cd3b6d9596a","session_id":"6197b9eec389e594bfc2b8bf","condition":"contingent","relevant_dimensions":["antennae","wings"],"bee_group":{"antennae":"B","wings":"2","pattern":"X","legs":"X"},"action":"harvest","summary":"good-harvest","bonus":0.5600000000000006},{"rt":533.5999999940395,"stimulus":"\n                    <p><b>Action: <em>harvest</em></b></p>\n                    <p>This is the bee that you just saw.</p>\n                    <img src=\"bees-with-color/bee-A1SF.svg\" width=\"200\">\n                    <p><span class=\"greenText\"><b>Successful harvest!</b></span><br>Your pay has increased by $0.02. Your bonus pay is now $0.18.</p>\n            ","response":0,"trial_type":"html-button-response","trial_index":122,"time_elapsed":418348,"internal_node_id":"0.0-4.0-1.57","subject_id":"60c858000992b15e7485e788","study_id":"6197b3f67c2b5cd3b6d9596a","session_id":"6197b9eec389e594bfc2b8bf","condition":"contingent","relevant_dimensions":["antennae","wings"],"bee_group":{"antennae":"B","wings":"2","pattern":"X","legs":"X"},"bonus":0.5600000000000006},{"rt":814.3000000119209,"stimulus":"bees-with-color/bee-B1SF.svg","response":1,"trial_type":"image-button-response","trial_index":123,"time_elapsed":419164,"internal_node_id":"0.0-4.0-0.58","subject_id":"60c858000992b15e7485e788","study_id":"6197b3f67c2b5cd3b6d9596a","session_id":"6197b9eec389e594bfc2b8bf","condition":"contingent","relevant_dimensions":["antennae","wings"],"bee_group":{"antennae":"B","wings":"2","pattern":"X","legs":"X"},"action":"avoid","summary":"bad-avoid","bonus":0.5600000000000006},{"rt":502.19999998807907,"stimulus":"\n                    <p><b>Action: <em>avoid</em></b></p>\n                    <p>This is the bee that you just saw.</p>\n                    <img src=\"bees-with-color/bee-B1SF.svg\" width=\"200\">\n                    <p><br>Your bonus pay is unchanged, and remains at $0.18.</p>\n            ","response":0,"trial_type":"html-button-response","trial_index":124,"time_elapsed":419668,"internal_node_id":"0.0-4.0-1.58","subject_id":"60c858000992b15e7485e788","study_id":"6197b3f67c2b5cd3b6d9596a","session_id":"6197b9eec389e594bfc2b8bf","condition":"contingent","relevant_dimensions":["antennae","wings"],"bee_group":{"antennae":"B","wings":"2","pattern":"X","legs":"X"},"bonus":0.5600000000000006},{"rt":1214.5,"stimulus":"bees-with-color/bee-B2SM.svg","response":1,"trial_type":"image-button-response","trial_index":125,"time_elapsed":420884,"internal_node_id":"0.0-4.0-0.59","subject_id":"60c858000992b15e7485e788","study_id":"6197b3f67c2b5cd3b6d9596a","session_id":"6197b9eec389e594bfc2b8bf","condition":"contingent","relevant_dimensions":["antennae","wings"],"bee_group":{"antennae":"B","wings":"2","pattern":"X","legs":"X"},"action":"avoid","summary":"good-avoid","bonus":0.5600000000000006},{"rt":382.2000000178814,"stimulus":"\n                    <p><b>Action: <em>avoid</em></b></p>\n                    <p>This is the bee that you just saw.</p>\n                    <img src=\"bees-with-color/bee-B2SM.svg\" width=\"200\">\n                    <p><br>Your bonus pay is unchanged, and remains at $0.18.</p>\n            ","response":0,"trial_type":"html-button-response","trial_index":126,"time_elapsed":421268,"internal_node_id":"0.0-4.0-1.59","subject_id":"60c858000992b15e7485e788","study_id":"6197b3f67c2b5cd3b6d9596a","session_id":"6197b9eec389e594bfc2b8bf","condition":"contingent","relevant_dimensions":["antennae","wings"],"bee_group":{"antennae":"B","wings":"2","pattern":"X","legs":"X"},"bonus":0.5600000000000006},{"rt":750.5,"stimulus":"bees-with-color/bee-A1DM.svg","response":0,"trial_type":"image-button-response","trial_index":127,"time_elapsed":422020,"internal_node_id":"0.0-4.0-0.60","subject_id":"60c858000992b15e7485e788","study_id":"6197b3f67c2b5cd3b6d9596a","session_id":"6197b9eec389e594bfc2b8bf","condition":"contingent","relevant_dimensions":["antennae","wings"],"bee_group":{"antennae":"B","wings":"2","pattern":"X","legs":"X"},"action":"harvest","summary":"good-harvest","bonus":0.5600000000000006},{"rt":438,"stimulus":"\n                    <p><b>Action: <em>harvest</em></b></p>\n                    <p>This is the bee that you just saw.</p>\n                    <img src=\"bees-with-color/bee-A1DM.svg\" width=\"200\">\n                    <p><span class=\"greenText\"><b>Successful harvest!</b></span><br>Your pay has increased by $0.02. Your bonus pay is now $0.20.</p>\n            ","response":0,"trial_type":"html-button-response","trial_index":128,"time_elapsed":422460,"internal_node_id":"0.0-4.0-1.60","subject_id":"60c858000992b15e7485e788","study_id":"6197b3f67c2b5cd3b6d9596a","session_id":"6197b9eec389e594bfc2b8bf","condition":"contingent","relevant_dimensions":["antennae","wings"],"bee_group":{"antennae":"B","wings":"2","pattern":"X","legs":"X"},"bonus":0.5600000000000006},{"rt":1237.5999999940395,"stimulus":"bees-with-color/bee-A2SM.svg","response":0,"trial_type":"image-button-response","trial_index":129,"time_elapsed":423700,"internal_node_id":"0.0-4.0-0.61","subject_id":"60c858000992b15e7485e788","study_id":"6197b3f67c2b5cd3b6d9596a","session_id":"6197b9eec389e594bfc2b8bf","condition":"contingent","relevant_dimensions":["antennae","wings"],"bee_group":{"antennae":"B","wings":"2","pattern":"X","legs":"X"},"action":"harvest","summary":"good-harvest","bonus":0.5600000000000006},{"rt":390.2000000178814,"stimulus":"\n                    <p><b>Action: <em>harvest</em></b></p>\n                    <p>This is the bee that you just saw.</p>\n                    <img src=\"bees-with-color/bee-A2SM.svg\" width=\"200\">\n                    <p><span class=\"greenText\"><b>Successful harvest!</b></span><br>Your pay has increased by $0.02. Your bonus pay is now $0.22.</p>\n            ","response":0,"trial_type":"html-button-response","trial_index":130,"time_elapsed":424092,"internal_node_id":"0.0-4.0-1.61","subject_id":"60c858000992b15e7485e788","study_id":"6197b3f67c2b5cd3b6d9596a","session_id":"6197b9eec389e594bfc2b8bf","condition":"contingent","relevant_dimensions":["antennae","wings"],"bee_group":{"antennae":"B","wings":"2","pattern":"X","legs":"X"},"bonus":0.5600000000000006},{"rt":846.7999999821186,"stimulus":"bees-with-color/bee-B2DF.svg","response":1,"trial_type":"image-button-response","trial_index":131,"time_elapsed":424940,"internal_node_id":"0.0-4.0-0.62","subject_id":"60c858000992b15e7485e788","study_id":"6197b3f67c2b5cd3b6d9596a","session_id":"6197b9eec389e594bfc2b8bf","condition":"contingent","relevant_dimensions":["antennae","wings"],"bee_group":{"antennae":"B","wings":"2","pattern":"X","legs":"X"},"action":"avoid","summary":"good-avoid","bonus":0.5600000000000006},{"rt":382.09999999403954,"stimulus":"\n                    <p><b>Action: <em>avoid</em></b></p>\n                    <p>This is the bee that you just saw.</p>\n                    <img src=\"bees-with-color/bee-B2DF.svg\" width=\"200\">\n                    <p><br>Your bonus pay is unchanged, and remains at $0.22.</p>\n            ","response":0,"trial_type":"html-button-response","trial_index":132,"time_elapsed":425324,"internal_node_id":"0.0-4.0-1.62","subject_id":"60c858000992b15e7485e788","study_id":"6197b3f67c2b5cd3b6d9596a","session_id":"6197b9eec389e594bfc2b8bf","condition":"contingent","relevant_dimensions":["antennae","wings"],"bee_group":{"antennae":"B","wings":"2","pattern":"X","legs":"X"},"bonus":0.5600000000000006},{"rt":1494.699999988079,"stimulus":"bees-with-color/bee-A1DF.svg","response":0,"trial_type":"image-button-response","trial_index":133,"time_elapsed":426820,"internal_node_id":"0.0-4.0-0.63","subject_id":"60c858000992b15e7485e788","study_id":"6197b3f67c2b5cd3b6d9596a","session_id":"6197b9eec389e594bfc2b8bf","condition":"contingent","relevant_dimensions":["antennae","wings"],"bee_group":{"antennae":"B","wings":"2","pattern":"X","legs":"X"},"action":"harvest","summary":"good-harvest","bonus":0.5600000000000006},{"rt":398.80000001192093,"stimulus":"\n                    <p><b>Action: <em>harvest</em></b></p>\n                    <p>This is the bee that you just saw.</p>\n                    <img src=\"bees-with-color/bee-A1DF.svg\" width=\"200\">\n                    <p><span class=\"greenText\"><b>Successful harvest!</b></span><br>Your pay has increased by $0.02. Your bonus pay is now $0.24.</p>\n            ","response":0,"trial_type":"html-button-response","trial_index":134,"time_elapsed":427220,"internal_node_id":"0.0-4.0-1.63","subject_id":"60c858000992b15e7485e788","study_id":"6197b3f67c2b5cd3b6d9596a","session_id":"6197b9eec389e594bfc2b8bf","condition":"contingent","relevant_dimensions":["antennae","wings"],"bee_group":{"antennae":"B","wings":"2","pattern":"X","legs":"X"},"bonus":0.5600000000000006},{"rt":6010.299999982119,"stimulus":"You have completed the first part of this experiment.<br><br>You will now begin a shorter second part, in which you will receive no feedback.<br>The same rules regarding bonus pay apply.<br><br>Press any key to begin.","response":" ","trial_type":"html-keyboard-response","trial_index":135,"time_elapsed":433232,"internal_node_id":"0.0-5.0","subject_id":"60c858000992b15e7485e788","study_id":"6197b3f67c2b5cd3b6d9596a","session_id":"6197b9eec389e594bfc2b8bf","condition":"contingent","relevant_dimensions":["antennae","wings"],"bee_group":{"antennae":"B","wings":"2","pattern":"X","legs":"X"},"bonus":0.5600000000000006},{"rt":1486.5,"stimulus":"bees-with-color/bee-B1SM.svg","response":1,"trial_type":"image-button-response","trial_index":136,"time_elapsed":434740,"internal_node_id":"0.0-6.0-0.0","subject_id":"60c858000992b15e7485e788","study_id":"6197b3f67c2b5cd3b6d9596a","session_id":"6197b9eec389e594bfc2b8bf","condition":"contingent","relevant_dimensions":["antennae","wings"],"bee_group":{"antennae":"B","wings":"2","pattern":"X","legs":"X"},"bonus":0.5600000000000006},{"rt":2565.899999976158,"stimulus":"bees-with-color/bee-B2SF.svg","response":1,"trial_type":"image-button-response","trial_index":137,"time_elapsed":437308,"internal_node_id":"0.0-6.0-0.1","subject_id":"60c858000992b15e7485e788","study_id":"6197b3f67c2b5cd3b6d9596a","session_id":"6197b9eec389e594bfc2b8bf","condition":"contingent","relevant_dimensions":["antennae","wings"],"bee_group":{"antennae":"B","wings":"2","pattern":"X","legs":"X"},"bonus":0.5600000000000006},{"rt":829.4000000059605,"stimulus":"bees-with-color/bee-A2DF.svg","response":0,"trial_type":"image-button-response","trial_index":138,"time_elapsed":438140,"internal_node_id":"0.0-6.0-0.2","subject_id":"60c858000992b15e7485e788","study_id":"6197b3f67c2b5cd3b6d9596a","session_id":"6197b9eec389e594bfc2b8bf","condition":"contingent","relevant_dimensions":["antennae","wings"],"bee_group":{"antennae":"B","wings":"2","pattern":"X","legs":"X"},"bonus":0.5600000000000006},{"rt":998,"stimulus":"bees-with-color/bee-B2SM.svg","response":1,"trial_type":"image-button-response","trial_index":139,"time_elapsed":439140,"internal_node_id":"0.0-6.0-0.3","subject_id":"60c858000992b15e7485e788","study_id":"6197b3f67c2b5cd3b6d9596a","session_id":"6197b9eec389e594bfc2b8bf","condition":"contingent","relevant_dimensions":["antennae","wings"],"bee_group":{"antennae":"B","wings":"2","pattern":"X","legs":"X"},"bonus":0.5600000000000006},{"rt":1277.4000000059605,"stimulus":"bees-with-color/bee-B1SF.svg","response":1,"trial_type":"image-button-response","trial_index":140,"time_elapsed":440420,"internal_node_id":"0.0-6.0-0.4","subject_id":"60c858000992b15e7485e788","study_id":"6197b3f67c2b5cd3b6d9596a","session_id":"6197b9eec389e594bfc2b8bf","condition":"contingent","relevant_dimensions":["antennae","wings"],"bee_group":{"antennae":"B","wings":"2","pattern":"X","legs":"X"},"bonus":0.5600000000000006},{"rt":638.3000000119209,"stimulus":"bees-with-color/bee-A2DM.svg","response":0,"trial_type":"image-button-response","trial_index":141,"time_elapsed":441060,"internal_node_id":"0.0-6.0-0.5","subject_id":"60c858000992b15e7485e788","study_id":"6197b3f67c2b5cd3b6d9596a","session_id":"6197b9eec389e594bfc2b8bf","condition":"contingent","relevant_dimensions":["antennae","wings"],"bee_group":{"antennae":"B","wings":"2","pattern":"X","legs":"X"},"bonus":0.5600000000000006},{"rt":765.4000000059605,"stimulus":"bees-with-color/bee-A1DF.svg","response":0,"trial_type":"image-button-response","trial_index":142,"time_elapsed":441828,"internal_node_id":"0.0-6.0-0.6","subject_id":"60c858000992b15e7485e788","study_id":"6197b3f67c2b5cd3b6d9596a","session_id":"6197b9eec389e594bfc2b8bf","condition":"contingent","relevant_dimensions":["antennae","wings"],"bee_group":{"antennae":"B","wings":"2","pattern":"X","legs":"X"},"bonus":0.5600000000000006},{"rt":1014.0999999940395,"stimulus":"bees-with-color/bee-A2SF.svg","response":0,"trial_type":"image-button-response","trial_index":143,"time_elapsed":442844,"internal_node_id":"0.0-6.0-0.7","subject_id":"60c858000992b15e7485e788","study_id":"6197b3f67c2b5cd3b6d9596a","session_id":"6197b9eec389e594bfc2b8bf","condition":"contingent","relevant_dimensions":["antennae","wings"],"bee_group":{"antennae":"B","wings":"2","pattern":"X","legs":"X"},"bonus":0.5600000000000006},{"rt":2453.4000000059605,"stimulus":"bees-with-color/bee-B1DM.svg","response":1,"trial_type":"image-button-response","trial_index":144,"time_elapsed":445300,"internal_node_id":"0.0-6.0-0.8","subject_id":"60c858000992b15e7485e788","study_id":"6197b3f67c2b5cd3b6d9596a","session_id":"6197b9eec389e594bfc2b8bf","condition":"contingent","relevant_dimensions":["antennae","wings"],"bee_group":{"antennae":"B","wings":"2","pattern":"X","legs":"X"},"bonus":0.5600000000000006},{"rt":589.3999999761581,"stimulus":"bees-with-color/bee-A1DM.svg","response":0,"trial_type":"image-button-response","trial_index":145,"time_elapsed":445892,"internal_node_id":"0.0-6.0-0.9","subject_id":"60c858000992b15e7485e788","study_id":"6197b3f67c2b5cd3b6d9596a","session_id":"6197b9eec389e594bfc2b8bf","condition":"contingent","relevant_dimensions":["antennae","wings"],"bee_group":{"antennae":"B","wings":"2","pattern":"X","legs":"X"},"bonus":0.5600000000000006},{"rt":700.7999999821186,"stimulus":"bees-with-color/bee-A1SM.svg","response":0,"trial_type":"image-button-response","trial_index":146,"time_elapsed":446595,"internal_node_id":"0.0-6.0-0.10","subject_id":"60c858000992b15e7485e788","study_id":"6197b3f67c2b5cd3b6d9596a","session_id":"6197b9eec389e594bfc2b8bf","condition":"contingent","relevant_dimensions":["antennae","wings"],"bee_group":{"antennae":"B","wings":"2","pattern":"X","legs":"X"},"bonus":0.5600000000000006},{"rt":614.3999999761581,"stimulus":"bees-with-color/bee-A2SM.svg","response":0,"trial_type":"image-button-response","trial_index":147,"time_elapsed":447212,"internal_node_id":"0.0-6.0-0.11","subject_id":"60c858000992b15e7485e788","study_id":"6197b3f67c2b5cd3b6d9596a","session_id":"6197b9eec389e594bfc2b8bf","condition":"contingent","relevant_dimensions":["antennae","wings"],"bee_group":{"antennae":"B","wings":"2","pattern":"X","legs":"X"},"bonus":0.5600000000000006},{"rt":773.8999999761581,"stimulus":"bees-with-color/bee-B2DM.svg","response":1,"trial_type":"image-button-response","trial_index":148,"time_elapsed":447988,"internal_node_id":"0.0-6.0-0.12","subject_id":"60c858000992b15e7485e788","study_id":"6197b3f67c2b5cd3b6d9596a","session_id":"6197b9eec389e594bfc2b8bf","condition":"contingent","relevant_dimensions":["antennae","wings"],"bee_group":{"antennae":"B","wings":"2","pattern":"X","legs":"X"},"bonus":0.5600000000000006},{"rt":766,"stimulus":"bees-with-color/bee-B1DF.svg","response":1,"trial_type":"image-button-response","trial_index":149,"time_elapsed":448756,"internal_node_id":"0.0-6.0-0.13","subject_id":"60c858000992b15e7485e788","study_id":"6197b3f67c2b5cd3b6d9596a","session_id":"6197b9eec389e594bfc2b8bf","condition":"contingent","relevant_dimensions":["antennae","wings"],"bee_group":{"antennae":"B","wings":"2","pattern":"X","legs":"X"},"bonus":0.5600000000000006},{"rt":1197.7999999821186,"stimulus":"bees-with-color/bee-B2DF.svg","response":1,"trial_type":"image-button-response","trial_index":150,"time_elapsed":449956,"internal_node_id":"0.0-6.0-0.14","subject_id":"60c858000992b15e7485e788","study_id":"6197b3f67c2b5cd3b6d9596a","session_id":"6197b9eec389e594bfc2b8bf","condition":"contingent","relevant_dimensions":["antennae","wings"],"bee_group":{"antennae":"B","wings":"2","pattern":"X","legs":"X"},"bonus":0.5600000000000006},{"rt":613.5,"stimulus":"bees-with-color/bee-A1SF.svg","response":0,"trial_type":"image-button-response","trial_index":151,"time_elapsed":450572,"internal_node_id":"0.0-6.0-0.15","subject_id":"60c858000992b15e7485e788","study_id":"6197b3f67c2b5cd3b6d9596a","session_id":"6197b9eec389e594bfc2b8bf","condition":"contingent","relevant_dimensions":["antennae","wings"],"bee_group":{"antennae":"B","wings":"2","pattern":"X","legs":"X"},"bonus":0.5600000000000006},{"rt":1027.199999988079,"stimulus":"bees-with-color/bee-A2SM.svg","response":0,"trial_type":"image-button-response","trial_index":152,"time_elapsed":451604,"internal_node_id":"0.0-6.0-0.16","subject_id":"60c858000992b15e7485e788","study_id":"6197b3f67c2b5cd3b6d9596a","session_id":"6197b9eec389e594bfc2b8bf","condition":"contingent","relevant_dimensions":["antennae","wings"],"bee_group":{"antennae":"B","wings":"2","pattern":"X","legs":"X"},"bonus":0.5600000000000006},{"rt":894.3000000119209,"stimulus":"bees-with-color/bee-B1DF.svg","response":1,"trial_type":"image-button-response","trial_index":153,"time_elapsed":452500,"internal_node_id":"0.0-6.0-0.17","subject_id":"60c858000992b15e7485e788","study_id":"6197b3f67c2b5cd3b6d9596a","session_id":"6197b9eec389e594bfc2b8bf","condition":"contingent","relevant_dimensions":["antennae","wings"],"bee_group":{"antennae":"B","wings":"2","pattern":"X","legs":"X"},"bonus":0.5600000000000006},{"rt":614,"stimulus":"bees-with-color/bee-A1SF.svg","response":0,"trial_type":"image-button-response","trial_index":154,"time_elapsed":453116,"internal_node_id":"0.0-6.0-0.18","subject_id":"60c858000992b15e7485e788","study_id":"6197b3f67c2b5cd3b6d9596a","session_id":"6197b9eec389e594bfc2b8bf","condition":"contingent","relevant_dimensions":["antennae","wings"],"bee_group":{"antennae":"B","wings":"2","pattern":"X","legs":"X"},"bonus":0.5600000000000006},{"rt":734.2999999821186,"stimulus":"bees-with-color/bee-B2DF.svg","response":1,"trial_type":"image-button-response","trial_index":155,"time_elapsed":453852,"internal_node_id":"0.0-6.0-0.19","subject_id":"60c858000992b15e7485e788","study_id":"6197b3f67c2b5cd3b6d9596a","session_id":"6197b9eec389e594bfc2b8bf","condition":"contingent","relevant_dimensions":["antennae","wings"],"bee_group":{"antennae":"B","wings":"2","pattern":"X","legs":"X"},"bonus":0.5600000000000006},{"rt":646,"stimulus":"bees-with-color/bee-A1DM.svg","response":0,"trial_type":"image-button-response","trial_index":156,"time_elapsed":454500,"internal_node_id":"0.0-6.0-0.20","subject_id":"60c858000992b15e7485e788","study_id":"6197b3f67c2b5cd3b6d9596a","session_id":"6197b9eec389e594bfc2b8bf","condition":"contingent","relevant_dimensions":["antennae","wings"],"bee_group":{"antennae":"B","wings":"2","pattern":"X","legs":"X"},"bonus":0.5600000000000006},{"rt":1150.0999999940395,"stimulus":"bees-with-color/bee-A1DF.svg","response":0,"trial_type":"image-button-response","trial_index":157,"time_elapsed":455652,"internal_node_id":"0.0-6.0-0.21","subject_id":"60c858000992b15e7485e788","study_id":"6197b3f67c2b5cd3b6d9596a","session_id":"6197b9eec389e594bfc2b8bf","condition":"contingent","relevant_dimensions":["antennae","wings"],"bee_group":{"antennae":"B","wings":"2","pattern":"X","legs":"X"},"bonus":0.5600000000000006},{"rt":782,"stimulus":"bees-with-color/bee-A2DM.svg","response":0,"trial_type":"image-button-response","trial_index":158,"time_elapsed":456435,"internal_node_id":"0.0-6.0-0.22","subject_id":"60c858000992b15e7485e788","study_id":"6197b3f67c2b5cd3b6d9596a","session_id":"6197b9eec389e594bfc2b8bf","condition":"contingent","relevant_dimensions":["antennae","wings"],"bee_group":{"antennae":"B","wings":"2","pattern":"X","legs":"X"},"bonus":0.5600000000000006},{"rt":789.9000000059605,"stimulus":"bees-with-color/bee-B2DM.svg","response":1,"trial_type":"image-button-response","trial_index":159,"time_elapsed":457227,"internal_node_id":"0.0-6.0-0.23","subject_id":"60c858000992b15e7485e788","study_id":"6197b3f67c2b5cd3b6d9596a","session_id":"6197b9eec389e594bfc2b8bf","condition":"contingent","relevant_dimensions":["antennae","wings"],"bee_group":{"antennae":"B","wings":"2","pattern":"X","legs":"X"},"bonus":0.5600000000000006},{"rt":798.5,"stimulus":"bees-with-color/bee-B2SF.svg","response":1,"trial_type":"image-button-response","trial_index":160,"time_elapsed":458028,"internal_node_id":"0.0-6.0-0.24","subject_id":"60c858000992b15e7485e788","study_id":"6197b3f67c2b5cd3b6d9596a","session_id":"6197b9eec389e594bfc2b8bf","condition":"contingent","relevant_dimensions":["antennae","wings"],"bee_group":{"antennae":"B","wings":"2","pattern":"X","legs":"X"},"bonus":0.5600000000000006},{"rt":758.5999999940395,"stimulus":"bees-with-color/bee-B2SM.svg","response":1,"trial_type":"image-button-response","trial_index":161,"time_elapsed":458789,"internal_node_id":"0.0-6.0-0.25","subject_id":"60c858000992b15e7485e788","