[{"success":true,"trial_type":"fullscreen","trial_index":0,"time_elapsed":71398,"internal_node_id":"0.0-0.0","subject_id":"613a4bd6e4259b64db005489","study_id":"60edd13110225f80f9f3709b","session_id":"6196c7083109e4c1ac14fb88","condition":"full-information","relevant_dimensions":["wings","pattern"],"bee_group":{"antennae":"X","wings":"1","pattern":"D","legs":"X"},"bonus":1.8400000000000012},{"success":true,"timeout":false,"failed_images":[],"failed_audio":[],"failed_video":[],"trial_type":"preload","trial_index":1,"time_elapsed":73568,"internal_node_id":"0.0-1.0","subject_id":"613a4bd6e4259b64db005489","study_id":"60edd13110225f80f9f3709b","session_id":"6196c7083109e4c1ac14fb88","condition":"full-information","relevant_dimensions":["wings","pattern"],"bee_group":{"antennae":"X","wings":"1","pattern":"D","legs":"X"},"bonus":1.8400000000000012},{"rt":11756,"stimulus":"Welcome! Press any key to begin.","response":" ","trial_type":"html-keyboard-response","trial_index":2,"time_elapsed":85325,"internal_node_id":"0.0-2.0","subject_id":"613a4bd6e4259b64db005489","study_id":"60edd13110225f80f9f3709b","session_id":"6196c7083109e4c1ac14fb88","condition":"full-information","relevant_dimensions":["wings","pattern"],"bee_group":{"antennae":"X","wings":"1","pattern":"D","legs":"X"},"bonus":1.8400000000000012},{"view_history":[{"page_index":0,"viewing_time":12151.5},{"page_index":1,"viewing_time":34077.60000002384},{"page_index":2,"viewing_time":12733.199999988079},{"page_index":3,"viewing_time":16114.40000000596},{"page_index":4,"viewing_time":8204.09999999404},{"page_index":5,"viewing_time":8704.5},{"page_index":6,"viewing_time":9883.300000011921},{"page_index":7,"viewing_time":37431},{"page_index":8,"viewing_time":8635.399999976158},{"page_index":9,"viewing_time":22648.70000001788},{"page_index":10,"viewing_time":11036.199999988079},{"page_index":11,"viewing_time":8603},{"page_index":12,"viewing_time":8843.700000017881},{"page_index":13,"viewing_time":1728.0999999940395},{"page_index":14,"viewing_time":4108}],"rt":204903.20000001788,"trial_type":"instructions","trial_index":3,"time_elapsed":290228,"internal_node_id":"0.0-3.0-0.0","subject_id":"613a4bd6e4259b64db005489","study_id":"60edd13110225f80f9f3709b","session_id":"6196c7083109e4c1ac14fb88","condition":"full-information","relevant_dimensions":["wings","pattern"],"bee_group":{"antennae":"X","wings":"1","pattern":"D","legs":"X"},"bonus":1.8400000000000012},{"rt":20975.69999998808,"response":{"Q0":["Two or six legs","Stripes or spots on body","Single or double wings","Antennae or no antennae"]},"question_order":[0],"trial_type":"survey-multi-select","trial_index":4,"time_elapsed":311208,"internal_node_id":"0.0-3.0-1.0","subject_id":"613a4bd6e4259b64db005489","study_id":"60edd13110225f80f9f3709b","session_id":"6196c7083109e4c1ac14fb88","condition":"full-information","relevant_dimensions":["wings","pattern"],"bee_group":{"antennae":"X","wings":"1","pattern":"D","legs":"X"},"correct":true,"bonus":1.8400000000000012},{"rt":71021.90000000596,"response":{"Q1":"No.","Q2":"Based on the four features of the bee.","Q3":"You do not learn if it was friendly or dangerous, and do not alter your bonus."},"question_order":[0,1,2],"trial_type":"survey-multi-choice","trial_index":5,"time_elapsed":382234,"internal_node_id":"0.0-3.0-2.0","subject_id":"613a4bd6e4259b64db005489","study_id":"60edd13110225f80f9f3709b","session_id":"6196c7083109e4c1ac14fb88","condition":"full-information","relevant_dimensions":["wings","pattern"],"bee_group":{"antennae":"X","wings":"1","pattern":"D","legs":"X"},"correct":false,"bonus":1.8400000000000012},{"rt":3756,"stimulus":"<p>You did not answer all comprehension questions correctly.<br>Press <b>continue</b> to review the instructions again.</p>","response":0,"trial_type":"html-button-response","trial_index":6,"time_elapsed":385993,"internal_node_id":"0.0-3.0-3.0","subject_id":"613a4bd6e4259b64db005489","study_id":"60edd13110225f80f9f3709b","session_id":"6196c7083109e4c1ac14fb88","condition":"full-information","relevant_dimensions":["wings","pattern"],"bee_group":{"antennae":"X","wings":"1","pattern":"D","legs":"X"},"bonus":1.8400000000000012},{"view_history":[{"page_index":0,"viewing_time":1855.5},{"page_index":1,"viewing_time":3079.2999999821186},{"page_index":2,"viewing_time":5849.5999999940395},{"page_index":3,"viewing_time":1105.6000000238419},{"page_index":4,"viewing_time":36489.29999998212},{"page_index":5,"viewing_time":1490.2000000178814},{"page_index":6,"viewing_time":5266.299999982119},{"page_index":7,"viewing_time":1379},{"page_index":8,"viewing_time":400.80000001192093},{"page_index":9,"viewing_time":381.5},{"page_index":10,"viewing_time":414.40000000596046},{"page_index":11,"viewing_time":6455.0999999940395},{"page_index":12,"viewing_time":1744.5999999940395},{"page_index":13,"viewing_time":1236.9000000059605},{"page_index":14,"viewing_time":859.5999999940395}],"rt":68008,"trial_type":"instructions","trial_index":7,"time_elapsed":454003,"internal_node_id":"0.0-3.0-4.0-0.0","subject_id":"613a4bd6e4259b64db005489","study_id":"60edd13110225f80f9f3709b","session_id":"6196c7083109e4c1ac14fb88","condition":"full-information","relevant_dimensions":["wings","pattern"],"bee_group":{"antennae":"X","wings":"1","pattern":"D","legs":"X"},"bonus":1.8400000000000012},{"rt":6518.9000000059605,"response":{"Q0":["Two or six legs","Stripes or spots on body","Single or double wings","Antennae or no antennae"]},"question_order":[0],"trial_type":"survey-multi-select","trial_index":8,"time_elapsed":460524,"internal_node_id":"0.0-3.0-4.0-1.0","subject_id":"613a4bd6e4259b64db005489","study_id":"60edd13110225f80f9f3709b","session_id":"6196c7083109e4c1ac14fb88","condition":"full-information","relevant_dimensions":["wings","pattern"],"bee_group":{"antennae":"X","wings":"1","pattern":"D","legs":"X"},"correct":true,"bonus":1.8400000000000012},{"rt":10626.699999988079,"response":{"Q1":"No.","Q2":"Based on the four features of the bee.","Q3":"You learn if it was friendly or dangerous, but do not alter your bonus."},"question_order":[0,1,2],"trial_type":"survey-multi-choice","trial_index":9,"time_elapsed":471154,"internal_node_id":"0.0-3.0-4.0-2.0","subject_id":"613a4bd6e4259b64db005489","study_id":"60edd13110225f80f9f3709b","session_id":"6196c7083109e4c1ac14fb88","condition":"full-information","relevant_dimensions":["wings","pattern"],"bee_group":{"antennae":"X","wings":"1","pattern":"D","legs":"X"},"correct":true,"bonus":1.8400000000000012},{"rt":5987.199999988079,"stimulus":"<p>Congrats, you got everything right<br>When you're ready, click the button below to continue to the experiment.</p>","response":0,"trial_type":"html-button-response","trial_index":10,"time_elapsed":477145,"internal_node_id":"0.0-3.0-4.0-3.0","subject_id":"613a4bd6e4259b64db005489","study_id":"60edd13110225f80f9f3709b","session_id":"6196c7083109e4c1ac14fb88","condition":"full-information","relevant_dimensions":["wings","pattern"],"bee_group":{"antennae":"X","wings":"1","pattern":"D","legs":"X"},"bonus":1.8400000000000012},{"rt":29906.40000000596,"stimulus":"bees-with-color/bee-A2SF.svg","response":1,"trial_type":"image-button-response","trial_index":11,"time_elapsed":507053,"internal_node_id":"0.0-4.0-0.0","subject_id":"613a4bd6e4259b64db005489","study_id":"60edd13110225f80f9f3709b","session_id":"6196c7083109e4c1ac14fb88","condition":"full-information","relevant_dimensions":["wings","pattern"],"bee_group":{"antennae":"X","wings":"1","pattern":"D","legs":"X"},"action":"avoid","summary":"bad-avoid","bonus":1.8400000000000012},{"rt":12082.199999988079,"stimulus":"\n                    <p><b>Action: <em>avoid</em></b></p>\n                    <p>This is the bee that you just saw.</p>\n                    <img src=\"bees-with-color/bee-A2SF.svg\" width=\"200\">\n                    <p><span class=\"redText\">Bad choice,</span> the bee was friendly.<br>Your bonus pay is unchanged, and remains at $0.54.</p>\n            ","response":0,"trial_type":"html-button-response","trial_index":12,"time_elapsed":519138,"internal_node_id":"0.0-4.0-1.0","subject_id":"613a4bd6e4259b64db005489","study_id":"60edd13110225f80f9f3709b","session_id":"6196c7083109e4c1ac14fb88","condition":"full-information","relevant_dimensions":["wings","pattern"],"bee_group":{"antennae":"X","wings":"1","pattern":"D","legs":"X"},"bonus":1.8400000000000012},{"rt":43382.39999997616,"stimulus":"bees-with-color/bee-A1SM.svg","response":1,"trial_type":"image-button-response","trial_index":13,"time_elapsed":562522,"internal_node_id":"0.0-4.0-0.1","subject_id":"613a4bd6e4259b64db005489","study_id":"60edd13110225f80f9f3709b","session_id":"6196c7083109e4c1ac14fb88","condition":"full-information","relevant_dimensions":["wings","pattern"],"bee_group":{"antennae":"X","wings":"1","pattern":"D","legs":"X"},"action":"avoid","summary":"bad-avoid","bonus":1.8400000000000012},{"rt":10001.800000011921,"stimulus":"\n                    <p><b>Action: <em>avoid</em></b></p>\n                    <p>This is the bee that you just saw.</p>\n                    <img src=\"bees-with-color/bee-A1SM.svg\" width=\"200\">\n                    <p><span class=\"redText\">Bad choice,</span> the bee was friendly.<br>Your bonus pay is unchanged, and remains at $0.54.</p>\n            ","response":0,"trial_type":"html-button-response","trial_index":14,"time_elapsed":572524,"internal_node_id":"0.0-4.0-1.1","subject_id":"613a4bd6e4259b64db005489","study_id":"60edd13110225f80f9f3709b","session_id":"6196c7083109e4c1ac14fb88","condition":"full-information","relevant_dimensions":["wings","pattern"],"bee_group":{"antennae":"X","wings":"1","pattern":"D","legs":"X"},"bonus":1.8400000000000012},{"rt":20919.29999998212,"stimulus":"bees-with-color/bee-A1DM.svg","response":1,"trial_type":"image-button-response","trial_index":15,"time_elapsed":593445,"internal_node_id":"0.0-4.0-0.2","subject_id":"613a4bd6e4259b64db005489","study_id":"60edd13110225f80f9f3709b","session_id":"6196c7083109e4c1ac14fb88","condition":"full-information","relevant_dimensions":["wings","pattern"],"bee_group":{"antennae":"X","wings":"1","pattern":"D","legs":"X"},"action":"avoid","summary":"good-avoid","bonus":1.8400000000000012},{"rt":7783.9000000059605,"stimulus":"\n                    <p><b>Action: <em>avoid</em></b></p>\n                    <p>This is the bee that you just saw.</p>\n                    <img src=\"bees-with-color/bee-A1DM.svg\" width=\"200\">\n                    <p><span class=\"greenText\">Good choice!</span>  This bee would have stung you.<br>Your bonus pay is unchanged, and remains at $0.54.</p>\n            ","response":0,"trial_type":"html-button-response","trial_index":16,"time_elapsed":601230,"internal_node_id":"0.0-4.0-1.2","subject_id":"613a4bd6e4259b64db005489","study_id":"60edd13110225f80f9f3709b","session_id":"6196c7083109e4c1ac14fb88","condition":"full-information","relevant_dimensions":["wings","pattern"],"bee_group":{"antennae":"X","wings":"1","pattern":"D","legs":"X"},"bonus":1.8400000000000012},{"rt":38224.5,"stimulus":"bees-with-color/bee-B2SF.svg","response":1,"trial_type":"image-button-response","trial_index":17,"time_elapsed":639456,"internal_node_id":"0.0-4.0-0.3","subject_id":"613a4bd6e4259b64db005489","study_id":"60edd13110225f80f9f3709b","session_id":"6196c7083109e4c1ac14fb88","condition":"full-information","relevant_dimensions":["wings","pattern"],"bee_group":{"antennae":"X","wings":"1","pattern":"D","legs":"X"},"action":"avoid","summary":"bad-avoid","bonus":1.8400000000000012},{"rt":13742.899999976158,"stimulus":"\n                    <p><b>Action: <em>avoid</em></b></p>\n                    <p>This is the bee that you just saw.</p>\n                    <img src=\"bees-with-color/bee-B2SF.svg\" width=\"200\">\n                    <p><span class=\"redText\">Bad choice,</span> the bee was friendly.<br>Your bonus pay is unchanged, and remains at $0.54.</p>\n            ","response":0,"trial_type":"html-button-response","trial_index":18,"time_elapsed":653200,"internal_node_id":"0.0-4.0-1.3","subject_id":"613a4bd6e4259b64db005489","study_id":"60edd13110225f80f9f3709b","session_id":"6196c7083109e4c1ac14fb88","condition":"full-information","relevant_dimensions":["wings","pattern"],"bee_group":{"antennae":"X","wings":"1","pattern":"D","legs":"X"},"bonus":1.8400000000000012},{"rt":14805,"stimulus":"bees-with-color/bee-B1SM.svg","response":0,"trial_type":"image-button-response","trial_index":19,"time_elapsed":668007,"internal_node_id":"0.0-4.0-0.4","subject_id":"613a4bd6e4259b64db005489","study_id":"60edd13110225f80f9f3709b","session_id":"6196c7083109e4c1ac14fb88","condition":"full-information","relevant_dimensions":["wings","pattern"],"bee_group":{"antennae":"X","wings":"1","pattern":"D","legs":"X"},"action":"harvest","summary":"good-harvest","bonus":1.8400000000000012},{"rt":5184.0999999940395,"stimulus":"\n                    <p><b>Action: <em>harvest</em></b></p>\n                    <p>This is the bee that you just saw.</p>\n                    <img src=\"bees-with-color/bee-B1SM.svg\" width=\"200\">\n                    <p><span class=\"greenText\"><b>Successful harvest!</b></span><br>Your pay has increased by $0.02. Your bonus pay is now $0.56.</p>\n            ","response":0,"trial_type":"html-button-response","trial_index":20,"time_elapsed":673192,"internal_node_id":"0.0-4.0-1.4","subject_id":"613a4bd6e4259b64db005489","study_id":"60edd13110225f80f9f3709b","session_id":"6196c7083109e4c1ac14fb88","condition":"full-information","relevant_dimensions":["wings","pattern"],"bee_group":{"antennae":"X","wings":"1","pattern":"D","legs":"X"},"bonus":1.8400000000000012},{"rt":29129.79999998212,"stimulus":"bees-with-color/bee-A2DM.svg","response":1,"trial_type":"image-button-response","trial_index":21,"time_elapsed":702324,"internal_node_id":"0.0-4.0-0.5","subject_id":"613a4bd6e4259b64db005489","study_id":"60edd13110225f80f9f3709b","session_id":"6196c7083109e4c1ac14fb88","condition":"full-information","relevant_dimensions":["wings","pattern"],"bee_group":{"antennae":"X","wings":"1","pattern":"D","legs":"X"},"action":"avoid","summary":"bad-avoid","bonus":1.8400000000000012},{"rt":32304,"stimulus":"\n                    <p><b>Action: <em>avoid</em></b></p>\n                    <p>This is the bee that you just saw.</p>\n                    <img src=\"bees-with-color/bee-A2DM.svg\" width=\"200\">\n                    <p><span class=\"redText\">Bad choice,</span> the bee was friendly.<br>Your bonus pay is unchanged, and remains at $0.56.</p>\n            ","response":0,"trial_type":"html-button-response","trial_index":22,"time_elapsed":734629,"internal_node_id":"0.0-4.0-1.5","subject_id":"613a4bd6e4259b64db005489","study_id":"60edd13110225f80f9f3709b","session_id":"6196c7083109e4c1ac14fb88","condition":"full-information","relevant_dimensions":["wings","pattern"],"bee_group":{"antennae":"X","wings":"1","pattern":"D","legs":"X"},"bonus":1.8400000000000012},{"rt":38370.69999998808,"stimulus":"bees-with-color/bee-A1SF.svg","response":1,"trial_type":"image-button-response","trial_index":23,"time_elapsed":773002,"internal_node_id":"0.0-4.0-0.6","subject_id":"613a4bd6e4259b64db005489","study_id":"60edd13110225f80f9f3709b","session_id":"6196c7083109e4c1ac14fb88","condition":"full-information","relevant_dimensions":["wings","pattern"],"bee_group":{"antennae":"X","wings":"1","pattern":"D","legs":"X"},"action":"avoid","summary":"bad-avoid","bonus":1.8400000000000012},{"rt":5517.5999999940395,"stimulus":"\n                    <p><b>Action: <em>avoid</em></b></p>\n                    <p>This is the bee that you just saw.</p>\n                    <img src=\"bees-with-color/bee-A1SF.svg\" width=\"200\">\n                    <p><span class=\"redText\">Bad choice,</span> the bee was friendly.<br>Your bonus pay is unchanged, and remains at $0.56.</p>\n            ","response":0,"trial_type":"html-button-response","trial_index":24,"time_elapsed":778520,"internal_node_id":"0.0-4.0-1.6","subject_id":"613a4bd6e4259b64db005489","study_id":"60edd13110225f80f9f3709b","session_id":"6196c7083109e4c1ac14fb88","condition":"full-information","relevant_dimensions":["wings","pattern"],"bee_group":{"antennae":"X","wings":"1","pattern":"D","legs":"X"},"bonus":1.8400000000000012},{"rt":31043.69999998808,"stimulus":"bees-with-color/bee-B1DF.svg","response":1,"trial_type":"image-button-response","trial_index":25,"time_elapsed":809566,"internal_node_id":"0.0-4.0-0.7","subject_id":"613a4bd6e4259b64db005489","study_id":"60edd13110225f80f9f3709b","session_id":"6196c7083109e4c1ac14fb88","condition":"full-information","relevant_dimensions":["wings","pattern"],"bee_group":{"antennae":"X","wings":"1","pattern":"D","legs":"X"},"action":"avoid","summary":"good-avoid","bonus":1.8400000000000012},{"rt":49265.29999998212,"stimulus":"\n                    <p><b>Action: <em>avoid</em></b></p>\n                    <p>This is the bee that you just saw.</p>\n                    <img src=\"bees-with-color/bee-B1DF.svg\" width=\"200\">\n                    <p><span class=\"greenText\">Good choice!</span>  This bee would have stung you.<br>Your bonus pay is unchanged, and remains at $0.56.</p>\n            ","response":0,"trial_type":"html-button-response","trial_index":26,"time_elapsed":858833,"internal_node_id":"0.0-4.0-1.7","subject_id":"613a4bd6e4259b64db005489","study_id":"60edd13110225f80f9f3709b","session_id":"6196c7083109e4c1ac14fb88","condition":"full-information","relevant_dimensions":["wings","pattern"],"bee_group":{"antennae":"X","wings":"1","pattern":"D","legs":"X"},"bonus":1.8400000000000012},{"rt":12787.600000023842,"stimulus":"bees-with-color/bee-A1DF.svg","response":1,"trial_type":"image-button-response","trial_index":27,"time_elapsed":871622,"internal_node_id":"0.0-4.0-0.8","subject_id":"613a4bd6e4259b64db005489","study_id":"60edd13110225f80f9f3709b","session_id":"6196c7083109e4c1ac14fb88","condition":"full-information","relevant_dimensions":["wings","pattern"],"bee_group":{"antennae":"X","wings":"1","pattern":"D","legs":"X"},"action":"avoid","summary":"good-avoid","bonus":1.8400000000000012},{"rt":18947.30000001192,"stimulus":"\n                    <p><b>Action: <em>avoid</em></b></p>\n                    <p>This is the bee that you just saw.</p>\n                    <img src=\"bees-with-color/bee-A1DF.svg\" width=\"200\">\n                    <p><span class=\"greenText\">Good choice!</span>  This bee would have stung you.<br>Your bonus pay is unchanged, and remains at $0.56.</p>\n            ","response":0,"trial_type":"html-button-response","trial_index":28,"time_elapsed":890570,"internal_node_id":"0.0-4.0-1.8","subject_id":"613a4bd6e4259b64db005489","study_id":"60edd13110225f80f9f3709b","session_id":"6196c7083109e4c1ac14fb88","condition":"full-information","relevant_dimensions":["wings","pattern"],"bee_group":{"antennae":"X","wings":"1","pattern":"D","legs":"X"},"bonus":1.8400000000000012},{"rt":32534,"stimulus":"bees-with-color/bee-B1DM.svg","response":1,"trial_type":"image-button-response","trial_index":29,"time_elapsed":923106,"internal_node_id":"0.0-4.0-0.9","subject_id":"613a4bd6e4259b64db005489","study_id":"60edd13110225f80f9f3709b","session_id":"6196c7083109e4c1ac14fb88","condition":"full-information","relevant_dimensions":["wings","pattern"],"bee_group":{"antennae":"X","wings":"1","pattern":"D","legs":"X"},"action":"avoid","summary":"good-avoid","bonus":1.8400000000000012},{"rt":18434.59999999404,"stimulus":"\n                    <p><b>Action: <em>avoid</em></b></p>\n                    <p>This is the bee that you just saw.</p>\n                    <img src=\"bees-with-color/bee-B1DM.svg\" width=\"200\">\n                    <p><span class=\"greenText\">Good choice!</span>  This bee would have stung you.<br>Your bonus pay is unchanged, and remains at $0.56.</p>\n            ","response":0,"trial_type":"html-button-response","trial_index":30,"time_elapsed":941542,"internal_node_id":"0.0-4.0-1.9","subject_id":"613a4bd6e4259b64db005489","study_id":"60edd13110225f80f9f3709b","session_id":"6196c7083109e4c1ac14fb88","condition":"full-information","relevant_dimensions":["wings","pattern"],"bee_group":{"antennae":"X","wings":"1","pattern":"D","legs":"X"},"bonus":1.8400000000000012},{"rt":4187.5999999940395,"stimulus":"bees-with-color/bee-A2DF.svg","response":0,"trial_type":"image-button-response","trial_index":31,"time_elapsed":945731,"internal_node_id":"0.0-4.0-0.10","subject_id":"613a4bd6e4259b64db005489","study_id":"60edd13110225f80f9f3709b","session_id":"6196c7083109e4c1ac14fb88","condition":"full-information","relevant_dimensions":["wings","pattern"],"bee_group":{"antennae":"X","wings":"1","pattern":"D","legs":"X"},"action":"harvest","summary":"good-harvest","bonus":1.8400000000000012},{"rt":1517.2999999821186,"stimulus":"\n                    <p><b>Action: <em>harvest</em></b></p>\n                    <p>This is the bee that you just saw.</p>\n                    <img src=\"bees-with-color/bee-A2DF.svg\" width=\"200\">\n                    <p><span class=\"greenText\"><b>Successful harvest!</b></span><br>Your pay has increased by $0.02. Your bonus pay is now $0.58.</p>\n            ","response":0,"trial_type":"html-button-response","trial_index":32,"time_elapsed":947250,"internal_node_id":"0.0-4.0-1.10","subject_id":"613a4bd6e4259b64db005489","study_id":"60edd13110225f80f9f3709b","session_id":"6196c7083109e4c1ac14fb88","condition":"full-information","relevant_dimensions":["wings","pattern"],"bee_group":{"antennae":"X","wings":"1","pattern":"D","legs":"X"},"bonus":1.8400000000000012},{"rt":6094.600000023842,"stimulus":"bees-with-color/bee-B2DM.svg","response":0,"trial_type":"image-button-response","trial_index":33,"time_elapsed":953346,"internal_node_id":"0.0-4.0-0.11","subject_id":"613a4bd6e4259b64db005489","study_id":"60edd13110225f80f9f3709b","session_id":"6196c7083109e4c1ac14fb88","condition":"full-information","relevant_dimensions":["wings","pattern"],"bee_group":{"antennae":"X","wings":"1","pattern":"D","legs":"X"},"action":"harvest","summary":"good-harvest","bonus":1.8400000000000012},{"rt":1296.0999999940395,"stimulus":"\n                    <p><b>Action: <em>harvest</em></b></p>\n                    <p>This is the bee that you just saw.</p>\n                    <img src=\"bees-with-color/bee-B2DM.svg\" width=\"200\">\n                    <p><span class=\"greenText\"><b>Successful harvest!</b></span><br>Your pay has increased by $0.02. Your bonus pay is now $0.60.</p>\n            ","response":0,"trial_type":"html-button-response","trial_index":34,"time_elapsed":954643,"internal_node_id":"0.0-4.0-1.11","subject_id":"613a4bd6e4259b64db005489","study_id":"60edd13110225f80f9f3709b","session_id":"6196c7083109e4c1ac14fb88","condition":"full-information","relevant_dimensions":["wings","pattern"],"bee_group":{"antennae":"X","wings":"1","pattern":"D","legs":"X"},"bonus":1.8400000000000012},{"rt":27143.90000000596,"stimulus":"bees-with-color/bee-B1SF.svg","response":0,"trial_type":"image-button-response","trial_index":35,"time_elapsed":981788,"internal_node_id":"0.0-4.0-0.12","subject_id":"613a4bd6e4259b64db005489","study_id":"60edd13110225f80f9f3709b","session_id":"6196c7083109e4c1ac14fb88","condition":"full-information","relevant_dimensions":["wings","pattern"],"bee_group":{"antennae":"X","wings":"1","pattern":"D","legs":"X"},"action":"harvest","summary":"good-harvest","bonus":1.8400000000000012},{"rt":1529.9000000059605,"stimulus":"\n                    <p><b>Action: <em>harvest</em></b></p>\n                    <p>This is the bee that you just saw.</p>\n                    <img src=\"bees-with-color/bee-B1SF.svg\" width=\"200\">\n                    <p><span class=\"greenText\"><b>Successful harvest!</b></span><br>Your pay has increased by $0.02. Your bonus pay is now $0.62.</p>\n            ","response":0,"trial_type":"html-button-response","trial_index":36,"time_elapsed":983319,"internal_node_id":"0.0-4.0-1.12","subject_id":"613a4bd6e4259b64db005489","study_id":"60edd13110225f80f9f3709b","session_id":"6196c7083109e4c1ac14fb88","condition":"full-information","relevant_dimensions":["wings","pattern"],"bee_group":{"antennae":"X","wings":"1","pattern":"D","legs":"X"},"bonus":1.8400000000000012},{"rt":49720.30000001192,"stimulus":"bees-with-color/bee-A2SM.svg","response":0,"trial_type":"image-button-response","trial_index":37,"time_elapsed":1033041,"internal_node_id":"0.0-4.0-0.13","subject_id":"613a4bd6e4259b64db005489","study_id":"60edd13110225f80f9f3709b","session_id":"6196c7083109e4c1ac14fb88","condition":"full-information","relevant_dimensions":["wings","pattern"],"bee_group":{"antennae":"X","wings":"1","pattern":"D","legs":"X"},"action":"harvest","summary":"good-harvest","bonus":1.8400000000000012},{"rt":1227,"stimulus":"\n                    <p><b>Action: <em>harvest</em></b></p>\n                    <p>This is the bee that you just saw.</p>\n                    <img src=\"bees-with-color/bee-A2SM.svg\" width=\"200\">\n                    <p><span class=\"greenText\"><b>Successful harvest!</b></span><br>Your pay has increased by $0.02. Your bonus pay is now $0.64.</p>\n            ","response":0,"trial_type":"html-button-response","trial_index":38,"time_elapsed":1034269,"internal_node_id":"0.0-4.0-1.13","subject_id":"613a4bd6e4259b64db005489","study_id":"60edd13110225f80f9f3709b","session_id":"6196c7083109e4c1ac14fb88","condition":"full-information","relevant_dimensions":["wings","pattern"],"bee_group":{"antennae":"X","wings":"1","pattern":"D","legs":"X"},"bonus":1.8400000000000012},{"rt":42663.09999999404,"stimulus":"bees-with-color/bee-B2DF.svg","response":1,"trial_type":"image-button-response","trial_index":39,"time_elapsed":1076933,"internal_node_id":"0.0-4.0-0.14","subject_id":"613a4bd6e4259b64db005489","study_id":"60edd13110225f80f9f3709b","session_id":"6196c7083109e4c1ac14fb88","condition":"full-information","relevant_dimensions":["wings","pattern"],"bee_group":{"antennae":"X","wings":"1","pattern":"D","legs":"X"},"action":"avoid","summary":"bad-avoid","bonus":1.8400000000000012},{"rt":5229.5,"stimulus":"\n                    <p><b>Action: <em>avoid</em></b></p>\n                    <p>This is the bee that you just saw.</p>\n                    <img src=\"bees-with-color/bee-B2DF.svg\" width=\"200\">\n                    <p><span class=\"redText\">Bad choice,</span> the bee was friendly.<br>Your bonus pay is unchanged, and remains at $0.64.</p>\n            ","response":0,"trial_type":"html-button-response","trial_index":40,"time_elapsed":1082164,"internal_node_id":"0.0-4.0-1.14","subject_id":"613a4bd6e4259b64db005489","study_id":"60edd13110225f80f9f3709b","session_id":"6196c7083109e4c1ac14fb88","condition":"full-information","relevant_dimensions":["wings","pattern"],"bee_group":{"antennae":"X","wings":"1","pattern":"D","legs":"X"},"bonus":1.8400000000000012},{"rt":40318.80000001192,"stimulus":"bees-with-color/bee-B2SM.svg","response":0,"trial_type":"image-button-response","trial_index":41,"time_elapsed":1122484,"internal_node_id":"0.0-4.0-0.15","subject_id":"613a4bd6e4259b64db005489","study_id":"60edd13110225f80f9f3709b","session_id":"6196c7083109e4c1ac14fb88","condition":"full-information","relevant_dimensions":["wings","pattern"],"bee_group":{"antennae":"X","wings":"1","pattern":"D","legs":"X"},"action":"harvest","summary":"good-harvest","bonus":1.8400000000000012},{"rt":9836.90000000596,"stimulus":"\n                    <p><b>Action: <em>harvest</em></b></p>\n                    <p>This is the bee that you just saw.</p>\n                    <img src=\"bees-with-color/bee-B2SM.svg\" width=\"200\">\n                    <p><span class=\"greenText\"><b>Successful harvest!</b></span><br>Your pay has increased by $0.02. Your bonus pay is now $0.66.</p>\n            ","response":0,"trial_type":"html-button-response","trial_index":42,"time_elapsed":1132322,"internal_node_id":"0.0-4.0-1.15","subject_id":"613a4bd6e4259b64db005489","study_id":"60edd13110225f80f9f3709b","session_id":"6196c7083109e4c1ac14fb88","condition":"full-information","relevant_dimensions":["wings","pattern"],"bee_group":{"antennae":"X","wings":"1","pattern":"D","legs":"X"},"bonus":1.8400000000000012},{"rt":12214.90000000596,"stimulus":"bees-with-color/bee-A2DM.svg","response":0,"trial_type":"image-button-response","trial_index":43,"time_elapsed":1144538,"internal_node_id":"0.0-4.0-0.16","subject_id":"613a4bd6e4259b64db005489","study_id":"60edd13110225f80f9f3709b","session_id":"6196c7083109e4c1ac14fb88","condition":"full-information","relevant_dimensions":["wings","pattern"],"bee_group":{"antennae":"X","wings":"1","pattern":"D","legs":"X"},"action":"harvest","summary":"good-harvest","bonus":1.8400000000000012},{"rt":1054.7000000178814,"stimulus":"\n                    <p><b>Action: <em>harvest</em></b></p>\n                    <p>This is the bee that you just saw.</p>\n                    <img src=\"bees-with-color/bee-A2DM.svg\" width=\"200\">\n                    <p><span class=\"greenText\"><b>Successful harvest!</b></span><br>Your pay has increased by $0.02. Your bonus pay is now $0.68.</p>\n            ","response":0,"trial_type":"html-button-response","trial_index":44,"time_elapsed":1145594,"internal_node_id":"0.0-4.0-1.16","subject_id":"613a4bd6e4259b64db005489","study_id":"60edd13110225f80f9f3709b","session_id":"6196c7083109e4c1ac14fb88","condition":"full-information","relevant_dimensions":["wings","pattern"],"bee_group":{"antennae":"X","wings":"1","pattern":"D","legs":"X"},"bonus":1.8400000000000012},{"rt":21356.5,"stimulus":"bees-with-color/bee-A2SM.svg","response":0,"trial_type":"image-button-response","trial_index":45,"time_elapsed":1166952,"internal_node_id":"0.0-4.0-0.17","subject_id":"613a4bd6e4259b64db005489","study_id":"60edd13110225f80f9f3709b","session_id":"6196c7083109e4c1ac14fb88","condition":"full-information","relevant_dimensions":["wings","pattern"],"bee_group":{"antennae":"X","wings":"1","pattern":"D","legs":"X"},"action":"harvest","summary":"good-harvest","bonus":1.8400000000000012},{"rt":1133.4000000059605,"stimulus":"\n                    <p><b>Action: <em>harvest</em></b></p>\n                    <p>This is the bee that you just saw.</p>\n                    <img src=\"bees-with-color/bee-A2SM.svg\" width=\"200\">\n                    <p><span class=\"greenText\"><b>Successful harvest!</b></span><br>Your pay has increased by $0.02. Your bonus pay is now $0.70.</p>\n            ","response":0,"trial_type":"html-button-response","trial_index":46,"time_elapsed":1168087,"internal_node_id":"0.0-4.0-1.17","subject_id":"613a4bd6e4259b64db005489","study_id":"60edd13110225f80f9f3709b","session_id":"6196c7083109e4c1ac14fb88","condition":"full-information","relevant_dimensions":["wings","pattern"],"bee_group":{"antennae":"X","wings":"1","pattern":"D","legs":"X"},"bonus":1.8400000000000012},{"rt":7809.0999999940395,"stimulus":"bees-with-color/bee-A2DF.svg","response":0,"trial_type":"image-button-response","trial_index":47,"time_elapsed":1175897,"internal_node_id":"0.0-4.0-0.18","subject_id":"613a4bd6e4259b64db005489","study_id":"60edd13110225f80f9f3709b","session_id":"6196c7083109e4c1ac14fb88","condition":"full-information","relevant_dimensions":["wings","pattern"],"bee_group":{"antennae":"X","wings":"1","pattern":"D","legs":"X"},"action":"harvest","summary":"good-harvest","bonus":1.8400000000000012},{"rt":1043.300000011921,"stimulus":"\n                    <p><b>Action: <em>harvest</em></b></p>\n                    <p>This is the bee that you just saw.</p>\n                    <img src=\"bees-with-color/bee-A2DF.svg\" width=\"200\">\n                    <p><span class=\"greenText\"><b>Successful harvest!</b></span><br>Your pay has increased by $0.02. Your bonus pay is now $0.72.</p>\n            ","response":0,"trial_type":"html-button-response","trial_index":48,"time_elapsed":1176942,"internal_node_id":"0.0-4.0-1.18","subject_id":"613a4bd6e4259b64db005489","study_id":"60edd13110225f80f9f3709b","session_id":"6196c7083109e4c1ac14fb88","condition":"full-information","relevant_dimensions":["wings","pattern"],"bee_group":{"antennae":"X","wings":"1","pattern":"D","legs":"X"},"bonus":1.8400000000000012},{"rt":5994.299999982119,"stimulus":"bees-with-color/bee-A1DF.svg","response":1,"trial_type":"image-button-response","trial_index":49,"time_elapsed":1182938,"internal_node_id":"0.0-4.0-0.19","subject_id":"613a4bd6e4259b64db005489","study_id":"60edd13110225f80f9f3709b","session_id":"6196c7083109e4c1ac14fb88","condition":"full-information","relevant_dimensions":["wings","pattern"],"bee_group":{"antennae":"X","wings":"1","pattern":"D","legs":"X"},"action":"avoid","summary":"good-avoid","bonus":1.8400000000000012},{"rt":2591.7000000178814,"stimulus":"\n                    <p><b>Action: <em>avoid</em></b></p>\n                    <p>This is the bee that you just saw.</p>\n                    <img src=\"bees-with-color/bee-A1DF.svg\" width=\"200\">\n                    <p><span class=\"greenText\">Good choice!</span>  This bee would have stung you.<br>Your bonus pay is unchanged, and remains at $0.72.</p>\n            ","response":0,"trial_type":"html-button-response","trial_index":50,"time_elapsed":1185530,"internal_node_id":"0.0-4.0-1.19","subject_id":"613a4bd6e4259b64db005489","study_id":"60edd13110225f80f9f3709b","session_id":"6196c7083109e4c1ac14fb88","condition":"full-information","relevant_dimensions":["wings","pattern"],"bee_group":{"antennae":"X","wings":"1","pattern":"D","legs":"X"},"bonus":1.8400000000000012},{"rt":5563.700000017881,"stimulus":"bees-with-color/bee-B2DF.svg","response":0,"trial_type":"image-button-response","trial_index":51,"time_elapsed":1191096,"internal_node_id":"0.0-4.0-0.20","subject_id":"613a4bd6e4259b64db005489","study_id":"60edd13110225f80f9f3709b","session_id":"6196c7083109e4c1ac14fb88","condition":"full-information","relevant_dimensions":["wings","pattern"],"bee_group":{"antennae":"X","wings":"1","pattern":"D","legs":"X"},"action":"harvest","summary":"good-harvest","bonus":1.8400000000000012},{"rt":1586.3999999761581,"stimulus":"\n                    <p><b>Action: <em>harvest</em></b></p>\n                    <p>This is the bee that you just saw.</p>\n                    <img src=\"bees-with-color/bee-B2DF.svg\" width=\"200\">\n                    <p><span class=\"greenText\"><b>Successful harvest!</b></span><br>Your pay has increased by $0.02. Your bonus pay is now $0.74.</p>\n            ","response":0,"trial_type":"html-button-response","trial_index":52,"time_elapsed":1192684,"internal_node_id":"0.0-4.0-1.20","subject_id":"613a4bd6e4259b64db005489","study_id":"60edd13110225f80f9f3709b","session_id":"6196c7083109e4c1ac14fb88","condition":"full-information","relevant_dimensions":["wings","pattern"],"bee_group":{"antennae":"X","wings":"1","pattern":"D","legs":"X"},"bonus":1.8400000000000012},{"rt":24776.399999976158,"stimulus":"bees-with-color/bee-A1SF.svg","response":0,"trial_type":"image-button-response","trial_index":53,"time_elapsed":1217462,"internal_node_id":"0.0-4.0-0.21","subject_id":"613a4bd6e4259b64db005489","study_id":"60edd13110225f80f9f3709b","session_id":"6196c7083109e4c1ac14fb88","condition":"full-information","relevant_dimensions":["wings","pattern"],"bee_group":{"antennae":"X","wings":"1","pattern":"D","legs":"X"},"action":"harvest","summary":"good-harvest","bonus":1.8400000000000012},{"rt":1321.5999999940395,"stimulus":"\n                    <p><b>Action: <em>harvest</em></b></p>\n                    <p>This is the bee that you just saw.</p>\n                    <img src=\"bees-with-color/bee-A1SF.svg\" width=\"200\">\n                    <p><span class=\"greenText\"><b>Successful harvest!</b></span><br>Your pay has increased by $0.02. Your bonus pay is now $0.76.</p>\n            ","response":0,"trial_type":"html-button-response","trial_index":54,"time_elapsed":1218784,"internal_node_id":"0.0-4.0-1.21","subject_id":"613a4bd6e4259b64db005489","study_id":"60edd13110225f80f9f3709b","session_id":"6196c7083109e4c1ac14fb88","condition":"full-information","relevant_dimensions":["wings","pattern"],"bee_group":{"antennae":"X","wings":"1","pattern":"D","legs":"X"},"bonus":1.8400000000000012},{"rt":8290.199999988079,"stimulus":"bees-with-color/bee-B1SM.svg","response":0,"trial_type":"image-button-response","trial_index":55,"time_elapsed":1227076,"internal_node_id":"0.0-4.0-0.22","subject_id":"613a4bd6e4259b64db005489","study_id":"60edd13110225f80f9f3709b","session_id":"6196c7083109e4c1ac14fb88","condition":"full-information","relevant_dimensions":["wings","pattern"],"bee_group":{"antennae":"X","wings":"1","pattern":"D","legs":"X"},"action":"harvest","summary":"good-harvest","bonus":1.8400000000000012},{"rt":1208.4000000059605,"stimulus":"\n                    <p><b>Action: <em>harvest</em></b></p>\n                    <p>This is the bee that you just saw.</p>\n                    <img src=\"bees-with-color/bee-B1SM.svg\" width=\"200\">\n                    <p><span class=\"greenText\"><b>Successful harvest!</b></span><br>Your pay has increased by $0.02. Your bonus pay is now $0.78.</p>\n            ","response":0,"trial_type":"html-button-response","trial_index":56,"time_elapsed":1228285,"internal_node_id":"0.0-4.0-1.22","subject_id":"613a4bd6e4259b64db005489","study_id":"60edd13110225f80f9f3709b","session_id":"6196c7083109e4c1ac14fb88","condition":"full-information","relevant_dimensions":["wings","pattern"],"bee_group":{"antennae":"X","wings":"1","pattern":"D","legs":"X"},"bonus":1.8400000000000012},{"rt":2606.0999999940395,"stimulus":"bees-with-color/bee-B1DF.svg","response":1,"trial_type":"image-button-response","trial_index":57,"time_elapsed":1230893,"internal_node_id":"0.0-4.0-0.23","subject_id":"613a4bd6e4259b64db005489","study_id":"60edd13110225f80f9f3709b","session_id":"6196c7083109e4c1ac14fb88","condition":"full-information","relevant_dimensions":["wings","pattern"],"bee_group":{"antennae":"X","wings":"1","pattern":"D","legs":"X"},"action":"avoid","summary":"good-avoid","bonus":1.8400000000000012},{"rt":1833.0999999940395,"stimulus":"\n                    <p><b>Action: <em>avoid</em></b></p>\n                    <p>This is the bee that you just saw.</p>\n                    <img src=\"bees-with-color/bee-B1DF.svg\" width=\"200\">\n                    <p><span class=\"greenText\">Good choice!</span>  This bee would have stung you.<br>Your bonus pay is unchanged, and remains at $0.78.</p>\n            ","response":0,"trial_type":"html-button-response","trial_index":58,"time_elapsed":1232727,"internal_node_id":"0.0-4.0-1.23","subject_id":"613a4bd6e4259b64db005489","study_id":"60edd13110225f80f9f3709b","session_id":"6196c7083109e4c1ac14fb88","condition":"full-information","relevant_dimensions":["wings","pattern"],"bee_group":{"antennae":"X","wings":"1","pattern":"D","legs":"X"},"bonus":1.8400000000000012},{"rt":2521.199999988079,"stimulus":"bees-with-color/bee-A1DM.svg","response":1,"trial_type":"image-button-response","trial_index":59,"time_elapsed":1235250,"internal_node_id":"0.0-4.0-0.24","subject_id":"613a4bd6e4259b64db005489","study_id":"60edd13110225f80f9f3709b","session_id":"6196c7083109e4c1ac14fb88","condition":"full-information","relevant_dimensions":["wings","pattern"],"bee_group":{"antennae":"X","wings":"1","pattern":"D","legs":"X"},"action":"avoid","summary":"good-avoid","bonus":1.8400000000000012},{"rt":1383.9000000059605,"stimulus":"\n                    <p><b>Action: <em>avoid</em></b></p>\n                    <p>This is the bee that you just saw.</p>\n                    <img src=\"bees-with-color/bee-A1DM.svg\" width=\"200\">\n                    <p><span class=\"greenText\">Good choice!</span>  This bee would have stung you.<br>Your bonus pay is unchanged, and remains at $0.78.</p>\n            ","response":0,"trial_type":"html-button-response","trial_index":60,"time_elapsed":1236635,"internal_node_id":"0.0-4.0-1.24","subject_id":"613a4bd6e4259b64db005489","study_id":"60edd13110225f80f9f3709b","session_id":"6196c7083109e4c1ac14fb88","condition":"full-information","relevant_dimensions":["wings","pattern"],"bee_group":{"antennae":"X","wings":"1","pattern":"D","legs":"X"},"bonus":1.8400000000000012},{"rt":6775.899999976158,"stimulus":"bees-with-color/bee-A1SM.svg","response":0,"trial_type":"image-button-response","trial_index":61,"time_elapsed":1243413,"internal_node_id":"0.0-4.0-0.25","subject_id":"613a4bd6e4259b64db005489","study_id":"60edd13110225f80f9f3709b","session_id":"6196c7083109e4c1ac14fb88","condition":"full-information","relevant_dimensions":["wings","pattern"],"bee_group":{"antennae":"X","wings":"1","pattern":"D","legs":"X"},"action":"harvest","summary":"good-harvest","bonus":1.8400000000000012},{"rt":858.8000000119209,"stimulus":"\n                    <p><b>Action: <em>harvest</em></b></p>\n                    <p>This is the bee that you just saw.</p>\n                    <img src=\"bees-with-color/bee-A1SM.svg\" width=\"200\">\n                    <p><span class=\"greenText\"><b>Successful harvest!</b></span><br>Your pay has increased by $0.02. Your bonus pay is now $0.80.</p>\n            ","response":0,"trial_type":"html-button-response","trial_index":62,"time_elapsed":1244273,"internal_node_id":"0.0-4.0-1.25","subject_id":"613a4bd6e4259b64db005489","study_id":"60edd13110225f80f9f3709b","session_id":"6196c7083109e4c1ac14fb88","condition":"full-information","relevant_dimensions":["wings","pattern"],"bee_group":{"antennae":"X","wings":"1","pattern":"D","legs":"X"},"bonus":1.8400000000000012},{"rt":9870.300000011921,"stimulus":"bees-with-color/bee-B2SM.svg","response":0,"trial_type":"image-button-response","trial_index":63,"time_elapsed":1254145,"internal_node_id":"0.0-4.0-0.26","subject_id":"613a4bd6e4259b64db005489","study_id":"60edd13110225f80f9f3709b","session_id":"6196c7083109e4c1ac14fb88","condition":"full-information","relevant_dimensions":["wings","pattern"],"bee_group":{"antennae":"X","wings":"1","pattern":"D","legs":"X"},"action":"harvest","summary":"good-harvest","bonus":1.8400000000000012},{"rt":1055.8999999761581,"stimulus":"\n                    <p><b>Action: <em>harvest</em></b></p>\n                    <p>This is the bee that you just saw.</p>\n                    <img src=\"bees-with-color/bee-B2SM.svg\" width=\"200\">\n                    <p><span class=\"greenText\"><b>Successful harvest!</b></span><br>Your pay has increased by $0.02. Your bonus pay is now $0.82.</p>\n            ","response":0,"trial_type":"html-button-response","trial_index":64,"time_elapsed":1255202,"internal_node_id":"0.0-4.0-1.26","subject_id":"613a4bd6e4259b64db005489","study_id":"60edd13110225f80f9f3709b","session_id":"6196c7083109e4c1ac14fb88","condition":"full-information","relevant_dimensions":["wings","pattern"],"bee_group":{"antennae":"X","wings":"1","pattern":"D","legs":"X"},"bonus":1.8400000000000012},{"rt":1575.4000000059605,"stimulus":"bees-with-color/bee-B2SF.svg","response":0,"trial_type":"image-button-response","trial_index":65,"time_elapsed":1256778,"internal_node_id":"0.0-4.0-0.27","subject_id":"613a4bd6e4259b64db005489","study_id":"60edd13110225f80f9f3709b","session_id":"6196c7083109e4c1ac14fb88","condition":"full-information","relevant_dimensions":["wings","pattern"],"bee_group":{"antennae":"X","wings":"1","pattern":"D","legs":"X"},"action":"harvest","summary":"good-harvest","bonus":1.8400000000000012},{"rt":897.5,"stimulus":"\n                    <p><b>Action: <em>harvest</em></b></p>\n                    <p>This is the bee that you just saw.</p>\n                    <img src=\"bees-with-color/bee-B2SF.svg\" width=\"200\">\n                    <p><span class=\"greenText\"><b>Successful harvest!</b></span><br>Your pay has increased by $0.02. Your bonus pay is now $0.84.</p>\n            ","response":0,"trial_type":"html-button-response","trial_index":66,"time_elapsed":1257677,"internal_node_id":"0.0-4.0-1.27","subject_id":"613a4bd6e4259b64db005489","study_id":"60edd13110225f80f9f3709b","session_id":"6196c7083109e4c1ac14fb88","condition":"full-information","relevant_dimensions":["wings","pattern"],"bee_group":{"antennae":"X","wings":"1","pattern":"D","legs":"X"},"bonus":1.8400000000000012},{"rt":1493.1000000238419,"stimulus":"bees-with-color/bee-A2SF.svg","response":0,"trial_type":"image-button-response","trial_index":67,"time_elapsed":1259171,"internal_node_id":"0.0-4.0-0.28","subject_id":"613a4bd6e4259b64db005489","study_id":"60edd13110225f80f9f3709b","session_id":"6196c7083109e4c1ac14fb88","condition":"full-information","relevant_dimensions":["wings","pattern"],"bee_group":{"antennae":"X","wings":"1","pattern":"D","legs":"X"},"action":"harvest","summary":"good-harvest","bonus":1.8400000000000012},{"rt":867,"stimulus":"\n                    <p><b>Action: <em>harvest</em></b></p>\n                    <p>This is the bee that you just saw.</p>\n                    <img src=\"bees-with-color/bee-A2SF.svg\" width=\"200\">\n                    <p><span class=\"greenText\"><b>Successful harvest!</b></span><br>Your pay has increased by $0.02. Your bonus pay is now $0.86.</p>\n            ","response":0,"trial_type":"html-button-response","trial_index":68,"time_elapsed":1260039,"internal_node_id":"0.0-4.0-1.28","subject_id":"613a4bd6e4259b64db005489","study_id":"60edd13110225f80f9f3709b","session_id":"6196c7083109e4c1ac14fb88","condition":"full-information","relevant_dimensions":["wings","pattern"],"bee_group":{"antennae":"X","wings":"1","pattern":"D","legs":"X"},"bonus":1.8400000000000012},{"rt":2126.399999976158,"stimulus":"bees-with-color/bee-B2DM.svg","response":0,"trial_type":"image-button-response","trial_index":69,"time_elapsed":1262166,"internal_node_id":"0.0-4.0-0.29","subject_id":"613a4bd6e4259b64db005489","study_id":"60edd13110225f80f9f3709b","session_id":"6196c7083109e4c1ac14fb88","condition":"full-information","relevant_dimensions":["wings","pattern"],"bee_group":{"antennae":"X","wings":"1","pattern":"D","legs":"X"},"action":"harvest","summary":"good-harvest","bonus":1.8400000000000012},{"rt":996.2000000178814,"stimulus":"\n                    <p><b>Action: <em>harvest</em></b></p>\n                    <p>This is the bee that you just saw.</p>\n                    <img src=\"bees-with-color/bee-B2DM.svg\" width=\"200\">\n                    <p><span class=\"greenText\"><b>Successful harvest!</b></span><br>Your pay has increased by $0.02. Your bonus pay is now $0.88.</p>\n            ","response":0,"trial_type":"html-button-response","trial_index":70,"time_elapsed":1263163,"internal_node_id":"0.0-4.0-1.29","subject_id":"613a4bd6e4259b64db005489","study_id":"60edd13110225f80f9f3709b","session_id":"6196c7083109e4c1ac14fb88","condition":"full-information","relevant_dimensions":["wings","pattern"],"bee_group":{"antennae":"X","wings":"1","pattern":"D","legs":"X"},"bonus":1.8400000000000012},{"rt":3416.199999988079,"stimulus":"bees-with-color/bee-B1SF.svg","response":0,"trial_type":"image-button-response","trial_index":71,"time_elapsed":1266581,"internal_node_id":"0.0-4.0-0.30","subject_id":"613a4bd6e4259b64db005489","study_id":"60edd13110225f80f9f3709b","session_id":"6196c7083109e4c1ac14fb88","condition":"full-information","relevant_dimensions":["wings","pattern"],"bee_group":{"antennae":"X","wings":"1","pattern":"D","legs":"X"},"action":"harvest","summary":"good-harvest","bonus":1.8400000000000012},{"rt":812.2999999821186,"stimulus":"\n                    <p><b>Action: <em>harvest</em></b></p>\n                    <p>This is the bee that you just saw.</p>\n                    <img src=\"bees-with-color/bee-B1SF.svg\" width=\"200\">\n                    <p><span class=\"greenText\"><b>Successful harvest!</b></span><br>Your pay has increased by $0.02. Your bonus pay is now $0.90.</p>\n            ","response":0,"trial_type":"html-button-response","trial_index":72,"time_elapsed":1267394,"internal_node_id":"0.0-4.0-1.30","subject_id":"613a4bd6e4259b64db005489","study_id":"60edd13110225f80f9f3709b","session_id":"6196c7083109e4c1ac14fb88","condition":"full-information","relevant_dimensions":["wings","pattern"],"bee_group":{"antennae":"X","wings":"1","pattern":"D","legs":"X"},"bonus":1.8400000000000012},{"rt":15147.199999988079,"stimulus":"bees-with-color/bee-B1DM.svg","response":1,"trial_type":"image-button-response","trial_index":73,"time_elapsed":1282543,"internal_node_id":"0.0-4.0-0.31","subject_id":"613a4bd6e4259b64db005489","study_id":"60edd13110225f80f9f3709b","session_id":"6196c7083109e4c1ac14fb88","condition":"full-information","relevant_dimensions":["wings","pattern"],"bee_group":{"antennae":"X","wings":"1","pattern":"D","legs":"X"},"action":"avoid","summary":"good-avoid","bonus":1.8400000000000012},{"rt":1449.699999988079,"stimulus":"\n                    <p><b>Action: <em>avoid</em></b></p>\n                    <p>This is the bee that you just saw.</p>\n                    <img src=\"bees-with-color/bee-B1DM.svg\" width=\"200\">\n                    <p><span class=\"greenText\">Good choice!</span>  This bee would have stung you.<br>Your bonus pay is unchanged, and remains at $0.90.</p>\n            ","response":0,"trial_type":"html-button-response","trial_index":74,"time_elapsed":1283994,"internal_node_id":"0.0-4.0-1.31","subject_id":"613a4bd6e4259b64db005489","study_id":"60edd13110225f80f9f3709b","session_id":"6196c7083109e4c1ac14fb88","condition":"full-information","relevant_dimensions":["wings","pattern"],"bee_group":{"antennae":"X","wings":"1","pattern":"D","legs":"X"},"bonus":1.8400000000000012},{"rt":1527.2999999821186,"stimulus":"bees-with-color/bee-B2SM.svg","response":0,"trial_type":"image-button-response","trial_index":75,"time_elapsed":1285522,"internal_node_id":"0.0-4.0-0.32","subject_id":"613a4bd6e4259b64db005489","study_id":"60edd13110225f80f9f3709b","session_id":"6196c7083109e4c1ac14fb88","condition":"full-information","relevant_dimensions":["wings","pattern"],"bee_group":{"antennae":"X","wings":"1","pattern":"D","legs":"X"},"action":"harvest","summary":"good-harvest","bonus":1.8400000000000012},{"rt":990.9000000059605,"stimulus":"\n                    <p><b>Action: <em>harvest</em></b></p>\n                    <p>This is the bee that you just saw.</p>\n                    <img src=\"bees-with-color/bee-B2SM.svg\" width=\"200\">\n                    <p><span class=\"greenText\"><b>Successful harvest!</b></span><br>Your pay has increased by $0.02. Your bonus pay is now $0.92.</p>\n            ","response":0,"trial_type":"html-button-response","trial_index":76,"time_elapsed":1286515,"internal_node_id":"0.0-4.0-1.32","subject_id":"613a4bd6e4259b64db005489","study_id":"60edd13110225f80f9f3709b","session_id":"6196c7083109e4c1ac14fb88","condition":"full-information","relevant_dimensions":["wings","pattern"],"bee_group":{"antennae":"X","wings":"1","pattern":"D","legs":"X"},"bonus":1.8400000000000012},{"rt":1538,"stimulus":"bees-with-color/bee-B2DF.svg","response":0,"trial_type":"image-button-response","trial_index":77,"time_elapsed":1288054,"internal_node_id":"0.0-4.0-0.33","subject_id":"613a4bd6e4259b64db005489","study_id":"60edd13110225f80f9f3709b","session_id":"6196c7083109e4c1ac14fb88","condition":"full-information","relevant_dimensions":["wings","pattern"],"bee_group":{"antennae":"X","wings":"1","pattern":"D","legs":"X"},"action":"harvest","summary":"good-harvest","bonus":1.8400000000000012},{"rt":1025.699999988079,"stimulus":"\n                    <p><b>Action: <em>harvest</em></b></p>\n                    <p>This is the bee that you just saw.</p>\n                    <img src=\"bees-with-color/bee-B2DF.svg\" width=\"200\">\n                    <p><span class=\"greenText\"><b>Successful harvest!</b></span><br>Your pay has increased by $0.02. Your bonus pay is now $0.94.</p>\n            ","response":0,"trial_type":"html-button-response","trial_index":78,"time_elapsed":1289081,"internal_node_id":"0.0-4.0-1.33","subject_id":"613a4bd6e4259b64db005489","study_id":"60edd13110225f80f9f3709b","session_id":"6196c7083109e4c1ac14fb88","condition":"full-information","relevant_dimensions":["wings","pattern"],"bee_group":{"antennae":"X","wings":"1","pattern":"D","legs":"X"},"bonus":1.8400000000000012},{"rt":1901.6000000238419,"stimulus":"bees-with-color/bee-A1DM.svg","response":1,"trial_type":"image-button-response","trial_index":79,"time_elapsed":1290983,"internal_node_id":"0.0-4.0-0.34","subject_id":"613a4bd6e4259b64db005489","study_id":"60edd13110225f80f9f3709b","session_id":"6196c7083109e4c1ac14fb88","condition":"full-information","relevant_dimensions":["wings","pattern"],"bee_group":{"antennae":"X","wings":"1","pattern":"D","legs":"X"},"action":"avoid","summary":"good-avoid","bonus":1.8400000000000012},{"rt":978.6999999880791,"stimulus":"\n                    <p><b>Action: <em>avoid</em></b></p>\n                    <p>This is the bee that you just saw.</p>\n                    <img src=\"bees-with-color/bee-A1DM.svg\" width=\"200\">\n                    <p><span class=\"greenText\">Good choice!</span>  This bee would have stung you.<br>Your bonus pay is unchanged, and remains at $0.94.</p>\n            ","response":0,"trial_type":"html-button-response","trial_index":80,"time_elapsed":1291963,"internal_node_id":"0.0-4.0-1.34","subject_id":"613a4bd6e4259b64db005489","study_id":"60edd13110225f80f9f3709b","session_id":"6196c7083109e4c1ac14fb88","condition":"full-information","relevant_dimensions":["wings","pattern"],"bee_group":{"antennae":"X","wings":"1","pattern":"D","legs":"X"},"bonus":1.8400000000000012},{"rt":1595.699999988079,"stimulus":"bees-with-color/bee-A2SF.svg","response":0,"trial_type":"image-button-response","trial_index":81,"time_elapsed":1293560,"internal_node_id":"0.0-4.0-0.35","subject_id":"613a4bd6e4259b64db005489","study_id":"60edd13110225f80f9f3709b","session_id":"6196c7083109e4c1ac14fb88","condition":"full-information","relevant_dimensions":["wings","pattern"],"bee_group":{"antennae":"X","wings":"1","pattern":"D","legs":"X"},"action":"harvest","summary":"good-harvest","bonus":1.8400000000000012},{"rt":941.5,"stimulus":"\n                    <p><b>Action: <em>harvest</em></b></p>\n                    <p>This is the bee that you just saw.</p>\n                    <img src=\"bees-with-color/bee-A2SF.svg\" width=\"200\">\n                    <p><span class=\"greenText\"><b>Successful harvest!</b></span><br>Your pay has increased by $0.02. Your bonus pay is now $0.96.</p>\n            ","response":0,"trial_type":"html-button-response","trial_index":82,"time_elapsed":1294503,"internal_node_id":"0.0-4.0-1.35","subject_id":"613a4bd6e4259b64db005489","study_id":"60edd13110225f80f9f3709b","session_id":"6196c7083109e4c1ac14fb88","condition":"full-information","relevant_dimensions":["wings","pattern"],"bee_group":{"antennae":"X","wings":"1","pattern":"D","legs":"X"},"bonus":1.8400000000000012},{"rt":2216.4000000059605,"stimulus":"bees-with-color/bee-B1SM.svg","response":0,"trial_type":"image-button-response","trial_index":83,"time_elapsed":1296721,"internal_node_id":"0.0-4.0-0.36","subject_id":"613a4bd6e4259b64db005489","study_id":"60edd13110225f80f9f3709b","session_id":"6196c7083109e4c1ac14fb88","condition":"full-information","relevant_dimensions":["wings","pattern"],"bee_group":{"antennae":"X","wings":"1","pattern":"D","legs":"X"},"action":"harvest","summary":"good-harvest","bonus":1.8400000000000012},{"rt":963.9000000059605,"stimulus":"\n                    <p><b>Action: <em>harvest</em></b></p>\n                    <p>This is the bee that you just saw.</p>\n                    <img src=\"bees-with-color/bee-B1SM.svg\" width=\"200\">\n                    <p><span class=\"greenText\"><b>Successful harvest!</b></span><br>Your pay has increased by $0.02. Your bonus pay is now $0.98.</p>\n            ","response":0,"trial_type":"html-button-response","trial_index":84,"time_elapsed":1297686,"internal_node_id":"0.0-4.0-1.36","subject_id":"613a4bd6e4259b64db005489","study_id":"60edd13110225f80f9f3709b","session_id":"6196c7083109e4c1ac14fb88","condition":"full-information","relevant_dimensions":["wings","pattern"],"bee_group":{"antennae":"X","wings":"1","pattern":"D","legs":"X"},"bonus":1.8400000000000012},{"rt":1220.199999988079,"stimulus":"bees-with-color/bee-B1DF.svg","response":1,"trial_type":"image-button-response","trial_index":85,"time_elapsed":1298907,"internal_node_id":"0.0-4.0-0.37","subject_id":"613a4bd6e4259b64db005489","study_id":"60edd13110225f80f9f3709b","session_id":"6196c7083109e4c1ac14fb88","condition":"full-information","relevant_dimensions":["wings","pattern"],"bee_group":{"antennae":"X","wings":"1","pattern":"D","legs":"X"},"action":"avoid","summary":"good-avoid","bonus":1.8400000000000012},{"rt":925.3000000119209,"stimulus":"\n                    <p><b>Action: <em>avoid</em></b></p>\n                    <p>This is the bee that you just saw.</p>\n                    <img src=\"bees-with-color/bee-B1DF.svg\" width=\"200\">\n                    <p><span class=\"greenText\">Good choice!</span>  This bee would have stung you.<br>Your bonus pay is unchanged, and remains at $0.98.</p>\n            ","response":0,"trial_type":"html-button-response","trial_index":86,"time_elapsed":1299833,"internal_node_id":"0.0-4.0-1.37","subject_id":"613a4bd6e4259b64db005489","study_id":"60edd13110225f80f9f3709b","session_id":"6196c7083109e4c1ac14fb88","condition":"full-information","relevant_dimensions":["wings","pattern"],"bee_group":{"antennae":"X","wings":"1","pattern":"D","legs":"X"},"bonus":1.8400000000000012},{"rt":1889.2999999821186,"stimulus":"bees-with-color/bee-B2SF.svg","response":0,"trial_type":"image-button-response","trial_index":87,"time_elapsed":1301723,"internal_node_id":"0.0-4.0-0.38","subject_id":"613a4bd6e4259b64db005489","study_id":"60edd13110225f80f9f3709b","session_id":"6196c7083109e4c1ac14fb88","condition":"full-information","relevant_dimensions":["wings","pattern"],"bee_group":{"antennae":"X","wings":"1","pattern":"D","legs":"X"},"action":"harvest","summary":"good-harvest","bonus":1.8400000000000012},{"rt":775.5999999940395,"stimulus":"\n                    <p><b>Action: <em>harvest</em></b></p>\n                    <p>This is the bee that you just saw.</p>\n                    <img src=\"bees-with-color/bee-B2SF.svg\" width=\"200\">\n                    <p><span class=\"greenText\"><b>Successful harvest!</b></span><br>Your pay has increased by $0.02. Your bonus pay is now $1.00.</p>\n            ","response":0,"trial_type":"html-button-response","trial_index":88,"time_elapsed":1302500,"internal_node_id":"0.0-4.0-1.38","subject_id":"613a4bd6e4259b64db005489","study_id":"60edd13110225f80f9f3709b","session_id":"6196c7083109e4c1ac14fb88","condition":"full-information","relevant_dimensions":["wings","pattern"],"bee_group":{"antennae":"X","wings":"1","pattern":"D","legs":"X"},"bonus":1.8400000000000012},{"rt":1494.7999999821186,"stimulus":"bees-with-color/bee-A2DM.svg","response":0,"trial_type":"image-button-response","trial_index":89,"time_elapsed":1303996,"internal_node_id":"0.0-4.0-0.39","subject_id":"613a4bd6e4259b64db005489","study_id":"60edd13110225f80f9f3709b","session_id":"6196c7083109e4c1ac14fb88","condition":"full-information","relevant_dimensions":["wings","pattern"],"bee_group":{"antennae":"X","wings":"1","pattern":"D","legs":"X"},"action":"harvest","summary":"good-harvest","bonus":1.8400000000000012},{"rt":971.9000000059605,"stimulus":"\n                    <p><b>Action: <em>harvest</em></b></p>\n                    <p>This is the bee that you just saw.</p>\n                    <img src=\"bees-with-color/bee-A2DM.svg\" width=\"200\">\n                    <p><span class=\"greenText\"><b>Successful harvest!</b></span><br>Your pay has increased by $0.02. Your bonus pay is now $1.02.</p>\n            ","response":0,"trial_type":"html-button-response","trial_index":90,"time_elapsed":1304969,"internal_node_id":"0.0-4.0-1.39","subject_id":"613a4bd6e4259b64db005489","study_id":"60edd13110225f80f9f3709b","session_id":"6196c7083109e4c1ac14fb88","condition":"full-information","relevant_dimensions":["wings","pattern"],"bee_group":{"antennae":"X","wings":"1","pattern":"D","legs":"X"},"bonus":1.8400000000000012},{"rt":2289.7999999821186,"stimulus":"bees-with-color/bee-B1SF.svg","response":0,"trial_type":"image-button-response","trial_index":91,"time_elapsed":1307260,"internal_node_id":"0.0-4.0-0.40","subject_id":"613a4bd6e4259b64db005489","study_id":"60edd13110225f80f9f3709b","session_id":"6196c7083109e4c1ac14fb88","condition":"full-information","relevant_dimensions":["wings","pattern"],"bee_group":{"antennae":"X","wings":"1","pattern":"D","legs":"X"},"action":"harvest","summary":"good-harvest","bonus":1.8400000000000012},{"rt":964.4000000059605,"stimulus":"\n                    <p><b>Action: <em>harvest</em></b></p>\n                    <p>This is the bee that you just saw.</p>\n                    <img src=\"bees-with-color/bee-B1SF.svg\" width=\"200\">\n                    <p><span class=\"greenText\"><b>Successful harvest!</b></span><br>Your pay has increased by $0.02. Your bonus pay is now $1.04.</p>\n            ","response":0,"trial_type":"html-button-response","trial_index":92,"time_elapsed":1308225,"internal_node_id":"0.0-4.0-1.40","subject_id":"613a4bd6e4259b64db005489","study_id":"60edd13110225f80f9f3709b","session_id":"6196c7083109e4c1ac14fb88","condition":"full-information","relevant_dimensions":["wings","pattern"],"bee_group":{"antennae":"X","wings":"1","pattern":"D","legs":"X"},"bonus":1.8400000000000012},{"rt":1645.199999988079,"stimulus":"bees-with-color/bee-A1SF.svg","response":0,"trial_type":"image-button-response","trial_index":93,"time_elapsed":1309872,"internal_node_id":"0.0-4.0-0.41","subject_id":"613a4bd6e4259b64db005489","study_id":"60edd13110225f80f9f3709b","session_id":"6196c7083109e4c1ac14fb88","condition":"full-information","relevant_dimensions":["wings","pattern"],"bee_group":{"antennae":"X","wings":"1","pattern":"D","legs":"X"},"action":"harvest","summary":"good-harvest","bonus":1.8400000000000012},{"rt":804.8000000119209,"stimulus":"\n                    <p><b>Action: <em>harvest</em></b></p>\n                    <p>This is the bee that you just saw.</p>\n                    <img src=\"bees-with-color/bee-A1SF.svg\" width=\"200\">\n                    <p><span class=\"greenText\"><b>Successful harvest!</b></span><br>Your pay has increased by $0.02. Your bonus pay is now $1.06.</p>\n            ","response":0,"trial_type":"html-button-response","trial_index":94,"time_elapsed":1310678,"internal_node_id":"0.0-4.0-1.41","subject_id":"613a4bd6e4259b64db005489","study_id":"60edd13110225f80f9f3709b","session_id":"6196c7083109e4c1ac14fb88","condition":"full-information","relevant_dimensions":["wings","pattern"],"bee_group":{"antennae":"X","wings":"1","pattern":"D","legs":"X"},"bonus":1.8400000000000012},{"rt":1390.5,"stimulus":"bees-with-color/bee-A2DF.svg","response":0,"trial_type":"image-button-response","trial_index":95,"time_elapsed":1312069,"internal_node_id":"0.0-4.0-0.42","subject_id":"613a4bd6e4259b64db005489","study_id":"60edd13110225f80f9f3709b","session_id":"6196c7083109e4c1ac14fb88","condition":"full-information","relevant_dimensions":["wings","pattern"],"bee_group":{"antennae":"X","wings":"1","pattern":"D","legs":"X"},"action":"harvest","summary":"good-harvest","bonus":1.8400000000000012},{"rt":929,"stimulus":"\n                    <p><b>Action: <em>harvest</em></b></p>\n                    <p>This is the bee that you just saw.</p>\n                    <img src=\"bees-with-color/bee-A2DF.svg\" width=\"200\">\n                    <p><span class=\"greenText\"><b>Successful harvest!</b></span><br>Your pay has increased by $0.02. Your bonus pay is now $1.08.</p>\n            ","response":0,"trial_type":"html-button-response","trial_index":96,"time_elapsed":1312999,"internal_node_id":"0.0-4.0-1.42","subject_id":"613a4bd6e4259b64db005489","study_id":"60edd13110225f80f9f3709b","session_id":"6196c7083109e4c1ac14fb88","condition":"full-information","relevant_dimensions":["wings","pattern"],"bee_group":{"antennae":"X","wings":"1","pattern":"D","legs":"X"},"bonus":1.8400000000000012},{"rt":1781.9000000059605,"stimulus":"bees-with-color/bee-A1SM.svg","response":0,"trial_type":"image-button-response","trial_index":97,"time_elapsed":1314782,"internal_node_id":"0.0-4.0-0.43","subject_id":"613a4bd6e4259b64db005489","study_id":"60edd13110225f80f9f3709b","session_id":"6196c7083109e4c1ac14fb88","condition":"full-information","relevant_dimensions":["wings","pattern"],"bee_group":{"antennae":"X","wings":"1","pattern":"D","legs":"X"},"action":"harvest","summary":"good-harvest","bonus":1.8400000000000012},{"rt":825.5999999940395,"stimulus":"\n                    <p><b>Action: <em>harvest</em></b></p>\n                    <p>This is the bee that you just saw.</p>\n                    <img src=\"bees-with-color/bee-A1SM.svg\" width=\"200\">\n                    <p><span class=\"greenText\"><b>Successful harvest!</b></span><br>Your pay has increased by $0.02. Your bonus pay is now $1.10.</p>\n            ","response":0,"trial_type":"html-button-response","trial_index":98,"time_elapsed":1315609,"internal_node_id":"0.0-4.0-1.43","subject_id":"613a4bd6e4259b64db005489","study_id":"60edd13110225f80f9f3709b","session_id":"6196c7083109e4c1ac14fb88","condition":"full-information","relevant_dimensions":["wings","pattern"],"bee_group":{"antennae":"X","wings":"1","pattern":"D","legs":"X"},"bonus":1.8400000000000012},{"rt":1750.2000000178814,"stimulus":"bees-with-color/bee-B1DM.svg","response":1,"trial_type":"image-button-response","trial_index":99,"time_elapsed":1317360,"internal_node_id":"0.0-4.0-0.44","subject_id":"613a4bd6e4259b64db005489","study_id":"60edd13110225f80f9f3709b","session_id":"6196c7083109e4c1ac14fb88","condition":"full-information","relevant_dimensions":["wings","pattern"],"bee_group":{"antennae":"X","wings":"1","pattern":"D","legs":"X"},"action":"avoid","summary":"good-avoid","bonus":1.8400000000000012},{"rt":904.7999999821186,"stimulus":"\n                    <p><b>Action: <em>avoid</em></b></p>\n                    <p>This is the bee that you just saw.</p>\n                    <img src=\"bees-with-color/bee-B1DM.svg\" width=\"200\">\n                    <p><span class=\"greenText\">Good choice!</span>  This bee would have stung you.<br>Your bonus pay is unchanged, and remains at $1.10.</p>\n            ","response":0,"trial_type":"html-button-response","trial_index":100,"time_elapsed":1318267,"internal_node_id":"0.0-4.0-1.44","subject_id":"613a4bd6e4259b64db005489","study_id":"60edd13110225f80f9f3709b","session_id":"6196c7083109e4c1ac14fb88","condition":"full-information","relevant_dimensions":["wings","pattern"],"bee_group":{"antennae":"X","wings":"1","pattern":"D","legs":"X"},"bonus":1.8400000000000012},{"rt":2186.100000023842,"stimulus":"bees-with-color/bee-B2DM.svg","response":0,"trial_type":"image-button-response","trial_index":101,"time_elapsed":1320454,"internal_node_id":"0.0-4.0-0.45","subject_id":"613a4bd6e4259b64db005489","study_id":"60edd13110225f80f9f3709b","session_id":"6196c7083109e4c1ac14fb88","condition":"full-information","relevant_dimensions":["wings","pattern"],"bee_group":{"antennae":"X","wings":"1","pattern":"D","legs":"X"},"action":"harvest","summary":"good-harvest","bonus":1.8400000000000012},{"rt":889.9000000059605,"stimulus":"\n                    <p><b>Action: <em>harvest</em></b></p>\n                    <p>This is the bee that you just saw.</p>\n                    <img src=\"bees-with-color/bee-B2DM.svg\" width=\"200\">\n                    <p><span class=\"greenText\"><b>Successful harvest!</b></span><br>Your pay has increased by $0.02. Your bonus pay is now $1.12.</p>\n            ","response":0,"trial_type":"html-button-response","trial_index":102,"time_elapsed":1321345,"internal_node_id":"0.0-4.0-1.45","subject_id":"613a4bd6e4259b64db005489","study_id":"60edd13110225f80f9f3709b","session_id":"6196c7083109e4c1ac14fb88","condition":"full-information","relevant_dimensions":["wings","pattern"],"bee_group":{"antennae":"X","wings":"1","pattern":"D","legs":"X"},"bonus":1.8400000000000012},{"rt":1593,"stimulus":"bees-with-color/bee-A1DF.svg","response":1,"trial_type":"image-button-response","trial_index":103,"time_elapsed":1322939,"internal_node_id":"0.0-4.0-0.46","subject_id":"613a4bd6e4259b64db005489","study_id":"60edd13110225f80f9f3709b","session_id":"6196c7083109e4c1ac14fb88","condition":"full-information","relevant_dimensions":["wings","pattern"],"bee_group":{"antennae":"X","wings":"1","pattern":"D","legs":"X"},"action":"avoid","summary":"good-avoid","bonus":1.8400000000000012},{"rt":889.7000000178814,"stimulus":"\n                    <p><b>Action: <em>avoid</em></b></p>\n                    <p>This is the bee that you just saw.</p>\n                    <img src=\"bees-with-color/bee-A1DF.svg\" width=\"200\">\n                    <p><span class=\"greenText\">Good choice!</span>  This bee would have stung you.<br>Your bonus pay is unchanged, and remains at $1.12.</p>\n            ","response":0,"trial_type":"html-button-response","trial_index":104,"time_elapsed":1323830,"internal_node_id":"0.0-4.0-1.46","subject_id":"613a4bd6e4259b64db005489","study_id":"60edd13110225f80f9f3709b","session_id":"6196c7083109e4c1ac14fb88","condition":"full-information","relevant_dimensions":["wings","pattern"],"bee_group":{"antennae":"X","wings":"1","pattern":"D","legs":"X"},"bonus":1.8400000000000012},{"rt":1368.7000000178814,"stimulus":"bees-with-color/bee-A2SM.svg","response":0,"trial_type":"image-button-response","trial_index":105,"time_elapsed":1325200,"internal_node_id":"0.0-4.0-0.47","subject_id":"613a4bd6e4259b64db005489","study_id":"60edd13110225f80f9f3709b","session_id":"6196c7083109e4c1ac14fb88","condition":"full-information","relevant_dimensions":["wings","pattern"],"bee_group":{"antennae":"X","wings":"1","pattern":"D","legs":"X"},"action":"harvest","summary":"good-harvest","bonus":1.8400000000000012},{"rt":853.5999999940395,"stimulus":"\n                    <p><b>Action: <em>harvest</em></b></p>\n                    <p>This is the bee that you just saw.</p>\n                    <img src=\"bees-with-color/bee-A2SM.svg\" width=\"200\">\n                    <p><span class=\"greenText\"><b>Successful harvest!</b></span><br>Your pay has increased by $0.02. Your bonus pay is now $1.14.</p>\n            ","response":0,"trial_type":"html-button-response","trial_index":106,"time_elapsed":1326055,"internal_node_id":"0.0-4.0-1.47","subject_id":"613a4bd6e4259b64db005489","study_id":"60edd13110225f80f9f3709b","session_id":"6196c7083109e4c1ac14fb88","condition":"full-information","relevant_dimensions":["wings","pattern"],"bee_group":{"antennae":"X","wings":"1","pattern":"D","legs":"X"},"bonus":1.8400000000000012},{"rt":1216.800000011921,"stimulus":"bees-with-color/bee-A1DF.svg","response":1,"trial_type":"image-button-response","trial_index":107,"time_elapsed":1327273,"internal_node_id":"0.0-4.0-0.48","subject_id":"613a4bd6e4259b64db005489","study_id":"60edd13110225f80f9f3709b","session_id":"6196c7083109e4c1ac14fb88","condition":"full-information","relevant_dimensions":["wings","pattern"],"bee_group":{"antennae":"X","wings":"1","pattern":"D","legs":"X"},"action":"avoid","summary":"good-avoid","bonus":1.8400000000000012},{"rt":770.2999999821186,"stimulus":"\n                    <p><b>Action: <em>avoid</em></b></p>\n                    <p>This is the bee that you just saw.</p>\n                    <img src=\"bees-with-color/bee-A1DF.svg\" width=\"200\">\n                    <p><span class=\"greenText\">Good choice!</span>  This bee would have stung you.<br>Your bonus pay is unchanged, and remains at $1.14.</p>\n            ","response":0,"trial_type":"html-button-response","trial_index":108,"time_elapsed":1328045,"internal_node_id":"0.0-4.0-1.48","subject_id":"613a4bd6e4259b64db005489","study_id":"60edd13110225f80f9f3709b","session_id":"6196c7083109e4c1ac14fb88","condition":"full-information","relevant_dimensions":["wings","pattern"],"bee_group":{"antennae":"X","wings":"1","pattern":"D","legs":"X"},"bonus":1.8400000000000012},{"rt":1485.2000000178814,"stimulus":"bees-with-color/bee-A2DM.svg","response":0,"trial_type":"image-button-response","trial_index":109,"time_elapsed":1329531,"internal_node_id":"0.0-4.0-0.49","subject_id":"613a4bd6e4259b64db005489","study_id":"60edd13110225f80f9f3709b","session_id":"6196c7083109e4c1ac14fb88","condition":"full-information","relevant_dimensions":["wings","pattern"],"bee_group":{"antennae":"X","wings":"1","pattern":"D","legs":"X"},"action":"harvest","summary":"good-harvest","bonus":1.8400000000000012},{"rt":744.3999999761581,"stimulus":"\n                    <p><b>Action: <em>harvest</em></b></p>\n                    <p>This is the bee that you just saw.</p>\n                    <img src=\"bees-with-color/bee-A2DM.svg\" width=\"200\">\n                    <p><span class=\"greenText\"><b>Successful harvest!</b></span><br>Your pay has increased by $0.02. Your bonus pay is now $1.16.</p>\n            ","response":0,"trial_type":"html-button-response","trial_index":110,"time_elapsed":1330276,"internal_node_id":"0.0-4.0-1.49","subject_id":"613a4bd6e4259b64db005489","study_id":"60edd13110225f80f9f3709b","session_id":"6196c7083109e4c1ac14fb88","condition":"full-information","relevant_dimensions":["wings","pattern"],"bee_group":{"antennae":"X","wings":"1","pattern":"D","legs":"X"},"bonus":1.8400000000000012},{"rt":2092.600000023842,"stimulus":"bees-with-color/bee-A2DF.svg","response":0,"trial_type":"image-button-response","trial_index":111,"time_elapsed":1332370,"internal_node_id":"0.0-4.0-0.50","subject_id":"613a4bd6e4259b64db005489","study_id":"60edd13110225f80f9f3709b","session_id":"6196c7083109e4c1ac14fb88","condition":"full-information","relevant_dimensions":["wings","pattern"],"bee_group":{"antennae":"X","wings":"1","pattern":"D","legs":"X"},"action":"harvest","summary":"good-harvest","bonus":1.8400000000000012},{"rt":807.2000000178814,"stimulus":"\n                    <p><b>Action: <em>harvest</em></b></p>\n                    <p>This is the bee that you just saw.</p>\n                    <img src=\"bees-with-color/bee-A2DF.svg\" width=\"200\">\n                    <p><span class=\"greenText\"><b>Successful harvest!</b></span><br>Your pay has increased by $0.02. Your bonus pay is now $1.18.</p>\n            ","response":0,"trial_type":"html-button-response","trial_index":112,"time_elapsed":1333178,"internal_node_id":"0.0-4.0-1.50","subject_id":"613a4bd6e4259b64db005489","study_id":"60edd13110225f80f9f3709b","session_id":"6196c7083109e4c1ac14fb88","condition":"full-information","relevant_dimensions":["wings","pattern"],"bee_group":{"antennae":"X","wings":"1","pattern":"D","legs":"X"},"bonus":1.8400000000000012},{"rt":1389.699999988079,"stimulus":"bees-with-color/bee-A1DM.svg","response":1,"trial_type":"image-button-response","trial_index":113,"time_elapsed":1334569,"internal_node_id":"0.0-4.0-0.51","subject_id":"613a4bd6e4259b64db005489","study_id":"60edd13110225f80f9f3709b","session_id":"6196c7083109e4c1ac14fb88","condition":"full-information","relevant_dimensions":["wings","pattern"],"bee_group":{"antennae":"X","wings":"1","pattern":"D","legs":"X"},"action":"avoid","summary":"good-avoid","bonus":1.8400000000000012},{"rt":832.9000000059605,"stimulus":"\n                    <p><b>Action: <em>avoid</em></b></p>\n                    <p>This is the bee that you just saw.</p>\n                    <img src=\"bees-with-color/bee-A1DM.svg\" width=\"200\">\n                    <p><span class=\"greenText\">Good choice!</span>  This bee would have stung you.<br>Your bonus pay is unchanged, and remains at $1.18.</p>\n            ","response":0,"trial_type":"html-button-response","trial_index":114,"time_elapsed":1335403,"internal_node_id":"0.0-4.0-1.51","subject_id":"613a4bd6e4259b64db005489","study_id":"60edd13110225f80f9f3709b","session_id":"6196c7083109e4c1ac14fb88","condition":"full-information","relevant_dimensions":["wings","pattern"],"bee_group":{"antennae":"X","wings":"1","pattern":"D","legs":"X"},"bonus":1.8400000000000012},{"rt":1052.5,"stimulus":"bees-with-color/bee-B2SF.svg","response":0,"trial_type":"image-button-response","trial_index":115,"time_elapsed":1336456,"internal_node_id":"0.0-4.0-0.52","subject_id":"613a4bd6e4259b64db005489","study_id":"60edd13110225f80f9f3709b","session_id":"6196c7083109e4c1ac14fb88","condition":"full-information","relevant_dimensions":["wings","pattern"],"bee_group":{"antennae":"X","wings":"1","pattern":"D","legs":"X"},"action":"harvest","summary":"good-harvest","bonus":1.8400000000000012},{"rt":683.0999999940395,"stimulus":"\n                    <p><b>Action: <em>harvest</em></b></p>\n                    <p>This is the bee that you just saw.</p>\n                    <img src=\"bees-with-color/bee-B2SF.svg\" width=\"200\">\n                    <p><span class=\"greenText\"><b>Successful harvest!</b></span><br>Your pay has increased by $0.02. Your bonus pay is now $1.20.</p>\n            ","response":0,"trial_type":"html-button-response","trial_index":116,"time_elapsed":1337140,"internal_node_id":"0.0-4.0-1.52","subject_id":"613a4bd6e4259b64db005489","study_id":"60edd13110225f80f9f3709b","session_id":"6196c7083109e4c1ac14fb88","condition":"full-information","relevant_dimensions":["wings","pattern"],"bee_group":{"antennae":"X","wings":"1","pattern":"D","legs":"X"},"bonus":1.8400000000000012},{"rt":1470.800000011921,"stimulus":"bees-with-color/bee-B1SM.svg","response":0,"trial_type":"image-button-response","trial_index":117,"time_elapsed":1338612,"internal_node_id":"0.0-4.0-0.53","subject_id":"613a4bd6e4259b64db005489","study_id":"60edd13110225f80f9f3709b","session_id":"6196c7083109e4c1ac14fb88","condition":"full-information","relevant_dimensions":["wings","pattern"],"bee_group":{"antennae":"X","wings":"1","pattern":"D","legs":"X"},"action":"harvest","summary":"good-harvest","bonus":1.8400000000000012},{"rt":627.2999999821186,"stimulus":"\n                    <p><b>Action: <em>harvest</em></b></p>\n                    <p>This is the bee that you just saw.</p>\n                    <img src=\"bees-with-color/bee-B1SM.svg\" width=\"200\">\n                    <p><span class=\"greenText\"><b>Successful harvest!</b></span><br>Your pay has increased by $0.02. Your bonus pay is now $1.22.</p>\n            ","response":0,"trial_type":"html-button-response","trial_index":118,"time_elapsed":1339241,"internal_node_id":"0.0-4.0-1.53","subject_id":"613a4bd6e4259b64db005489","study_id":"60edd13110225f80f9f3709b","session_id":"6196c7083109e4c1ac14fb88","condition":"full-information","relevant_dimensions":["wings","pattern"],"bee_group":{"antennae":"X","wings":"1","pattern":"D","legs":"X"},"bonus":1.8400000000000012},{"rt":3193.2000000178814,"stimulus":"bees-with-color/bee-A2SM.svg","response":0,"trial_type":"image-button-response","trial_index":119,"time_elapsed":1342435,"internal_node_id":"0.0-4.0-0.54","subject_id":"613a4bd6e4259b64db005489","study_id":"60edd13110225f80f9f3709b","session_id":"6196c7083109e4c1ac14fb88","condition":"full-information","relevant_dimensions":["wings","pattern"],"bee_group":{"antennae":"X","wings":"1","pattern":"D","legs":"X"},"action":"harvest","summary":"good-harvest","bonus":1.8400000000000012},{"rt":589.5,"stimulus":"\n                    <p><b>Action: <em>harvest</em></b></p>\n                    <p>This is the bee that you just saw.</p>\n                    <img src=\"bees-with-color/bee-A2SM.svg\" width=\"200\">\n                    <p><span class=\"greenText\"><b>Successful harvest!</b></span><br>Your pay has increased by $0.02. Your bonus pay is now $1.24.</p>\n            ","response":0,"trial_type":"html-button-response","trial_index":120,"time_elapsed":1343026,"internal_node_id":"0.0-4.0-1.54","subject_id":"613a4bd6e4259b64db005489","study_id":"60edd13110225f80f9f3709b","session_id":"6196c7083109e4c1ac14fb88","condition":"full-information","relevant_dimensions":["wings","pattern"],"bee_group":{"antennae":"X","wings":"1","pattern":"D","legs":"X"},"bonus":1.8400000000000012},{"rt":1314.2999999821186,"stimulus":"bees-with-color/bee-B1SF.svg","response":0,"trial_type":"image-button-response","trial_index":121,"time_elapsed":1344342,"internal_node_id":"0.0-4.0-0.55","subject_id":"613a4bd6e4259b64db005489","study_id":"60edd13110225f80f9f3709b","session_id":"6196c7083109e4c1ac14fb88","condition":"full-information","relevant_dimensions":["wings","pattern"],"bee_group":{"antennae":"X","wings":"1","pattern":"D","legs":"X"},"action":"harvest","summary":"good-harvest","bonus":1.8400000000000012},{"rt":735.0999999940395,"stimulus":"\n                    <p><b>Action: <em>harvest</em></b></p>\n                    <p>This is the bee that you just saw.</p>\n                    <img src=\"bees-with-color/bee-B1SF.svg\" width=\"200\">\n                    <p><span class=\"greenText\"><b>Successful harvest!</b></span><br>Your pay has increased by $0.02. Your bonus pay is now $1.26.</p>\n            ","response":0,"trial_type":"html-button-response","trial_index":122,"time_elapsed":1345078,"internal_node_id":"0.0-4.0-1.55","subject_id":"613a4bd6e4259b64db005489","study_id":"60edd13110225f80f9f3709b","session_id":"6196c7083109e4c1ac14fb88","condition":"full-information","relevant_dimensions":["wings","pattern"],"bee_group":{"antennae":"X","wings":"1","pattern":"D","legs":"X"},"bonus":1.8400000000000012},{"rt":1503.5,"stimulus":"bees-with-color/bee-B2DF.svg","response":0,"trial_type":"image-button-response","trial_index":123,"time_elapsed":1346583,"internal_node_id":"0.0-4.0-0.56","subject_id":"613a4bd6e4259b64db005489","study_id":"60edd13110225f80f9f3709b","session_id":"6196c7083109e4c1ac14fb88","condition":"full-information","relevant_dimensions":["wings","pattern"],"bee_group":{"antennae":"X","wings":"1","pattern":"D","legs":"X"},"action":"harvest","summary":"good-harvest","bonus":1.8400000000000012},{"rt":763.8000000119209,"stimulus":"\n                    <p><b>Action: <em>harvest</em></b></p>\n                    <p>This is the bee that you just saw.</p>\n                    <img src=\"bees-with-color/bee-B2DF.svg\" width=\"200\">\n                    <p><span class=\"greenText\"><b>Successful harvest!</b></span><br>Your pay has increased by $0.02. Your bonus pay is now $1.28.</p>\n            ","response":0,"trial_type":"html-button-response","trial_index":124,"time_elapsed":1347348,"internal_node_id":"0.0-4.0-1.56","subject_id":"613a4bd6e4259b64db005489","study_id":"60edd13110225f80f9f3709b","session_id":"6196c7083109e4c1ac14fb88","condition":"full-information","relevant_dimensions":["wings","pattern"],"bee_group":{"antennae":"X","wings":"1","pattern":"D","legs":"X"},"bonus":1.8400000000000012},{"rt":2334.0999999940395,"stimulus":"bees-with-color/bee-A1SM.svg","response":0,"trial_type":"image-button-response","trial_index":125,"time_elapsed":1349683,"internal_node_id":"0.0-4.0-0.57","subject_id":"613a4bd6e4259b64db005489","study_id":"60edd13110225f80f9f3709b","session_id":"6196c7083109e4c1ac14fb88","condition":"full-information","relevant_dimensions":["wings","pattern"],"bee_group":{"antennae":"X","wings":"1","pattern":"D","legs":"X"},"action":"harvest","summary":"good-harvest","bonus":1.8400000000000012},{"rt":896.1999999880791,"stimulus":"\n                    <p><b>Action: <em>harvest</em></b></p>\n                    <p>This is the bee that you just saw.</p>\n                    <img src=\"bees-with-color/bee-A1SM.svg\" width=\"200\">\n                    <p><span class=\"greenText\"><b>Successful harvest!</b></span><br>Your pay has increased by $0.02. Your bonus pay is now $1.30.</p>\n            ","response":0,"trial_type":"html-button-response","trial_index":126,"time_elapsed":1350580,"internal_node_id":"0.0-4.0-1.57","subject_id":"613a4bd6e4259b64db005489","study_id":"60edd13110225f80f9f3709b","session_id":"6196c7083109e4c1ac14fb88","condition":"full-information","relevant_dimensions":["wings","pattern"],"bee_group":{"antennae":"X","wings":"1","pattern":"D","legs":"X"},"bonus":1.8400000000000012},{"rt":3476.0999999940395,"stimulus":"bees-with-color/bee-A2SF.svg","response":0,"trial_type":"image-button-response","trial_index":127,"time_elapsed":1354058,"internal_node_id":"0.0-4.0-0.58","subject_id":"613a4bd6e4259b64db005489","study_id":"60edd13110225f80f9f3709b","session_id":"6196c7083109e4c1ac14fb88","condition":"full-information","relevant_dimensions":["wings","pattern"],"bee_group":{"antennae":"X","wings":"1","pattern":"D","legs":"X"},"action":"harvest","summary":"good-harvest","bonus":1.8400000000000012},{"rt":1107.0999999940395,"stimulus":"\n                    <p><b>Action: <em>harvest</em></b></p>\n                    <p>This is the bee that you just saw.</p>\n                    <img src=\"bees-with-color/bee-A2SF.svg\" width=\"200\">\n                    <p><span class=\"greenText\"><b>Successful harvest!</b></span><br>Your pay has increased by $0.02. Your bonus pay is now $1.32.</p>\n            ","response":0,"trial_type":"html-button-response","trial_index":128,"time_elapsed":1355166,"internal_node_id":"0.0-4.0-1.58","subject_id":"613a4bd6e4259b64db005489","study_id":"60edd13110225f80f9f3709b","session_id":"6196c7083109e4c1ac14fb88","condition":"full-information","relevant_dimensions":["wings","pattern"],"bee_group":{"antennae":"X","wings":"1","pattern":"D","legs":"X"},"bonus":1.8400000000000012},{"rt":1097.199999988079,"stimulus":"bees-with-color/bee-B2SM.svg","response":0,"trial_type":"image-button-response","trial_index":129,"time_elapsed":1356265,"internal_node_id":"0.0-4.0-0.59","subject_id":"613a4bd6e4259b64db005489","study_id":"60edd13110225f80f9f3709b","session_id":"6196c7083109e4c1ac14fb88","condition":"full-information","relevant_dimensions":["wings","pattern"],"bee_group":{"antennae":"X","wings":"1","pattern":"D","legs":"X"},"action":"harvest","summary":"good-harvest","bonus":1.8400000000000012},{"rt":723,"stimulus":"\n                    <p><b>Action: <em>harvest</em></b></p>\n                    <p>This is the bee that you just saw.</p>\n                    <img src=\"bees-with-color/bee-B2SM.svg\" width=\"200\">\n                    <p><span class=\"greenText\"><b>Successful harvest!</b></span><br>Your pay has increased by $0.02. Your bonus pay is now $1.34.</p>\n            ","response":0,"trial_type":"html-button-response","trial_index":130,"time_elapsed":1356989,"internal_node_id":"0.0-4.0-1.59","subject_id":"613a4bd6e4259b64db005489","study_id":"60edd13110225f80f9f3709b","session_id":"6196c7083109e4c1ac14fb88","condition":"full-information","relevant_dimensions":["wings","pattern"],"bee_group":{"antennae":"X","wings":"1","pattern":"D","legs":"X"},"bonus":1.8400000000000012},{"rt":1139.4000000059605,"stimulus":"bees-with-color/bee-B1DM.svg","response":1,"trial_type":"image-button-response","trial_index":131,"time_elapsed":1358130,"internal_node_id":"0.0-4.0-0.60","subject_id":"613a4bd6e4259b64db005489","study_id":"60edd13110225f80f9f3709b","session_id":"6196c7083109e4c1ac14fb88","condition":"full-information","relevant_dimensions":["wings","pattern"],"bee_group":{"antennae":"X","wings":"1","pattern":"D","legs":"X"},"action":"avoid","summary":"good-avoid","bonus":1.8400000000000012},{"rt":823.1000000238419,"stimulus":"\n                    <p><b>Action: <em>avoid</em></b></p>\n                    <p>This is the bee that you just saw.</p>\n                    <img src=\"bees-with-color/bee-B1DM.svg\" width=\"200\">\n                    <p><span class=\"greenText\">Good choice!</span>  This bee would have stung you.<br>Your bonus pay is unchanged, and remains at $1.34.</p>\n            ","response":0,"trial_type":"html-button-response","trial_index":132,"time_elapsed":1358954,"internal_node_id":"0.0-4.0-1.60","subject_id":"613a4bd6e4259b64db005489","study_id":"60edd13110225f80f9f3709b","session_id":"6196c7083109e4c1ac14fb88","condition":"full-information","relevant_dimensions":["wings","pattern"],"bee_group":{"antennae":"X","wings":"1","pattern":"D","legs":"X"},"bonus":1.8400000000000012},{"rt":1132.300000011921,"stimulus":"bees-with-color/bee-B1DF.svg","response":1,"trial_type":"image-button-response","trial_index":133,"time_elapsed":1360087,"internal_node_id":"0.0-4.0-0.61","subject_id":"613a4bd6e4259b64db005489","study_id":"60edd13110225f80f9f3709b","session_id":"6196c7083109e4c1ac14fb88","condition":"full-information","relevant_dimensions":["wings","pattern"],"bee_group":{"antennae":"X","wings":"1","pattern":"D","legs":"X"},"action":"avoid","summary":"good-avoid","bonus":1.8400000000000012},{"rt":762.0999999940395,"stimulus":"\n                    <p><b>Action: <em>avoid</em></b></p>\n                    <p>This is the bee that you just saw.</p>\n                    <img src=\"bees-with-color/bee-B1DF.svg\" width=\"200\">\n                    <p><span class=\"greenText\">Good choice!</span>  This bee would have stung you.<br>Your bonus pay is unchanged, and remains at $1.34.</p>\n            ","response":0,"trial_type":"html-button-response","trial_index":134,"time_elapsed":1360850,"internal_node_id":"0.0-4.0-1.61","subject_id":"613a4bd6e4259b64db005489","study_id":"60edd13110225f80f9f3709b","session_id":"6196c7083109e4c1ac14fb88","condition":"full-information","relevant_dimensions":["wings","pattern"],"bee_group":{"antennae":"X","wings":"1","pattern":"D","legs":"X"},"bonus":1.8400000000000012},{"rt":4172.700000017881,"stimulus":"bees-with-color/bee-B2DM.svg","response":0,"trial_type":"image-button-response","trial_index":135,"time_elapsed":1365024,"internal_node_id":"0.0-4.0-0.62","subject_id":"613a4bd6e4259b64db005489","study_id":"60edd13110225f80f9f3709b","session_id":"6196c7083109e4c1ac14fb88","condition":"full-information","relevant_dimensions":["wings","pattern"],"bee_group":{"antennae":"X","wings":"1","pattern":"D","legs":"X"},"action":"harvest","summary":"good-harvest","bonus":1.8400000000000012},{"rt":1208.9000000059605,"stimulus":"\n                    <p><b>Action: <em>harvest</em></b></p>\n                    <p>This is the bee that you just saw.</p>\n                    <img src=\"bees-with-color/bee-B2DM.svg\" width=\"200\">\n                    <p><span class=\"greenText\"><b>Successful harvest!</b></span><br>Your pay has increased by $0.02. Your bonus pay is now $1.36.</p>\n            ","response":0,"trial_type":"html-button-response","trial_index":136,"time_elapsed":1366234,"internal_node_id":"0.0-4.0-1.62","subject_id":"613a4bd6e4259b64db005489","study_id":"60edd13110225f80f9f3709b","session_id":"6196c7083109e4c1ac14fb88","condition":"full-information","relevant_dimensions":["wings","pattern"],"bee_group":{"antennae":"X","wings":"1","pattern":"D","legs":"X"},"bonus":1.8400000000000012},{"rt":1453.7000000178814,"stimulus":"bees-with-color/bee-A1SF.svg","response":0,"trial_type":"image-button-response","trial_index":137,"time_elapsed":1367689,"internal_node_id":"0.0-4.0-0.63","subject_id":"613a4bd6e4259b64db005489","study_id":"60edd13110225f80f9f3709b","session_id":"6196c7083109e4c1ac14fb88","condition":"full-information","relevant_dimensions":["wings","pattern"],"bee_group":{"antennae":"X","wings":"1","pattern":"D","legs":"X"},"action":"harvest","summary":"good-harvest","bonus":1.8400000000000012},{"rt":1012.8999999761581,"stimulus":"\n                    <p><b>Action: <em>harvest</em></b></p>\n                    <p>This is the bee that you just saw.</p>\n                    <img src=\"bees-with-color/bee-A1SF.svg\" width=\"200\">\n                    <p><span class=\"greenText\"><b>Successful harvest!</b></span><br>Your pay has increased by $0.02. Your bonus pay is now $1.38.</p>\n            ","response":0,"trial_type":"html-button-response","trial_index":138,"time_elapsed":1368703,"internal_node_id":"0.0-4.0-1.63","subject_id":"613a4bd6e4259b64db005489","study_id":"60edd13110225f80f9f3709b","session_id":"6196c7083109e4c1ac14fb88","condition":"full-information","relevant_dimensions":["wings","pattern"],"bee_group":{"antennae":"X","wings":"1","pattern":"D","legs":"X"},"bonus":1.8400000000000012},{"rt":32897.39999997616,"stimulus":"You have completed the first part of this experiment.<br><br>You will now begin a shorter second part, in which you will receive no feedback.<br>The same rules regarding bonus pay apply.<br><br>Press any key to begin.","response":" ","trial_type":"html-keyboard-response","trial_index":139,"time_elapsed":1401602,"internal_node_id":"0.0-5.0","subject_id":"613a4bd6e4259b64db005489","study_id":"60edd13110225f80f9f3709b","session_id":"6196c7083109e4c1ac14fb88","condition":"full-information","relevant_dimensions":["wings","pattern"],"bee_group":{"antennae":"X","wings":"1","pattern":"D","legs":"X"},"bonus":1.8400000000000012},{"rt":16804.90000000596,"stimulus":"bees-with-color/bee-B2SM.svg","response":1,"trial_type":"image-button-response","trial_index":140,"time_elapsed":1418417,"internal_node_id":"0.0-6.0-0.0","subject_id":"613a4bd6e4259b64db005489","study_id":"60edd13110225f80f9f3709b","session_id":"6196c7083109e4c1ac14fb88","condition":"full-information","relevant_dimensions":["wings","pattern"],"bee_group":{"antennae":"X","wings":"1","pattern":"D","legs":"X"},"bonus":1.8400000000000012},{"rt":13049.40000000596,"stimulus":"bees-with-color/bee-A2DM.svg","response":0,"trial_type":"image-button-response","trial_index":141,"time_elapsed":1431469,"internal_node_id":"0.0-6.0-0.1","subject_id":"613a4bd6e4259b64db005489","study_id":"60edd13110225f80f9f3709b","session_id":"6196c7083109e4c1ac14fb88","condition":"full-information","relevant_dimensions":["wings","pattern"],"bee_group":{"antennae":"X","wings":"1","pattern":"D","legs":"X"},"bonus":1.8400000000000012},{"rt":3461.5,"stimulus":"bees-with-color/bee-A2DF.svg","response":0,"trial_type":"image-button-response","trial_index":142,"time_elapsed":1434932,"internal_node_id":"0.0-6.0-0.2","subject_id":"613a4bd6e4259b64db005489","study_id":"60edd13110225f80f9f3709b","session_id":"6196c7083109e4c1ac14fb88","condition":"full-information","relevant_dimensions":["wings","pattern"],"bee_group":{"antennae":"X","wings":"1","pattern":"D","legs":"X"},"bonus":1.8400000000000012},{"rt":1447.300000011921,"stimulus":"bees-with-color/bee-B1SM.svg","response":0,"trial_type":"image-button-response","trial_index":143,"time_elapsed":1436381,"internal_node_id":"0.0-6.0-0.3","subject_id":"613a4bd6e4259b64db005489","study_id":"60edd13110225f80f9f3709b","session_id":"6196c7083109e4c1ac14fb88","condition":"full-information","relevant_dimensions":["wings","pattern"],"bee_group":{"antennae":"X","wings":"1","pattern":"D","legs":"X"},"bonus":1.8400000000000012},{"rt":3083.7999999821186,"stimulus":"bees-with-color/bee-A1SM.svg","response":0,"trial_type":"image-button-response","trial_index":144,"time_elapsed":1439467,"internal_node_id":"0.0-6.0-0.4","subject_id":"613a4bd6e4259b64db005489","study_id":"60edd13110225f80f9f3709b","session_id":"6196c7083109e4c1ac14fb88","condition":"full-information","relevant_dimensions":["wings","pattern"],"bee_group":{"antennae":"X","wings":"1","pattern":"D","legs":"X"},"bonus":1.8400000000000012},{"rt":1385.5,"stimulus":"bees-with-color/bee-A1DM.svg","response":1,"trial_type":"image-button-response","trial_index":145,"time_elapsed":1440854,"internal_node_id":"0.0-6.0-0.5","subject_id":"613a4bd6e4259b64db005489","study_id":"60edd13110225f80f9f3709b","session_id":"6196c7083109e4c1ac14fb88","condition":"full-information","relevant_dimensions":["wings","pattern"],"bee_group":{"antennae":"X","wings":"1","pattern":"D","legs":"X"},"bonus":1.8400000000000012},{"rt":1470.800000011921,"stimulus":"bees-with-color/bee-A1DF.svg","response":1,"trial_type":"image-button-response","trial_index":146,"time_elapsed":1442326,"internal_node_id":"0.0-6.0-0.6","subject_id":"613a4bd6e4259b64db005489","study_id":"60edd13110225f80f9f3709b","session_id":"6196c7083109e4c1ac14fb88","condition":"full-information","relevant_dimensions":["wings","pattern"],"bee_group":{"antennae":"X","wings":"1","pattern":"D","legs":"X"},"bonus":1.8400000000000012},{"rt":1612,"stimulus":"bees-with-color/bee-A2SM.svg","response":0,"trial_type":"image-button-response","trial_index":147,"time_elapsed":1443940,"internal_node_id":"0.0-6.0-0.7","subject_id":"613a4bd6e4259b64db005489","study_id":"60edd13110225f80f9f3709b","session_id":"6196c7083109e4c1ac14fb88","condition":"full-information","relevant_dimensions":["wings","pattern"],"bee_group":{"antennae":"X","wings":"1","pattern":"D","legs":"X"},"bonus":1.8400000000000012},{"rt":5446.5,"stimulus":"bees-with-color/bee-A2SF.svg","response":0,"trial_type":"image-button-response","trial_index":148,"time_elapsed":1449388,"internal_node_id":"0.0-6.0-0.8","subject_id":"613a4bd6e4259b64db005489","study_id":"60edd13110225f80f9f3709b","session_id":"6196c7083109e4c1ac14fb88","condition":"full-information","relevant_dimensions":["wings","pattern"],"bee_group":{"antennae":"X","wings":"1","pattern":"D","legs":"X"},"bonus":1.8400000000000012},{"rt":1698.9000000059605,"stimulus":"bees-with-color/bee-A1SF.svg","response":0,"trial_type":"image-button-response","trial_index":149,"time_elapsed":1451089,"internal_node_id":"0.0-6.0-0.9","subject_id":"613a4bd6e4259b64db005489","study_id":"60edd13110225f80f9f3709b","session_id":"6196c7083109e4c1ac14fb88","condition":"full-information","relevant_dimensions":["wings","pattern"],"bee_group":{"antennae":"X","wings":"1","pattern":"D","legs":"X"},"bonus":1.8400000000000012},{"rt":939.5,"stimulus":"bees-with-color/bee-B2SF.svg","response":0,"trial_type":"image-button-response","trial_index":150,"time_elapsed":1452030,"internal_node_id":"0.0-6.0-0.10","subject_id":"613a4bd6e4259b64db005489","study_id":"60edd13110225f80f9f3709b","session_id":"6196c7083109e4c1ac14fb88","condition":"full-information","relevant_dimensions":["wings","pattern"],"bee_group":{"antennae":"X","wings":"1","pattern":"D","legs":"X"},"bonus":1.8400000000000012},{"rt":1237.0999999940395,"stimulus":"bees-with-color/bee-B2DF.svg","response":0,"trial_type":"image-button-response","trial_index":151,"time_elapsed":1453269,"internal_node_id":"0.0-6.0-0.11","subject_id":"613a4bd6e4259b64db005489","study_id":"60edd13110225f80f9f3709b","session_id":"6196c7083109e4c1ac14fb88","condition":"full-information","relevant_dimensions":["wings","pattern"],"bee_group":{"antennae":"X","wings":"1","pattern":"D","legs":"X"},"bonus":1.8400000000000012},{"rt":4380.9000000059605,"stimulus":"bees-with-color/bee-B2DM.svg","response":0,"trial_type":"image-button-response","trial_index":152,"time_elapsed":1457651,"internal_node_id":"0.0-6.0-0.12","subject_id":"613a4bd6e4259b64db005489","study_id":"60edd13110225f80f9f3709b","session_id":"6196c7083109e4c1ac14fb88","condition":"full-information","relevant_dimensions":["wings","pattern"],"bee_group":{"antennae":"X","wings":"1","pattern":"D","legs":"X"},"bonus":1.8400000000000012},{"rt":1413.9000000059605,"stimulus":"bees-with-color/bee-B1SF.svg","response":0,"trial_type":"image-button-response","trial_index":153,"time_elapsed":1459067,"internal_node_id":"0.0-6.0-0.13","subject_id":"613a4bd6e4259b64db005489","study_id":"60edd13110225f80f9f3709b","session_id":"6196c7083109e4c1ac14fb88","condition":"full-information","relevant_dimensions":["wings","pattern"],"bee_group":{"antennae":"X","wings":"1","pattern":"D","legs":"X"},"bonus":1.8400000000000012},{"rt":1534.5,"stimulus":"bees-with-color/bee-B1DM.svg","response":1,"trial_type":"image-button-response","trial_index":154,"time_elapsed":1460603,"internal_node_id":"0.0-6.0-0.14","subject_id":"613a4bd6e4259b64db005489","study_id":"60edd13110225f80f9f3709b","session_id":"6196c7083109e4c1ac14fb88","condition":"full-information","relevant_dimensions":["wings","pattern"],"bee_group":{"antennae":"X","wings":"1","pattern":"D","legs":"X"},"bonus":1.8400000000000012},{"rt":1001.7999999821186,"stimulus":"bees-with-color/bee-B1DF.svg","response":1,"trial_type":"image-button-response","trial_index":155,"t