[{"success":true,"trial_type":"fullscreen","trial_index":0,"time_elapsed":5302,"internal_node_id":"0.0-0.0","subject_id":"613aa7e0c78fa286254a77c0","study_id":"6197b3f67c2b5cd3b6d9596a","session_id":"6197b5cc9cfccfdfcb8c661b","condition":"full-information","relevant_dimensions":["pattern","legs"],"bee_group":{"antennae":"X","wings":"X","pattern":"S","legs":"F"},"bonus":1.4600000000000013},{"success":true,"timeout":false,"failed_images":[],"failed_audio":[],"failed_video":[],"trial_type":"preload","trial_index":1,"time_elapsed":7132,"internal_node_id":"0.0-1.0","subject_id":"613aa7e0c78fa286254a77c0","study_id":"6197b3f67c2b5cd3b6d9596a","session_id":"6197b5cc9cfccfdfcb8c661b","condition":"full-information","relevant_dimensions":["pattern","legs"],"bee_group":{"antennae":"X","wings":"X","pattern":"S","legs":"F"},"bonus":1.4600000000000013},{"rt":2606.4000000059605,"stimulus":"Welcome! Press any key to begin.","response":" ","trial_type":"html-keyboard-response","trial_index":2,"time_elapsed":9740,"internal_node_id":"0.0-2.0","subject_id":"613aa7e0c78fa286254a77c0","study_id":"6197b3f67c2b5cd3b6d9596a","session_id":"6197b5cc9cfccfdfcb8c661b","condition":"full-information","relevant_dimensions":["pattern","legs"],"bee_group":{"antennae":"X","wings":"X","pattern":"S","legs":"F"},"bonus":1.4600000000000013},{"view_history":[{"page_index":0,"viewing_time":4219.300000011921},{"page_index":1,"viewing_time":14528.699999988079},{"page_index":2,"viewing_time":12334.300000011921},{"page_index":3,"viewing_time":20820.79999999702},{"page_index":4,"viewing_time":7509.899999991059},{"page_index":5,"viewing_time":4067.800000011921},{"page_index":6,"viewing_time":6638.5},{"page_index":7,"viewing_time":5994.199999988079},{"page_index":8,"viewing_time":3715},{"page_index":9,"viewing_time":2765.5},{"page_index":10,"viewing_time":2422.6000000089407},{"page_index":9,"viewing_time":447.8999999910593},{"page_index":8,"viewing_time":472},{"page_index":7,"viewing_time":448},{"page_index":6,"viewing_time":4880.70000000298},{"page_index":7,"viewing_time":7629.20000000298},{"page_index":8,"viewing_time":2144.2999999970198},{"page_index":9,"viewing_time":2260},{"page_index":10,"viewing_time":3125.4000000059605},{"page_index":11,"viewing_time":8880.20000000298},{"page_index":12,"viewing_time":13766.699999988079},{"page_index":13,"viewing_time":1518.6000000089407},{"page_index":14,"viewing_time":3413}],"rt":134003.20000000298,"trial_type":"instructions","trial_index":3,"time_elapsed":143847,"internal_node_id":"0.0-3.0-0.0","subject_id":"613aa7e0c78fa286254a77c0","study_id":"6197b3f67c2b5cd3b6d9596a","session_id":"6197b5cc9cfccfdfcb8c661b","condition":"full-information","relevant_dimensions":["pattern","legs"],"bee_group":{"antennae":"X","wings":"X","pattern":"S","legs":"F"},"bonus":1.4600000000000013},{"rt":17833.20000000298,"response":{"Q0":["Two or six legs","Stripes or spots on body","Single or double wings","Antennae or no antennae"]},"question_order":[0],"trial_type":"survey-multi-select","trial_index":4,"time_elapsed":161689,"internal_node_id":"0.0-3.0-1.0","subject_id":"613aa7e0c78fa286254a77c0","study_id":"6197b3f67c2b5cd3b6d9596a","session_id":"6197b5cc9cfccfdfcb8c661b","condition":"full-information","relevant_dimensions":["pattern","legs"],"bee_group":{"antennae":"X","wings":"X","pattern":"S","legs":"F"},"correct":true,"bonus":1.4600000000000013},{"rt":36512.09999999404,"response":{"Q1":"No.","Q2":"Based on the four features of the bee.","Q3":"You learn if it was friendly or dangerous, but do not alter your bonus."},"question_order":[0,1,2],"trial_type":"survey-multi-choice","trial_index":5,"time_elapsed":198206,"internal_node_id":"0.0-3.0-2.0","subject_id":"613aa7e0c78fa286254a77c0","study_id":"6197b3f67c2b5cd3b6d9596a","session_id":"6197b5cc9cfccfdfcb8c661b","condition":"full-information","relevant_dimensions":["pattern","legs"],"bee_group":{"antennae":"X","wings":"X","pattern":"S","legs":"F"},"correct":true,"bonus":1.4600000000000013},{"rt":2079.7999999970198,"stimulus":"<p>Congrats, you got everything right<br>When you're ready, click the button below to continue to the experiment.</p>","response":0,"trial_type":"html-button-response","trial_index":6,"time_elapsed":200289,"internal_node_id":"0.0-3.0-3.0","subject_id":"613aa7e0c78fa286254a77c0","study_id":"6197b3f67c2b5cd3b6d9596a","session_id":"6197b5cc9cfccfdfcb8c661b","condition":"full-information","relevant_dimensions":["pattern","legs"],"bee_group":{"antennae":"X","wings":"X","pattern":"S","legs":"F"},"bonus":1.4600000000000013},{"rt":2378.2999999970198,"stimulus":"bees-with-color/bee-A2DM.svg","response":1,"trial_type":"image-button-response","trial_index":7,"time_elapsed":202672,"internal_node_id":"0.0-4.0-0.0","subject_id":"613aa7e0c78fa286254a77c0","study_id":"6197b3f67c2b5cd3b6d9596a","session_id":"6197b5cc9cfccfdfcb8c661b","condition":"full-information","relevant_dimensions":["pattern","legs"],"bee_group":{"antennae":"X","wings":"X","pattern":"S","legs":"F"},"action":"avoid","summary":"bad-avoid","bonus":1.4600000000000013},{"rt":15096.59999999404,"stimulus":"\n                    <p><b>Action: <em>avoid</em></b></p>\n                    <p>This is the bee that you just saw.</p>\n                    <img src=\"bees-with-color/bee-A2DM.svg\" width=\"200\">\n                    <p><span class=\"redText\">Bad choice,</span> the bee was friendly.<br>Your bonus pay is unchanged, and remains at $0.54.</p>\n            ","response":0,"trial_type":"html-button-response","trial_index":8,"time_elapsed":217773,"internal_node_id":"0.0-4.0-1.0","subject_id":"613aa7e0c78fa286254a77c0","study_id":"6197b3f67c2b5cd3b6d9596a","session_id":"6197b5cc9cfccfdfcb8c661b","condition":"full-information","relevant_dimensions":["pattern","legs"],"bee_group":{"antennae":"X","wings":"X","pattern":"S","legs":"F"},"bonus":1.4600000000000013},{"rt":2199.8999999910593,"stimulus":"bees-with-color/bee-B2DM.svg","response":0,"trial_type":"image-button-response","trial_index":9,"time_elapsed":219976,"internal_node_id":"0.0-4.0-0.1","subject_id":"613aa7e0c78fa286254a77c0","study_id":"6197b3f67c2b5cd3b6d9596a","session_id":"6197b5cc9cfccfdfcb8c661b","condition":"full-information","relevant_dimensions":["pattern","legs"],"bee_group":{"antennae":"X","wings":"X","pattern":"S","legs":"F"},"action":"harvest","summary":"good-harvest","bonus":1.4600000000000013},{"rt":2090.7999999970198,"stimulus":"\n                    <p><b>Action: <em>harvest</em></b></p>\n                    <p>This is the bee that you just saw.</p>\n                    <img src=\"bees-with-color/bee-B2DM.svg\" width=\"200\">\n                    <p><span class=\"greenText\"><b>Successful harvest!</b></span><br>Your pay has increased by $0.02. Your bonus pay is now $0.56.</p>\n            ","response":0,"trial_type":"html-button-response","trial_index":10,"time_elapsed":222070,"internal_node_id":"0.0-4.0-1.1","subject_id":"613aa7e0c78fa286254a77c0","study_id":"6197b3f67c2b5cd3b6d9596a","session_id":"6197b5cc9cfccfdfcb8c661b","condition":"full-information","relevant_dimensions":["pattern","legs"],"bee_group":{"antennae":"X","wings":"X","pattern":"S","legs":"F"},"bonus":1.4600000000000013},{"rt":11487.39999999106,"stimulus":"bees-with-color/bee-A2SF.svg","response":0,"trial_type":"image-button-response","trial_index":11,"time_elapsed":233561,"internal_node_id":"0.0-4.0-0.2","subject_id":"613aa7e0c78fa286254a77c0","study_id":"6197b3f67c2b5cd3b6d9596a","session_id":"6197b5cc9cfccfdfcb8c661b","condition":"full-information","relevant_dimensions":["pattern","legs"],"bee_group":{"antennae":"X","wings":"X","pattern":"S","legs":"F"},"action":"harvest","summary":"bad-harvest","bonus":1.4600000000000013},{"rt":15521.20000000298,"stimulus":"\n                    <p><b>Action: <em>harvest</em></b></p>\n                    <p>This is the bee that you just saw.</p>\n                    <img src=\"bees-with-color/bee-A2SF.svg\" width=\"200\">\n                    <p><span class=\"redText\">Bad choice, the bee was angry.</span><br><b>You have been stung!</b><br>Your pay has been decreased by $0.10. Your bonus pay is now $0.46.</p>\n            ","response":0,"trial_type":"html-button-response","trial_index":12,"time_elapsed":249085,"internal_node_id":"0.0-4.0-1.2","subject_id":"613aa7e0c78fa286254a77c0","study_id":"6197b3f67c2b5cd3b6d9596a","session_id":"6197b5cc9cfccfdfcb8c661b","condition":"full-information","relevant_dimensions":["pattern","legs"],"bee_group":{"antennae":"X","wings":"X","pattern":"S","legs":"F"},"bonus":1.4600000000000013},{"rt":2066.7000000029802,"stimulus":"bees-with-color/bee-B2SF.svg","response":0,"trial_type":"image-button-response","trial_index":13,"time_elapsed":251155,"internal_node_id":"0.0-4.0-0.3","subject_id":"613aa7e0c78fa286254a77c0","study_id":"6197b3f67c2b5cd3b6d9596a","session_id":"6197b5cc9cfccfdfcb8c661b","condition":"full-information","relevant_dimensions":["pattern","legs"],"bee_group":{"antennae":"X","wings":"X","pattern":"S","legs":"F"},"action":"harvest","summary":"bad-harvest","bonus":1.4600000000000013},{"rt":1270.7999999970198,"stimulus":"\n                    <p><b>Action: <em>harvest</em></b></p>\n                    <p>This is the bee that you just saw.</p>\n                    <img src=\"bees-with-color/bee-B2SF.svg\" width=\"200\">\n                    <p><span class=\"redText\">Bad choice, the bee was angry.</span><br><b>You have been stung!</b><br>Your pay has been decreased by $0.10. Your bonus pay is now $0.36.</p>\n            ","response":0,"trial_type":"html-button-response","trial_index":14,"time_elapsed":252429,"internal_node_id":"0.0-4.0-1.3","subject_id":"613aa7e0c78fa286254a77c0","study_id":"6197b3f67c2b5cd3b6d9596a","session_id":"6197b5cc9cfccfdfcb8c661b","condition":"full-information","relevant_dimensions":["pattern","legs"],"bee_group":{"antennae":"X","wings":"X","pattern":"S","legs":"F"},"bonus":1.4600000000000013},{"rt":2671.7999999970198,"stimulus":"bees-with-color/bee-A2DF.svg","response":0,"trial_type":"image-button-response","trial_index":15,"time_elapsed":255104,"internal_node_id":"0.0-4.0-0.4","subject_id":"613aa7e0c78fa286254a77c0","study_id":"6197b3f67c2b5cd3b6d9596a","session_id":"6197b5cc9cfccfdfcb8c661b","condition":"full-information","relevant_dimensions":["pattern","legs"],"bee_group":{"antennae":"X","wings":"X","pattern":"S","legs":"F"},"action":"harvest","summary":"good-harvest","bonus":1.4600000000000013},{"rt":1938.800000011921,"stimulus":"\n                    <p><b>Action: <em>harvest</em></b></p>\n                    <p>This is the bee that you just saw.</p>\n                    <img src=\"bees-with-color/bee-A2DF.svg\" width=\"200\">\n                    <p><span class=\"greenText\"><b>Successful harvest!</b></span><br>Your pay has increased by $0.02. Your bonus pay is now $0.38.</p>\n            ","response":0,"trial_type":"html-button-response","trial_index":16,"time_elapsed":257046,"internal_node_id":"0.0-4.0-1.4","subject_id":"613aa7e0c78fa286254a77c0","study_id":"6197b3f67c2b5cd3b6d9596a","session_id":"6197b5cc9cfccfdfcb8c661b","condition":"full-information","relevant_dimensions":["pattern","legs"],"bee_group":{"antennae":"X","wings":"X","pattern":"S","legs":"F"},"bonus":1.4600000000000013},{"rt":10855,"stimulus":"bees-with-color/bee-A1DF.svg","response":0,"trial_type":"image-button-response","trial_index":17,"time_elapsed":267905,"internal_node_id":"0.0-4.0-0.5","subject_id":"613aa7e0c78fa286254a77c0","study_id":"6197b3f67c2b5cd3b6d9596a","session_id":"6197b5cc9cfccfdfcb8c661b","condition":"full-information","relevant_dimensions":["pattern","legs"],"bee_group":{"antennae":"X","wings":"X","pattern":"S","legs":"F"},"action":"harvest","summary":"good-harvest","bonus":1.4600000000000013},{"rt":1357.9000000059605,"stimulus":"\n                    <p><b>Action: <em>harvest</em></b></p>\n                    <p>This is the bee that you just saw.</p>\n                    <img src=\"bees-with-color/bee-A1DF.svg\" width=\"200\">\n                    <p><span class=\"greenText\"><b>Successful harvest!</b></span><br>Your pay has increased by $0.02. Your bonus pay is now $0.40.</p>\n            ","response":0,"trial_type":"html-button-response","trial_index":18,"time_elapsed":269265,"internal_node_id":"0.0-4.0-1.5","subject_id":"613aa7e0c78fa286254a77c0","study_id":"6197b3f67c2b5cd3b6d9596a","session_id":"6197b5cc9cfccfdfcb8c661b","condition":"full-information","relevant_dimensions":["pattern","legs"],"bee_group":{"antennae":"X","wings":"X","pattern":"S","legs":"F"},"bonus":1.4600000000000013},{"rt":3693.300000011921,"stimulus":"bees-with-color/bee-B1DF.svg","response":0,"trial_type":"image-button-response","trial_index":19,"time_elapsed":272962,"internal_node_id":"0.0-4.0-0.6","subject_id":"613aa7e0c78fa286254a77c0","study_id":"6197b3f67c2b5cd3b6d9596a","session_id":"6197b5cc9cfccfdfcb8c661b","condition":"full-information","relevant_dimensions":["pattern","legs"],"bee_group":{"antennae":"X","wings":"X","pattern":"S","legs":"F"},"action":"harvest","summary":"good-harvest","bonus":1.4600000000000013},{"rt":1196.2000000029802,"stimulus":"\n                    <p><b>Action: <em>harvest</em></b></p>\n                    <p>This is the bee that you just saw.</p>\n                    <img src=\"bees-with-color/bee-B1DF.svg\" width=\"200\">\n                    <p><span class=\"greenText\"><b>Successful harvest!</b></span><br>Your pay has increased by $0.02. Your bonus pay is now $0.42.</p>\n            ","response":0,"trial_type":"html-button-response","trial_index":20,"time_elapsed":274162,"internal_node_id":"0.0-4.0-1.6","subject_id":"613aa7e0c78fa286254a77c0","study_id":"6197b3f67c2b5cd3b6d9596a","session_id":"6197b5cc9cfccfdfcb8c661b","condition":"full-information","relevant_dimensions":["pattern","legs"],"bee_group":{"antennae":"X","wings":"X","pattern":"S","legs":"F"},"bonus":1.4600000000000013},{"rt":1240.0999999940395,"stimulus":"bees-with-color/bee-B2DF.svg","response":1,"trial_type":"image-button-response","trial_index":21,"time_elapsed":275405,"internal_node_id":"0.0-4.0-0.7","subject_id":"613aa7e0c78fa286254a77c0","study_id":"6197b3f67c2b5cd3b6d9596a","session_id":"6197b5cc9cfccfdfcb8c661b","condition":"full-information","relevant_dimensions":["pattern","legs"],"bee_group":{"antennae":"X","wings":"X","pattern":"S","legs":"F"},"action":"avoid","summary":"bad-avoid","bonus":1.4600000000000013},{"rt":1650,"stimulus":"\n                    <p><b>Action: <em>avoid</em></b></p>\n                    <p>This is the bee that you just saw.</p>\n                    <img src=\"bees-with-color/bee-B2DF.svg\" width=\"200\">\n                    <p><span class=\"redText\">Bad choice,</span> the bee was friendly.<br>Your bonus pay is unchanged, and remains at $0.42.</p>\n            ","response":0,"trial_type":"html-button-response","trial_index":22,"time_elapsed":277057,"internal_node_id":"0.0-4.0-1.7","subject_id":"613aa7e0c78fa286254a77c0","study_id":"6197b3f67c2b5cd3b6d9596a","session_id":"6197b5cc9cfccfdfcb8c661b","condition":"full-information","relevant_dimensions":["pattern","legs"],"bee_group":{"antennae":"X","wings":"X","pattern":"S","legs":"F"},"bonus":1.4600000000000013},{"rt":1853.300000011921,"stimulus":"bees-with-color/bee-A1DM.svg","response":0,"trial_type":"image-button-response","trial_index":23,"time_elapsed":278913,"internal_node_id":"0.0-4.0-0.8","subject_id":"613aa7e0c78fa286254a77c0","study_id":"6197b3f67c2b5cd3b6d9596a","session_id":"6197b5cc9cfccfdfcb8c661b","condition":"full-information","relevant_dimensions":["pattern","legs"],"bee_group":{"antennae":"X","wings":"X","pattern":"S","legs":"F"},"action":"harvest","summary":"good-harvest","bonus":1.4600000000000013},{"rt":1498.699999988079,"stimulus":"\n                    <p><b>Action: <em>harvest</em></b></p>\n                    <p>This is the bee that you just saw.</p>\n                    <img src=\"bees-with-color/bee-A1DM.svg\" width=\"200\">\n                    <p><span class=\"greenText\"><b>Successful harvest!</b></span><br>Your pay has increased by $0.02. Your bonus pay is now $0.44.</p>\n            ","response":0,"trial_type":"html-button-response","trial_index":24,"time_elapsed":280414,"internal_node_id":"0.0-4.0-1.8","subject_id":"613aa7e0c78fa286254a77c0","study_id":"6197b3f67c2b5cd3b6d9596a","session_id":"6197b5cc9cfccfdfcb8c661b","condition":"full-information","relevant_dimensions":["pattern","legs"],"bee_group":{"antennae":"X","wings":"X","pattern":"S","legs":"F"},"bonus":1.4600000000000013},{"rt":1192.4000000059605,"stimulus":"bees-with-color/bee-A2SM.svg","response":1,"trial_type":"image-button-response","trial_index":25,"time_elapsed":281610,"internal_node_id":"0.0-4.0-0.9","subject_id":"613aa7e0c78fa286254a77c0","study_id":"6197b3f67c2b5cd3b6d9596a","session_id":"6197b5cc9cfccfdfcb8c661b","condition":"full-information","relevant_dimensions":["pattern","legs"],"bee_group":{"antennae":"X","wings":"X","pattern":"S","legs":"F"},"action":"avoid","summary":"bad-avoid","bonus":1.4600000000000013},{"rt":1507.5,"stimulus":"\n                    <p><b>Action: <em>avoid</em></b></p>\n                    <p>This is the bee that you just saw.</p>\n                    <img src=\"bees-with-color/bee-A2SM.svg\" width=\"200\">\n                    <p><span class=\"redText\">Bad choice,</span> the bee was friendly.<br>Your bonus pay is unchanged, and remains at $0.44.</p>\n            ","response":0,"trial_type":"html-button-response","trial_index":26,"time_elapsed":283120,"internal_node_id":"0.0-4.0-1.9","subject_id":"613aa7e0c78fa286254a77c0","study_id":"6197b3f67c2b5cd3b6d9596a","session_id":"6197b5cc9cfccfdfcb8c661b","condition":"full-information","relevant_dimensions":["pattern","legs"],"bee_group":{"antennae":"X","wings":"X","pattern":"S","legs":"F"},"bonus":1.4600000000000013},{"rt":1051.7999999970198,"stimulus":"bees-with-color/bee-B1SF.svg","response":0,"trial_type":"image-button-response","trial_index":27,"time_elapsed":284174,"internal_node_id":"0.0-4.0-0.10","subject_id":"613aa7e0c78fa286254a77c0","study_id":"6197b3f67c2b5cd3b6d9596a","session_id":"6197b5cc9cfccfdfcb8c661b","condition":"full-information","relevant_dimensions":["pattern","legs"],"bee_group":{"antennae":"X","wings":"X","pattern":"S","legs":"F"},"action":"harvest","summary":"bad-harvest","bonus":1.4600000000000013},{"rt":1506.8999999910593,"stimulus":"\n                    <p><b>Action: <em>harvest</em></b></p>\n                    <p>This is the bee that you just saw.</p>\n                    <img src=\"bees-with-color/bee-B1SF.svg\" width=\"200\">\n                    <p><span class=\"redText\">Bad choice, the bee was angry.</span><br><b>You have been stung!</b><br>Your pay has been decreased by $0.10. Your bonus pay is now $0.34.</p>\n            ","response":0,"trial_type":"html-button-response","trial_index":28,"time_elapsed":285684,"internal_node_id":"0.0-4.0-1.10","subject_id":"613aa7e0c78fa286254a77c0","study_id":"6197b3f67c2b5cd3b6d9596a","session_id":"6197b5cc9cfccfdfcb8c661b","condition":"full-information","relevant_dimensions":["pattern","legs"],"bee_group":{"antennae":"X","wings":"X","pattern":"S","legs":"F"},"bonus":1.4600000000000013},{"rt":2349.2999999970198,"stimulus":"bees-with-color/bee-B2SM.svg","response":0,"trial_type":"image-button-response","trial_index":29,"time_elapsed":288036,"internal_node_id":"0.0-4.0-0.11","subject_id":"613aa7e0c78fa286254a77c0","study_id":"6197b3f67c2b5cd3b6d9596a","session_id":"6197b5cc9cfccfdfcb8c661b","condition":"full-information","relevant_dimensions":["pattern","legs"],"bee_group":{"antennae":"X","wings":"X","pattern":"S","legs":"F"},"action":"harvest","summary":"good-harvest","bonus":1.4600000000000013},{"rt":1813.9000000059605,"stimulus":"\n                    <p><b>Action: <em>harvest</em></b></p>\n                    <p>This is the bee that you just saw.</p>\n                    <img src=\"bees-with-color/bee-B2SM.svg\" width=\"200\">\n                    <p><span class=\"greenText\"><b>Successful harvest!</b></span><br>Your pay has increased by $0.02. Your bonus pay is now $0.36.</p>\n            ","response":0,"trial_type":"html-button-response","trial_index":30,"time_elapsed":289853,"internal_node_id":"0.0-4.0-1.11","subject_id":"613aa7e0c78fa286254a77c0","study_id":"6197b3f67c2b5cd3b6d9596a","session_id":"6197b5cc9cfccfdfcb8c661b","condition":"full-information","relevant_dimensions":["pattern","legs"],"bee_group":{"antennae":"X","wings":"X","pattern":"S","legs":"F"},"bonus":1.4600000000000013},{"rt":1750.7999999970198,"stimulus":"bees-with-color/bee-B1SM.svg","response":0,"trial_type":"image-button-response","trial_index":31,"time_elapsed":291607,"internal_node_id":"0.0-4.0-0.12","subject_id":"613aa7e0c78fa286254a77c0","study_id":"6197b3f67c2b5cd3b6d9596a","session_id":"6197b5cc9cfccfdfcb8c661b","condition":"full-information","relevant_dimensions":["pattern","legs"],"bee_group":{"antennae":"X","wings":"X","pattern":"S","legs":"F"},"action":"harvest","summary":"good-harvest","bonus":1.4600000000000013},{"rt":1476.2000000029802,"stimulus":"\n                    <p><b>Action: <em>harvest</em></b></p>\n                    <p>This is the bee that you just saw.</p>\n                    <img src=\"bees-with-color/bee-B1SM.svg\" width=\"200\">\n                    <p><span class=\"greenText\"><b>Successful harvest!</b></span><br>Your pay has increased by $0.02. Your bonus pay is now $0.38.</p>\n            ","response":0,"trial_type":"html-button-response","trial_index":32,"time_elapsed":293085,"internal_node_id":"0.0-4.0-1.12","subject_id":"613aa7e0c78fa286254a77c0","study_id":"6197b3f67c2b5cd3b6d9596a","session_id":"6197b5cc9cfccfdfcb8c661b","condition":"full-information","relevant_dimensions":["pattern","legs"],"bee_group":{"antennae":"X","wings":"X","pattern":"S","legs":"F"},"bonus":1.4600000000000013},{"rt":1066.199999988079,"stimulus":"bees-with-color/bee-A1SM.svg","response":0,"trial_type":"image-button-response","trial_index":33,"time_elapsed":294154,"internal_node_id":"0.0-4.0-0.13","subject_id":"613aa7e0c78fa286254a77c0","study_id":"6197b3f67c2b5cd3b6d9596a","session_id":"6197b5cc9cfccfdfcb8c661b","condition":"full-information","relevant_dimensions":["pattern","legs"],"bee_group":{"antennae":"X","wings":"X","pattern":"S","legs":"F"},"action":"harvest","summary":"good-harvest","bonus":1.4600000000000013},{"rt":1566.3999999910593,"stimulus":"\n                    <p><b>Action: <em>harvest</em></b></p>\n                    <p>This is the bee that you just saw.</p>\n                    <img src=\"bees-with-color/bee-A1SM.svg\" width=\"200\">\n                    <p><span class=\"greenText\"><b>Successful harvest!</b></span><br>Your pay has increased by $0.02. Your bonus pay is now $0.40.</p>\n            ","response":0,"trial_type":"html-button-response","trial_index":34,"time_elapsed":295723,"internal_node_id":"0.0-4.0-1.13","subject_id":"613aa7e0c78fa286254a77c0","study_id":"6197b3f67c2b5cd3b6d9596a","session_id":"6197b5cc9cfccfdfcb8c661b","condition":"full-information","relevant_dimensions":["pattern","legs"],"bee_group":{"antennae":"X","wings":"X","pattern":"S","legs":"F"},"bonus":1.4600000000000013},{"rt":1885.0999999940395,"stimulus":"bees-with-color/bee-B1DM.svg","response":1,"trial_type":"image-button-response","trial_index":35,"time_elapsed":297612,"internal_node_id":"0.0-4.0-0.14","subject_id":"613aa7e0c78fa286254a77c0","study_id":"6197b3f67c2b5cd3b6d9596a","session_id":"6197b5cc9cfccfdfcb8c661b","condition":"full-information","relevant_dimensions":["pattern","legs"],"bee_group":{"antennae":"X","wings":"X","pattern":"S","legs":"F"},"action":"avoid","summary":"bad-avoid","bonus":1.4600000000000013},{"rt":1621.5999999940395,"stimulus":"\n                    <p><b>Action: <em>avoid</em></b></p>\n                    <p>This is the bee that you just saw.</p>\n                    <img src=\"bees-with-color/bee-B1DM.svg\" width=\"200\">\n                    <p><span class=\"redText\">Bad choice,</span> the bee was friendly.<br>Your bonus pay is unchanged, and remains at $0.40.</p>\n            ","response":0,"trial_type":"html-button-response","trial_index":36,"time_elapsed":299236,"internal_node_id":"0.0-4.0-1.14","subject_id":"613aa7e0c78fa286254a77c0","study_id":"6197b3f67c2b5cd3b6d9596a","session_id":"6197b5cc9cfccfdfcb8c661b","condition":"full-information","relevant_dimensions":["pattern","legs"],"bee_group":{"antennae":"X","wings":"X","pattern":"S","legs":"F"},"bonus":1.4600000000000013},{"rt":1204.2000000029802,"stimulus":"bees-with-color/bee-A1SF.svg","response":1,"trial_type":"image-button-response","trial_index":37,"time_elapsed":300443,"internal_node_id":"0.0-4.0-0.15","subject_id":"613aa7e0c78fa286254a77c0","study_id":"6197b3f67c2b5cd3b6d9596a","session_id":"6197b5cc9cfccfdfcb8c661b","condition":"full-information","relevant_dimensions":["pattern","legs"],"bee_group":{"antennae":"X","wings":"X","pattern":"S","legs":"F"},"action":"avoid","summary":"good-avoid","bonus":1.4600000000000013},{"rt":5797.0999999940395,"stimulus":"\n                    <p><b>Action: <em>avoid</em></b></p>\n                    <p>This is the bee that you just saw.</p>\n                    <img src=\"bees-with-color/bee-A1SF.svg\" width=\"200\">\n                    <p><span class=\"greenText\">Good choice!</span>  This bee would have stung you.<br>Your bonus pay is unchanged, and remains at $0.40.</p>\n            ","response":0,"trial_type":"html-button-response","trial_index":38,"time_elapsed":306243,"internal_node_id":"0.0-4.0-1.15","subject_id":"613aa7e0c78fa286254a77c0","study_id":"6197b3f67c2b5cd3b6d9596a","session_id":"6197b5cc9cfccfdfcb8c661b","condition":"full-information","relevant_dimensions":["pattern","legs"],"bee_group":{"antennae":"X","wings":"X","pattern":"S","legs":"F"},"bonus":1.4600000000000013},{"rt":1271.2000000029802,"stimulus":"bees-with-color/bee-A2SM.svg","response":0,"trial_type":"image-button-response","trial_index":39,"time_elapsed":307518,"internal_node_id":"0.0-4.0-0.16","subject_id":"613aa7e0c78fa286254a77c0","study_id":"6197b3f67c2b5cd3b6d9596a","session_id":"6197b5cc9cfccfdfcb8c661b","condition":"full-information","relevant_dimensions":["pattern","legs"],"bee_group":{"antennae":"X","wings":"X","pattern":"S","legs":"F"},"action":"harvest","summary":"good-harvest","bonus":1.4600000000000013},{"rt":1476,"stimulus":"\n                    <p><b>Action: <em>harvest</em></b></p>\n                    <p>This is the bee that you just saw.</p>\n                    <img src=\"bees-with-color/bee-A2SM.svg\" width=\"200\">\n                    <p><span class=\"greenText\"><b>Successful harvest!</b></span><br>Your pay has increased by $0.02. Your bonus pay is now $0.42.</p>\n            ","response":0,"trial_type":"html-button-response","trial_index":40,"time_elapsed":308997,"internal_node_id":"0.0-4.0-1.16","subject_id":"613aa7e0c78fa286254a77c0","study_id":"6197b3f67c2b5cd3b6d9596a","session_id":"6197b5cc9cfccfdfcb8c661b","condition":"full-information","relevant_dimensions":["pattern","legs"],"bee_group":{"antennae":"X","wings":"X","pattern":"S","legs":"F"},"bonus":1.4600000000000013},{"rt":2136.2000000029802,"stimulus":"bees-with-color/bee-B1SF.svg","response":1,"trial_type":"image-button-response","trial_index":41,"time_elapsed":311136,"internal_node_id":"0.0-4.0-0.17","subject_id":"613aa7e0c78fa286254a77c0","study_id":"6197b3f67c2b5cd3b6d9596a","session_id":"6197b5cc9cfccfdfcb8c661b","condition":"full-information","relevant_dimensions":["pattern","legs"],"bee_group":{"antennae":"X","wings":"X","pattern":"S","legs":"F"},"action":"avoid","summary":"good-avoid","bonus":1.4600000000000013},{"rt":2195.7999999970198,"stimulus":"\n                    <p><b>Action: <em>avoid</em></b></p>\n                    <p>This is the bee that you just saw.</p>\n                    <img src=\"bees-with-color/bee-B1SF.svg\" width=\"200\">\n                    <p><span class=\"greenText\">Good choice!</span>  This bee would have stung you.<br>Your bonus pay is unchanged, and remains at $0.42.</p>\n            ","response":0,"trial_type":"html-button-response","trial_index":42,"time_elapsed":313335,"internal_node_id":"0.0-4.0-1.17","subject_id":"613aa7e0c78fa286254a77c0","study_id":"6197b3f67c2b5cd3b6d9596a","session_id":"6197b5cc9cfccfdfcb8c661b","condition":"full-information","relevant_dimensions":["pattern","legs"],"bee_group":{"antennae":"X","wings":"X","pattern":"S","legs":"F"},"bonus":1.4600000000000013},{"rt":1619.7000000029802,"stimulus":"bees-with-color/bee-B2SF.svg","response":1,"trial_type":"image-button-response","trial_index":43,"time_elapsed":314958,"internal_node_id":"0.0-4.0-0.18","subject_id":"613aa7e0c78fa286254a77c0","study_id":"6197b3f67c2b5cd3b6d9596a","session_id":"6197b5cc9cfccfdfcb8c661b","condition":"full-information","relevant_dimensions":["pattern","legs"],"bee_group":{"antennae":"X","wings":"X","pattern":"S","legs":"F"},"action":"avoid","summary":"good-avoid","bonus":1.4600000000000013},{"rt":1511.2999999970198,"stimulus":"\n                    <p><b>Action: <em>avoid</em></b></p>\n                    <p>This is the bee that you just saw.</p>\n                    <img src=\"bees-with-color/bee-B2SF.svg\" width=\"200\">\n                    <p><span class=\"greenText\">Good choice!</span>  This bee would have stung you.<br>Your bonus pay is unchanged, and remains at $0.42.</p>\n            ","response":0,"trial_type":"html-button-response","trial_index":44,"time_elapsed":316473,"internal_node_id":"0.0-4.0-1.18","subject_id":"613aa7e0c78fa286254a77c0","study_id":"6197b3f67c2b5cd3b6d9596a","session_id":"6197b5cc9cfccfdfcb8c661b","condition":"full-information","relevant_dimensions":["pattern","legs"],"bee_group":{"antennae":"X","wings":"X","pattern":"S","legs":"F"},"bonus":1.4600000000000013},{"rt":1164.2000000029802,"stimulus":"bees-with-color/bee-A2DF.svg","response":0,"trial_type":"image-button-response","trial_index":45,"time_elapsed":317640,"internal_node_id":"0.0-4.0-0.19","subject_id":"613aa7e0c78fa286254a77c0","study_id":"6197b3f67c2b5cd3b6d9596a","session_id":"6197b5cc9cfccfdfcb8c661b","condition":"full-information","relevant_dimensions":["pattern","legs"],"bee_group":{"antennae":"X","wings":"X","pattern":"S","legs":"F"},"action":"harvest","summary":"good-harvest","bonus":1.4600000000000013},{"rt":971.7000000029802,"stimulus":"\n                    <p><b>Action: <em>harvest</em></b></p>\n                    <p>This is the bee that you just saw.</p>\n                    <img src=\"bees-with-color/bee-A2DF.svg\" width=\"200\">\n                    <p><span class=\"greenText\"><b>Successful harvest!</b></span><br>Your pay has increased by $0.02. Your bonus pay is now $0.44.</p>\n            ","response":0,"trial_type":"html-button-response","trial_index":46,"time_elapsed":318615,"internal_node_id":"0.0-4.0-1.19","subject_id":"613aa7e0c78fa286254a77c0","study_id":"6197b3f67c2b5cd3b6d9596a","session_id":"6197b5cc9cfccfdfcb8c661b","condition":"full-information","relevant_dimensions":["pattern","legs"],"bee_group":{"antennae":"X","wings":"X","pattern":"S","legs":"F"},"bonus":1.4600000000000013},{"rt":1417.7999999970198,"stimulus":"bees-with-color/bee-B2DM.svg","response":0,"trial_type":"image-button-response","trial_index":47,"time_elapsed":320036,"internal_node_id":"0.0-4.0-0.20","subject_id":"613aa7e0c78fa286254a77c0","study_id":"6197b3f67c2b5cd3b6d9596a","session_id":"6197b5cc9cfccfdfcb8c661b","condition":"full-information","relevant_dimensions":["pattern","legs"],"bee_group":{"antennae":"X","wings":"X","pattern":"S","legs":"F"},"action":"harvest","summary":"good-harvest","bonus":1.4600000000000013},{"rt":1108.2999999970198,"stimulus":"\n                    <p><b>Action: <em>harvest</em></b></p>\n                    <p>This is the bee that you just saw.</p>\n                    <img src=\"bees-with-color/bee-B2DM.svg\" width=\"200\">\n                    <p><span class=\"greenText\"><b>Successful harvest!</b></span><br>Your pay has increased by $0.02. Your bonus pay is now $0.46.</p>\n            ","response":0,"trial_type":"html-button-response","trial_index":48,"time_elapsed":321148,"internal_node_id":"0.0-4.0-1.20","subject_id":"613aa7e0c78fa286254a77c0","study_id":"6197b3f67c2b5cd3b6d9596a","session_id":"6197b5cc9cfccfdfcb8c661b","condition":"full-information","relevant_dimensions":["pattern","legs"],"bee_group":{"antennae":"X","wings":"X","pattern":"S","legs":"F"},"bonus":1.4600000000000013},{"rt":1126.8999999910593,"stimulus":"bees-with-color/bee-B2DF.svg","response":0,"trial_type":"image-button-response","trial_index":49,"time_elapsed":322277,"internal_node_id":"0.0-4.0-0.21","subject_id":"613aa7e0c78fa286254a77c0","study_id":"6197b3f67c2b5cd3b6d9596a","session_id":"6197b5cc9cfccfdfcb8c661b","condition":"full-information","relevant_dimensions":["pattern","legs"],"bee_group":{"antennae":"X","wings":"X","pattern":"S","legs":"F"},"action":"harvest","summary":"good-harvest","bonus":1.4600000000000013},{"rt":1028.0999999940395,"stimulus":"\n                    <p><b>Action: <em>harvest</em></b></p>\n                    <p>This is the bee that you just saw.</p>\n                    <img src=\"bees-with-color/bee-B2DF.svg\" width=\"200\">\n                    <p><span class=\"greenText\"><b>Successful harvest!</b></span><br>Your pay has increased by $0.02. Your bonus pay is now $0.48.</p>\n            ","response":0,"trial_type":"html-button-response","trial_index":50,"time_elapsed":323308,"internal_node_id":"0.0-4.0-1.21","subject_id":"613aa7e0c78fa286254a77c0","study_id":"6197b3f67c2b5cd3b6d9596a","session_id":"6197b5cc9cfccfdfcb8c661b","condition":"full-information","relevant_dimensions":["pattern","legs"],"bee_group":{"antennae":"X","wings":"X","pattern":"S","legs":"F"},"bonus":1.4600000000000013},{"rt":1384.800000011921,"stimulus":"bees-with-color/bee-B1DM.svg","response":0,"trial_type":"image-button-response","trial_index":51,"time_elapsed":324695,"internal_node_id":"0.0-4.0-0.22","subject_id":"613aa7e0c78fa286254a77c0","study_id":"6197b3f67c2b5cd3b6d9596a","session_id":"6197b5cc9cfccfdfcb8c661b","condition":"full-information","relevant_dimensions":["pattern","legs"],"bee_group":{"antennae":"X","wings":"X","pattern":"S","legs":"F"},"action":"harvest","summary":"good-harvest","bonus":1.4600000000000013},{"rt":1043.3999999910593,"stimulus":"\n                    <p><b>Action: <em>harvest</em></b></p>\n                    <p>This is the bee that you just saw.</p>\n                    <img src=\"bees-with-color/bee-B1DM.svg\" width=\"200\">\n                    <p><span class=\"greenText\"><b>Successful harvest!</b></span><br>Your pay has increased by $0.02. Your bonus pay is now $0.50.</p>\n            ","response":0,"trial_type":"html-button-response","trial_index":52,"time_elapsed":325741,"internal_node_id":"0.0-4.0-1.22","subject_id":"613aa7e0c78fa286254a77c0","study_id":"6197b3f67c2b5cd3b6d9596a","session_id":"6197b5cc9cfccfdfcb8c661b","condition":"full-information","relevant_dimensions":["pattern","legs"],"bee_group":{"antennae":"X","wings":"X","pattern":"S","legs":"F"},"bonus":1.4600000000000013},{"rt":3568.2000000029802,"stimulus":"bees-with-color/bee-B2SM.svg","response":1,"trial_type":"image-button-response","trial_index":53,"time_elapsed":329311,"internal_node_id":"0.0-4.0-0.23","subject_id":"613aa7e0c78fa286254a77c0","study_id":"6197b3f67c2b5cd3b6d9596a","session_id":"6197b5cc9cfccfdfcb8c661b","condition":"full-information","relevant_dimensions":["pattern","legs"],"bee_group":{"antennae":"X","wings":"X","pattern":"S","legs":"F"},"action":"avoid","summary":"bad-avoid","bonus":1.4600000000000013},{"rt":1200.8999999910593,"stimulus":"\n                    <p><b>Action: <em>avoid</em></b></p>\n                    <p>This is the bee that you just saw.</p>\n                    <img src=\"bees-with-color/bee-B2SM.svg\" width=\"200\">\n                    <p><span class=\"redText\">Bad choice,</span> the bee was friendly.<br>Your bonus pay is unchanged, and remains at $0.50.</p>\n            ","response":0,"trial_type":"html-button-response","trial_index":54,"time_elapsed":330515,"internal_node_id":"0.0-4.0-1.23","subject_id":"613aa7e0c78fa286254a77c0","study_id":"6197b3f67c2b5cd3b6d9596a","session_id":"6197b5cc9cfccfdfcb8c661b","condition":"full-information","relevant_dimensions":["pattern","legs"],"bee_group":{"antennae":"X","wings":"X","pattern":"S","legs":"F"},"bonus":1.4600000000000013},{"rt":4133.0999999940395,"stimulus":"bees-with-color/bee-B1SM.svg","response":1,"trial_type":"image-button-response","trial_index":55,"time_elapsed":334651,"internal_node_id":"0.0-4.0-0.24","subject_id":"613aa7e0c78fa286254a77c0","study_id":"6197b3f67c2b5cd3b6d9596a","session_id":"6197b5cc9cfccfdfcb8c661b","condition":"full-information","relevant_dimensions":["pattern","legs"],"bee_group":{"antennae":"X","wings":"X","pattern":"S","legs":"F"},"action":"avoid","summary":"bad-avoid","bonus":1.4600000000000013},{"rt":1044.2000000029802,"stimulus":"\n                    <p><b>Action: <em>avoid</em></b></p>\n                    <p>This is the bee that you just saw.</p>\n                    <img src=\"bees-with-color/bee-B1SM.svg\" width=\"200\">\n                    <p><span class=\"redText\">Bad choice,</span> the bee was friendly.<br>Your bonus pay is unchanged, and remains at $0.50.</p>\n            ","response":0,"trial_type":"html-button-response","trial_index":56,"time_elapsed":335698,"internal_node_id":"0.0-4.0-1.24","subject_id":"613aa7e0c78fa286254a77c0","study_id":"6197b3f67c2b5cd3b6d9596a","session_id":"6197b5cc9cfccfdfcb8c661b","condition":"full-information","relevant_dimensions":["pattern","legs"],"bee_group":{"antennae":"X","wings":"X","pattern":"S","legs":"F"},"bonus":1.4600000000000013},{"rt":1341,"stimulus":"bees-with-color/bee-A2DM.svg","response":0,"trial_type":"image-button-response","trial_index":57,"time_elapsed":337042,"internal_node_id":"0.0-4.0-0.25","subject_id":"613aa7e0c78fa286254a77c0","study_id":"6197b3f67c2b5cd3b6d9596a","session_id":"6197b5cc9cfccfdfcb8c661b","condition":"full-information","relevant_dimensions":["pattern","legs"],"bee_group":{"antennae":"X","wings":"X","pattern":"S","legs":"F"},"action":"harvest","summary":"good-harvest","bonus":1.4600000000000013},{"rt":923.2999999970198,"stimulus":"\n                    <p><b>Action: <em>harvest</em></b></p>\n                    <p>This is the bee that you just saw.</p>\n                    <img src=\"bees-with-color/bee-A2DM.svg\" width=\"200\">\n                    <p><span class=\"greenText\"><b>Successful harvest!</b></span><br>Your pay has increased by $0.02. Your bonus pay is now $0.52.</p>\n            ","response":0,"trial_type":"html-button-response","trial_index":58,"time_elapsed":337968,"internal_node_id":"0.0-4.0-1.25","subject_id":"613aa7e0c78fa286254a77c0","study_id":"6197b3f67c2b5cd3b6d9596a","session_id":"6197b5cc9cfccfdfcb8c661b","condition":"full-information","relevant_dimensions":["pattern","legs"],"bee_group":{"antennae":"X","wings":"X","pattern":"S","legs":"F"},"bonus":1.4600000000000013},{"rt":1094,"stimulus":"bees-with-color/bee-A1SM.svg","response":0,"trial_type":"image-button-response","trial_index":59,"time_elapsed":339064,"internal_node_id":"0.0-4.0-0.26","subject_id":"613aa7e0c78fa286254a77c0","study_id":"6197b3f67c2b5cd3b6d9596a","session_id":"6197b5cc9cfccfdfcb8c661b","condition":"full-information","relevant_dimensions":["pattern","legs"],"bee_group":{"antennae":"X","wings":"X","pattern":"S","legs":"F"},"action":"harvest","summary":"good-harvest","bonus":1.4600000000000013},{"rt":1043.0999999940395,"stimulus":"\n                    <p><b>Action: <em>harvest</em></b></p>\n                    <p>This is the bee that you just saw.</p>\n                    <img src=\"bees-with-color/bee-A1SM.svg\" width=\"200\">\n                    <p><span class=\"greenText\"><b>Successful harvest!</b></span><br>Your pay has increased by $0.02. Your bonus pay is now $0.54.</p>\n            ","response":0,"trial_type":"html-button-response","trial_index":60,"time_elapsed":340112,"internal_node_id":"0.0-4.0-1.26","subject_id":"613aa7e0c78fa286254a77c0","study_id":"6197b3f67c2b5cd3b6d9596a","session_id":"6197b5cc9cfccfdfcb8c661b","condition":"full-information","relevant_dimensions":["pattern","legs"],"bee_group":{"antennae":"X","wings":"X","pattern":"S","legs":"F"},"bonus":1.4600000000000013},{"rt":1381,"stimulus":"bees-with-color/bee-B1DF.svg","response":0,"trial_type":"image-button-response","trial_index":61,"time_elapsed":341496,"internal_node_id":"0.0-4.0-0.27","subject_id":"613aa7e0c78fa286254a77c0","study_id":"6197b3f67c2b5cd3b6d9596a","session_id":"6197b5cc9cfccfdfcb8c661b","condition":"full-information","relevant_dimensions":["pattern","legs"],"bee_group":{"antennae":"X","wings":"X","pattern":"S","legs":"F"},"action":"harvest","summary":"good-harvest","bonus":1.4600000000000013},{"rt":923.3000000119209,"stimulus":"\n                    <p><b>Action: <em>harvest</em></b></p>\n                    <p>This is the bee that you just saw.</p>\n                    <img src=\"bees-with-color/bee-B1DF.svg\" width=\"200\">\n                    <p><span class=\"greenText\"><b>Successful harvest!</b></span><br>Your pay has increased by $0.02. Your bonus pay is now $0.56.</p>\n            ","response":0,"trial_type":"html-button-response","trial_index":62,"time_elapsed":342422,"internal_node_id":"0.0-4.0-1.27","subject_id":"613aa7e0c78fa286254a77c0","study_id":"6197b3f67c2b5cd3b6d9596a","session_id":"6197b5cc9cfccfdfcb8c661b","condition":"full-information","relevant_dimensions":["pattern","legs"],"bee_group":{"antennae":"X","wings":"X","pattern":"S","legs":"F"},"bonus":1.4600000000000013},{"rt":1091.2999999970198,"stimulus":"bees-with-color/bee-A1SF.svg","response":1,"trial_type":"image-button-response","trial_index":63,"time_elapsed":343516,"internal_node_id":"0.0-4.0-0.28","subject_id":"613aa7e0c78fa286254a77c0","study_id":"6197b3f67c2b5cd3b6d9596a","session_id":"6197b5cc9cfccfdfcb8c661b","condition":"full-information","relevant_dimensions":["pattern","legs"],"bee_group":{"antennae":"X","wings":"X","pattern":"S","legs":"F"},"action":"avoid","summary":"good-avoid","bonus":1.4600000000000013},{"rt":1149.0999999940395,"stimulus":"\n                    <p><b>Action: <em>avoid</em></b></p>\n                    <p>This is the bee that you just saw.</p>\n                    <img src=\"bees-with-color/bee-A1SF.svg\" width=\"200\">\n                    <p><span class=\"greenText\">Good choice!</span>  This bee would have stung you.<br>Your bonus pay is unchanged, and remains at $0.56.</p>\n            ","response":0,"trial_type":"html-button-response","trial_index":64,"time_elapsed":344668,"internal_node_id":"0.0-4.0-1.28","subject_id":"613aa7e0c78fa286254a77c0","study_id":"6197b3f67c2b5cd3b6d9596a","session_id":"6197b5cc9cfccfdfcb8c661b","condition":"full-information","relevant_dimensions":["pattern","legs"],"bee_group":{"antennae":"X","wings":"X","pattern":"S","legs":"F"},"bonus":1.4600000000000013},{"rt":1090,"stimulus":"bees-with-color/bee-A2SF.svg","response":0,"trial_type":"image-button-response","trial_index":65,"time_elapsed":345760,"internal_node_id":"0.0-4.0-0.29","subject_id":"613aa7e0c78fa286254a77c0","study_id":"6197b3f67c2b5cd3b6d9596a","session_id":"6197b5cc9cfccfdfcb8c661b","condition":"full-information","relevant_dimensions":["pattern","legs"],"bee_group":{"antennae":"X","wings":"X","pattern":"S","legs":"F"},"action":"harvest","summary":"bad-harvest","bonus":1.4600000000000013},{"rt":2558.800000011921,"stimulus":"\n                    <p><b>Action: <em>harvest</em></b></p>\n                    <p>This is the bee that you just saw.</p>\n                    <img src=\"bees-with-color/bee-A2SF.svg\" width=\"200\">\n                    <p><span class=\"redText\">Bad choice, the bee was angry.</span><br><b>You have been stung!</b><br>Your pay has been decreased by $0.10. Your bonus pay is now $0.46.</p>\n            ","response":0,"trial_type":"html-button-response","trial_index":66,"time_elapsed":348322,"internal_node_id":"0.0-4.0-1.29","subject_id":"613aa7e0c78fa286254a77c0","study_id":"6197b3f67c2b5cd3b6d9596a","session_id":"6197b5cc9cfccfdfcb8c661b","condition":"full-information","relevant_dimensions":["pattern","legs"],"bee_group":{"antennae":"X","wings":"X","pattern":"S","legs":"F"},"bonus":1.4600000000000013},{"rt":1312.1000000089407,"stimulus":"bees-with-color/bee-A1DM.svg","response":0,"trial_type":"image-button-response","trial_index":67,"time_elapsed":349638,"internal_node_id":"0.0-4.0-0.30","subject_id":"613aa7e0c78fa286254a77c0","study_id":"6197b3f67c2b5cd3b6d9596a","session_id":"6197b5cc9cfccfdfcb8c661b","condition":"full-information","relevant_dimensions":["pattern","legs"],"bee_group":{"antennae":"X","wings":"X","pattern":"S","legs":"F"},"action":"harvest","summary":"good-harvest","bonus":1.4600000000000013},{"rt":957,"stimulus":"\n                    <p><b>Action: <em>harvest</em></b></p>\n                    <p>This is the bee that you just saw.</p>\n                    <img src=\"bees-with-color/bee-A1DM.svg\" width=\"200\">\n                    <p><span class=\"greenText\"><b>Successful harvest!</b></span><br>Your pay has increased by $0.02. Your bonus pay is now $0.48.</p>\n            ","response":0,"trial_type":"html-button-response","trial_index":68,"time_elapsed":350598,"internal_node_id":"0.0-4.0-1.30","subject_id":"613aa7e0c78fa286254a77c0","study_id":"6197b3f67c2b5cd3b6d9596a","session_id":"6197b5cc9cfccfdfcb8c661b","condition":"full-information","relevant_dimensions":["pattern","legs"],"bee_group":{"antennae":"X","wings":"X","pattern":"S","legs":"F"},"bonus":1.4600000000000013},{"rt":1121.5,"stimulus":"bees-with-color/bee-A1DF.svg","response":0,"trial_type":"image-button-response","trial_index":69,"time_elapsed":351722,"internal_node_id":"0.0-4.0-0.31","subject_id":"613aa7e0c78fa286254a77c0","study_id":"6197b3f67c2b5cd3b6d9596a","session_id":"6197b5cc9cfccfdfcb8c661b","condition":"full-information","relevant_dimensions":["pattern","legs"],"bee_group":{"antennae":"X","wings":"X","pattern":"S","legs":"F"},"action":"harvest","summary":"good-harvest","bonus":1.4600000000000013},{"rt":993.2999999970198,"stimulus":"\n                    <p><b>Action: <em>harvest</em></b></p>\n                    <p>This is the bee that you just saw.</p>\n                    <img src=\"bees-with-color/bee-A1DF.svg\" width=\"200\">\n                    <p><span class=\"greenText\"><b>Successful harvest!</b></span><br>Your pay has increased by $0.02. Your bonus pay is now $0.50.</p>\n            ","response":0,"trial_type":"html-button-response","trial_index":70,"time_elapsed":352718,"internal_node_id":"0.0-4.0-1.31","subject_id":"613aa7e0c78fa286254a77c0","study_id":"6197b3f67c2b5cd3b6d9596a","session_id":"6197b5cc9cfccfdfcb8c661b","condition":"full-information","relevant_dimensions":["pattern","legs"],"bee_group":{"antennae":"X","wings":"X","pattern":"S","legs":"F"},"bonus":1.4600000000000013},{"rt":1216.5,"stimulus":"bees-with-color/bee-A2SF.svg","response":1,"trial_type":"image-button-response","trial_index":71,"time_elapsed":353937,"internal_node_id":"0.0-4.0-0.32","subject_id":"613aa7e0c78fa286254a77c0","study_id":"6197b3f67c2b5cd3b6d9596a","session_id":"6197b5cc9cfccfdfcb8c661b","condition":"full-information","relevant_dimensions":["pattern","legs"],"bee_group":{"antennae":"X","wings":"X","pattern":"S","legs":"F"},"action":"avoid","summary":"good-avoid","bonus":1.4600000000000013},{"rt":730.4000000059605,"stimulus":"\n                    <p><b>Action: <em>avoid</em></b></p>\n                    <p>This is the bee that you just saw.</p>\n                    <img src=\"bees-with-color/bee-A2SF.svg\" width=\"200\">\n                    <p><span class=\"greenText\">Good choice!</span>  This bee would have stung you.<br>Your bonus pay is unchanged, and remains at $0.50.</p>\n            ","response":0,"trial_type":"html-button-response","trial_index":72,"time_elapsed":354671,"internal_node_id":"0.0-4.0-1.32","subject_id":"613aa7e0c78fa286254a77c0","study_id":"6197b3f67c2b5cd3b6d9596a","session_id":"6197b5cc9cfccfdfcb8c661b","condition":"full-information","relevant_dimensions":["pattern","legs"],"bee_group":{"antennae":"X","wings":"X","pattern":"S","legs":"F"},"bonus":1.4600000000000013},{"rt":956.6999999880791,"stimulus":"bees-with-color/bee-B1SF.svg","response":1,"trial_type":"image-button-response","trial_index":73,"time_elapsed":355630,"internal_node_id":"0.0-4.0-0.33","subject_id":"613aa7e0c78fa286254a77c0","study_id":"6197b3f67c2b5cd3b6d9596a","session_id":"6197b5cc9cfccfdfcb8c661b","condition":"full-information","relevant_dimensions":["pattern","legs"],"bee_group":{"antennae":"X","wings":"X","pattern":"S","legs":"F"},"action":"avoid","summary":"good-avoid","bonus":1.4600000000000013},{"rt":947.9000000059605,"stimulus":"\n                    <p><b>Action: <em>avoid</em></b></p>\n                    <p>This is the bee that you just saw.</p>\n                    <img src=\"bees-with-color/bee-B1SF.svg\" width=\"200\">\n                    <p><span class=\"greenText\">Good choice!</span>  This bee would have stung you.<br>Your bonus pay is unchanged, and remains at $0.50.</p>\n            ","response":0,"trial_type":"html-button-response","trial_index":74,"time_elapsed":356582,"internal_node_id":"0.0-4.0-1.33","subject_id":"613aa7e0c78fa286254a77c0","study_id":"6197b3f67c2b5cd3b6d9596a","session_id":"6197b5cc9cfccfdfcb8c661b","condition":"full-information","relevant_dimensions":["pattern","legs"],"bee_group":{"antennae":"X","wings":"X","pattern":"S","legs":"F"},"bonus":1.4600000000000013},{"rt":1066.6000000089407,"stimulus":"bees-with-color/bee-A2DF.svg","response":0,"trial_type":"image-button-response","trial_index":75,"time_elapsed":357651,"internal_node_id":"0.0-4.0-0.34","subject_id":"613aa7e0c78fa286254a77c0","study_id":"6197b3f67c2b5cd3b6d9596a","session_id":"6197b5cc9cfccfdfcb8c661b","condition":"full-information","relevant_dimensions":["pattern","legs"],"bee_group":{"antennae":"X","wings":"X","pattern":"S","legs":"F"},"action":"harvest","summary":"good-harvest","bonus":1.4600000000000013},{"rt":980.7000000029802,"stimulus":"\n                    <p><b>Action: <em>harvest</em></b></p>\n                    <p>This is the bee that you just saw.</p>\n                    <img src=\"bees-with-color/bee-A2DF.svg\" width=\"200\">\n                    <p><span class=\"greenText\"><b>Successful harvest!</b></span><br>Your pay has increased by $0.02. Your bonus pay is now $0.52.</p>\n            ","response":0,"trial_type":"html-button-response","trial_index":76,"time_elapsed":358635,"internal_node_id":"0.0-4.0-1.34","subject_id":"613aa7e0c78fa286254a77c0","study_id":"6197b3f67c2b5cd3b6d9596a","session_id":"6197b5cc9cfccfdfcb8c661b","condition":"full-information","relevant_dimensions":["pattern","legs"],"bee_group":{"antennae":"X","wings":"X","pattern":"S","legs":"F"},"bonus":1.4600000000000013},{"rt":1334.800000011921,"stimulus":"bees-with-color/bee-B2DF.svg","response":0,"trial_type":"image-button-response","trial_index":77,"time_elapsed":359972,"internal_node_id":"0.0-4.0-0.35","subject_id":"613aa7e0c78fa286254a77c0","study_id":"6197b3f67c2b5cd3b6d9596a","session_id":"6197b5cc9cfccfdfcb8c661b","condition":"full-information","relevant_dimensions":["pattern","legs"],"bee_group":{"antennae":"X","wings":"X","pattern":"S","legs":"F"},"action":"harvest","summary":"good-harvest","bonus":1.4600000000000013},{"rt":948,"stimulus":"\n                    <p><b>Action: <em>harvest</em></b></p>\n                    <p>This is the bee that you just saw.</p>\n                    <img src=\"bees-with-color/bee-B2DF.svg\" width=\"200\">\n                    <p><span class=\"greenText\"><b>Successful harvest!</b></span><br>Your pay has increased by $0.02. Your bonus pay is now $0.54.</p>\n            ","response":0,"trial_type":"html-button-response","trial_index":78,"time_elapsed":360924,"internal_node_id":"0.0-4.0-1.35","subject_id":"613aa7e0c78fa286254a77c0","study_id":"6197b3f67c2b5cd3b6d9596a","session_id":"6197b5cc9cfccfdfcb8c661b","condition":"full-information","relevant_dimensions":["pattern","legs"],"bee_group":{"antennae":"X","wings":"X","pattern":"S","legs":"F"},"bonus":1.4600000000000013},{"rt":916.2999999970198,"stimulus":"bees-with-color/bee-A1SM.svg","response":0,"trial_type":"image-button-response","trial_index":79,"time_elapsed":361843,"internal_node_id":"0.0-4.0-0.36","subject_id":"613aa7e0c78fa286254a77c0","study_id":"6197b3f67c2b5cd3b6d9596a","session_id":"6197b5cc9cfccfdfcb8c661b","condition":"full-information","relevant_dimensions":["pattern","legs"],"bee_group":{"antennae":"X","wings":"X","pattern":"S","legs":"F"},"action":"harvest","summary":"good-harvest","bonus":1.4600000000000013},{"rt":783.5,"stimulus":"\n                    <p><b>Action: <em>harvest</em></b></p>\n                    <p>This is the bee that you just saw.</p>\n                    <img src=\"bees-with-color/bee-A1SM.svg\" width=\"200\">\n                    <p><span class=\"greenText\"><b>Successful harvest!</b></span><br>Your pay has increased by $0.02. Your bonus pay is now $0.56.</p>\n            ","response":0,"trial_type":"html-button-response","trial_index":80,"time_elapsed":362630,"internal_node_id":"0.0-4.0-1.36","subject_id":"613aa7e0c78fa286254a77c0","study_id":"6197b3f67c2b5cd3b6d9596a","session_id":"6197b5cc9cfccfdfcb8c661b","condition":"full-information","relevant_dimensions":["pattern","legs"],"bee_group":{"antennae":"X","wings":"X","pattern":"S","legs":"F"},"bonus":1.4600000000000013},{"rt":1063.5999999940395,"stimulus":"bees-with-color/bee-B1DF.svg","response":0,"trial_type":"image-button-response","trial_index":81,"time_elapsed":363699,"internal_node_id":"0.0-4.0-0.37","subject_id":"613aa7e0c78fa286254a77c0","study_id":"6197b3f67c2b5cd3b6d9596a","session_id":"6197b5cc9cfccfdfcb8c661b","condition":"full-information","relevant_dimensions":["pattern","legs"],"bee_group":{"antennae":"X","wings":"X","pattern":"S","legs":"F"},"action":"harvest","summary":"good-harvest","bonus":1.4600000000000013},{"rt":827.8999999910593,"stimulus":"\n                    <p><b>Action: <em>harvest</em></b></p>\n                    <p>This is the bee that you just saw.</p>\n                    <img src=\"bees-with-color/bee-B1DF.svg\" width=\"200\">\n                    <p><span class=\"greenText\"><b>Successful harvest!</b></span><br>Your pay has increased by $0.02. Your bonus pay is now $0.58.</p>\n            ","response":0,"trial_type":"html-button-response","trial_index":82,"time_elapsed":364530,"internal_node_id":"0.0-4.0-1.37","subject_id":"613aa7e0c78fa286254a77c0","study_id":"6197b3f67c2b5cd3b6d9596a","session_id":"6197b5cc9cfccfdfcb8c661b","condition":"full-information","relevant_dimensions":["pattern","legs"],"bee_group":{"antennae":"X","wings":"X","pattern":"S","legs":"F"},"bonus":1.4600000000000013},{"rt":1078.1000000089407,"stimulus":"bees-with-color/bee-A1DF.svg","response":0,"trial_type":"image-button-response","trial_index":83,"time_elapsed":365611,"internal_node_id":"0.0-4.0-0.38","subject_id":"613aa7e0c78fa286254a77c0","study_id":"6197b3f67c2b5cd3b6d9596a","session_id":"6197b5cc9cfccfdfcb8c661b","condition":"full-information","relevant_dimensions":["pattern","legs"],"bee_group":{"antennae":"X","wings":"X","pattern":"S","legs":"F"},"action":"harvest","summary":"good-harvest","bonus":1.4600000000000013},{"rt":830.2000000029802,"stimulus":"\n                    <p><b>Action: <em>harvest</em></b></p>\n                    <p>This is the bee that you just saw.</p>\n                    <img src=\"bees-with-color/bee-A1DF.svg\" width=\"200\">\n                    <p><span class=\"greenText\"><b>Successful harvest!</b></span><br>Your pay has increased by $0.02. Your bonus pay is now $0.60.</p>\n            ","response":0,"trial_type":"html-button-response","trial_index":84,"time_elapsed":366444,"internal_node_id":"0.0-4.0-1.38","subject_id":"613aa7e0c78fa286254a77c0","study_id":"6197b3f67c2b5cd3b6d9596a","session_id":"6197b5cc9cfccfdfcb8c661b","condition":"full-information","relevant_dimensions":["pattern","legs"],"bee_group":{"antennae":"X","wings":"X","pattern":"S","legs":"F"},"bonus":1.4600000000000013},{"rt":988.7999999970198,"stimulus":"bees-with-color/bee-A1DM.svg","response":0,"trial_type":"image-button-response","trial_index":85,"time_elapsed":367434,"internal_node_id":"0.0-4.0-0.39","subject_id":"613aa7e0c78fa286254a77c0","study_id":"6197b3f67c2b5cd3b6d9596a","session_id":"6197b5cc9cfccfdfcb8c661b","condition":"full-information","relevant_dimensions":["pattern","legs"],"bee_group":{"antennae":"X","wings":"X","pattern":"S","legs":"F"},"action":"harvest","summary":"good-harvest","bonus":1.4600000000000013},{"rt":1215.9000000059605,"stimulus":"\n                    <p><b>Action: <em>harvest</em></b></p>\n                    <p>This is the bee that you just saw.</p>\n                    <img src=\"bees-with-color/bee-A1DM.svg\" width=\"200\">\n                    <p><span class=\"greenText\"><b>Successful harvest!</b></span><br>Your pay has increased by $0.02. Your bonus pay is now $0.62.</p>\n            ","response":0,"trial_type":"html-button-response","trial_index":86,"time_elapsed":368653,"internal_node_id":"0.0-4.0-1.39","subject_id":"613aa7e0c78fa286254a77c0","study_id":"6197b3f67c2b5cd3b6d9596a","session_id":"6197b5cc9cfccfdfcb8c661b","condition":"full-information","relevant_dimensions":["pattern","legs"],"bee_group":{"antennae":"X","wings":"X","pattern":"S","legs":"F"},"bonus":1.4600000000000013},{"rt":1210.2999999970198,"stimulus":"bees-with-color/bee-B1SM.svg","response":0,"trial_type":"image-button-response","trial_index":87,"time_elapsed":369865,"internal_node_id":"0.0-4.0-0.40","subject_id":"613aa7e0c78fa286254a77c0","study_id":"6197b3f67c2b5cd3b6d9596a","session_id":"6197b5cc9cfccfdfcb8c661b","condition":"full-information","relevant_dimensions":["pattern","legs"],"bee_group":{"antennae":"X","wings":"X","pattern":"S","legs":"F"},"action":"harvest","summary":"good-harvest","bonus":1.4600000000000013},{"rt":751.8000000119209,"stimulus":"\n                    <p><b>Action: <em>harvest</em></b></p>\n                    <p>This is the bee that you just saw.</p>\n                    <img src=\"bees-with-color/bee-B1SM.svg\" width=\"200\">\n                    <p><span class=\"greenText\"><b>Successful harvest!</b></span><br>Your pay has increased by $0.02. Your bonus pay is now $0.64.</p>\n            ","response":0,"trial_type":"html-button-response","trial_index":88,"time_elapsed":370619,"internal_node_id":"0.0-4.0-1.40","subject_id":"613aa7e0c78fa286254a77c0","study_id":"6197b3f67c2b5cd3b6d9596a","session_id":"6197b5cc9cfccfdfcb8c661b","condition":"full-information","relevant_dimensions":["pattern","legs"],"bee_group":{"antennae":"X","wings":"X","pattern":"S","legs":"F"},"bonus":1.4600000000000013},{"rt":965.5999999940395,"stimulus":"bees-with-color/bee-A1SF.svg","response":1,"trial_type":"image-button-response","trial_index":89,"time_elapsed":371587,"internal_node_id":"0.0-4.0-0.41","subject_id":"613aa7e0c78fa286254a77c0","study_id":"6197b3f67c2b5cd3b6d9596a","session_id":"6197b5cc9cfccfdfcb8c661b","condition":"full-information","relevant_dimensions":["pattern","legs"],"bee_group":{"antennae":"X","wings":"X","pattern":"S","legs":"F"},"action":"avoid","summary":"good-avoid","bonus":1.4600000000000013},{"rt":830.6000000089407,"stimulus":"\n                    <p><b>Action: <em>avoid</em></b></p>\n                    <p>This is the bee that you just saw.</p>\n                    <img src=\"bees-with-color/bee-A1SF.svg\" width=\"200\">\n                    <p><span class=\"greenText\">Good choice!</span>  This bee would have stung you.<br>Your bonus pay is unchanged, and remains at $0.64.</p>\n            ","response":0,"trial_type":"html-button-response","trial_index":90,"time_elapsed":372420,"internal_node_id":"0.0-4.0-1.41","subject_id":"613aa7e0c78fa286254a77c0","study_id":"6197b3f67c2b5cd3b6d9596a","session_id":"6197b5cc9cfccfdfcb8c661b","condition":"full-information","relevant_dimensions":["pattern","legs"],"bee_group":{"antennae":"X","wings":"X","pattern":"S","legs":"F"},"bonus":1.4600000000000013},{"rt":1215.5,"stimulus":"bees-with-color/bee-A2SM.svg","response":0,"trial_type":"image-button-response","trial_index":91,"time_elapsed":373638,"internal_node_id":"0.0-4.0-0.42","subject_id":"613aa7e0c78fa286254a77c0","study_id":"6197b3f67c2b5cd3b6d9596a","session_id":"6197b5cc9cfccfdfcb8c661b","condition":"full-information","relevant_dimensions":["pattern","legs"],"bee_group":{"antennae":"X","wings":"X","pattern":"S","legs":"F"},"action":"harvest","summary":"good-harvest","bonus":1.4600000000000013},{"rt":974.8999999910593,"stimulus":"\n                    <p><b>Action: <em>harvest</em></b></p>\n                    <p>This is the bee that you just saw.</p>\n                    <img src=\"bees-with-color/bee-A2SM.svg\" width=\"200\">\n                    <p><span class=\"greenText\"><b>Successful harvest!</b></span><br>Your pay has increased by $0.02. Your bonus pay is now $0.66.</p>\n            ","response":0,"trial_type":"html-button-response","trial_index":92,"time_elapsed":374615,"internal_node_id":"0.0-4.0-1.42","subject_id":"613aa7e0c78fa286254a77c0","study_id":"6197b3f67c2b5cd3b6d9596a","session_id":"6197b5cc9cfccfdfcb8c661b","condition":"full-information","relevant_dimensions":["pattern","legs"],"bee_group":{"antennae":"X","wings":"X","pattern":"S","legs":"F"},"bonus":1.4600000000000013},{"rt":1205.2999999970198,"stimulus":"bees-with-color/bee-A2DM.svg","response":0,"trial_type":"image-button-response","trial_index":93,"time_elapsed":375823,"internal_node_id":"0.0-4.0-0.43","subject_id":"613aa7e0c78fa286254a77c0","study_id":"6197b3f67c2b5cd3b6d9596a","session_id":"6197b5cc9cfccfdfcb8c661b","condition":"full-information","relevant_dimensions":["pattern","legs"],"bee_group":{"antennae":"X","wings":"X","pattern":"S","legs":"F"},"action":"harvest","summary":"good-harvest","bonus":1.4600000000000013},{"rt":896.1999999880791,"stimulus":"\n                    <p><b>Action: <em>harvest</em></b></p>\n                    <p>This is the bee that you just saw.</p>\n                    <img src=\"bees-with-color/bee-A2DM.svg\" width=\"200\">\n                    <p><span class=\"greenText\"><b>Successful harvest!</b></span><br>Your pay has increased by $0.02. Your bonus pay is now $0.68.</p>\n            ","response":0,"trial_type":"html-button-response","trial_index":94,"time_elapsed":376721,"internal_node_id":"0.0-4.0-1.43","subject_id":"613aa7e0c78fa286254a77c0","study_id":"6197b3f67c2b5cd3b6d9596a","session_id":"6197b5cc9cfccfdfcb8c661b","condition":"full-information","relevant_dimensions":["pattern","legs"],"bee_group":{"antennae":"X","wings":"X","pattern":"S","legs":"F"},"bonus":1.4600000000000013},{"rt":847.6000000089407,"stimulus":"bees-with-color/bee-B2DM.svg","response":0,"trial_type":"image-button-response","trial_index":95,"time_elapsed":377572,"internal_node_id":"0.0-4.0-0.44","subject_id":"613aa7e0c78fa286254a77c0","study_id":"6197b3f67c2b5cd3b6d9596a","session_id":"6197b5cc9cfccfdfcb8c661b","condition":"full-information","relevant_dimensions":["pattern","legs"],"bee_group":{"antennae":"X","wings":"X","pattern":"S","legs":"F"},"action":"harvest","summary":"good-harvest","bonus":1.4600000000000013},{"rt":956.3000000119209,"stimulus":"\n                    <p><b>Action: <em>harvest</em></b></p>\n                    <p>This is the bee that you just saw.</p>\n                    <img src=\"bees-with-color/bee-B2DM.svg\" width=\"200\">\n                    <p><span class=\"greenText\"><b>Successful harvest!</b></span><br>Your pay has increased by $0.02. Your bonus pay is now $0.70.</p>\n            ","response":0,"trial_type":"html-button-response","trial_index":96,"time_elapsed":378530,"internal_node_id":"0.0-4.0-1.44","subject_id":"613aa7e0c78fa286254a77c0","study_id":"6197b3f67c2b5cd3b6d9596a","session_id":"6197b5cc9cfccfdfcb8c661b","condition":"full-information","relevant_dimensions":["pattern","legs"],"bee_group":{"antennae":"X","wings":"X","pattern":"S","legs":"F"},"bonus":1.4600000000000013},{"rt":1699,"stimulus":"bees-with-color/bee-B2SM.svg","response":0,"trial_type":"image-button-response","trial_index":97,"time_elapsed":380232,"internal_node_id":"0.0-4.0-0.45","subject_id":"613aa7e0c78fa286254a77c0","study_id":"6197b3f67c2b5cd3b6d9596a","session_id":"6197b5cc9cfccfdfcb8c661b","condition":"full-information","relevant_dimensions":["pattern","legs"],"bee_group":{"antennae":"X","wings":"X","pattern":"S","legs":"F"},"action":"harvest","summary":"good-harvest","bonus":1.4600000000000013},{"rt":1170.800000011921,"stimulus":"\n                    <p><b>Action: <em>harvest</em></b></p>\n                    <p>This is the bee that you just saw.</p>\n                    <img src=\"bees-with-color/bee-B2SM.svg\" width=\"200\">\n                    <p><span class=\"greenText\"><b>Successful harvest!</b></span><br>Your pay has increased by $0.02. Your bonus pay is now $0.72.</p>\n            ","response":0,"trial_type":"html-button-response","trial_index":98,"time_elapsed":381406,"internal_node_id":"0.0-4.0-1.45","subject_id":"613aa7e0c78fa286254a77c0","study_id":"6197b3f67c2b5cd3b6d9596a","session_id":"6197b5cc9cfccfdfcb8c661b","condition":"full-information","relevant_dimensions":["pattern","legs"],"bee_group":{"antennae":"X","wings":"X","pattern":"S","legs":"F"},"bonus":1.4600000000000013},{"rt":984.1999999880791,"stimulus":"bees-with-color/bee-B1DM.svg","response":0,"trial_type":"image-button-response","trial_index":99,"time_elapsed":382393,"internal_node_id":"0.0-4.0-0.46","subject_id":"613aa7e0c78fa286254a77c0","study_id":"6197b3f67c2b5cd3b6d9596a","session_id":"6197b5cc9cfccfdfcb8c661b","condition":"full-information","relevant_dimensions":["pattern","legs"],"bee_group":{"antennae":"X","wings":"X","pattern":"S","legs":"F"},"action":"harvest","summary":"good-harvest","bonus":1.4600000000000013},{"rt":1070.7000000029802,"stimulus":"\n                    <p><b>Action: <em>harvest</em></b></p>\n                    <p>This is the bee that you just saw.</p>\n                    <img src=\"bees-with-color/bee-B1DM.svg\" width=\"200\">\n                    <p><span class=\"greenText\"><b>Successful harvest!</b></span><br>Your pay has increased by $0.02. Your bonus pay is now $0.74.</p>\n            ","response":0,"trial_type":"html-button-response","trial_index":100,"time_elapsed":383466,"internal_node_id":"0.0-4.0-1.46","subject_id":"613aa7e0c78fa286254a77c0","study_id":"6197b3f67c2b5cd3b6d9596a","session_id":"6197b5cc9cfccfdfcb8c661b","condition":"full-information","relevant_dimensions":["pattern","legs"],"bee_group":{"antennae":"X","wings":"X","pattern":"S","legs":"F"},"bonus":1.4600000000000013},{"rt":1270.3999999910593,"stimulus":"bees-with-color/bee-B2SF.svg","response":1,"trial_type":"image-button-response","trial_index":101,"time_elapsed":384739,"internal_node_id":"0.0-4.0-0.47","subject_id":"613aa7e0c78fa286254a77c0","study_id":"6197b3f67c2b5cd3b6d9596a","session_id":"6197b5cc9cfccfdfcb8c661b","condition":"full-information","relevant_dimensions":["pattern","legs"],"bee_group":{"antennae":"X","wings":"X","pattern":"S","legs":"F"},"action":"avoid","summary":"good-avoid","bonus":1.4600000000000013},{"rt":1247.4000000059605,"stimulus":"\n                    <p><b>Action: <em>avoid</em></b></p>\n                    <p>This is the bee that you just saw.</p>\n                    <img src=\"bees-with-color/bee-B2SF.svg\" width=\"200\">\n                    <p><span class=\"greenText\">Good choice!</span>  This bee would have stung you.<br>Your bonus pay is unchanged, and remains at $0.74.</p>\n            ","response":0,"trial_type":"html-button-response","trial_index":102,"time_elapsed":385990,"internal_node_id":"0.0-4.0-1.47","subject_id":"613aa7e0c78fa286254a77c0","study_id":"6197b3f67c2b5cd3b6d9596a","session_id":"6197b5cc9cfccfdfcb8c661b","condition":"full-information","relevant_dimensions":["pattern","legs"],"bee_group":{"antennae":"X","wings":"X","pattern":"S","legs":"F"},"bonus":1.4600000000000013},{"rt":1318.7999999970198,"stimulus":"bees-with-color/bee-B1SF.svg","response":1,"trial_type":"image-button-response","trial_index":103,"time_elapsed":387311,"internal_node_id":"0.0-4.0-0.48","subject_id":"613aa7e0c78fa286254a77c0","study_id":"6197b3f67c2b5cd3b6d9596a","session_id":"6197b5cc9cfccfdfcb8c661b","condition":"full-information","relevant_dimensions":["pattern","legs"],"bee_group":{"antennae":"X","wings":"X","pattern":"S","legs":"F"},"action":"avoid","summary":"good-avoid","bonus":1.4600000000000013},{"rt":800,"stimulus":"\n                    <p><b>Action: <em>avoid</em></b></p>\n                    <p>This is the bee that you just saw.</p>\n                    <img src=\"bees-with-color/bee-B1SF.svg\" width=\"200\">\n                    <p><span class=\"greenText\">Good choice!</span>  This bee would have stung you.<br>Your bonus pay is unchanged, and remains at $0.74.</p>\n            ","response":0,"trial_type":"html-button-response","trial_index":104,"time_elapsed":388114,"internal_node_id":"0.0-4.0-1.48","subject_id":"613aa7e0c78fa286254a77c0","study_id":"6197b3f67c2b5cd3b6d9596a","session_id":"6197b5cc9cfccfdfcb8c661b","condition":"full-information","relevant_dimensions":["pattern","legs"],"bee_group":{"antennae":"X","wings":"X","pattern":"S","legs":"F"},"bonus":1.4600000000000013},{"rt":1215.7999999970198,"stimulus":"bees-with-color/bee-A2SM.svg","response":0,"trial_type":"image-button-response","trial_index":105,"time_elapsed":389332,"internal_node_id":"0.0-4.0-0.49","subject_id":"613aa7e0c78fa286254a77c0","study_id":"6197b3f67c2b5cd3b6d9596a","session_id":"6197b5cc9cfccfdfcb8c661b","condition":"full-information","relevant_dimensions":["pattern","legs"],"bee_group":{"antennae":"X","wings":"X","pattern":"S","legs":"F"},"action":"harvest","summary":"good-harvest","bonus":1.4600000000000013},{"rt":791.5999999940395,"stimulus":"\n                    <p><b>Action: <em>harvest</em></b></p>\n                    <p>This is the bee that you just saw.</p>\n                    <img src=\"bees-with-color/bee-A2SM.svg\" width=\"200\">\n                    <p><span class=\"greenText\"><b>Successful harvest!</b></span><br>Your pay has increased by $0.02. Your bonus pay is now $0.76.</p>\n            ","response":0,"trial_type":"html-button-response","trial_index":106,"time_elapsed":390127,"internal_node_id":"0.0-4.0-1.49","subject_id":"613aa7e0c78fa286254a77c0","study_id":"6197b3f67c2b5cd3b6d9596a","session_id":"6197b5cc9cfccfdfcb8c661b","condition":"full-information","relevant_dimensions":["pattern","legs"],"bee_group":{"antennae":"X","wings":"X","pattern":"S","legs":"F"},"bonus":1.4600000000000013},{"rt":1042.6000000089407,"stimulus":"bees-with-color/bee-B2DF.svg","response":0,"trial_type":"image-button-response","trial_index":107,"time_elapsed":391172,"internal_node_id":"0.0-4.0-0.50","subject_id":"613aa7e0c78fa286254a77c0","study_id":"6197b3f67c2b5cd3b6d9596a","session_id":"6197b5cc9cfccfdfcb8c661b","condition":"full-information","relevant_dimensions":["pattern","legs"],"bee_group":{"antennae":"X","wings":"X","pattern":"S","legs":"F"},"action":"harvest","summary":"good-harvest","bonus":1.4600000000000013},{"rt":859.2999999970198,"stimulus":"\n                    <p><b>Action: <em>harvest</em></b></p>\n                    <p>This is the bee that you just saw.</p>\n                    <img src=\"bees-with-color/bee-B2DF.svg\" width=\"200\">\n                    <p><span class=\"greenText\"><b>Successful harvest!</b></span><br>Your pay has increased by $0.02. Your bonus pay is now $0.78.</p>\n            ","response":0,"trial_type":"html-button-response","trial_index":108,"time_elapsed":392034,"internal_node_id":"0.0-4.0-1.50","subject_id":"613aa7e0c78fa286254a77c0","study_id":"6197b3f67c2b5cd3b6d9596a","session_id":"6197b5cc9cfccfdfcb8c661b","condition":"full-information","relevant_dimensions":["pattern","legs"],"bee_group":{"antennae":"X","wings":"X","pattern":"S","legs":"F"},"bonus":1.4600000000000013},{"rt":1581.2999999970198,"stimulus":"bees-with-color/bee-B2SM.svg","response":0,"trial_type":"image-button-response","trial_index":109,"time_elapsed":393619,"internal_node_id":"0.0-4.0-0.51","subject_id":"613aa7e0c78fa286254a77c0","study_id":"6197b3f67c2b5cd3b6d9596a","session_id":"6197b5cc9cfccfdfcb8c661b","condition":"full-information","relevant_dimensions":["pattern","legs"],"bee_group":{"antennae":"X","wings":"X","pattern":"S","legs":"F"},"action":"harvest","summary":"good-harvest","bonus":1.4600000000000013},{"rt":1066.7999999970198,"stimulus":"\n                    <p><b>Action: <em>harvest</em></b></p>\n                    <p>This is the bee that you just saw.</p>\n                    <img src=\"bees-with-color/bee-B2SM.svg\" width=\"200\">\n                    <p><span class=\"greenText\"><b>Successful harvest!</b></span><br>Your pay has increased by $0.02. Your bonus pay is now $0.80.</p>\n            ","response":0,"trial_type":"html-button-response","trial_index":110,"time_elapsed":394689,"internal_node_id":"0.0-4.0-1.51","subject_id":"613aa7e0c78fa286254a77c0","study_id":"6197b3f67c2b5cd3b6d9596a","session_id":"6197b5cc9cfccfdfcb8c661b","condition":"full-information","relevant_dimensions":["pattern","legs"],"bee_group":{"antennae":"X","wings":"X","pattern":"S","legs":"F"},"bonus":1.4600000000000013},{"rt":1813,"stimulus":"bees-with-color/bee-A2DF.svg","response":0,"trial_type":"image-button-response","trial_index":111,"time_elapsed":396504,"internal_node_id":"0.0-4.0-0.52","subject_id":"613aa7e0c78fa286254a77c0","study_id":"6197b3f67c2b5cd3b6d9596a","session_id":"6197b5cc9cfccfdfcb8c661b","condition":"full-information","relevant_dimensions":["pattern","legs"],"bee_group":{"antennae":"X","wings":"X","pattern":"S","legs":"F"},"action":"harvest","summary":"good-harvest","bonus":1.4600000000000013},{"rt":944.8000000119209,"stimulus":"\n                    <p><b>Action: <em>harvest</em></b></p>\n                    <p>This is the bee that you just saw.</p>\n                    <img src=\"bees-with-color/bee-A2DF.svg\" width=\"200\">\n                    <p><span class=\"greenText\"><b>Successful harvest!</b></span><br>Your pay has increased by $0.02. Your bonus pay is now $0.82.</p>\n            ","response":0,"trial_type":"html-button-response","trial_index":112,"time_elapsed":397452,"internal_node_id":"0.0-4.0-1.52","subject_id":"613aa7e0c78fa286254a77c0","study_id":"6197b3f67c2b5cd3b6d9596a","session_id":"6197b5cc9cfccfdfcb8c661b","condition":"full-information","relevant_dimensions":["pattern","legs"],"bee_group":{"antennae":"X","wings":"X","pattern":"S","legs":"F"},"bonus":1.4600000000000013},{"rt":1384.2999999970198,"stimulus":"bees-with-color/bee-A1SM.svg","response":0,"trial_type":"image-button-response","trial_index":113,"time_elapsed":398840,"internal_node_id":"0.0-4.0-0.53","subject_id":"613aa7e0c78fa286254a77c0","study_id":"6197b3f67c2b5cd3b6d9596a","session_id":"6197b5cc9cfccfdfcb8c661b","condition":"full-information","relevant_dimensions":["pattern","legs"],"bee_group":{"antennae":"X","wings":"X","pattern":"S","legs":"F"},"action":"harvest","summary":"good-harvest","bonus":1.4600000000000013},{"rt":1027,"stimulus":"\n                    <p><b>Action: <em>harvest</em></b></p>\n                    <p>This is the bee that you just saw.</p>\n                    <img src=\"bees-with-color/bee-A1SM.svg\" width=\"200\">\n                    <p><span class=\"greenText\"><b>Successful harvest!</b></span><br>Your pay has increased by $0.02. Your bonus pay is now $0.84.</p>\n            ","response":0,"trial_type":"html-button-response","trial_index":114,"time_elapsed":399870,"internal_node_id":"0.0-4.0-1.53","subject_id":"613aa7e0c78fa286254a77c0","study_id":"6197b3f67c2b5cd3b6d9596a","session_id":"6197b5cc9cfccfdfcb8c661b","condition":"full-information","relevant_dimensions":["pattern","legs"],"bee_group":{"antennae":"X","wings":"X","pattern":"S","legs":"F"},"bonus":1.4600000000000013},{"rt":2214.5,"stimulus":"bees-with-color/bee-B1SM.svg","response":0,"trial_type":"image-button-response","trial_index":115,"time_elapsed":402088,"internal_node_id":"0.0-4.0-0.54","subject_id":"613aa7e0c78fa286254a77c0","study_id":"6197b3f67c2b5cd3b6d9596a","session_id":"6197b5cc9cfccfdfcb8c661b","condition":"full-information","relevant_dimensions":["pattern","legs"],"bee_group":{"antennae":"X","wings":"X","pattern":"S","legs":"F"},"action":"harvest","summary":"good-harvest","bonus":1.4600000000000013},{"rt":1106,"stimulus":"\n                    <p><b>Action: <em>harvest</em></b></p>\n                    <p>This is the bee that you just saw.</p>\n                    <img src=\"bees-with-color/bee-B1SM.svg\" width=\"200\">\n                    <p><span class=\"greenText\"><b>Successful harvest!</b></span><br>Your pay has increased by $0.02. Your bonus pay is now $0.86.</p>\n            ","response":0,"trial_type":"html-button-response","trial_index":116,"time_elapsed":403196,"internal_node_id":"0.0-4.0-1.54","subject_id":"613aa7e0c78fa286254a77c0","study_id":"6197b3f67c2b5cd3b6d9596a","session_id":"6197b5cc9cfccfdfcb8c661b","condition":"full-information","relevant_dimensions":["pattern","legs"],"bee_group":{"antennae":"X","wings":"X","pattern":"S","legs":"F"},"bonus":1.4600000000000013},{"rt":1342.5,"stimulus":"bees-with-color/bee-A2SF.svg","response":1,"trial_type":"image-button-response","trial_index":117,"time_elapsed":404541,"internal_node_id":"0.0-4.0-0.55","subject_id":"613aa7e0c78fa286254a77c0","study_id":"6197b3f67c2b5cd3b6d9596a","session_id":"6197b5cc9cfccfdfcb8c661b","condition":"full-information","relevant_dimensions":["pattern","legs"],"bee_group":{"antennae":"X","wings":"X","pattern":"S","legs":"F"},"action":"avoid","summary":"good-avoid","bonus":1.4600000000000013},{"rt":1027.5,"stimulus":"\n                    <p><b>Action: <em>avoid</em></b></p>\n                    <p>This is the bee that you just saw.</p>\n                    <img src=\"bees-with-color/bee-A2SF.svg\" width=\"200\">\n                    <p><span class=\"greenText\">Good choice!</span>  This bee would have stung you.<br>Your bonus pay is unchanged, and remains at $0.86.</p>\n            ","response":0,"trial_type":"html-button-response","trial_index":118,"time_elapsed":405571,"internal_node_id":"0.0-4.0-1.55","subject_id":"613aa7e0c78fa286254a77c0","study_id":"6197b3f67c2b5cd3b6d9596a","session_id":"6197b5cc9cfccfdfcb8c661b","condition":"full-information","relevant_dimensions":["pattern","legs"],"bee_group":{"antennae":"X","wings":"X","pattern":"S","legs":"F"},"bonus":1.4600000000000013},{"rt":1168.6000000089407,"stimulus":"bees-with-color/bee-B2DM.svg","response":0,"trial_type":"image-button-response","trial_index":119,"time_elapsed":406742,"internal_node_id":"0.0-4.0-0.56","subject_id":"613aa7e0c78fa286254a77c0","study_id":"6197b3f67c2b5cd3b6d9596a","session_id":"6197b5cc9cfccfdfcb8c661b","condition":"full-information","relevant_dimensions":["pattern","legs"],"bee_group":{"antennae":"X","wings":"X","pattern":"S","legs":"F"},"action":"harvest","summary":"good-harvest","bonus":1.4600000000000013},{"rt":1147.7000000029802,"stimulus":"\n                    <p><b>Action: <em>harvest</em></b></p>\n                    <p>This is the bee that you just saw.</p>\n                    <img src=\"bees-with-color/bee-B2DM.svg\" width=\"200\">\n                    <p><span class=\"greenText\"><b>Successful harvest!</b></span><br>Your pay has increased by $0.02. Your bonus pay is now $0.88.</p>\n            ","response":0,"trial_type":"html-button-response","trial_index":120,"time_elapsed":407892,"internal_node_id":"0.0-4.0-1.56","subject_id":"613aa7e0c78fa286254a77c0","study_id":"6197b3f67c2b5cd3b6d9596a","session_id":"6197b5cc9cfccfdfcb8c661b","condition":"full-information","relevant_dimensions":["pattern","legs"],"bee_group":{"antennae":"X","wings":"X","pattern":"S","legs":"F"},"bonus":1.4600000000000013},{"rt":1377.9000000059605,"stimulus":"bees-with-color/bee-A1SF.svg","response":1,"trial_type":"image-button-response","trial_index":121,"time_elapsed":409272,"internal_node_id":"0.0-4.0-0.57","subject_id":"613aa7e0c78fa286254a77c0","study_id":"6197b3f67c2b5cd3b6d9596a","session_id":"6197b5cc9cfccfdfcb8c661b","condition":"full-information","relevant_dimensions":["pattern","legs"],"bee_group":{"antennae":"X","wings":"X","pattern":"S","legs":"F"},"action":"avoid","summary":"good-avoid","bonus":1.4600000000000013},{"rt":1266.7999999970198,"stimulus":"\n                    <p><b>Action: <em>avoid</em></b></p>\n                    <p>This is the bee that you just saw.</p>\n                    <img src=\"bees-with-color/bee-A1SF.svg\" width=\"200\">\n                    <p><span class=\"greenText\">Good choice!</span>  This bee would have stung you.<br>Your bonus pay is unchanged, and remains at $0.88.</p>\n            ","response":0,"trial_type":"html-button-response","trial_index":122,"time_elapsed":410542,"internal_node_id":"0.0-4.0-1.57","subject_id":"613aa7e0c78fa286254a77c0","study_id":"6197b3f67c2b5cd3b6d9596a","session_id":"6197b5cc9cfccfdfcb8c661b","condition":"full-information","relevant_dimensions":["pattern","legs"],"bee_group":{"antennae":"X","wings":"X","pattern":"S","legs":"F"},"bonus":1.4600000000000013},{"rt":1047.0999999940395,"stimulus":"bees-with-color/bee-B1DF.svg","response":0,"trial_type":"image-button-response","trial_index":123,"time_elapsed":411591,"internal_node_id":"0.0-4.0-0.58","subject_id":"613aa7e0c78fa286254a77c0","study_id":"6197b3f67c2b5cd3b6d9596a","session_id":"6197b5cc9cfccfdfcb8c661b","condition":"full-information","relevant_dimensions":["pattern","legs"],"bee_group":{"antennae":"X","wings":"X","pattern":"S","legs":"F"},"action":"harvest","summary":"good-harvest","bonus":1.4600000000000013},{"rt":933.7000000029802,"stimulus":"\n                    <p><b>Action: <em>harvest</em></b></p>\n                    <p>This is the bee that you just saw.</p>\n                    <img src=\"bees-with-color/bee-B1DF.svg\" width=\"200\">\n                    <p><span class=\"greenText\"><b>Successful harvest!</b></span><br>Your pay has increased by $0.02. Your bonus pay is now $0.90.</p>\n            ","response":0,"trial_type":"html-button-response","trial_index":124,"time_elapsed":412527,"internal_node_id":"0.0-4.0-1.58","subject_id":"613aa7e0c78fa286254a77c0","study_id":"6197b3f67c2b5cd3b6d9596a","session_id":"6197b5cc9cfccfdfcb8c661b","condition":"full-information","relevant_dimensions":["pattern","legs"],"bee_group":{"antennae":"X","wings":"X","pattern":"S","legs":"F"},"bonus":1.4600000000000013},{"rt":909.3999999910593,"stimulus":"bees-with-color/bee-A2DM.svg","response":0,"trial_type":"image-button-response","trial_index":125,"time_elapsed":413439,"internal_node_id":"0.0-4.0-0.59","subject_id":"613aa7e0c78fa286254a77c0","study_id":"6197b3f67c2b5cd3b6d9596a","session_id":"6197b5cc9cfccfdfcb8c661b","condition":"full-information","relevant_dimensions":["pattern","legs"],"bee_group":{"antennae":"X","wings":"X","pattern":"S","legs":"F"},"action":"harvest","summary":"good-harvest","bonus":1.4600000000000013},{"rt":824.6999999880791,"stimulus":"\n                    <p><b>Action: <em>harvest</em></b></p>\n                    <p>This is the bee that you just saw.</p>\n                    <img src=\"bees-with-color/bee-A2DM.svg\" width=\"200\">\n                    <p><span class=\"greenText\"><b>Successful harvest!</b></span><br>Your pay has increased by $0.02. Your bonus pay is now $0.92.</p>\n            ","response":0,"trial_type":"html-button-response","trial_index":126,"time_elapsed":414266,"internal_node_id":"0.0-4.0-1.59","subject_id":"613aa7e0c78fa286254a77c0","study_id":"6197b3f67c2b5cd3b6d9596a","session_id":"6197b5cc9cfccfdfcb8c661b","condition":"full-information","relevant_dimensions":["pattern","legs"],"bee_group":{"antennae":"X","wings":"X","pattern":"S","legs":"F"},"bonus":1.4600000000000013},{"rt":909.9000000059605,"stimulus":"bees-with-color/bee-A1DM.svg","response":0,"trial_type":"image-button-response","trial_index":127,"time_elapsed":415178,"internal_node_id":"0.0-4.0-0.60","subject_id":"613aa7e0c78fa286254a77c0","study_id":"6197b3f67c2b5cd3b6d9596a","session_id":"6197b5cc9cfccfdfcb8c661b","condition":"full-information","relevant_dimensions":["pattern","legs"],"bee_group":{"antennae":"X","wings":"X","pattern":"S","legs":"F"},"action":"harvest","summary":"good-harvest","bonus":1.4600000000000013},{"rt":720.7000000029802,"stimulus":"\n                    <p><b>Action: <em>harvest</em></b></p>\n                    <p>This is the bee that you just saw.</p>\n                    <img src=\"bees-with-color/bee-A1DM.svg\" width=\"200\">\n                    <p><span class=\"greenText\"><b>Successful harvest!</b></span><br>Your pay has increased by $0.02. Your bonus pay is now $0.94.</p>\n            ","response":0,"trial_type":"html-button-response","trial_index":128,"time_elapsed":415901,"internal_node_id":"0.0-4.0-1.60","subject_id":"613aa7e0c78fa286254a77c0","study_id":"6197b3f67c2b5cd3b6d9596a","session_id":"6197b5cc9cfccfdfcb8c661b","condition":"full-information","relevant_dimensions":["pattern","legs"],"bee_group":{"antennae":"X","wings":"X","pattern":"S","legs":"F"},"bonus":1.4600000000000013},{"rt":1188.6000000089407,"stimulus":"bees-with-color/bee-B2SF.svg","response":1,"trial_type":"image-button-response","trial_index":129,"time_elapsed":417092,"internal_node_id":"0.0-4.0-0.61","subject_id":"613aa7e0c78fa286254a77c0","study_id":"6197b3f67c2b5cd3b6d9596a","session_id":"6197b5cc9cfccfdfcb8c661b","condition":"full-information","relevant_dimensions":["pattern","legs"],"bee_group":{"antennae":"X","wings":"X","pattern":"S","legs":"F"},"action":"avoid","summary":"good-avoid","bonus":1.4600000000000013},{"rt":1011.6999999880791,"stimulus":"\n                    <p><b>Action: <em>avoid</em></b></p>\n                    <p>This is the bee that you just saw.</p>\n                    <img src=\"bees-with-color/bee-B2SF.svg\" width=\"200\">\n                    <p><span class=\"greenText\">Good choice!</span>  This bee would have stung you.<br>Your bonus pay is unchanged, and remains at $0.94.</p>\n            ","response":0,"trial_type":"html-button-response","trial_index":130,"time_elapsed":418107,"internal_node_id":"0.0-4.0-1.61","subject_id":"613aa7e0c78fa286254a77c0","study_id":"6197b3f67c2b5cd3b6d9596a","session_id":"6197b5cc9cfccfdfcb8c661b","condition":"full-information","relevant_dimensions":["pattern","legs"],"bee_group":{"antennae":"X","wings":"X","pattern":"S","legs":"F"},"bonus":1.4600000000000013},{"rt":1169.300000011921,"stimulus":"bees-with-color/bee-B1DM.svg","response":0,"trial_type":"image-button-response","trial_index":131,"time_elapsed":419279,"internal_node_id":"0.0-4.0-0.62","subject_id":"613aa7e0c78fa286254a77c0","study_id":"6197b3f67c2b5cd3b6d9596a","session_id":"6197b5cc9cfccfdfcb8c661b","condition":"full-information","relevant_dimensions":["pattern","legs"],"bee_group":{"antennae":"X","wings":"X","pattern":"S","legs":"F"},"action":"harvest","summary":"good-harvest","bonus":1.4600000000000013},{"rt":1342.0999999940395,"stimulus":"\n                    <p><b>Action: <em>harvest</em></b></p>\n                    <p>This is the bee that you just saw.</p>\n                    <img src=\"bees-with-color/bee-B1DM.svg\" width=\"200\">\n                    <p><span class=\"greenText\"><b>Successful harvest!</b></span><br>Your pay has increased by $0.02. Your bonus pay is now $0.96.</p>\n            ","response":0,"trial_type":"html-button-response","trial_index":132,"time_elapsed":420624,"internal_node_id":"0.0-4.0-1.62","subject_id":"613aa7e0c78fa286254a77c0","study_id":"6197b3f67c2b5cd3b6d9596a","session_id":"6197b5cc9cfccfdfcb8c661b","condition":"full-information","relevant_dimensions":["pattern","legs"],"bee_group":{"antennae":"X","wings":"X","pattern":"S","legs":"F"},"bonus":1.4600000000000013},{"rt":813.2999999970198,"stimulus":"bees-with-color/bee-A1DF.svg","response":0,"trial_type":"image-button-response","trial_index":133,"time_elapsed":421440,"internal_node_id":"0.0-4.0-0.63","subject_id":"613aa7e0c78fa286254a77c0","study_id":"6197b3f67c2b5cd3b6d9596a","session_id":"6197b5cc9cfccfdfcb8c661b","condition":"full-information","relevant_dimensions":["pattern","legs"],"bee_group":{"antennae":"X","wings":"X","pattern":"S","legs":"F"},"action":"harvest","summary":"good-harvest","bonus":1.4600000000000013},{"rt":769.2000000029802,"stimulus":"\n                    <p><b>Action: <em>harvest</em></b></p>\n                    <p>This is the bee that you just saw.</p>\n                    <img src=\"bees-with-color/bee-A1DF.svg\" width=\"200\">\n                    <p><span class=\"greenText\"><b>Successful harvest!</b></span><br>Your pay has increased by $0.02. Your bonus pay is now $0.98.</p>\n            ","response":0,"trial_type":"html-button-response","trial_index":134,"time_elapsed":422212,"internal_node_id":"0.0-4.0-1.63","subject_id":"613aa7e0c78fa286254a77c0","study_id":"6197b3f67c2b5cd3b6d9596a","session_id":"6197b5cc9cfccfdfcb8c661b","condition":"full-information","relevant_dimensions":["pattern","legs"],"bee_group":{"antennae":"X","wings":"X","pattern":"S","legs":"F"},"bonus":1.4600000000000013},{"rt":7535.800000011921,"stimulus":"You have completed the first part of this experiment.<br><br>You will now begin a shorter second part, in which you will receive no feedback.<br>The same rules regarding bonus pay apply.<br><br>Press any key to begin.","response":" ","trial_type":"html-keyboard-response","trial_index":135,"time_elapsed":429750,"internal_node_id":"0.0-5.0","subject_id":"613aa7e0c78fa286254a77c0","study_id":"6197b3f67c2b5cd3b6d9596a","session_id":"6197b5cc9cfccfdfcb8c661b","condition":"full-information","relevant_dimensions":["pattern","legs"],"bee_group":{"antennae":"X","wings":"X","pattern":"S","legs":"F"},"bonus":1.4600000000000013},{"rt":1299.7000000029802,"stimulus":"bees-with-color/bee-A2SF.svg","response":1,"trial_type":"image-button-response","trial_index":136,"time_elapsed":431065,"internal_node_id":"0.0-6.0-0.0","subject_id":"613aa7e0c78fa286254a77c0","study_id":"6197b3f67c2b5cd3b6d9596a","session_id":"6197b5cc9cfccfdfcb8c661b","condition":"full-information","relevant_dimensions":["pattern","legs"],"bee_group":{"antennae":"X","wings":"X","pattern":"S","legs":"F"},"bonus":1.4600000000000013},{"rt":1384.4000000059605,"stimulus":"bees-with-color/bee-B1SF.svg","response":1,"trial_type":"image-button-response","trial_index":137,"time_elapsed":432454,"internal_node_id":"0.0-6.0-0.1","subject_id":"613aa7e0c78fa286254a77c0","study_id":"6197b3f67c2b5cd3b6d9596a","session_id":"6197b5cc9cfccfdfcb8c661b","condition":"full-information","relevant_dimensions":["pattern","legs"],"bee_group":{"antennae":"X","wings":"X","pattern":"S","legs":"F"},"bonus":1.4600000000000013},{"rt":1099.8999999910593,"stimulus":"bees-with-color/bee-B1DM.svg","response":0,"trial_type":"image-button-response","trial_index":138,"time_elapsed":433557,"internal_node_id":"0.0-6.0-0.2","subject_id":"613aa7e0c78fa286254a77c0","study_id":"6197b3f67c2b5cd3b6d9596a","session_id":"6197b5cc9cfccfdfcb8c661b","condition":"full-information","relevant_dimensions":["pattern","legs"],"bee_group":{"antennae":"X","wings":"X","pattern":"S","legs":"F"},"bonus":1.4600000000000013},{"rt":959.9000000059605,"stimulus":"bees-with-color/bee-A1DM.svg","response":0,"trial_type":"image-button-response","trial_index":139,"time_elapsed":434521,"internal_node_id":"0.0-6.0-0.3","subject_id":"613aa7e0c78fa286254a77c0","study_id":"6197b3f67c2b5cd3b6d9596a","session_id":"6197b5cc9cfccfdfcb8c661b","condition":"full-information","relevant_dimensions":["pattern","legs"],"bee_group":{"antennae":"X","wings":"X","pattern":"S","legs":"F"},"bonus":1.4600000000000013},{"rt":1081.5999999940395,"stimulus":"bees-with-color/bee-A1SM.svg","response":0,"trial_type":"image-button-response","trial_index":140,"time_elapsed":435607,"internal_node_id":"0.0-6.0-0.4","subject_id":"613aa7e0c78fa286254a77c0","study_id":"6197b3f67c2b5cd3b6d9596a","session_id":"6197b5cc9cfccfdfcb8c661b","condition":"full-information","relevant_dimensions":["pattern","legs"],"bee_group":{"antennae":"X","wings":"X","pattern":"S","legs":"F"},"bonus":1.4600000000000013},{"rt":648.0999999940395,"stimulus":"bees-with-color/bee-B2SM.svg","response":0,"trial_type":"image-button-response","trial_index":141,"time_elapsed":436259,"internal_node_id":"0.0-6.0-0.5","subject_id":"613aa7e0c78fa286254a77c0","study_id":"6197b3f67c2b5cd3b6d9596a","session_id":"6197b5cc9cfccfdfcb8c661b","condition":"full-information","relevant_dimensions":["pattern","legs"],"bee_group":{"antennae":"X","wings":"X","pattern":"S","legs":"F"},"bonus":1.4600000000000013},{"rt":789.9000000059605,"stimulus":"bees-with-color/bee-A2SM.svg","response":0,"trial_type":"image-button-response","trial_index":142,"time_elapsed":437053,"internal_node_id":"0.0-6.0-0.6","subject_id":"613aa7e0c78fa286254a77c0","study_id":"6197b3f67c2b5cd3b6d9596a","session_id":"6197b5cc9cfccfdfcb8c661b","condition":"full-information","relevant_dimensions":["pattern","legs"],"bee_group":{"antennae":"X","wings":"X","pattern":"S","legs":"F"},"bonus":1.4600000000000013},{"rt":1057.7000000029802,"stimulus":"bees-with-color/bee-B1SM.svg","response":0,"trial_type":"image-button-response","trial_index":143,"time_elapsed":438114,"internal_node_id":"0.0-6.0-0.7","subject_id":"613aa7e0c78fa286254a77c0","study_id":"6197b3f67c2b5cd3b6d9596a","session_id":"6197b5cc9cfccfdfcb8c661b","condition":"full-information","relevant_dimensions":["pattern","legs"],"bee_group":{"antennae":"X","wings":"X","pattern":"S","legs":"F"},"bonus":1.4600000000000013},{"rt":2929.2000000029802,"stimulus":"bees-with-color/bee-A2DF.svg","response":0,"trial_type":"image-button-response","trial_index":144,"time_elapsed":441047,"internal_node_id":"0.0-6.0-0.8","subject_id":"613aa7e0c78fa286254a77c0","study_id":"6197b3f67c2b5cd3b6d9596a","session_id":"6197b5cc9cfccfdfcb8c661b","condition":"full-information","relevant_dimensions":["pattern","legs"],"bee_group":{"antennae":"X","wings":"X","pattern":"S","legs":"F"},"bonus":1.4600000000000013},{"rt":569.8000000119209,"stimulus":"bees-with-color/bee-B1DF.svg","response":0,"trial_type":"image-button-response","trial_index":145,"time_elapsed":441621,"internal_node_id":"0.0-6.0-0.9","subject_id":"613aa7e0c78fa286254a77c0","study_id":"6197b3f67c2b5cd3b6d9596a","session_id":"6197b5cc9cfccfdfcb8c661b","condition":"full-information","relevant_dimensions":["pattern","legs"],"bee_group":{"antennae":"X","wings":"X","pattern":"S","legs":"F"},"bonus":1.4600000000000013},{"rt":697.3999999910593,"stimulus":"bees-with-color/bee-A2DM.svg","response":0,"trial_type":"image-button-response","trial_index":146,"time_elapsed":442322,"internal_node_id":"0.0-6.0-0.10","subject_id":"613aa7e0c78fa286254a77c0","study_id":"6197b3f67c2b5cd3b6d9596a","session_id":"6197b5cc9cfccfdfcb8c661b","condition":"full-information","relevant_dimensions":["pattern","legs"],"bee_group":{"antennae":"X","wings":"X","pattern":"S","legs":"F"},"bonus":1.4600000000000013},{"rt":1005,"stimulus":"bees-with-color/bee-B2SF.svg","response":1,"trial_type":"image-button-response","trial_index":147,"time_elapsed":443330,"internal_node_id":"0.0-6.0-0.11","subject_id":"613aa7e0c78fa286254a77c0","study_id":"6197b3f67c2b5cd3b6d9596a","session_id":"6197b5cc9cfccfdfcb8c661b","condition":"full-information","relevant_dimensions":["pattern","legs"],"bee_group":{"antennae":"X","wings":"X","pattern":"S","legs":"F"},"bonus":1.4600000000000013},{"rt":1080.7999999970198,"stimulus":"bees-with-color/bee-B2DM.svg","response":0,"trial_type":"image-button-response","trial_index":148,"time_elapsed":444414,"internal_node_id":"0.0-6.0-0.12","subject_id":"613aa7e0c78fa286254a77c0","study_id":"6197b3f67c2b5cd3b6d9596a","session_id":"6197b5cc9cfccfdfcb8c661b","condition":"full-information","relevant_dimensions":["pattern","legs"],"bee_group":{"antennae":"X","wings":"X","pattern":"S","legs":"F"},"bonus":1.4600000000000013},{"rt":1614.7000000029802,"stimulus":"bees-with-color/bee-A1DF.svg","response":0,"trial_type":"image-button-response","trial_index":149,"time_elapsed":446032,"internal_node_id":"0.0-6.0-0.13","subject_id":"613aa7e0c78fa286254a77c0","study_id":"6197b3f67c2b5cd3b6d9596a","session_id":"6197b5cc9cfccfdfcb8c661b","condition":"full-information","relevant_dimensions":["pattern","legs"],"bee_group":{"antennae":"X","wings":"X","pattern":"S","legs":"F"},"bonus":1.4600000000000013},{"rt":1390.5999999940395,"stimulus":"bees-with-color/bee-B2DF.svg","response":0,"trial_type":"image-button-response","trial_index":150,"time_elapsed":447426,"internal_node_id":"0.0-6.0-0.14","subject_id":"613aa7e0c78fa286254a77c0","study_id":"6197b3f67c2b5cd3b6d9596a","session_id":"6197b5cc9cfccfdfcb8c661b","condition":"full-information","relevant_dimensions":["pattern","legs"],"bee_group":{"antennae":"X","wings":"X","pattern":"S","legs":"F"},"bonus":1.4600000000000013},{"rt":1083.2999999970198,"stimulus":"bees-with-color/bee-A1SF.svg","response":1,"trial_type":"image-button-response","trial_index":151,"time_elapsed":448513,"internal_node_id":"0.0-6.0-0.15","subject_id":"613aa7e0c78fa286254a77c0","study_id":"6197b3f67c2b5cd3b6d9596a","session_id":"6197b5cc9cfccfdfcb8c661b","condition":"full-information","relevant_dimensions":["pattern","legs"],"bee_group":{"antennae":"X","wings":"X","pattern":"S","legs":"F"},"bonus":1.4600000000000013},{"rt":53544.90000000596,"stimulus":"bees-with-color/bee-B2SF.svg","response":1,"trial_type":"image-button-response","trial_index":152,"time_elapsed":502061,"internal_node_id":"0.0-6.0-0.16","subject_id":"613aa7e0c78fa286254a77c0","study_id":"6197b3f67c2b5cd3b6d9596a","session_id":"6197b5cc9cfccfdfcb8c661b","condition":"full-information","relevant_dimensions":["pattern","legs"],"bee_group":{"antennae":"X","wings":"X","pattern":"S","legs":"F"},"bonus":1.4600000000000013},{"rt":1058.199999988079,"stimulus":"bees-with-color/bee-B1DF.svg","response":0,"trial_type":"image-button-response","trial_index":153,"time_elapsed":503123,"internal_node_id":"0.0-6.0-0.17","subject_id":"613aa7e0c78fa286254a77c0","study_id":"6197b3f67c2b5cd3b6d9596a","session_id":"6197b5cc9cfccfdfcb8c661b","condition":"full-information","relevant_dimensions":["pattern","legs"],"bee_group":{"antennae":"X","wings":"X","pattern":"S","legs":"F"},"bonus":1.4600000000000013},{"rt":949,"stimulus":"bees-with-color/bee-A2SF.svg","response":1,"trial_type":"image-button-response","trial_index":154,"time_elapsed":504075,"internal_node_id":"0.0-6.0-0.18","subject_id":"613aa7e0c78fa286254a77c0","study_id":"6197b3f67c2b5cd3b6d9596a","session_id":"6197b5cc9cfccfdfcb8c661b","condition":"full-information","relevant_dimensions":["pattern","legs"],"bee_group":{"antennae":"X","wings":"X","pattern":"S","legs":"F"},"bonus":1.4600000000000013},{"rt":940.5,"stimulus":"bees-with-color/bee-B2DF.svg","response":0,"trial_type":"image-button-response","trial_index":155,"time_elapsed":505018,"internal_node_id":"0.0-6.0-0.19","subject_id":"613aa7e0c78fa286254a77c0","study_id":"6197b3f67c2b5cd3b6d9596a","session_id":"6197b5cc9cfccfdfcb8c661b","condition":"full-information","relevant_dimensions":["pattern","legs"],"bee_group":{"antennae":"X","wings":"X","pattern":"S","legs":"F"},"bonus":1.4600000000000013},{"rt":1272.4000000059605,"stimulus":"bees-with-color/bee-B2SM.svg","response":0,"trial_type":"image-button-response","trial_index":156,"time_elapsed":506294,"internal_node_id":"0.0-6.0-0.20","subject_id":"613aa7e0c78fa286254a77c0","study_id":"6197b3f67c2b5cd3b6d9596a","session_id":"6197b5cc9cfccfdfcb8c661b","condition":"full-information","relevant_dimensions":["pattern","legs"],"bee_group":{"antennae":"X",