[{"success":true,"trial_type":"fullscreen","trial_index":0,"time_elapsed":11917,"internal_node_id":"0.0-0.0","subject_id":"5fd4d6fc58ab92075c9c35fe","study_id":"6197b3f67c2b5cd3b6d9596a","session_id":"6197b5d4621f6fb667ef4a62","condition":"contingent","relevant_dimensions":["wings","pattern"],"bee_group":{"antennae":"X","wings":"2","pattern":"S","legs":"X"},"bonus":1.180000000000001},{"success":true,"timeout":false,"failed_images":[],"failed_audio":[],"failed_video":[],"trial_type":"preload","trial_index":1,"time_elapsed":14457,"internal_node_id":"0.0-1.0","subject_id":"5fd4d6fc58ab92075c9c35fe","study_id":"6197b3f67c2b5cd3b6d9596a","session_id":"6197b5d4621f6fb667ef4a62","condition":"contingent","relevant_dimensions":["wings","pattern"],"bee_group":{"antennae":"X","wings":"2","pattern":"S","legs":"X"},"bonus":1.180000000000001},{"rt":9099.299999952316,"stimulus":"Welcome! Press any key to begin.","response":" ","trial_type":"html-keyboard-response","trial_index":2,"time_elapsed":23558,"internal_node_id":"0.0-2.0","subject_id":"5fd4d6fc58ab92075c9c35fe","study_id":"6197b3f67c2b5cd3b6d9596a","session_id":"6197b5d4621f6fb667ef4a62","condition":"contingent","relevant_dimensions":["wings","pattern"],"bee_group":{"antennae":"X","wings":"2","pattern":"S","legs":"X"},"bonus":1.180000000000001},{"view_history":[{"page_index":0,"viewing_time":4229.400000095367},{"page_index":1,"viewing_time":12847.899999976158},{"page_index":2,"viewing_time":9319.899999976158},{"page_index":3,"viewing_time":7608.200000047684},{"page_index":4,"viewing_time":6431.799999952316},{"page_index":5,"viewing_time":5575.899999976158},{"page_index":6,"viewing_time":10648.200000047684},{"page_index":7,"viewing_time":6952},{"page_index":8,"viewing_time":3319.5},{"page_index":9,"viewing_time":3681.1999999284744},{"page_index":10,"viewing_time":3096.9000000953674},{"page_index":11,"viewing_time":5326.299999952316},{"page_index":12,"viewing_time":9192.5},{"page_index":13,"viewing_time":1519.5},{"page_index":14,"viewing_time":3144.100000023842}],"rt":92893.90000009537,"trial_type":"instructions","trial_index":3,"time_elapsed":116454,"internal_node_id":"0.0-3.0-0.0","subject_id":"5fd4d6fc58ab92075c9c35fe","study_id":"6197b3f67c2b5cd3b6d9596a","session_id":"6197b5d4621f6fb667ef4a62","condition":"contingent","relevant_dimensions":["wings","pattern"],"bee_group":{"antennae":"X","wings":"2","pattern":"S","legs":"X"},"bonus":1.180000000000001},{"rt":23089.100000023842,"response":{"Q0":["Two or six legs","Stripes or spots on body","Single or double wings","Antennae or no antennae"]},"question_order":[0],"trial_type":"survey-multi-select","trial_index":4,"time_elapsed":139551,"internal_node_id":"0.0-3.0-1.0","subject_id":"5fd4d6fc58ab92075c9c35fe","study_id":"6197b3f67c2b5cd3b6d9596a","session_id":"6197b5d4621f6fb667ef4a62","condition":"contingent","relevant_dimensions":["wings","pattern"],"bee_group":{"antennae":"X","wings":"2","pattern":"S","legs":"X"},"correct":true,"bonus":1.180000000000001},{"rt":32891.700000047684,"response":{"Q1":"No.","Q2":"Based on the four features of the bee.","Q3":"You do not learn if it was friendly or dangerous, and do not alter your bonus."},"question_order":[0,1,2],"trial_type":"survey-multi-choice","trial_index":5,"time_elapsed":172447,"internal_node_id":"0.0-3.0-2.0","subject_id":"5fd4d6fc58ab92075c9c35fe","study_id":"6197b3f67c2b5cd3b6d9596a","session_id":"6197b5d4621f6fb667ef4a62","condition":"contingent","relevant_dimensions":["wings","pattern"],"bee_group":{"antennae":"X","wings":"2","pattern":"S","legs":"X"},"correct":true,"bonus":1.180000000000001},{"rt":2964.399999976158,"stimulus":"<p>Congrats, you got everything right<br>When you're ready, click the button below to continue to the experiment.</p>","response":0,"trial_type":"html-button-response","trial_index":6,"time_elapsed":175414,"internal_node_id":"0.0-3.0-3.0","subject_id":"5fd4d6fc58ab92075c9c35fe","study_id":"6197b3f67c2b5cd3b6d9596a","session_id":"6197b5d4621f6fb667ef4a62","condition":"contingent","relevant_dimensions":["wings","pattern"],"bee_group":{"antennae":"X","wings":"2","pattern":"S","legs":"X"},"bonus":1.180000000000001},{"rt":6564.899999976158,"stimulus":"bees-with-color/bee-B1DF.svg","response":1,"trial_type":"image-button-response","trial_index":7,"time_elapsed":181982,"internal_node_id":"0.0-4.0-0.0","subject_id":"5fd4d6fc58ab92075c9c35fe","study_id":"6197b3f67c2b5cd3b6d9596a","session_id":"6197b5d4621f6fb667ef4a62","condition":"contingent","relevant_dimensions":["wings","pattern"],"bee_group":{"antennae":"X","wings":"2","pattern":"S","legs":"X"},"action":"avoid","summary":"bad-avoid","bonus":1.180000000000001},{"rt":9489.899999976158,"stimulus":"\n                    <p><b>Action: <em>avoid</em></b></p>\n                    <p>This is the bee that you just saw.</p>\n                    <img src=\"bees-with-color/bee-B1DF.svg\" width=\"200\">\n                    <p><br>Your bonus pay is unchanged, and remains at $0.54.</p>\n            ","response":0,"trial_type":"html-button-response","trial_index":8,"time_elapsed":191478,"internal_node_id":"0.0-4.0-1.0","subject_id":"5fd4d6fc58ab92075c9c35fe","study_id":"6197b3f67c2b5cd3b6d9596a","session_id":"6197b5d4621f6fb667ef4a62","condition":"contingent","relevant_dimensions":["wings","pattern"],"bee_group":{"antennae":"X","wings":"2","pattern":"S","legs":"X"},"bonus":1.180000000000001},{"rt":2684.7999999523163,"stimulus":"bees-with-color/bee-A2SM.svg","response":1,"trial_type":"image-button-response","trial_index":9,"time_elapsed":194166,"internal_node_id":"0.0-4.0-0.1","subject_id":"5fd4d6fc58ab92075c9c35fe","study_id":"6197b3f67c2b5cd3b6d9596a","session_id":"6197b5d4621f6fb667ef4a62","condition":"contingent","relevant_dimensions":["wings","pattern"],"bee_group":{"antennae":"X","wings":"2","pattern":"S","legs":"X"},"action":"avoid","summary":"good-avoid","bonus":1.180000000000001},{"rt":1775.2999999523163,"stimulus":"\n                    <p><b>Action: <em>avoid</em></b></p>\n                    <p>This is the bee that you just saw.</p>\n                    <img src=\"bees-with-color/bee-A2SM.svg\" width=\"200\">\n                    <p><br>Your bonus pay is unchanged, and remains at $0.54.</p>\n            ","response":0,"trial_type":"html-button-response","trial_index":10,"time_elapsed":195943,"internal_node_id":"0.0-4.0-1.1","subject_id":"5fd4d6fc58ab92075c9c35fe","study_id":"6197b3f67c2b5cd3b6d9596a","session_id":"6197b5d4621f6fb667ef4a62","condition":"contingent","relevant_dimensions":["wings","pattern"],"bee_group":{"antennae":"X","wings":"2","pattern":"S","legs":"X"},"bonus":1.180000000000001},{"rt":4340.600000023842,"stimulus":"bees-with-color/bee-B2SF.svg","response":1,"trial_type":"image-button-response","trial_index":11,"time_elapsed":200286,"internal_node_id":"0.0-4.0-0.2","subject_id":"5fd4d6fc58ab92075c9c35fe","study_id":"6197b3f67c2b5cd3b6d9596a","session_id":"6197b5d4621f6fb667ef4a62","condition":"contingent","relevant_dimensions":["wings","pattern"],"bee_group":{"antennae":"X","wings":"2","pattern":"S","legs":"X"},"action":"avoid","summary":"good-avoid","bonus":1.180000000000001},{"rt":1021.9000000953674,"stimulus":"\n                    <p><b>Action: <em>avoid</em></b></p>\n                    <p>This is the bee that you just saw.</p>\n                    <img src=\"bees-with-color/bee-B2SF.svg\" width=\"200\">\n                    <p><br>Your bonus pay is unchanged, and remains at $0.54.</p>\n            ","response":0,"trial_type":"html-button-response","trial_index":12,"time_elapsed":201310,"internal_node_id":"0.0-4.0-1.2","subject_id":"5fd4d6fc58ab92075c9c35fe","study_id":"6197b3f67c2b5cd3b6d9596a","session_id":"6197b5d4621f6fb667ef4a62","condition":"contingent","relevant_dimensions":["wings","pattern"],"bee_group":{"antennae":"X","wings":"2","pattern":"S","legs":"X"},"bonus":1.180000000000001},{"rt":1901.2999999523163,"stimulus":"bees-with-color/bee-B2DM.svg","response":0,"trial_type":"image-button-response","trial_index":13,"time_elapsed":203214,"internal_node_id":"0.0-4.0-0.3","subject_id":"5fd4d6fc58ab92075c9c35fe","study_id":"6197b3f67c2b5cd3b6d9596a","session_id":"6197b5d4621f6fb667ef4a62","condition":"contingent","relevant_dimensions":["wings","pattern"],"bee_group":{"antennae":"X","wings":"2","pattern":"S","legs":"X"},"action":"harvest","summary":"good-harvest","bonus":1.180000000000001},{"rt":2013.5999999046326,"stimulus":"\n                    <p><b>Action: <em>harvest</em></b></p>\n                    <p>This is the bee that you just saw.</p>\n                    <img src=\"bees-with-color/bee-B2DM.svg\" width=\"200\">\n                    <p><span class=\"greenText\"><b>Successful harvest!</b></span><br>Your pay has increased by $0.02. Your bonus pay is now $0.56.</p>\n            ","response":0,"trial_type":"html-button-response","trial_index":14,"time_elapsed":205230,"internal_node_id":"0.0-4.0-1.3","subject_id":"5fd4d6fc58ab92075c9c35fe","study_id":"6197b3f67c2b5cd3b6d9596a","session_id":"6197b5d4621f6fb667ef4a62","condition":"contingent","relevant_dimensions":["wings","pattern"],"bee_group":{"antennae":"X","wings":"2","pattern":"S","legs":"X"},"bonus":1.180000000000001},{"rt":1684.8000000715256,"stimulus":"bees-with-color/bee-B1DM.svg","response":0,"trial_type":"image-button-response","trial_index":15,"time_elapsed":206917,"internal_node_id":"0.0-4.0-0.4","subject_id":"5fd4d6fc58ab92075c9c35fe","study_id":"6197b3f67c2b5cd3b6d9596a","session_id":"6197b5d4621f6fb667ef4a62","condition":"contingent","relevant_dimensions":["wings","pattern"],"bee_group":{"antennae":"X","wings":"2","pattern":"S","legs":"X"},"action":"harvest","summary":"good-harvest","bonus":1.180000000000001},{"rt":1734.7000000476837,"stimulus":"\n                    <p><b>Action: <em>harvest</em></b></p>\n                    <p>This is the bee that you just saw.</p>\n                    <img src=\"bees-with-color/bee-B1DM.svg\" width=\"200\">\n                    <p><span class=\"greenText\"><b>Successful harvest!</b></span><br>Your pay has increased by $0.02. Your bonus pay is now $0.58.</p>\n            ","response":0,"trial_type":"html-button-response","trial_index":16,"time_elapsed":208655,"internal_node_id":"0.0-4.0-1.4","subject_id":"5fd4d6fc58ab92075c9c35fe","study_id":"6197b3f67c2b5cd3b6d9596a","session_id":"6197b5d4621f6fb667ef4a62","condition":"contingent","relevant_dimensions":["wings","pattern"],"bee_group":{"antennae":"X","wings":"2","pattern":"S","legs":"X"},"bonus":1.180000000000001},{"rt":2253.5,"stimulus":"bees-with-color/bee-A1DF.svg","response":1,"trial_type":"image-button-response","trial_index":17,"time_elapsed":210910,"internal_node_id":"0.0-4.0-0.5","subject_id":"5fd4d6fc58ab92075c9c35fe","study_id":"6197b3f67c2b5cd3b6d9596a","session_id":"6197b5d4621f6fb667ef4a62","condition":"contingent","relevant_dimensions":["wings","pattern"],"bee_group":{"antennae":"X","wings":"2","pattern":"S","legs":"X"},"action":"avoid","summary":"bad-avoid","bonus":1.180000000000001},{"rt":862.3999999761581,"stimulus":"\n                    <p><b>Action: <em>avoid</em></b></p>\n                    <p>This is the bee that you just saw.</p>\n                    <img src=\"bees-with-color/bee-A1DF.svg\" width=\"200\">\n                    <p><br>Your bonus pay is unchanged, and remains at $0.58.</p>\n            ","response":0,"trial_type":"html-button-response","trial_index":18,"time_elapsed":211774,"internal_node_id":"0.0-4.0-1.5","subject_id":"5fd4d6fc58ab92075c9c35fe","study_id":"6197b3f67c2b5cd3b6d9596a","session_id":"6197b5d4621f6fb667ef4a62","condition":"contingent","relevant_dimensions":["wings","pattern"],"bee_group":{"antennae":"X","wings":"2","pattern":"S","legs":"X"},"bonus":1.180000000000001},{"rt":901.2000000476837,"stimulus":"bees-with-color/bee-A2DF.svg","response":0,"trial_type":"image-button-response","trial_index":19,"time_elapsed":212677,"internal_node_id":"0.0-4.0-0.6","subject_id":"5fd4d6fc58ab92075c9c35fe","study_id":"6197b3f67c2b5cd3b6d9596a","session_id":"6197b5d4621f6fb667ef4a62","condition":"contingent","relevant_dimensions":["wings","pattern"],"bee_group":{"antennae":"X","wings":"2","pattern":"S","legs":"X"},"action":"harvest","summary":"good-harvest","bonus":1.180000000000001},{"rt":1359,"stimulus":"\n                    <p><b>Action: <em>harvest</em></b></p>\n                    <p>This is the bee that you just saw.</p>\n                    <img src=\"bees-with-color/bee-A2DF.svg\" width=\"200\">\n                    <p><span class=\"greenText\"><b>Successful harvest!</b></span><br>Your pay has increased by $0.02. Your bonus pay is now $0.60.</p>\n            ","response":0,"trial_type":"html-button-response","trial_index":20,"time_elapsed":214038,"internal_node_id":"0.0-4.0-1.6","subject_id":"5fd4d6fc58ab92075c9c35fe","study_id":"6197b3f67c2b5cd3b6d9596a","session_id":"6197b5d4621f6fb667ef4a62","condition":"contingent","relevant_dimensions":["wings","pattern"],"bee_group":{"antennae":"X","wings":"2","pattern":"S","legs":"X"},"bonus":1.180000000000001},{"rt":1549.3999999761581,"stimulus":"bees-with-color/bee-A2DM.svg","response":0,"trial_type":"image-button-response","trial_index":21,"time_elapsed":215590,"internal_node_id":"0.0-4.0-0.7","subject_id":"5fd4d6fc58ab92075c9c35fe","study_id":"6197b3f67c2b5cd3b6d9596a","session_id":"6197b5d4621f6fb667ef4a62","condition":"contingent","relevant_dimensions":["wings","pattern"],"bee_group":{"antennae":"X","wings":"2","pattern":"S","legs":"X"},"action":"harvest","summary":"good-harvest","bonus":1.180000000000001},{"rt":1141.5999999046326,"stimulus":"\n                    <p><b>Action: <em>harvest</em></b></p>\n                    <p>This is the bee that you just saw.</p>\n                    <img src=\"bees-with-color/bee-A2DM.svg\" width=\"200\">\n                    <p><span class=\"greenText\"><b>Successful harvest!</b></span><br>Your pay has increased by $0.02. Your bonus pay is now $0.62.</p>\n            ","response":0,"trial_type":"html-button-response","trial_index":22,"time_elapsed":216734,"internal_node_id":"0.0-4.0-1.7","subject_id":"5fd4d6fc58ab92075c9c35fe","study_id":"6197b3f67c2b5cd3b6d9596a","session_id":"6197b5d4621f6fb667ef4a62","condition":"contingent","relevant_dimensions":["wings","pattern"],"bee_group":{"antennae":"X","wings":"2","pattern":"S","legs":"X"},"bonus":1.180000000000001},{"rt":5214.5,"stimulus":"bees-with-color/bee-A1SF.svg","response":0,"trial_type":"image-button-response","trial_index":23,"time_elapsed":221952,"internal_node_id":"0.0-4.0-0.8","subject_id":"5fd4d6fc58ab92075c9c35fe","study_id":"6197b3f67c2b5cd3b6d9596a","session_id":"6197b5d4621f6fb667ef4a62","condition":"contingent","relevant_dimensions":["wings","pattern"],"bee_group":{"antennae":"X","wings":"2","pattern":"S","legs":"X"},"action":"harvest","summary":"good-harvest","bonus":1.180000000000001},{"rt":1196.7000000476837,"stimulus":"\n                    <p><b>Action: <em>harvest</em></b></p>\n                    <p>This is the bee that you just saw.</p>\n                    <img src=\"bees-with-color/bee-A1SF.svg\" width=\"200\">\n                    <p><span class=\"greenText\"><b>Successful harvest!</b></span><br>Your pay has increased by $0.02. Your bonus pay is now $0.64.</p>\n            ","response":0,"trial_type":"html-button-response","trial_index":24,"time_elapsed":223150,"internal_node_id":"0.0-4.0-1.8","subject_id":"5fd4d6fc58ab92075c9c35fe","study_id":"6197b3f67c2b5cd3b6d9596a","session_id":"6197b5d4621f6fb667ef4a62","condition":"contingent","relevant_dimensions":["wings","pattern"],"bee_group":{"antennae":"X","wings":"2","pattern":"S","legs":"X"},"bonus":1.180000000000001},{"rt":1564.6000000238419,"stimulus":"bees-with-color/bee-B2DF.svg","response":1,"trial_type":"image-button-response","trial_index":25,"time_elapsed":224717,"internal_node_id":"0.0-4.0-0.9","subject_id":"5fd4d6fc58ab92075c9c35fe","study_id":"6197b3f67c2b5cd3b6d9596a","session_id":"6197b5d4621f6fb667ef4a62","condition":"contingent","relevant_dimensions":["wings","pattern"],"bee_group":{"antennae":"X","wings":"2","pattern":"S","legs":"X"},"action":"avoid","summary":"bad-avoid","bonus":1.180000000000001},{"rt":758.6999999284744,"stimulus":"\n                    <p><b>Action: <em>avoid</em></b></p>\n                    <p>This is the bee that you just saw.</p>\n                    <img src=\"bees-with-color/bee-B2DF.svg\" width=\"200\">\n                    <p><br>Your bonus pay is unchanged, and remains at $0.64.</p>\n            ","response":0,"trial_type":"html-button-response","trial_index":26,"time_elapsed":225478,"internal_node_id":"0.0-4.0-1.9","subject_id":"5fd4d6fc58ab92075c9c35fe","study_id":"6197b3f67c2b5cd3b6d9596a","session_id":"6197b5d4621f6fb667ef4a62","condition":"contingent","relevant_dimensions":["wings","pattern"],"bee_group":{"antennae":"X","wings":"2","pattern":"S","legs":"X"},"bonus":1.180000000000001},{"rt":1845.2000000476837,"stimulus":"bees-with-color/bee-B1SM.svg","response":0,"trial_type":"image-button-response","trial_index":27,"time_elapsed":227325,"internal_node_id":"0.0-4.0-0.10","subject_id":"5fd4d6fc58ab92075c9c35fe","study_id":"6197b3f67c2b5cd3b6d9596a","session_id":"6197b5d4621f6fb667ef4a62","condition":"contingent","relevant_dimensions":["wings","pattern"],"bee_group":{"antennae":"X","wings":"2","pattern":"S","legs":"X"},"action":"harvest","summary":"good-harvest","bonus":1.180000000000001},{"rt":1597.8999999761581,"stimulus":"\n                    <p><b>Action: <em>harvest</em></b></p>\n                    <p>This is the bee that you just saw.</p>\n                    <img src=\"bees-with-color/bee-B1SM.svg\" width=\"200\">\n                    <p><span class=\"greenText\"><b>Successful harvest!</b></span><br>Your pay has increased by $0.02. Your bonus pay is now $0.66.</p>\n            ","response":0,"trial_type":"html-button-response","trial_index":28,"time_elapsed":228925,"internal_node_id":"0.0-4.0-1.10","subject_id":"5fd4d6fc58ab92075c9c35fe","study_id":"6197b3f67c2b5cd3b6d9596a","session_id":"6197b5d4621f6fb667ef4a62","condition":"contingent","relevant_dimensions":["wings","pattern"],"bee_group":{"antennae":"X","wings":"2","pattern":"S","legs":"X"},"bonus":1.180000000000001},{"rt":1638.1999999284744,"stimulus":"bees-with-color/bee-A1SM.svg","response":1,"trial_type":"image-button-response","trial_index":29,"time_elapsed":230566,"internal_node_id":"0.0-4.0-0.11","subject_id":"5fd4d6fc58ab92075c9c35fe","study_id":"6197b3f67c2b5cd3b6d9596a","session_id":"6197b5d4621f6fb667ef4a62","condition":"contingent","relevant_dimensions":["wings","pattern"],"bee_group":{"antennae":"X","wings":"2","pattern":"S","legs":"X"},"action":"avoid","summary":"bad-avoid","bonus":1.180000000000001},{"rt":1030.1999999284744,"stimulus":"\n                    <p><b>Action: <em>avoid</em></b></p>\n                    <p>This is the bee that you just saw.</p>\n                    <img src=\"bees-with-color/bee-A1SM.svg\" width=\"200\">\n                    <p><br>Your bonus pay is unchanged, and remains at $0.66.</p>\n            ","response":0,"trial_type":"html-button-response","trial_index":30,"time_elapsed":231598,"internal_node_id":"0.0-4.0-1.11","subject_id":"5fd4d6fc58ab92075c9c35fe","study_id":"6197b3f67c2b5cd3b6d9596a","session_id":"6197b5d4621f6fb667ef4a62","condition":"contingent","relevant_dimensions":["wings","pattern"],"bee_group":{"antennae":"X","wings":"2","pattern":"S","legs":"X"},"bonus":1.180000000000001},{"rt":606.1000000238419,"stimulus":"bees-with-color/bee-B1SF.svg","response":0,"trial_type":"image-button-response","trial_index":31,"time_elapsed":232206,"internal_node_id":"0.0-4.0-0.12","subject_id":"5fd4d6fc58ab92075c9c35fe","study_id":"6197b3f67c2b5cd3b6d9596a","session_id":"6197b5d4621f6fb667ef4a62","condition":"contingent","relevant_dimensions":["wings","pattern"],"bee_group":{"antennae":"X","wings":"2","pattern":"S","legs":"X"},"action":"harvest","summary":"good-harvest","bonus":1.180000000000001},{"rt":2566,"stimulus":"\n                    <p><b>Action: <em>harvest</em></b></p>\n                    <p>This is the bee that you just saw.</p>\n                    <img src=\"bees-with-color/bee-B1SF.svg\" width=\"200\">\n                    <p><span class=\"greenText\"><b>Successful harvest!</b></span><br>Your pay has increased by $0.02. Your bonus pay is now $0.68.</p>\n            ","response":0,"trial_type":"html-button-response","trial_index":32,"time_elapsed":234773,"internal_node_id":"0.0-4.0-1.12","subject_id":"5fd4d6fc58ab92075c9c35fe","study_id":"6197b3f67c2b5cd3b6d9596a","session_id":"6197b5d4621f6fb667ef4a62","condition":"contingent","relevant_dimensions":["wings","pattern"],"bee_group":{"antennae":"X","wings":"2","pattern":"S","legs":"X"},"bonus":1.180000000000001},{"rt":1526.8999999761581,"stimulus":"bees-with-color/bee-B2SM.svg","response":1,"trial_type":"image-button-response","trial_index":33,"time_elapsed":236302,"internal_node_id":"0.0-4.0-0.13","subject_id":"5fd4d6fc58ab92075c9c35fe","study_id":"6197b3f67c2b5cd3b6d9596a","session_id":"6197b5d4621f6fb667ef4a62","condition":"contingent","relevant_dimensions":["wings","pattern"],"bee_group":{"antennae":"X","wings":"2","pattern":"S","legs":"X"},"action":"avoid","summary":"good-avoid","bonus":1.180000000000001},{"rt":760.1999999284744,"stimulus":"\n                    <p><b>Action: <em>avoid</em></b></p>\n                    <p>This is the bee that you just saw.</p>\n                    <img src=\"bees-with-color/bee-B2SM.svg\" width=\"200\">\n                    <p><br>Your bonus pay is unchanged, and remains at $0.68.</p>\n            ","response":0,"trial_type":"html-button-response","trial_index":34,"time_elapsed":237063,"internal_node_id":"0.0-4.0-1.13","subject_id":"5fd4d6fc58ab92075c9c35fe","study_id":"6197b3f67c2b5cd3b6d9596a","session_id":"6197b5d4621f6fb667ef4a62","condition":"contingent","relevant_dimensions":["wings","pattern"],"bee_group":{"antennae":"X","wings":"2","pattern":"S","legs":"X"},"bonus":1.180000000000001},{"rt":916.8000000715256,"stimulus":"bees-with-color/bee-A2SF.svg","response":0,"trial_type":"image-button-response","trial_index":35,"time_elapsed":237981,"internal_node_id":"0.0-4.0-0.14","subject_id":"5fd4d6fc58ab92075c9c35fe","study_id":"6197b3f67c2b5cd3b6d9596a","session_id":"6197b5d4621f6fb667ef4a62","condition":"contingent","relevant_dimensions":["wings","pattern"],"bee_group":{"antennae":"X","wings":"2","pattern":"S","legs":"X"},"action":"harvest","summary":"bad-harvest","bonus":1.180000000000001},{"rt":2053.5999999046326,"stimulus":"\n                    <p><b>Action: <em>harvest</em></b></p>\n                    <p>This is the bee that you just saw.</p>\n                    <img src=\"bees-with-color/bee-A2SF.svg\" width=\"200\">\n                    <p><span class=\"redText\">Bad choice, the bee was angry.</span><br><b>You have been stung!</b><br>Your pay has been decreased by $0.10. Your bonus pay is now $0.58.</p>\n            ","response":0,"trial_type":"html-button-response","trial_index":36,"time_elapsed":240037,"internal_node_id":"0.0-4.0-1.14","subject_id":"5fd4d6fc58ab92075c9c35fe","study_id":"6197b3f67c2b5cd3b6d9596a","session_id":"6197b5d4621f6fb667ef4a62","condition":"contingent","relevant_dimensions":["wings","pattern"],"bee_group":{"antennae":"X","wings":"2","pattern":"S","legs":"X"},"bonus":1.180000000000001},{"rt":2327.399999976158,"stimulus":"bees-with-color/bee-A1DM.svg","response":0,"trial_type":"image-button-response","trial_index":37,"time_elapsed":242366,"internal_node_id":"0.0-4.0-0.15","subject_id":"5fd4d6fc58ab92075c9c35fe","study_id":"6197b3f67c2b5cd3b6d9596a","session_id":"6197b5d4621f6fb667ef4a62","condition":"contingent","relevant_dimensions":["wings","pattern"],"bee_group":{"antennae":"X","wings":"2","pattern":"S","legs":"X"},"action":"harvest","summary":"good-harvest","bonus":1.180000000000001},{"rt":725.6000000238419,"stimulus":"\n                    <p><b>Action: <em>harvest</em></b></p>\n                    <p>This is the bee that you just saw.</p>\n                    <img src=\"bees-with-color/bee-A1DM.svg\" width=\"200\">\n                    <p><span class=\"greenText\"><b>Successful harvest!</b></span><br>Your pay has increased by $0.02. Your bonus pay is now $0.60.</p>\n            ","response":0,"trial_type":"html-button-response","trial_index":38,"time_elapsed":243093,"internal_node_id":"0.0-4.0-1.15","subject_id":"5fd4d6fc58ab92075c9c35fe","study_id":"6197b3f67c2b5cd3b6d9596a","session_id":"6197b5d4621f6fb667ef4a62","condition":"contingent","relevant_dimensions":["wings","pattern"],"bee_group":{"antennae":"X","wings":"2","pattern":"S","legs":"X"},"bonus":1.180000000000001},{"rt":2149.899999976158,"stimulus":"bees-with-color/bee-A2SM.svg","response":1,"trial_type":"image-button-response","trial_index":39,"time_elapsed":245245,"internal_node_id":"0.0-4.0-0.16","subject_id":"5fd4d6fc58ab92075c9c35fe","study_id":"6197b3f67c2b5cd3b6d9596a","session_id":"6197b5d4621f6fb667ef4a62","condition":"contingent","relevant_dimensions":["wings","pattern"],"bee_group":{"antennae":"X","wings":"2","pattern":"S","legs":"X"},"action":"avoid","summary":"good-avoid","bonus":1.180000000000001},{"rt":589.8999999761581,"stimulus":"\n                    <p><b>Action: <em>avoid</em></b></p>\n                    <p>This is the bee that you just saw.</p>\n                    <img src=\"bees-with-color/bee-A2SM.svg\" width=\"200\">\n                    <p><br>Your bonus pay is unchanged, and remains at $0.60.</p>\n            ","response":0,"trial_type":"html-button-response","trial_index":40,"time_elapsed":245837,"internal_node_id":"0.0-4.0-1.16","subject_id":"5fd4d6fc58ab92075c9c35fe","study_id":"6197b3f67c2b5cd3b6d9596a","session_id":"6197b5d4621f6fb667ef4a62","condition":"contingent","relevant_dimensions":["wings","pattern"],"bee_group":{"antennae":"X","wings":"2","pattern":"S","legs":"X"},"bonus":1.180000000000001},{"rt":2733.7000000476837,"stimulus":"bees-with-color/bee-A2SF.svg","response":0,"trial_type":"image-button-response","trial_index":41,"time_elapsed":248573,"internal_node_id":"0.0-4.0-0.17","subject_id":"5fd4d6fc58ab92075c9c35fe","study_id":"6197b3f67c2b5cd3b6d9596a","session_id":"6197b5d4621f6fb667ef4a62","condition":"contingent","relevant_dimensions":["wings","pattern"],"bee_group":{"antennae":"X","wings":"2","pattern":"S","legs":"X"},"action":"harvest","summary":"bad-harvest","bonus":1.180000000000001},{"rt":1021.8000000715256,"stimulus":"\n                    <p><b>Action: <em>harvest</em></b></p>\n                    <p>This is the bee that you just saw.</p>\n                    <img src=\"bees-with-color/bee-A2SF.svg\" width=\"200\">\n                    <p><span class=\"redText\">Bad choice, the bee was angry.</span><br><b>You have been stung!</b><br>Your pay has been decreased by $0.10. Your bonus pay is now $0.50.</p>\n            ","response":0,"trial_type":"html-button-response","trial_index":42,"time_elapsed":249597,"internal_node_id":"0.0-4.0-1.17","subject_id":"5fd4d6fc58ab92075c9c35fe","study_id":"6197b3f67c2b5cd3b6d9596a","session_id":"6197b5d4621f6fb667ef4a62","condition":"contingent","relevant_dimensions":["wings","pattern"],"bee_group":{"antennae":"X","wings":"2","pattern":"S","legs":"X"},"bonus":1.180000000000001},{"rt":1912.3999999761581,"stimulus":"bees-with-color/bee-A1SF.svg","response":0,"trial_type":"image-button-response","trial_index":43,"time_elapsed":251512,"internal_node_id":"0.0-4.0-0.18","subject_id":"5fd4d6fc58ab92075c9c35fe","study_id":"6197b3f67c2b5cd3b6d9596a","session_id":"6197b5d4621f6fb667ef4a62","condition":"contingent","relevant_dimensions":["wings","pattern"],"bee_group":{"antennae":"X","wings":"2","pattern":"S","legs":"X"},"action":"harvest","summary":"good-harvest","bonus":1.180000000000001},{"rt":691.1000000238419,"stimulus":"\n                    <p><b>Action: <em>harvest</em></b></p>\n                    <p>This is the bee that you just saw.</p>\n                    <img src=\"bees-with-color/bee-A1SF.svg\" width=\"200\">\n                    <p><span class=\"greenText\"><b>Successful harvest!</b></span><br>Your pay has increased by $0.02. Your bonus pay is now $0.52.</p>\n            ","response":0,"trial_type":"html-button-response","trial_index":44,"time_elapsed":252205,"internal_node_id":"0.0-4.0-1.18","subject_id":"5fd4d6fc58ab92075c9c35fe","study_id":"6197b3f67c2b5cd3b6d9596a","session_id":"6197b5d4621f6fb667ef4a62","condition":"contingent","relevant_dimensions":["wings","pattern"],"bee_group":{"antennae":"X","wings":"2","pattern":"S","legs":"X"},"bonus":1.180000000000001},{"rt":1461.3999999761581,"stimulus":"bees-with-color/bee-A1DF.svg","response":0,"trial_type":"image-button-response","trial_index":45,"time_elapsed":253669,"internal_node_id":"0.0-4.0-0.19","subject_id":"5fd4d6fc58ab92075c9c35fe","study_id":"6197b3f67c2b5cd3b6d9596a","session_id":"6197b5d4621f6fb667ef4a62","condition":"contingent","relevant_dimensions":["wings","pattern"],"bee_group":{"antennae":"X","wings":"2","pattern":"S","legs":"X"},"action":"harvest","summary":"good-harvest","bonus":1.180000000000001},{"rt":646.1000000238419,"stimulus":"\n                    <p><b>Action: <em>harvest</em></b></p>\n                    <p>This is the bee that you just saw.</p>\n                    <img src=\"bees-with-color/bee-A1DF.svg\" width=\"200\">\n                    <p><span class=\"greenText\"><b>Successful harvest!</b></span><br>Your pay has increased by $0.02. Your bonus pay is now $0.54.</p>\n            ","response":0,"trial_type":"html-button-response","trial_index":46,"time_elapsed":254318,"internal_node_id":"0.0-4.0-1.19","subject_id":"5fd4d6fc58ab92075c9c35fe","study_id":"6197b3f67c2b5cd3b6d9596a","session_id":"6197b5d4621f6fb667ef4a62","condition":"contingent","relevant_dimensions":["wings","pattern"],"bee_group":{"antennae":"X","wings":"2","pattern":"S","legs":"X"},"bonus":1.180000000000001},{"rt":725.5,"stimulus":"bees-with-color/bee-B1SF.svg","response":1,"trial_type":"image-button-response","trial_index":47,"time_elapsed":255046,"internal_node_id":"0.0-4.0-0.20","subject_id":"5fd4d6fc58ab92075c9c35fe","study_id":"6197b3f67c2b5cd3b6d9596a","session_id":"6197b5d4621f6fb667ef4a62","condition":"contingent","relevant_dimensions":["wings","pattern"],"bee_group":{"antennae":"X","wings":"2","pattern":"S","legs":"X"},"action":"avoid","summary":"bad-avoid","bonus":1.180000000000001},{"rt":2756.899999976158,"stimulus":"\n                    <p><b>Action: <em>avoid</em></b></p>\n                    <p>This is the bee that you just saw.</p>\n                    <img src=\"bees-with-color/bee-B1SF.svg\" width=\"200\">\n                    <p><br>Your bonus pay is unchanged, and remains at $0.54.</p>\n            ","response":0,"trial_type":"html-button-response","trial_index":48,"time_elapsed":257805,"internal_node_id":"0.0-4.0-1.20","subject_id":"5fd4d6fc58ab92075c9c35fe","study_id":"6197b3f67c2b5cd3b6d9596a","session_id":"6197b5d4621f6fb667ef4a62","condition":"contingent","relevant_dimensions":["wings","pattern"],"bee_group":{"antennae":"X","wings":"2","pattern":"S","legs":"X"},"bonus":1.180000000000001},{"rt":3015.4000000953674,"stimulus":"bees-with-color/bee-A2DM.svg","response":0,"trial_type":"image-button-response","trial_index":49,"time_elapsed":260821,"internal_node_id":"0.0-4.0-0.21","subject_id":"5fd4d6fc58ab92075c9c35fe","study_id":"6197b3f67c2b5cd3b6d9596a","session_id":"6197b5d4621f6fb667ef4a62","condition":"contingent","relevant_dimensions":["wings","pattern"],"bee_group":{"antennae":"X","wings":"2","pattern":"S","legs":"X"},"action":"harvest","summary":"good-harvest","bonus":1.180000000000001},{"rt":765.8999999761581,"stimulus":"\n                    <p><b>Action: <em>harvest</em></b></p>\n                    <p>This is the bee that you just saw.</p>\n                    <img src=\"bees-with-color/bee-A2DM.svg\" width=\"200\">\n                    <p><span class=\"greenText\"><b>Successful harvest!</b></span><br>Your pay has increased by $0.02. Your bonus pay is now $0.56.</p>\n            ","response":0,"trial_type":"html-button-response","trial_index":50,"time_elapsed":261589,"internal_node_id":"0.0-4.0-1.21","subject_id":"5fd4d6fc58ab92075c9c35fe","study_id":"6197b3f67c2b5cd3b6d9596a","session_id":"6197b5d4621f6fb667ef4a62","condition":"contingent","relevant_dimensions":["wings","pattern"],"bee_group":{"antennae":"X","wings":"2","pattern":"S","legs":"X"},"bonus":1.180000000000001},{"rt":8447.399999976158,"stimulus":"bees-with-color/bee-A1SM.svg","response":0,"trial_type":"image-button-response","trial_index":51,"time_elapsed":270038,"internal_node_id":"0.0-4.0-0.22","subject_id":"5fd4d6fc58ab92075c9c35fe","study_id":"6197b3f67c2b5cd3b6d9596a","session_id":"6197b5d4621f6fb667ef4a62","condition":"contingent","relevant_dimensions":["wings","pattern"],"bee_group":{"antennae":"X","wings":"2","pattern":"S","legs":"X"},"action":"harvest","summary":"good-harvest","bonus":1.180000000000001},{"rt":2045.2999999523163,"stimulus":"\n                    <p><b>Action: <em>harvest</em></b></p>\n                    <p>This is the bee that you just saw.</p>\n                    <img src=\"bees-with-color/bee-A1SM.svg\" width=\"200\">\n                    <p><span class=\"greenText\"><b>Successful harvest!</b></span><br>Your pay has increased by $0.02. Your bonus pay is now $0.58.</p>\n            ","response":0,"trial_type":"html-button-response","trial_index":52,"time_elapsed":272085,"internal_node_id":"0.0-4.0-1.22","subject_id":"5fd4d6fc58ab92075c9c35fe","study_id":"6197b3f67c2b5cd3b6d9596a","session_id":"6197b5d4621f6fb667ef4a62","condition":"contingent","relevant_dimensions":["wings","pattern"],"bee_group":{"antennae":"X","wings":"2","pattern":"S","legs":"X"},"bonus":1.180000000000001},{"rt":1309.5,"stimulus":"bees-with-color/bee-B2DM.svg","response":1,"trial_type":"image-button-response","trial_index":53,"time_elapsed":273398,"internal_node_id":"0.0-4.0-0.23","subject_id":"5fd4d6fc58ab92075c9c35fe","study_id":"6197b3f67c2b5cd3b6d9596a","session_id":"6197b5d4621f6fb667ef4a62","condition":"contingent","relevant_dimensions":["wings","pattern"],"bee_group":{"antennae":"X","wings":"2","pattern":"S","legs":"X"},"action":"avoid","summary":"bad-avoid","bonus":1.180000000000001},{"rt":581,"stimulus":"\n                    <p><b>Action: <em>avoid</em></b></p>\n                    <p>This is the bee that you just saw.</p>\n                    <img src=\"bees-with-color/bee-B2DM.svg\" width=\"200\">\n                    <p><br>Your bonus pay is unchanged, and remains at $0.58.</p>\n            ","response":0,"trial_type":"html-button-response","trial_index":54,"time_elapsed":273982,"internal_node_id":"0.0-4.0-1.23","subject_id":"5fd4d6fc58ab92075c9c35fe","study_id":"6197b3f67c2b5cd3b6d9596a","session_id":"6197b5d4621f6fb667ef4a62","condition":"contingent","relevant_dimensions":["wings","pattern"],"bee_group":{"antennae":"X","wings":"2","pattern":"S","legs":"X"},"bonus":1.180000000000001},{"rt":2669.5,"stimulus":"bees-with-color/bee-A2DF.svg","response":0,"trial_type":"image-button-response","trial_index":55,"time_elapsed":276653,"internal_node_id":"0.0-4.0-0.24","subject_id":"5fd4d6fc58ab92075c9c35fe","study_id":"6197b3f67c2b5cd3b6d9596a","session_id":"6197b5d4621f6fb667ef4a62","condition":"contingent","relevant_dimensions":["wings","pattern"],"bee_group":{"antennae":"X","wings":"2","pattern":"S","legs":"X"},"action":"harvest","summary":"good-harvest","bonus":1.180000000000001},{"rt":871.3999999761581,"stimulus":"\n                    <p><b>Action: <em>harvest</em></b></p>\n                    <p>This is the bee that you just saw.</p>\n                    <img src=\"bees-with-color/bee-A2DF.svg\" width=\"200\">\n                    <p><span class=\"greenText\"><b>Successful harvest!</b></span><br>Your pay has increased by $0.02. Your bonus pay is now $0.60.</p>\n            ","response":0,"trial_type":"html-button-response","trial_index":56,"time_elapsed":277527,"internal_node_id":"0.0-4.0-1.24","subject_id":"5fd4d6fc58ab92075c9c35fe","study_id":"6197b3f67c2b5cd3b6d9596a","session_id":"6197b5d4621f6fb667ef4a62","condition":"contingent","relevant_dimensions":["wings","pattern"],"bee_group":{"antennae":"X","wings":"2","pattern":"S","legs":"X"},"bonus":1.180000000000001},{"rt":1468.6000000238419,"stimulus":"bees-with-color/bee-B1DM.svg","response":0,"trial_type":"image-button-response","trial_index":57,"time_elapsed":278999,"internal_node_id":"0.0-4.0-0.25","subject_id":"5fd4d6fc58ab92075c9c35fe","study_id":"6197b3f67c2b5cd3b6d9596a","session_id":"6197b5d4621f6fb667ef4a62","condition":"contingent","relevant_dimensions":["wings","pattern"],"bee_group":{"antennae":"X","wings":"2","pattern":"S","legs":"X"},"action":"harvest","summary":"good-harvest","bonus":1.180000000000001},{"rt":756.2000000476837,"stimulus":"\n                    <p><b>Action: <em>harvest</em></b></p>\n                    <p>This is the bee that you just saw.</p>\n                    <img src=\"bees-with-color/bee-B1DM.svg\" width=\"200\">\n                    <p><span class=\"greenText\"><b>Successful harvest!</b></span><br>Your pay has increased by $0.02. Your bonus pay is now $0.62.</p>\n            ","response":0,"trial_type":"html-button-response","trial_index":58,"time_elapsed":279758,"internal_node_id":"0.0-4.0-1.25","subject_id":"5fd4d6fc58ab92075c9c35fe","study_id":"6197b3f67c2b5cd3b6d9596a","session_id":"6197b5d4621f6fb667ef4a62","condition":"contingent","relevant_dimensions":["wings","pattern"],"bee_group":{"antennae":"X","wings":"2","pattern":"S","legs":"X"},"bonus":1.180000000000001},{"rt":957.6000000238419,"stimulus":"bees-with-color/bee-A1DM.svg","response":0,"trial_type":"image-button-response","trial_index":59,"time_elapsed":280717,"internal_node_id":"0.0-4.0-0.26","subject_id":"5fd4d6fc58ab92075c9c35fe","study_id":"6197b3f67c2b5cd3b6d9596a","session_id":"6197b5d4621f6fb667ef4a62","condition":"contingent","relevant_dimensions":["wings","pattern"],"bee_group":{"antennae":"X","wings":"2","pattern":"S","legs":"X"},"action":"harvest","summary":"good-harvest","bonus":1.180000000000001},{"rt":774.7000000476837,"stimulus":"\n                    <p><b>Action: <em>harvest</em></b></p>\n                    <p>This is the bee that you just saw.</p>\n                    <img src=\"bees-with-color/bee-A1DM.svg\" width=\"200\">\n                    <p><span class=\"greenText\"><b>Successful harvest!</b></span><br>Your pay has increased by $0.02. Your bonus pay is now $0.64.</p>\n            ","response":0,"trial_type":"html-button-response","trial_index":60,"time_elapsed":281493,"internal_node_id":"0.0-4.0-1.26","subject_id":"5fd4d6fc58ab92075c9c35fe","study_id":"6197b3f67c2b5cd3b6d9596a","session_id":"6197b5d4621f6fb667ef4a62","condition":"contingent","relevant_dimensions":["wings","pattern"],"bee_group":{"antennae":"X","wings":"2","pattern":"S","legs":"X"},"bonus":1.180000000000001},{"rt":2326.5,"stimulus":"bees-with-color/bee-B2SF.svg","response":0,"trial_type":"image-button-response","trial_index":61,"time_elapsed":283821,"internal_node_id":"0.0-4.0-0.27","subject_id":"5fd4d6fc58ab92075c9c35fe","study_id":"6197b3f67c2b5cd3b6d9596a","session_id":"6197b5d4621f6fb667ef4a62","condition":"contingent","relevant_dimensions":["wings","pattern"],"bee_group":{"antennae":"X","wings":"2","pattern":"S","legs":"X"},"action":"harvest","summary":"bad-harvest","bonus":1.180000000000001},{"rt":1015.2999999523163,"stimulus":"\n                    <p><b>Action: <em>harvest</em></b></p>\n                    <p>This is the bee that you just saw.</p>\n                    <img src=\"bees-with-color/bee-B2SF.svg\" width=\"200\">\n                    <p><span class=\"redText\">Bad choice, the bee was angry.</span><br><b>You have been stung!</b><br>Your pay has been decreased by $0.10. Your bonus pay is now $0.54.</p>\n            ","response":0,"trial_type":"html-button-response","trial_index":62,"time_elapsed":284837,"internal_node_id":"0.0-4.0-1.27","subject_id":"5fd4d6fc58ab92075c9c35fe","study_id":"6197b3f67c2b5cd3b6d9596a","session_id":"6197b5d4621f6fb667ef4a62","condition":"contingent","relevant_dimensions":["wings","pattern"],"bee_group":{"antennae":"X","wings":"2","pattern":"S","legs":"X"},"bonus":1.180000000000001},{"rt":3886,"stimulus":"bees-with-color/bee-B1SM.svg","response":1,"trial_type":"image-button-response","trial_index":63,"time_elapsed":288725,"internal_node_id":"0.0-4.0-0.28","subject_id":"5fd4d6fc58ab92075c9c35fe","study_id":"6197b3f67c2b5cd3b6d9596a","session_id":"6197b5d4621f6fb667ef4a62","condition":"contingent","relevant_dimensions":["wings","pattern"],"bee_group":{"antennae":"X","wings":"2","pattern":"S","legs":"X"},"action":"avoid","summary":"bad-avoid","bonus":1.180000000000001},{"rt":637.7000000476837,"stimulus":"\n                    <p><b>Action: <em>avoid</em></b></p>\n                    <p>This is the bee that you just saw.</p>\n                    <img src=\"bees-with-color/bee-B1SM.svg\" width=\"200\">\n                    <p><br>Your bonus pay is unchanged, and remains at $0.54.</p>\n            ","response":0,"trial_type":"html-button-response","trial_index":64,"time_elapsed":289365,"internal_node_id":"0.0-4.0-1.28","subject_id":"5fd4d6fc58ab92075c9c35fe","study_id":"6197b3f67c2b5cd3b6d9596a","session_id":"6197b5d4621f6fb667ef4a62","condition":"contingent","relevant_dimensions":["wings","pattern"],"bee_group":{"antennae":"X","wings":"2","pattern":"S","legs":"X"},"bonus":1.180000000000001},{"rt":1517.7000000476837,"stimulus":"bees-with-color/bee-B2DF.svg","response":0,"trial_type":"image-button-response","trial_index":65,"time_elapsed":290885,"internal_node_id":"0.0-4.0-0.29","subject_id":"5fd4d6fc58ab92075c9c35fe","study_id":"6197b3f67c2b5cd3b6d9596a","session_id":"6197b5d4621f6fb667ef4a62","condition":"contingent","relevant_dimensions":["wings","pattern"],"bee_group":{"antennae":"X","wings":"2","pattern":"S","legs":"X"},"action":"harvest","summary":"good-harvest","bonus":1.180000000000001},{"rt":686.2000000476837,"stimulus":"\n                    <p><b>Action: <em>harvest</em></b></p>\n                    <p>This is the bee that you just saw.</p>\n                    <img src=\"bees-with-color/bee-B2DF.svg\" width=\"200\">\n                    <p><span class=\"greenText\"><b>Successful harvest!</b></span><br>Your pay has increased by $0.02. Your bonus pay is now $0.56.</p>\n            ","response":0,"trial_type":"html-button-response","trial_index":66,"time_elapsed":291573,"internal_node_id":"0.0-4.0-1.29","subject_id":"5fd4d6fc58ab92075c9c35fe","study_id":"6197b3f67c2b5cd3b6d9596a","session_id":"6197b5d4621f6fb667ef4a62","condition":"contingent","relevant_dimensions":["wings","pattern"],"bee_group":{"antennae":"X","wings":"2","pattern":"S","legs":"X"},"bonus":1.180000000000001},{"rt":1518.5,"stimulus":"bees-with-color/bee-B2SM.svg","response":1,"trial_type":"image-button-response","trial_index":67,"time_elapsed":293093,"internal_node_id":"0.0-4.0-0.30","subject_id":"5fd4d6fc58ab92075c9c35fe","study_id":"6197b3f67c2b5cd3b6d9596a","session_id":"6197b5d4621f6fb667ef4a62","condition":"contingent","relevant_dimensions":["wings","pattern"],"bee_group":{"antennae":"X","wings":"2","pattern":"S","legs":"X"},"action":"avoid","summary":"good-avoid","bonus":1.180000000000001},{"rt":606.0999999046326,"stimulus":"\n                    <p><b>Action: <em>avoid</em></b></p>\n                    <p>This is the bee that you just saw.</p>\n                    <img src=\"bees-with-color/bee-B2SM.svg\" width=\"200\">\n                    <p><br>Your bonus pay is unchanged, and remains at $0.56.</p>\n            ","response":0,"trial_type":"html-button-response","trial_index":68,"time_elapsed":293701,"internal_node_id":"0.0-4.0-1.30","subject_id":"5fd4d6fc58ab92075c9c35fe","study_id":"6197b3f67c2b5cd3b6d9596a","session_id":"6197b5d4621f6fb667ef4a62","condition":"contingent","relevant_dimensions":["wings","pattern"],"bee_group":{"antennae":"X","wings":"2","pattern":"S","legs":"X"},"bonus":1.180000000000001},{"rt":1503.1000000238419,"stimulus":"bees-with-color/bee-B1DF.svg","response":0,"trial_type":"image-button-response","trial_index":69,"time_elapsed":295206,"internal_node_id":"0.0-4.0-0.31","subject_id":"5fd4d6fc58ab92075c9c35fe","study_id":"6197b3f67c2b5cd3b6d9596a","session_id":"6197b5d4621f6fb667ef4a62","condition":"contingent","relevant_dimensions":["wings","pattern"],"bee_group":{"antennae":"X","wings":"2","pattern":"S","legs":"X"},"action":"harvest","summary":"good-harvest","bonus":1.180000000000001},{"rt":733.7999999523163,"stimulus":"\n                    <p><b>Action: <em>harvest</em></b></p>\n                    <p>This is the bee that you just saw.</p>\n                    <img src=\"bees-with-color/bee-B1DF.svg\" width=\"200\">\n                    <p><span class=\"greenText\"><b>Successful harvest!</b></span><br>Your pay has increased by $0.02. Your bonus pay is now $0.58.</p>\n            ","response":0,"trial_type":"html-button-response","trial_index":70,"time_elapsed":295941,"internal_node_id":"0.0-4.0-1.31","subject_id":"5fd4d6fc58ab92075c9c35fe","study_id":"6197b3f67c2b5cd3b6d9596a","session_id":"6197b5d4621f6fb667ef4a62","condition":"contingent","relevant_dimensions":["wings","pattern"],"bee_group":{"antennae":"X","wings":"2","pattern":"S","legs":"X"},"bonus":1.180000000000001},{"rt":2766,"stimulus":"bees-with-color/bee-A1SM.svg","response":0,"trial_type":"image-button-response","trial_index":71,"time_elapsed":298709,"internal_node_id":"0.0-4.0-0.32","subject_id":"5fd4d6fc58ab92075c9c35fe","study_id":"6197b3f67c2b5cd3b6d9596a","session_id":"6197b5d4621f6fb667ef4a62","condition":"contingent","relevant_dimensions":["wings","pattern"],"bee_group":{"antennae":"X","wings":"2","pattern":"S","legs":"X"},"action":"harvest","summary":"good-harvest","bonus":1.180000000000001},{"rt":654.3999999761581,"stimulus":"\n                    <p><b>Action: <em>harvest</em></b></p>\n                    <p>This is the bee that you just saw.</p>\n                    <img src=\"bees-with-color/bee-A1SM.svg\" width=\"200\">\n                    <p><span class=\"greenText\"><b>Successful harvest!</b></span><br>Your pay has increased by $0.02. Your bonus pay is now $0.60.</p>\n            ","response":0,"trial_type":"html-button-response","trial_index":72,"time_elapsed":299366,"internal_node_id":"0.0-4.0-1.32","subject_id":"5fd4d6fc58ab92075c9c35fe","study_id":"6197b3f67c2b5cd3b6d9596a","session_id":"6197b5d4621f6fb667ef4a62","condition":"contingent","relevant_dimensions":["wings","pattern"],"bee_group":{"antennae":"X","wings":"2","pattern":"S","legs":"X"},"bonus":1.180000000000001},{"rt":1325.2000000476837,"stimulus":"bees-with-color/bee-A1SF.svg","response":1,"trial_type":"image-button-response","trial_index":73,"time_elapsed":300693,"internal_node_id":"0.0-4.0-0.33","subject_id":"5fd4d6fc58ab92075c9c35fe","study_id":"6197b3f67c2b5cd3b6d9596a","session_id":"6197b5d4621f6fb667ef4a62","condition":"contingent","relevant_dimensions":["wings","pattern"],"bee_group":{"antennae":"X","wings":"2","pattern":"S","legs":"X"},"action":"avoid","summary":"bad-avoid","bonus":1.180000000000001},{"rt":560.4000000953674,"stimulus":"\n                    <p><b>Action: <em>avoid</em></b></p>\n                    <p>This is the bee that you just saw.</p>\n                    <img src=\"bees-with-color/bee-A1SF.svg\" width=\"200\">\n                    <p><br>Your bonus pay is unchanged, and remains at $0.60.</p>\n            ","response":0,"trial_type":"html-button-response","trial_index":74,"time_elapsed":301256,"internal_node_id":"0.0-4.0-1.33","subject_id":"5fd4d6fc58ab92075c9c35fe","study_id":"6197b3f67c2b5cd3b6d9596a","session_id":"6197b5d4621f6fb667ef4a62","condition":"contingent","relevant_dimensions":["wings","pattern"],"bee_group":{"antennae":"X","wings":"2","pattern":"S","legs":"X"},"bonus":1.180000000000001},{"rt":1172.6000000238419,"stimulus":"bees-with-color/bee-B2DF.svg","response":0,"trial_type":"image-button-response","trial_index":75,"time_elapsed":302430,"internal_node_id":"0.0-4.0-0.34","subject_id":"5fd4d6fc58ab92075c9c35fe","study_id":"6197b3f67c2b5cd3b6d9596a","session_id":"6197b5d4621f6fb667ef4a62","condition":"contingent","relevant_dimensions":["wings","pattern"],"bee_group":{"antennae":"X","wings":"2","pattern":"S","legs":"X"},"action":"harvest","summary":"good-harvest","bonus":1.180000000000001},{"rt":542,"stimulus":"\n                    <p><b>Action: <em>harvest</em></b></p>\n                    <p>This is the bee that you just saw.</p>\n                    <img src=\"bees-with-color/bee-B2DF.svg\" width=\"200\">\n                    <p><span class=\"greenText\"><b>Successful harvest!</b></span><br>Your pay has increased by $0.02. Your bonus pay is now $0.62.</p>\n            ","response":0,"trial_type":"html-button-response","trial_index":76,"time_elapsed":302974,"internal_node_id":"0.0-4.0-1.34","subject_id":"5fd4d6fc58ab92075c9c35fe","study_id":"6197b3f67c2b5cd3b6d9596a","session_id":"6197b5d4621f6fb667ef4a62","condition":"contingent","relevant_dimensions":["wings","pattern"],"bee_group":{"antennae":"X","wings":"2","pattern":"S","legs":"X"},"bonus":1.180000000000001},{"rt":3408.600000023842,"stimulus":"bees-with-color/bee-A2SM.svg","response":1,"trial_type":"image-button-response","trial_index":77,"time_elapsed":306384,"internal_node_id":"0.0-4.0-0.35","subject_id":"5fd4d6fc58ab92075c9c35fe","study_id":"6197b3f67c2b5cd3b6d9596a","session_id":"6197b5d4621f6fb667ef4a62","condition":"contingent","relevant_dimensions":["wings","pattern"],"bee_group":{"antennae":"X","wings":"2","pattern":"S","legs":"X"},"action":"avoid","summary":"good-avoid","bonus":1.180000000000001},{"rt":556.1999999284744,"stimulus":"\n                    <p><b>Action: <em>avoid</em></b></p>\n                    <p>This is the bee that you just saw.</p>\n                    <img src=\"bees-with-color/bee-A2SM.svg\" width=\"200\">\n                    <p><br>Your bonus pay is unchanged, and remains at $0.62.</p>\n            ","response":0,"trial_type":"html-button-response","trial_index":78,"time_elapsed":306942,"internal_node_id":"0.0-4.0-1.35","subject_id":"5fd4d6fc58ab92075c9c35fe","study_id":"6197b3f67c2b5cd3b6d9596a","session_id":"6197b5d4621f6fb667ef4a62","condition":"contingent","relevant_dimensions":["wings","pattern"],"bee_group":{"antennae":"X","wings":"2","pattern":"S","legs":"X"},"bonus":1.180000000000001},{"rt":3429.5,"stimulus":"bees-with-color/bee-B1SF.svg","response":1,"trial_type":"image-button-response","trial_index":79,"time_elapsed":310374,"internal_node_id":"0.0-4.0-0.36","subject_id":"5fd4d6fc58ab92075c9c35fe","study_id":"6197b3f67c2b5cd3b6d9596a","session_id":"6197b5d4621f6fb667ef4a62","condition":"contingent","relevant_dimensions":["wings","pattern"],"bee_group":{"antennae":"X","wings":"2","pattern":"S","legs":"X"},"action":"avoid","summary":"bad-avoid","bonus":1.180000000000001},{"rt":671.7999999523163,"stimulus":"\n                    <p><b>Action: <em>avoid</em></b></p>\n                    <p>This is the bee that you just saw.</p>\n                    <img src=\"bees-with-color/bee-B1SF.svg\" width=\"200\">\n                    <p><br>Your bonus pay is unchanged, and remains at $0.62.</p>\n            ","response":0,"trial_type":"html-button-response","trial_index":80,"time_elapsed":311048,"internal_node_id":"0.0-4.0-1.36","subject_id":"5fd4d6fc58ab92075c9c35fe","study_id":"6197b3f67c2b5cd3b6d9596a","session_id":"6197b5d4621f6fb667ef4a62","condition":"contingent","relevant_dimensions":["wings","pattern"],"bee_group":{"antennae":"X","wings":"2","pattern":"S","legs":"X"},"bonus":1.180000000000001},{"rt":1612.6000000238419,"stimulus":"bees-with-color/bee-A2DM.svg","response":0,"trial_type":"image-button-response","trial_index":81,"time_elapsed":312662,"internal_node_id":"0.0-4.0-0.37","subject_id":"5fd4d6fc58ab92075c9c35fe","study_id":"6197b3f67c2b5cd3b6d9596a","session_id":"6197b5d4621f6fb667ef4a62","condition":"contingent","relevant_dimensions":["wings","pattern"],"bee_group":{"antennae":"X","wings":"2","pattern":"S","legs":"X"},"action":"harvest","summary":"good-harvest","bonus":1.180000000000001},{"rt":533.4000000953674,"stimulus":"\n                    <p><b>Action: <em>harvest</em></b></p>\n                    <p>This is the bee that you just saw.</p>\n                    <img src=\"bees-with-color/bee-A2DM.svg\" width=\"200\">\n                    <p><span class=\"greenText\"><b>Successful harvest!</b></span><br>Your pay has increased by $0.02. Your bonus pay is now $0.64.</p>\n            ","response":0,"trial_type":"html-button-response","trial_index":82,"time_elapsed":313197,"internal_node_id":"0.0-4.0-1.37","subject_id":"5fd4d6fc58ab92075c9c35fe","study_id":"6197b3f67c2b5cd3b6d9596a","session_id":"6197b5d4621f6fb667ef4a62","condition":"contingent","relevant_dimensions":["wings","pattern"],"bee_group":{"antennae":"X","wings":"2","pattern":"S","legs":"X"},"bonus":1.180000000000001},{"rt":2470.1999999284744,"stimulus":"bees-with-color/bee-A2SF.svg","response":0,"trial_type":"image-button-response","trial_index":83,"time_elapsed":315670,"internal_node_id":"0.0-4.0-0.38","subject_id":"5fd4d6fc58ab92075c9c35fe","study_id":"6197b3f67c2b5cd3b6d9596a","session_id":"6197b5d4621f6fb667ef4a62","condition":"contingent","relevant_dimensions":["wings","pattern"],"bee_group":{"antennae":"X","wings":"2","pattern":"S","legs":"X"},"action":"harvest","summary":"bad-harvest","bonus":1.180000000000001},{"rt":1493,"stimulus":"\n                    <p><b>Action: <em>harvest</em></b></p>\n                    <p>This is the bee that you just saw.</p>\n                    <img src=\"bees-with-color/bee-A2SF.svg\" width=\"200\">\n                    <p><span class=\"redText\">Bad choice, the bee was angry.</span><br><b>You have been stung!</b><br>Your pay has been decreased by $0.10. Your bonus pay is now $0.54.</p>\n            ","response":0,"trial_type":"html-button-response","trial_index":84,"time_elapsed":317165,"internal_node_id":"0.0-4.0-1.38","subject_id":"5fd4d6fc58ab92075c9c35fe","study_id":"6197b3f67c2b5cd3b6d9596a","session_id":"6197b5d4621f6fb667ef4a62","condition":"contingent","relevant_dimensions":["wings","pattern"],"bee_group":{"antennae":"X","wings":"2","pattern":"S","legs":"X"},"bonus":1.180000000000001},{"rt":718.8999999761581,"stimulus":"bees-with-color/bee-B1DM.svg","response":0,"trial_type":"image-button-response","trial_index":85,"time_elapsed":317886,"internal_node_id":"0.0-4.0-0.39","subject_id":"5fd4d6fc58ab92075c9c35fe","study_id":"6197b3f67c2b5cd3b6d9596a","session_id":"6197b5d4621f6fb667ef4a62","condition":"contingent","relevant_dimensions":["wings","pattern"],"bee_group":{"antennae":"X","wings":"2","pattern":"S","legs":"X"},"action":"harvest","summary":"good-harvest","bonus":1.180000000000001},{"rt":533.6000000238419,"stimulus":"\n                    <p><b>Action: <em>harvest</em></b></p>\n                    <p>This is the bee that you just saw.</p>\n                    <img src=\"bees-with-color/bee-B1DM.svg\" width=\"200\">\n                    <p><span class=\"greenText\"><b>Successful harvest!</b></span><br>Your pay has increased by $0.02. Your bonus pay is now $0.56.</p>\n            ","response":0,"trial_type":"html-button-response","trial_index":86,"time_elapsed":318422,"internal_node_id":"0.0-4.0-1.39","subject_id":"5fd4d6fc58ab92075c9c35fe","study_id":"6197b3f67c2b5cd3b6d9596a","session_id":"6197b5d4621f6fb667ef4a62","condition":"contingent","relevant_dimensions":["wings","pattern"],"bee_group":{"antennae":"X","wings":"2","pattern":"S","legs":"X"},"bonus":1.180000000000001},{"rt":622.8999999761581,"stimulus":"bees-with-color/bee-A1DM.svg","response":0,"trial_type":"image-button-response","trial_index":87,"time_elapsed":319047,"internal_node_id":"0.0-4.0-0.40","subject_id":"5fd4d6fc58ab92075c9c35fe","study_id":"6197b3f67c2b5cd3b6d9596a","session_id":"6197b5d4621f6fb667ef4a62","condition":"contingent","relevant_dimensions":["wings","pattern"],"bee_group":{"antennae":"X","wings":"2","pattern":"S","legs":"X"},"action":"harvest","summary":"good-harvest","bonus":1.180000000000001},{"rt":583.6000000238419,"stimulus":"\n                    <p><b>Action: <em>harvest</em></b></p>\n                    <p>This is the bee that you just saw.</p>\n                    <img src=\"bees-with-color/bee-A1DM.svg\" width=\"200\">\n                    <p><span class=\"greenText\"><b>Successful harvest!</b></span><br>Your pay has increased by $0.02. Your bonus pay is now $0.58.</p>\n            ","response":0,"trial_type":"html-button-response","trial_index":88,"time_elapsed":319632,"internal_node_id":"0.0-4.0-1.40","subject_id":"5fd4d6fc58ab92075c9c35fe","study_id":"6197b3f67c2b5cd3b6d9596a","session_id":"6197b5d4621f6fb667ef4a62","condition":"contingent","relevant_dimensions":["wings","pattern"],"bee_group":{"antennae":"X","wings":"2","pattern":"S","legs":"X"},"bonus":1.180000000000001},{"rt":1620.5,"stimulus":"bees-with-color/bee-B1DF.svg","response":0,"trial_type":"image-button-response","trial_index":89,"time_elapsed":321253,"internal_node_id":"0.0-4.0-0.41","subject_id":"5fd4d6fc58ab92075c9c35fe","study_id":"6197b3f67c2b5cd3b6d9596a","session_id":"6197b5d4621f6fb667ef4a62","condition":"contingent","relevant_dimensions":["wings","pattern"],"bee_group":{"antennae":"X","wings":"2","pattern":"S","legs":"X"},"action":"harvest","summary":"good-harvest","bonus":1.180000000000001},{"rt":579.6000000238419,"stimulus":"\n                    <p><b>Action: <em>harvest</em></b></p>\n                    <p>This is the bee that you just saw.</p>\n                    <img src=\"bees-with-color/bee-B1DF.svg\" width=\"200\">\n                    <p><span class=\"greenText\"><b>Successful harvest!</b></span><br>Your pay has increased by $0.02. Your bonus pay is now $0.60.</p>\n            ","response":0,"trial_type":"html-button-response","trial_index":90,"time_elapsed":321837,"internal_node_id":"0.0-4.0-1.41","subject_id":"5fd4d6fc58ab92075c9c35fe","study_id":"6197b3f67c2b5cd3b6d9596a","session_id":"6197b5d4621f6fb667ef4a62","condition":"contingent","relevant_dimensions":["wings","pattern"],"bee_group":{"antennae":"X","wings":"2","pattern":"S","legs":"X"},"bonus":1.180000000000001},{"rt":1446.8999999761581,"stimulus":"bees-with-color/bee-B2SF.svg","response":1,"trial_type":"image-button-response","trial_index":91,"time_elapsed":323286,"internal_node_id":"0.0-4.0-0.42","subject_id":"5fd4d6fc58ab92075c9c35fe","study_id":"6197b3f67c2b5cd3b6d9596a","session_id":"6197b5d4621f6fb667ef4a62","condition":"contingent","relevant_dimensions":["wings","pattern"],"bee_group":{"antennae":"X","wings":"2","pattern":"S","legs":"X"},"action":"avoid","summary":"good-avoid","bonus":1.180000000000001},{"rt":493.5,"stimulus":"\n                    <p><b>Action: <em>avoid</em></b></p>\n                    <p>This is the bee that you just saw.</p>\n                    <img src=\"bees-with-color/bee-B2SF.svg\" width=\"200\">\n                    <p><br>Your bonus pay is unchanged, and remains at $0.60.</p>\n            ","response":0,"trial_type":"html-button-response","trial_index":92,"time_elapsed":323782,"internal_node_id":"0.0-4.0-1.42","subject_id":"5fd4d6fc58ab92075c9c35fe","study_id":"6197b3f67c2b5cd3b6d9596a","session_id":"6197b5d4621f6fb667ef4a62","condition":"contingent","relevant_dimensions":["wings","pattern"],"bee_group":{"antennae":"X","wings":"2","pattern":"S","legs":"X"},"bonus":1.180000000000001},{"rt":733.1000000238419,"stimulus":"bees-with-color/bee-B2DM.svg","response":0,"trial_type":"image-button-response","trial_index":93,"time_elapsed":324518,"internal_node_id":"0.0-4.0-0.43","subject_id":"5fd4d6fc58ab92075c9c35fe","study_id":"6197b3f67c2b5cd3b6d9596a","session_id":"6197b5d4621f6fb667ef4a62","condition":"contingent","relevant_dimensions":["wings","pattern"],"bee_group":{"antennae":"X","wings":"2","pattern":"S","legs":"X"},"action":"harvest","summary":"good-harvest","bonus":1.180000000000001},{"rt":484.6999999284744,"stimulus":"\n                    <p><b>Action: <em>harvest</em></b></p>\n                    <p>This is the bee that you just saw.</p>\n                    <img src=\"bees-with-color/bee-B2DM.svg\" width=\"200\">\n                    <p><span class=\"greenText\"><b>Successful harvest!</b></span><br>Your pay has increased by $0.02. Your bonus pay is now $0.62.</p>\n            ","response":0,"trial_type":"html-button-response","trial_index":94,"time_elapsed":325005,"internal_node_id":"0.0-4.0-1.43","subject_id":"5fd4d6fc58ab92075c9c35fe","study_id":"6197b3f67c2b5cd3b6d9596a","session_id":"6197b5d4621f6fb667ef4a62","condition":"contingent","relevant_dimensions":["wings","pattern"],"bee_group":{"antennae":"X","wings":"2","pattern":"S","legs":"X"},"bonus":1.180000000000001},{"rt":2168.8000000715256,"stimulus":"bees-with-color/bee-B2SM.svg","response":1,"trial_type":"image-button-response","trial_index":95,"time_elapsed":327175,"internal_node_id":"0.0-4.0-0.44","subject_id":"5fd4d6fc58ab92075c9c35fe","study_id":"6197b3f67c2b5cd3b6d9596a","session_id":"6197b5d4621f6fb667ef4a62","condition":"contingent","relevant_dimensions":["wings","pattern"],"bee_group":{"antennae":"X","wings":"2","pattern":"S","legs":"X"},"action":"avoid","summary":"good-avoid","bonus":1.180000000000001},{"rt":524.2999999523163,"stimulus":"\n                    <p><b>Action: <em>avoid</em></b></p>\n                    <p>This is the bee that you just saw.</p>\n                    <img src=\"bees-with-color/bee-B2SM.svg\" width=\"200\">\n                    <p><br>Your bonus pay is unchanged, and remains at $0.62.</p>\n            ","response":0,"trial_type":"html-button-response","trial_index":96,"time_elapsed":327701,"internal_node_id":"0.0-4.0-1.44","subject_id":"5fd4d6fc58ab92075c9c35fe","study_id":"6197b3f67c2b5cd3b6d9596a","session_id":"6197b5d4621f6fb667ef4a62","condition":"contingent","relevant_dimensions":["wings","pattern"],"bee_group":{"antennae":"X","wings":"2","pattern":"S","legs":"X"},"bonus":1.180000000000001},{"rt":878.7999999523163,"stimulus":"bees-with-color/bee-A2DF.svg","response":0,"trial_type":"image-button-response","trial_index":97,"time_elapsed":328582,"internal_node_id":"0.0-4.0-0.45","subject_id":"5fd4d6fc58ab92075c9c35fe","study_id":"6197b3f67c2b5cd3b6d9596a","session_id":"6197b5d4621f6fb667ef4a62","condition":"contingent","relevant_dimensions":["wings","pattern"],"bee_group":{"antennae":"X","wings":"2","pattern":"S","legs":"X"},"action":"harvest","summary":"good-harvest","bonus":1.180000000000001},{"rt":565.6000000238419,"stimulus":"\n                    <p><b>Action: <em>harvest</em></b></p>\n                    <p>This is the bee that you just saw.</p>\n                    <img src=\"bees-with-color/bee-A2DF.svg\" width=\"200\">\n                    <p><span class=\"greenText\"><b>Successful harvest!</b></span><br>Your pay has increased by $0.02. Your bonus pay is now $0.64.</p>\n            ","response":0,"trial_type":"html-button-response","trial_index":98,"time_elapsed":329149,"internal_node_id":"0.0-4.0-1.45","subject_id":"5fd4d6fc58ab92075c9c35fe","study_id":"6197b3f67c2b5cd3b6d9596a","session_id":"6197b5d4621f6fb667ef4a62","condition":"contingent","relevant_dimensions":["wings","pattern"],"bee_group":{"antennae":"X","wings":"2","pattern":"S","legs":"X"},"bonus":1.180000000000001},{"rt":1351,"stimulus":"bees-with-color/bee-B1SM.svg","response":1,"trial_type":"image-button-response","trial_index":99,"time_elapsed":330502,"internal_node_id":"0.0-4.0-0.46","subject_id":"5fd4d6fc58ab92075c9c35fe","study_id":"6197b3f67c2b5cd3b6d9596a","session_id":"6197b5d4621f6fb667ef4a62","condition":"contingent","relevant_dimensions":["wings","pattern"],"bee_group":{"antennae":"X","wings":"2","pattern":"S","legs":"X"},"action":"avoid","summary":"bad-avoid","bonus":1.180000000000001},{"rt":438.2999999523163,"stimulus":"\n                    <p><b>Action: <em>avoid</em></b></p>\n                    <p>This is the bee that you just saw.</p>\n                    <img src=\"bees-with-color/bee-B1SM.svg\" width=\"200\">\n                    <p><br>Your bonus pay is unchanged, and remains at $0.64.</p>\n            ","response":0,"trial_type":"html-button-response","trial_index":100,"time_elapsed":330942,"internal_node_id":"0.0-4.0-1.46","subject_id":"5fd4d6fc58ab92075c9c35fe","study_id":"6197b3f67c2b5cd3b6d9596a","session_id":"6197b5d4621f6fb667ef4a62","condition":"contingent","relevant_dimensions":["wings","pattern"],"bee_group":{"antennae":"X","wings":"2","pattern":"S","legs":"X"},"bonus":1.180000000000001},{"rt":1310.6999999284744,"stimulus":"bees-with-color/bee-A1DF.svg","response":0,"trial_type":"image-button-response","trial_index":101,"time_elapsed":332254,"internal_node_id":"0.0-4.0-0.47","subject_id":"5fd4d6fc58ab92075c9c35fe","study_id":"6197b3f67c2b5cd3b6d9596a","session_id":"6197b5d4621f6fb667ef4a62","condition":"contingent","relevant_dimensions":["wings","pattern"],"bee_group":{"antennae":"X","wings":"2","pattern":"S","legs":"X"},"action":"harvest","summary":"good-harvest","bonus":1.180000000000001},{"rt":509.60000002384186,"stimulus":"\n                    <p><b>Action: <em>harvest</em></b></p>\n                    <p>This is the bee that you just saw.</p>\n                    <img src=\"bees-with-color/bee-A1DF.svg\" width=\"200\">\n                    <p><span class=\"greenText\"><b>Successful harvest!</b></span><br>Your pay has increased by $0.02. Your bonus pay is now $0.66.</p>\n            ","response":0,"trial_type":"html-button-response","trial_index":102,"time_elapsed":332765,"internal_node_id":"0.0-4.0-1.47","subject_id":"5fd4d6fc58ab92075c9c35fe","study_id":"6197b3f67c2b5cd3b6d9596a","session_id":"6197b5d4621f6fb667ef4a62","condition":"contingent","relevant_dimensions":["wings","pattern"],"bee_group":{"antennae":"X","wings":"2","pattern":"S","legs":"X"},"bonus":1.180000000000001},{"rt":3366.399999976158,"stimulus":"bees-with-color/bee-A1SM.svg","response":0,"trial_type":"image-button-response","trial_index":103,"time_elapsed":336133,"internal_node_id":"0.0-4.0-0.48","subject_id":"5fd4d6fc58ab92075c9c35fe","study_id":"6197b3f67c2b5cd3b6d9596a","session_id":"6197b5d4621f6fb667ef4a62","condition":"contingent","relevant_dimensions":["wings","pattern"],"bee_group":{"antennae":"X","wings":"2","pattern":"S","legs":"X"},"action":"harvest","summary":"good-harvest","bonus":1.180000000000001},{"rt":718.3000000715256,"stimulus":"\n                    <p><b>Action: <em>harvest</em></b></p>\n                    <p>This is the bee that you just saw.</p>\n                    <img src=\"bees-with-color/bee-A1SM.svg\" width=\"200\">\n                    <p><span class=\"greenText\"><b>Successful harvest!</b></span><br>Your pay has increased by $0.02. Your bonus pay is now $0.68.</p>\n            ","response":0,"trial_type":"html-button-response","trial_index":104,"time_elapsed":336853,"internal_node_id":"0.0-4.0-1.48","subject_id":"5fd4d6fc58ab92075c9c35fe","study_id":"6197b3f67c2b5cd3b6d9596a","session_id":"6197b5d4621f6fb667ef4a62","condition":"contingent","relevant_dimensions":["wings","pattern"],"bee_group":{"antennae":"X","wings":"2","pattern":"S","legs":"X"},"bonus":1.180000000000001},{"rt":1534,"stimulus":"bees-with-color/bee-B2DM.svg","response":0,"trial_type":"image-button-response","trial_index":105,"time_elapsed":338390,"internal_node_id":"0.0-4.0-0.49","subject_id":"5fd4d6fc58ab92075c9c35fe","study_id":"6197b3f67c2b5cd3b6d9596a","session_id":"6197b5d4621f6fb667ef4a62","condition":"contingent","relevant_dimensions":["wings","pattern"],"bee_group":{"antennae":"X","wings":"2","pattern":"S","legs":"X"},"action":"harvest","summary":"good-harvest","bonus":1.180000000000001},{"rt":813.8000000715256,"stimulus":"\n                    <p><b>Action: <em>harvest</em></b></p>\n                    <p>This is the bee that you just saw.</p>\n                    <img src=\"bees-with-color/bee-B2DM.svg\" width=\"200\">\n                    <p><span class=\"greenText\"><b>Successful harvest!</b></span><br>Your pay has increased by $0.02. Your bonus pay is now $0.70.</p>\n            ","response":0,"trial_type":"html-button-response","trial_index":106,"time_elapsed":339205,"internal_node_id":"0.0-4.0-1.49","subject_id":"5fd4d6fc58ab92075c9c35fe","study_id":"6197b3f67c2b5cd3b6d9596a","session_id":"6197b5d4621f6fb667ef4a62","condition":"contingent","relevant_dimensions":["wings","pattern"],"bee_group":{"antennae":"X","wings":"2","pattern":"S","legs":"X"},"bonus":1.180000000000001},{"rt":4015.6999999284744,"stimulus":"bees-with-color/bee-B2SM.svg","response":1,"trial_type":"image-button-response","trial_index":107,"time_elapsed":343223,"internal_node_id":"0.0-4.0-0.50","subject_id":"5fd4d6fc58ab92075c9c35fe","study_id":"6197b3f67c2b5cd3b6d9596a","session_id":"6197b5d4621f6fb667ef4a62","condition":"contingent","relevant_dimensions":["wings","pattern"],"bee_group":{"antennae":"X","wings":"2","pattern":"S","legs":"X"},"action":"avoid","summary":"good-avoid","bonus":1.180000000000001},{"rt":541.5,"stimulus":"\n                    <p><b>Action: <em>avoid</em></b></p>\n                    <p>This is the bee that you just saw.</p>\n                    <img src=\"bees-with-color/bee-B2SM.svg\" width=\"200\">\n                    <p><br>Your bonus pay is unchanged, and remains at $0.70.</p>\n            ","response":0,"trial_type":"html-button-response","trial_index":108,"time_elapsed":343766,"internal_node_id":"0.0-4.0-1.50","subject_id":"5fd4d6fc58ab92075c9c35fe","study_id":"6197b3f67c2b5cd3b6d9596a","session_id":"6197b5d4621f6fb667ef4a62","condition":"contingent","relevant_dimensions":["wings","pattern"],"bee_group":{"antennae":"X","wings":"2","pattern":"S","legs":"X"},"bonus":1.180000000000001},{"rt":2077.7999999523163,"stimulus":"bees-with-color/bee-B1SM.svg","response":0,"trial_type":"image-button-response","trial_index":109,"time_elapsed":345846,"internal_node_id":"0.0-4.0-0.51","subject_id":"5fd4d6fc58ab92075c9c35fe","study_id":"6197b3f67c2b5cd3b6d9596a","session_id":"6197b5d4621f6fb667ef4a62","condition":"contingent","relevant_dimensions":["wings","pattern"],"bee_group":{"antennae":"X","wings":"2","pattern":"S","legs":"X"},"action":"harvest","summary":"good-harvest","bonus":1.180000000000001},{"rt":549.6000000238419,"stimulus":"\n                    <p><b>Action: <em>harvest</em></b></p>\n                    <p>This is the bee that you just saw.</p>\n                    <img src=\"bees-with-color/bee-B1SM.svg\" width=\"200\">\n                    <p><span class=\"greenText\"><b>Successful harvest!</b></span><br>Your pay has increased by $0.02. Your bonus pay is now $0.72.</p>\n            ","response":0,"trial_type":"html-button-response","trial_index":110,"time_elapsed":346397,"internal_node_id":"0.0-4.0-1.51","subject_id":"5fd4d6fc58ab92075c9c35fe","study_id":"6197b3f67c2b5cd3b6d9596a","session_id":"6197b5d4621f6fb667ef4a62","condition":"contingent","relevant_dimensions":["wings","pattern"],"bee_group":{"antennae":"X","wings":"2","pattern":"S","legs":"X"},"bonus":1.180000000000001},{"rt":1150.7999999523163,"stimulus":"bees-with-color/bee-A2DF.svg","response":0,"trial_type":"image-button-response","trial_index":111,"time_elapsed":347549,"internal_node_id":"0.0-4.0-0.52","subject_id":"5fd4d6fc58ab92075c9c35fe","study_id":"6197b3f67c2b5cd3b6d9596a","session_id":"6197b5d4621f6fb667ef4a62","condition":"contingent","relevant_dimensions":["wings","pattern"],"bee_group":{"antennae":"X","wings":"2","pattern":"S","legs":"X"},"action":"harvest","summary":"good-harvest","bonus":1.180000000000001},{"rt":542.1999999284744,"stimulus":"\n                    <p><b>Action: <em>harvest</em></b></p>\n                    <p>This is the bee that you just saw.</p>\n                    <img src=\"bees-with-color/bee-A2DF.svg\" width=\"200\">\n                    <p><span class=\"greenText\"><b>Successful harvest!</b></span><br>Your pay has increased by $0.02. Your bonus pay is now $0.74.</p>\n            ","response":0,"trial_type":"html-button-response","trial_index":112,"time_elapsed":348094,"internal_node_id":"0.0-4.0-1.52","subject_id":"5fd4d6fc58ab92075c9c35fe","study_id":"6197b3f67c2b5cd3b6d9596a","session_id":"6197b5d4621f6fb667ef4a62","condition":"contingent","relevant_dimensions":["wings","pattern"],"bee_group":{"antennae":"X","wings":"2","pattern":"S","legs":"X"},"bonus":1.180000000000001},{"rt":1438.1999999284744,"stimulus":"bees-with-color/bee-A2SM.svg","response":1,"trial_type":"image-button-response","trial_index":113,"time_elapsed":349534,"internal_node_id":"0.0-4.0-0.53","subject_id":"5fd4d6fc58ab92075c9c35fe","study_id":"6197b3f67c2b5cd3b6d9596a","session_id":"6197b5d4621f6fb667ef4a62","condition":"contingent","relevant_dimensions":["wings","pattern"],"bee_group":{"antennae":"X","wings":"2","pattern":"S","legs":"X"},"action":"avoid","summary":"good-avoid","bonus":1.180000000000001},{"rt":478,"stimulus":"\n                    <p><b>Action: <em>avoid</em></b></p>\n                    <p>This is the bee that you just saw.</p>\n                    <img src=\"bees-with-color/bee-A2SM.svg\" width=\"200\">\n                    <p><br>Your bonus pay is unchanged, and remains at $0.74.</p>\n            ","response":0,"trial_type":"html-button-response","trial_index":114,"time_elapsed":350014,"internal_node_id":"0.0-4.0-1.53","subject_id":"5fd4d6fc58ab92075c9c35fe","study_id":"6197b3f67c2b5cd3b6d9596a","session_id":"6197b5d4621f6fb667ef4a62","condition":"contingent","relevant_dimensions":["wings","pattern"],"bee_group":{"antennae":"X","wings":"2","pattern":"S","legs":"X"},"bonus":1.180000000000001},{"rt":774.2000000476837,"stimulus":"bees-with-color/bee-A1DF.svg","response":0,"trial_type":"image-button-response","trial_index":115,"time_elapsed":350790,"internal_node_id":"0.0-4.0-0.54","subject_id":"5fd4d6fc58ab92075c9c35fe","study_id":"6197b3f67c2b5cd3b6d9596a","session_id":"6197b5d4621f6fb667ef4a62","condition":"contingent","relevant_dimensions":["wings","pattern"],"bee_group":{"antennae":"X","wings":"2","pattern":"S","legs":"X"},"action":"harvest","summary":"good-harvest","bonus":1.180000000000001},{"rt":478.40000009536743,"stimulus":"\n                    <p><b>Action: <em>harvest</em></b></p>\n                    <p>This is the bee that you just saw.</p>\n                    <img src=\"bees-with-color/bee-A1DF.svg\" width=\"200\">\n                    <p><span class=\"greenText\"><b>Successful harvest!</b></span><br>Your pay has increased by $0.02. Your bonus pay is now $0.76.</p>\n            ","response":0,"trial_type":"html-button-response","trial_index":116,"time_elapsed":351271,"internal_node_id":"0.0-4.0-1.54","subject_id":"5fd4d6fc58ab92075c9c35fe","study_id":"6197b3f67c2b5cd3b6d9596a","session_id":"6197b5d4621f6fb667ef4a62","condition":"contingent","relevant_dimensions":["wings","pattern"],"bee_group":{"antennae":"X","wings":"2","pattern":"S","legs":"X"},"bonus":1.180000000000001},{"rt":1324.8999999761581,"stimulus":"bees-with-color/bee-A2DM.svg","response":1,"trial_type":"image-button-response","trial_index":117,"time_elapsed":352597,"internal_node_id":"0.0-4.0-0.55","subject_id":"5fd4d6fc58ab92075c9c35fe","study_id":"6197b3f67c2b5cd3b6d9596a","session_id":"6197b5d4621f6fb667ef4a62","condition":"contingent","relevant_dimensions":["wings","pattern"],"bee_group":{"antennae":"X","wings":"2","pattern":"S","legs":"X"},"action":"avoid","summary":"bad-avoid","bonus":1.180000000000001},{"rt":479.6999999284744,"stimulus":"\n                    <p><b>Action: <em>avoid</em></b></p>\n                    <p>This is the bee that you just saw.</p>\n                    <img src=\"bees-with-color/bee-A2DM.svg\" width=\"200\">\n                    <p><br>Your bonus pay is unchanged, and remains at $0.76.</p>\n            ","response":0,"trial_type":"html-button-response","trial_index":118,"time_elapsed":353079,"internal_node_id":"0.0-4.0-1.55","subject_id":"5fd4d6fc58ab92075c9c35fe","study_id":"6197b3f67c2b5cd3b6d9596a","session_id":"6197b5d4621f6fb667ef4a62","condition":"contingent","relevant_dimensions":["wings","pattern"],"bee_group":{"antennae":"X","wings":"2","pattern":"S","legs":"X"},"bonus":1.180000000000001},{"rt":2084.7999999523163,"stimulus":"bees-with-color/bee-B1DF.svg","response":0,"trial_type":"image-button-response","trial_index":119,"time_elapsed":355165,"internal_node_id":"0.0-4.0-0.56","subject_id":"5fd4d6fc58ab92075c9c35fe","study_id":"6197b3f67c2b5cd3b6d9596a","session_id":"6197b5d4621f6fb667ef4a62","condition":"contingent","relevant_dimensions":["wings","pattern"],"bee_group":{"antennae":"X","wings":"2","pattern":"S","legs":"X"},"action":"harvest","summary":"good-harvest","bonus":1.180000000000001},{"rt":615.5,"stimulus":"\n                    <p><b>Action: <em>harvest</em></b></p>\n                    <p>This is the bee that you just saw.</p>\n                    <img src=\"bees-with-color/bee-B1DF.svg\" width=\"200\">\n                    <p><span class=\"greenText\"><b>Successful harvest!</b></span><br>Your pay has increased by $0.02. Your bonus pay is now $0.78.</p>\n            ","response":0,"trial_type":"html-button-response","trial_index":120,"time_elapsed":355782,"internal_node_id":"0.0-4.0-1.56","subject_id":"5fd4d6fc58ab92075c9c35fe","study_id":"6197b3f67c2b5cd3b6d9596a","session_id":"6197b5d4621f6fb667ef4a62","condition":"contingent","relevant_dimensions":["wings","pattern"],"bee_group":{"antennae":"X","wings":"2","pattern":"S","legs":"X"},"bonus":1.180000000000001},{"rt":1037.7999999523163,"stimulus":"bees-with-color/bee-B1DM.svg","response":0,"trial_type":"image-button-response","trial_index":121,"time_elapsed":356822,"internal_node_id":"0.0-4.0-0.57","subject_id":"5fd4d6fc58ab92075c9c35fe","study_id":"6197b3f67c2b5cd3b6d9596a","session_id":"6197b5d4621f6fb667ef4a62","condition":"contingent","relevant_dimensions":["wings","pattern"],"bee_group":{"antennae":"X","wings":"2","pattern":"S","legs":"X"},"action":"harvest","summary":"good-harvest","bonus":1.180000000000001},{"rt":446.1999999284744,"stimulus":"\n                    <p><b>Action: <em>harvest</em></b></p>\n                    <p>This is the bee that you just saw.</p>\n                    <img src=\"bees-with-color/bee-B1DM.svg\" width=\"200\">\n                    <p><span class=\"greenText\"><b>Successful harvest!</b></span><br>Your pay has increased by $0.02. Your bonus pay is now $0.80.</p>\n            ","response":0,"trial_type":"html-button-response","trial_index":122,"time_elapsed":357270,"internal_node_id":"0.0-4.0-1.57","subject_id":"5fd4d6fc58ab92075c9c35fe","study_id":"6197b3f67c2b5cd3b6d9596a","session_id":"6197b5d4621f6fb667ef4a62","condition":"contingent","relevant_dimensions":["wings","pattern"],"bee_group":{"antennae":"X","wings":"2","pattern":"S","legs":"X"},"bonus":1.180000000000001},{"rt":1064,"stimulus":"bees-with-color/bee-B1SF.svg","response":1,"trial_type":"image-button-response","trial_index":123,"time_elapsed":358335,"internal_node_id":"0.0-4.0-0.58","subject_id":"5fd4d6fc58ab92075c9c35fe","study_id":"6197b3f67c2b5cd3b6d9596a","session_id":"6197b5d4621f6fb667ef4a62","condition":"contingent","relevant_dimensions":["wings","pattern"],"bee_group":{"antennae":"X","wings":"2","pattern":"S","legs":"X"},"action":"avoid","summary":"bad-avoid","bonus":1.180000000000001},{"rt":484.39999997615814,"stimulus":"\n                    <p><b>Action: <em>avoid</em></b></p>\n                    <p>This is the bee that you just saw.</p>\n                    <img src=\"bees-with-color/bee-B1SF.svg\" width=\"200\">\n                    <p><br>Your bonus pay is unchanged, and remains at $0.80.</p>\n            ","response":0,"trial_type":"html-button-response","trial_index":124,"time_elapsed":358821,"internal_node_id":"0.0-4.0-1.58","subject_id":"5fd4d6fc58ab92075c9c35fe","study_id":"6197b3f67c2b5cd3b6d9596a","session_id":"6197b5d4621f6fb667ef4a62","condition":"contingent","relevant_dimensions":["wings","pattern"],"bee_group":{"antennae":"X","wings":"2","pattern":"S","legs":"X"},"bonus":1.180000000000001},{"rt":2982,"stimulus":"bees-with-color/bee-A2SF.svg","response":1,"trial_type":"image-button-response","trial_index":125,"time_elapsed":361806,"internal_node_id":"0.0-4.0-0.59","subject_id":"5fd4d6fc58ab92075c9c35fe","study_id":"6197b3f67c2b5cd3b6d9596a","session_id":"6197b5d4621f6fb667ef4a62","condition":"contingent","relevant_dimensions":["wings","pattern"],"bee_group":{"antennae":"X","wings":"2","pattern":"S","legs":"X"},"action":"avoid","summary":"good-avoid","bonus":1.180000000000001},{"rt":718.1999999284744,"stimulus":"\n                    <p><b>Action: <em>avoid</em></b></p>\n                    <p>This is the bee that you just saw.</p>\n                    <img src=\"bees-with-color/bee-A2SF.svg\" width=\"200\">\n                    <p><br>Your bonus pay is unchanged, and remains at $0.80.</p>\n            ","response":0,"trial_type":"html-button-response","trial_index":126,"time_elapsed":362526,"internal_node_id":"0.0-4.0-1.59","subject_id":"5fd4d6fc58ab92075c9c35fe","study_id":"6197b3f67c2b5cd3b6d9596a","session_id":"6197b5d4621f6fb667ef4a62","condition":"contingent","relevant_dimensions":["wings","pattern"],"bee_group":{"antennae":"X","wings":"2","pattern":"S","legs":"X"},"bonus":1.180000000000001},{"rt":996.8999999761581,"stimulus":"bees-with-color/bee-A1DM.svg","response":0,"trial_type":"image-button-response","trial_index":127,"time_elapsed":363525,"internal_node_id":"0.0-4.0-0.60","subject_id":"5fd4d6fc58ab92075c9c35fe","study_id":"6197b3f67c2b5cd3b6d9596a","session_id":"6197b5d4621f6fb667ef4a62","condition":"contingent","relevant_dimensions":["wings","pattern"],"bee_group":{"antennae":"X","wings":"2","pattern":"S","legs":"X"},"action":"harvest","summary":"good-harvest","bonus":1.180000000000001},{"rt":581.5,"stimulus":"\n                    <p><b>Action: <em>harvest</em></b></p>\n                    <p>This is the bee that you just saw.</p>\n                    <img src=\"bees-with-color/bee-A1DM.svg\" width=\"200\">\n                    <p><span class=\"greenText\"><b>Successful harvest!</b></span><br>Your pay has increased by $0.02. Your bonus pay is now $0.82.</p>\n            ","response":0,"trial_type":"html-button-response","trial_index":128,"time_elapsed":364109,"internal_node_id":"0.0-4.0-1.60","subject_id":"5fd4d6fc58ab92075c9c35fe","study_id":"6197b3f67c2b5cd3b6d9596a","session_id":"6197b5d4621f6fb667ef4a62","condition":"contingent","relevant_dimensions":["wings","pattern"],"bee_group":{"antennae":"X","wings":"2","pattern":"S","legs":"X"},"bonus":1.180000000000001},{"rt":1111.6000000238419,"stimulus":"bees-with-color/bee-B2SF.svg","response":1,"trial_type":"image-button-response","trial_index":129,"time_elapsed":365223,"internal_node_id":"0.0-4.0-0.61","subject_id":"5fd4d6fc58ab92075c9c35fe","study_id":"6197b3f67c2b5cd3b6d9596a","session_id":"6197b5d4621f6fb667ef4a62","condition":"contingent","relevant_dimensions":["wings","pattern"],"bee_group":{"antennae":"X","wings":"2","pattern":"S","legs":"X"},"action":"avoid","summary":"good-avoid","bonus":1.180000000000001},{"rt":555.7999999523163,"stimulus":"\n                    <p><b>Action: <em>avoid</em></b></p>\n                    <p>This is the bee that you just saw.</p>\n                    <img src=\"bees-with-color/bee-B2SF.svg\" width=\"200\">\n                    <p><br>Your bonus pay is unchanged, and remains at $0.82.</p>\n            ","response":0,"trial_type":"html-button-response","trial_index":130,"time_elapsed":365782,"internal_node_id":"0.0-4.0-1.61","subject_id":"5fd4d6fc58ab92075c9c35fe","study_id":"6197b3f67c2b5cd3b6d9596a","session_id":"6197b5d4621f6fb667ef4a62","condition":"contingent","relevant_dimensions":["wings","pattern"],"bee_group":{"antennae":"X","wings":"2","pattern":"S","legs":"X"},"bonus":1.180000000000001},{"rt":2821.6999999284744,"stimulus":"bees-with-color/bee-A1SF.svg","response":0,"trial_type":"image-button-response","trial_index":131,"time_elapsed":368605,"internal_node_id":"0.0-4.0-0.62","subject_id":"5fd4d6fc58ab92075c9c35fe","study_id":"6197b3f67c2b5cd3b6d9596a","session_id":"6197b5d4621f6fb667ef4a62","condition":"contingent","relevant_dimensions":["wings","pattern"],"bee_group":{"antennae":"X","wings":"2","pattern":"S","legs":"X"},"action":"harvest","summary":"good-harvest","bonus":1.180000000000001},{"rt":1565.5,"stimulus":"\n                    <p><b>Action: <em>harvest</em></b></p>\n                    <p>This is the bee that you just saw.</p>\n                    <img src=\"bees-with-color/bee-A1SF.svg\" width=\"200\">\n                    <p><span class=\"greenText\"><b>Successful harvest!</b></span><br>Your pay has increased by $0.02. Your bonus pay is now $0.84.</p>\n            ","response":0,"trial_type":"html-button-response","trial_index":132,"time_elapsed":370173,"internal_node_id":"0.0-4.0-1.62","subject_id":"5fd4d6fc58ab92075c9c35fe","study_id":"6197b3f67c2b5cd3b6d9596a","session_id":"6197b5d4621f6fb667ef4a62","condition":"contingent","relevant_dimensions":["wings","pattern"],"bee_group":{"antennae":"X","wings":"2","pattern":"S","legs":"X"},"bonus":1.180000000000001},{"rt":1182.9000000953674,"stimulus":"bees-with-color/bee-B2DF.svg","response":0,"trial_type":"image-button-response","trial_index":133,"time_elapsed":371357,"internal_node_id":"0.0-4.0-0.63","subject_id":"5fd4d6fc58ab92075c9c35fe","study_id":"6197b3f67c2b5cd3b6d9596a","session_id":"6197b5d4621f6fb667ef4a62","condition":"contingent","relevant_dimensions":["wings","pattern"],"bee_group":{"antennae":"X","wings":"2","pattern":"S","legs":"X"},"action":"harvest","summary":"good-harvest","bonus":1.180000000000001},{"rt":534.2999999523163,"stimulus":"\n                    <p><b>Action: <em>harvest</em></b></p>\n                    <p>This is the bee that you just saw.</p>\n                    <img src=\"bees-with-color/bee-B2DF.svg\" width=\"200\">\n                    <p><span class=\"greenText\"><b>Successful harvest!</b></span><br>Your pay has increased by $0.02. Your bonus pay is now $0.86.</p>\n            ","response":0,"trial_type":"html-button-response","trial_index":134,"time_elapsed":371893,"internal_node_id":"0.0-4.0-1.63","subject_id":"5fd4d6fc58ab92075c9c35fe","study_id":"6197b3f67c2b5cd3b6d9596a","session_id":"6197b5d4621f6fb667ef4a62","condition":"contingent","relevant_dimensions":["wings","pattern"],"bee_group":{"antennae":"X","wings":"2","pattern":"S","legs":"X"},"bonus":1.180000000000001},{"rt":12307.300000071526,"stimulus":"You have completed the first part of this experiment.<br><br>You will now begin a shorter second part, in which you will receive no feedback.<br>The same rules regarding bonus pay apply.<br><br>Press any key to begin.","response":"+","trial_type":"html-keyboard-response","trial_index":135,"time_elapsed":384201,"internal_node_id":"0.0-5.0","subject_id":"5fd4d6fc58ab92075c9c35fe","study_id":"6197b3f67c2b5cd3b6d9596a","session_id":"6197b5d4621f6fb667ef4a62","condition":"contingent","relevant_dimensions":["wings","pattern"],"bee_group":{"antennae":"X","wings":"2","pattern":"S","legs":"X"},"bonus":1.180000000000001},{"rt":4530.5,"stimulus":"bees-with-color/bee-B1DF.svg","response":0,"trial_type":"image-button-response","trial_index":136,"time_elapsed":388766,"internal_node_id":"0.0-6.0-0.0","subject_id":"5fd4d6fc58ab92075c9c35fe","study_id":"6197b3f67c2b5cd3b6d9596a","session_id":"6197b5d4621f6fb667ef4a62","condition":"contingent","relevant_dimensions":["wings","pattern"],"bee_group":{"antennae":"X","wings":"2","pattern":"S","legs":"X"},"bonus":1.180000000000001},{"rt":979.7000000476837,"stimulus":"bees-with-color/bee-A1DF.svg","response":0,"trial_type":"image-button-response","trial_index":137,"time_elapsed":389749,"internal_node_id":"0.0-6.0-0.1","subject_id":"5fd4d6fc58ab92075c9c35fe","study_id":"6197b3f67c2b5cd3b6d9596a","session_id":"6197b5d4621f6fb667ef4a62","condition":"contingent","relevant_dimensions":["wings","pattern"],"bee_group":{"antennae":"X","wings":"2","pattern":"S","legs":"X"},"bonus":1.180000000000001},{"rt":991.3999999761581,"stimulus":"bees-with-color/bee-B2DF.svg","response":0,"trial_type":"image-button-response","trial_index":138,"time_elapsed":390742,"internal_node_id":"0.0-6.0-0.2","subject_id":"5fd4d6fc58ab92075c9c35fe","study_id":"6197b3f67c2b5cd3b6d9596a","session_id":"6197b5d4621f6fb667ef4a62","condition":"contingent","relevant_dimensions":["wings","pattern"],"bee_group":{"antennae":"X","wings":"2","pattern":"S","legs":"X"},"bonus":1.180000000000001},{"rt":1269.2999999523163,"stimulus":"bees-with-color/bee-A2SM.svg","response":1,"trial_type":"image-button-response","trial_index":139,"time_elapsed":392014,"internal_node_id":"0.0-6.0-0.3","subject_id":"5fd4d6fc58ab92075c9c35fe","study_id":"6197b3f67c2b5cd3b6d9596a","session_id":"6197b5d4621f6fb667ef4a62","condition":"contingent","relevant_dimensions":["wings","pattern"],"bee_group":{"antennae":"X","wings":"2","pattern":"S","legs":"X"},"bonus":1.180000000000001},{"rt":1038.5,"stimulus":"bees-with-color/bee-B1SF.svg","response":1,"trial_type":"image-button-response","trial_index":140,"time_elapsed":393055,"internal_node_id":"0.0-6.0-0.4","subject_id":"5fd4d6fc58ab92075c9c35fe","study_id":"6197b3f67c2b5cd3b6d9596a","session_id":"6197b5d4621f6fb667ef4a62","condition":"contingent","relevant_dimensions":["wings","pattern"],"bee_group":{"antennae":"X","wings":"2","pattern":"S","legs":"X"},"bonus":1.180000000000001},{"rt":949.0999999046326,"stimulus":"bees-with-color/bee-B2DM.svg","response":0,"trial_type":"image-button-response","trial_index":141,"time_elapsed":394005,"internal_node_id":"0.0-6.0-0.5","subject_id":"5fd4d6fc58ab92075c9c35fe","study_id":"6197b3f67c2b5cd3b6d9596a","session_id":"6197b5d4621f6fb667ef4a62","condition":"contingent","relevant_dimensions":["wings","pattern"],"bee_group":{"antennae":"X","wings":"2","pattern":"S","legs":"X"},"bonus":1.180000000000001},{"rt":1040,"stimulus":"bees-with-color/bee-A2DF.svg","response":0,"trial_type":"image-button-response","trial_index":142,"time_elapsed":395047,"internal_node_id":"0.0-6.0-0.6","subject_id":"5fd4d6fc58ab92075c9c35fe","study_id":"6197b3f67c2b5cd3b6d9596a","session_id":"6197b5d4621f6fb667ef4a62","condition":"contingent","relevant_dimensions":["wings","pattern"],"bee_group":{"antennae":"X","wings":"2","pattern":"S","legs":"X"},"bonus":1.180000000000001},{"rt":3772.1999999284744,"stimulus":"bees-with-color/bee-A2SF.svg","response":1,"trial_type":"image-button-response","trial_index":143,"time_elapsed":398822,"internal_node_id":"0.0-6.0-0.7","subject_id":"5fd4d6fc58ab92075c9c35fe","study_id":"6197b3f67c2b5cd3b6d9596a","session_id":"6197b5d4621f6fb667ef4a62","condition":"contingent","relevant_dimensions":["wings","pattern"],"bee_group":{"antennae":"X","wings":"2","pattern":"S","legs":"X"},"bonus":1.180000000000001},{"rt":668.6000000238419,"stimulus":"bees-with-color/bee-A1DM.svg","response":0,"trial_type":"image-button-response","trial_index":144,"time_elapsed":399493,"internal_node_id":"0.0-6.0-0.8","subject_id":"5fd4d6fc58ab92075c9c35fe","study_id":"6197b3f67c2b5cd3b6d9596a","session_id":"6197b5d4621f6fb667ef4a62","condition":"contingent","relevant_dimensions":["wings","pattern"],"bee_group":{"antennae":"X","wings":"2","pattern":"S","legs":"X"},"bonus":1.180000000000001},{"rt":1141.7999999523163,"stimulus":"bees-with-color/bee-A2DM.svg","response":0,"trial_type":"image-button-response","trial_index":145,"time_elapsed":400638,"internal_node_id":"0.0-6.0-0.9","subject_id":"5fd4d6fc58ab92075c9c35fe","study_id":"6197b3f67c2b5cd3b6d9596a","session_id":"6197b5d4621f6fb667ef4a62","condition":"contingent","relevant_dimensions":["wings","pattern"],"bee_group":{"antennae":"X","wings":"2","pattern":"S","legs":"X"},"bonus":1.180000000000001},{"rt":1373.3999999761581,"stimulus":"bees-with-color/bee-B2SM.svg","response":1,"trial_type":"image-button-response","trial_index":146,"time_elapsed":402014,"internal_node_id":"0.0-6.0-0.10","subject_id":"5fd4d6fc58ab92075c9c35fe","study_id":"6197b3f67c2b5cd3b6d9596a","session_id":"6197b5d4621f6fb667ef4a62","condition":"contingent","relevant_dimensions":["wings","pattern"],"bee_group":{"antennae":"X","wings":"2","pattern":"S","legs":"X"},"bonus":1.180000000000001},{"rt":2268.899999976158,"stimulus":"bees-with-color/bee-A1SF.svg","response":1,"trial_type":"image-button-response","trial_index":147,"time_elapsed":404285,"internal_node_id":"0.0-6.0-0.11","subject_id":"5fd4d6fc58ab92075c9c35fe","study_id":"6197b3f67c2b5cd3b6d9596a","session_id":"6197b5d4621f6fb667ef4a62","condition":"contingent","relevant_dimensions":["wings","pattern"],"bee_group":{"antennae":"X","wings":"2","pattern":"S","legs":"X"},"bonus":1.180000000000001},{"rt":1341,"stimulus":"bees-with-color/bee-B1SM.svg","response":0,"trial_type":"image-button-response","trial_index":148,"time_elapsed":405629,"internal_node_id":"0.0-6.0-0.12","subject_id":"5fd4d6fc58ab92075c9c35fe","study_id":"6197b3f67c2b5cd3b6d9596a","session_id":"6197b5d4621f6fb667ef4a62","condition":"contingent","relevant_dimensions":["wings","pattern"],"bee_group":{"antennae":"X","wings":"2","pattern":"S","legs":"X"},"bonus":1.180000000000001},{"rt":4061.2999999523163,"stimulus":"bees-with-color/bee-A1SM.svg","response":1,"trial_type":"image-button-response","trial_index":149,"time_elapsed":409694,"internal_node_id":"0.0-6.0-0.13","subject_id":"5fd4d6fc58ab92075c9c35fe","study_id":"6197b3f67c2b5cd3b6d9596a","session_id":"6197b5d4621f6fb667ef4a62","condition":"contingent","relevant_dimensions":["wings","pattern"],"bee_group":{"antennae":"X","wings":"2","pattern":"S","legs":"X"},"bonus":1.180000000000001},{"rt":940.5,"stimulus":"bees-with-color/bee-B1DM.svg","response":0,"trial_type":"image-button-response","trial_index":150,"time_elapsed":410638,"internal_node_id":"0.0-6.0-0.14","subject_id":"5fd4d6fc58ab92075c9c35fe","study_id":"6197b3f67c2b5cd3b6d9596a","session_id":"6197b5d4621f6fb667ef4a62","condition":"contingent","relevant_dimensions":["wings","pattern"],"bee_group":{"antennae":"X","wings":"2","pattern":"S","legs":"X"},"bonus":1.180000000000001},{"rt":2869,"stimulus":"bees-with-color/bee-B2SF.svg","response":1,"trial_type":"image-button-response","trial_index":151,"time_elapsed":413510,"internal_node_id":"0.0-6.0-0.15","subject_id":"5fd4d6fc58ab92075c9c35fe","study_id":"6197b3f67c2b5cd3b6d9596a","session_id":"6197b5d4621f6fb667ef4a62","condition":"contingent","relevant_dimensions":["wings","pattern"],"bee_group":{"antennae":"X","wings":"2","pattern":"S","legs":"X"},"bonus":1.180000000000001},{"rt":717.6000000238419,"stimulus":"bees-with-color/bee-B1DF.svg","response":0,"trial_type":"image-button-response","trial_index":152,"time_elapsed":414230,"internal_node_id":"0.0-6.0-0.16","subject_id":"5fd4d6fc58ab92075c9c35fe","study_id":"6197b3f67c2b5cd3b6d9596a","session_id":"6197b5d4621f6fb667ef4a62","condition":"contingent","relevant_dimensions":["wings","pattern"],"bee_group":{"antennae":"X","wings":"2","pattern":"S","legs":"X"},"bonus":1.180000000000001},{"rt":1597.5,"stimulus":"bees-with-color/bee-B2DF.svg","response":0,"trial_type":"image-button-response","trial_index":153,"time_elapsed":415830,"internal_node_id":"0.0-6.0-0.17","subject_id":"5fd4d6fc58ab92075c9c35fe","study_id":"6197b3f67c2b5cd3b6d9596a","session_id":"6197b5d4621f6fb667ef4a62","condition":"contingent","relevant_dimensions":["wings","pattern"],"bee_group":{"antennae":"X","wings":"2","pattern":"S","legs":"X"},"bonus":1.180000000000001},{"rt":1277.5,"stimulus":"bees-with-color/bee-A2DM.svg","response":1,"trial_type":"image-button-response","trial_index":154,"time_elapsed":417110,"internal_node_id":"0.0-6.0-0.18","subject_id":"5fd4d6fc58ab92075c9c35fe","study_id":"6197b3f67c2b5cd3b6d9596a","session_id":"6197b5d4621f6fb667ef4a62","condition":"contingent","relevant_dimensions":["wings","pattern"],"bee_group":{"antennae":"X","wings":"2","pattern":"S","legs":"X"},"bonus":1.180000000000001},{"rt":5277.700000047684,"stimulus":"bees-with-color/bee-B2DM.svg","response":0,"trial_type":"image-button-response","trial_index":155,"time_elapsed":422390,"internal_node_id":"0.0-6.0-0.19","subject_id":"5fd4d6fc58ab92075c9c35fe","study_id":"6197b3f67c2b5cd3b6d9596a","session_id":"6197b5d4621f6fb667ef4a62","condition":"contingent","relevant_dimensions":["wings","pattern"],"bee_group":{"antennae":"X","wings":"2","pattern":"S","legs":"X"},"bonus":1.180000000000001},{"rt":1076.6999999284744,"stimulus":"bees-with-color/bee-A2SM.svg","response":1,"trial_type":"image-button-response","trial_index":156,"time_elapsed":423470,"internal_node_id":"0.0-6.0-0.20","subject_id":"5fd4d6fc58ab92075c9c35fe","study_id":"6197b3f67c2b5cd3b6d9596a","session_id":"6197b5d4621f6fb667ef4a62","condition":"contingent","relevant_dimensions":["wings","pattern"],"bee_group":{"antennae":"X","wings":"2","pattern":"S","legs":"X"},"bonus":1.180000000000001},{"rt":2100.7000000476837,"stimulus":"bees-with-color/bee-B2SM.svg","response":1,"trial_type":"image-button-response","trial_index":157,"time_elapsed":425573,"internal_node_id":"0.0-6.0-0.21","subject_id":"5fd4d6fc58ab92075c9c35fe","study_id":"6197b3f67c2b5cd3b6d9596a","session_id":"6197b5d4621f6fb667ef4a62","condition":"contingent","relevant_dimensions":["wings","pattern"],"bee_group":{"antennae":"X","wings":"2","pattern":"S","legs":"X"},"bonus":1.180000000000001},{"rt":1007.5,"stimulus":"bees-with-color/bee-B1SM.svg","response":1,"trial_type":"image-button-response","trial_index":158,"time_elapsed":426582,"internal_node_id":"0.0-6.0-0.22","subject_id":"5fd4d6fc58ab92075c9c35fe","study_id":"6197b3f67c2b5cd3b6d9596a","session_id":"6197b5d4621f6fb667ef4a62","condition":"contingent","relevant_dimensions":["wings","pattern"],"bee_group":{"antennae":"X","wings":"2","pattern":"S","legs":"X"},"bonus":1.180000000000001},{"rt":862,"stimulus":"bees-with-color/bee-A1DF.svg","response":0,"trial_type":"image-button-response","trial_index":159,"time_elapsed":427446,"internal_node_id":"0.0-6.0-0.23","subject_id":"5fd4d6fc58ab92075c9c35fe","study_id":"6197b3f67c2b5cd3b6d9596a","session_id":"6197b5d4621f6fb667ef4a62","condition":"contingent","relevant_dimensions":["wings","pattern"],"bee_group":{"antennae":"X","wings":"2","pattern":"S","legs":"X"},"bonus":1.180000000000001},{"rt":1157.6000000238419,"stimulus":"bees-with-color/bee-B1SF.svg","response":1,"trial_type":"image-button-response","trial_index":160,"time_elapsed":428605,"internal_node_id":"0.0-6.0-0.24","subject_id":"5fd4d6fc58ab92075c9c35fe","study_id":"6197b3f67c2b5cd3b6d9596a","session_id":"6197b5d4621f6fb667ef4a62","condition":"contingent","relevant_dimensions":["wings","pattern"],"bee_group":{"antennae":"X","wings":"2","pattern":"S","legs":"X"},"bonus":1.180000000000001},{"rt":886.8999999761581,"stimulus":"bees-with-color/bee-B2SF.svg","response":1,"trial_type":"image-button-response","trial_index":161,"time_elapsed":429494,"internal_node_id":"0.0-6.0-0.25","subject_id":"5fd4d6fc58ab92075c9c35fe","study_id":"6197b3f67c2b5cd3b6d9596a","session_id":"6197b5d4621f6fb667ef4a62","condition":"contingent","relevant_dimensions":["wings","pattern"],"bee_group":{"antennae":"X","wings":"2","pattern":"S","legs":"X"},"bonus":1.180000000000001},{"rt":1077.5,"stimulus":"bees-with-color/bee-A1DM.svg","response":0,"trial_type":"image-button-response","trial_index":162,"time_elapsed":430574,"internal_node_id":"0.0-6.0-0.26","subject_id":"5fd4d6fc58ab92075c9c35fe","study_id":"6197b3f67c2b5cd3b6d9596a","session_id":"6197b5d4621f6fb667ef4a62","condition":"contingent","relevant_dimensions":["wings","pattern"],"bee_group":{"antennae":"X","wings":"2","pattern":"S","legs":"X"},"bonus":1.180000000000001},{"rt":1062.2000000476837,"stimulus":"bees-with-color/bee-A2SF.svg","response":1,"trial_type":"image-button-response","trial_index":163,"time_elapsed":431638,"internal_node_id":"0.0-6.0-0.27","subject_id":"5fd4d6fc58ab92075c9c35fe","study_id":"6197b3f67c2b5cd3b6d9596a","session_id":"6197b5d4621f6fb667ef4a62","condition":"contingent","relevan