[{"success":true,"trial_type":"fullscreen","trial_index":0,"time_elapsed":51799,"internal_node_id":"0.0-0.0","subject_id":"6051f9a32647a5a8f1dc723a","study_id":"60edd13110225f80f9f3709b","session_id":"6196c1f7f3a302e6d7ef6cec","condition":"contingent","relevant_dimensions":["antennae","legs"],"bee_group":{"antennae":"B","wings":"X","pattern":"X","legs":"M"},"bonus":0.9600000000000009},{"success":true,"timeout":false,"failed_images":[],"failed_audio":[],"failed_video":[],"trial_type":"preload","trial_index":1,"time_elapsed":54496,"internal_node_id":"0.0-1.0","subject_id":"6051f9a32647a5a8f1dc723a","study_id":"60edd13110225f80f9f3709b","session_id":"6196c1f7f3a302e6d7ef6cec","condition":"contingent","relevant_dimensions":["antennae","legs"],"bee_group":{"antennae":"B","wings":"X","pattern":"X","legs":"M"},"bonus":0.9600000000000009},{"rt":6213.29999999702,"stimulus":"Welcome! Press any key to begin.","response":"f","trial_type":"html-keyboard-response","trial_index":2,"time_elapsed":60709,"internal_node_id":"0.0-2.0","subject_id":"6051f9a32647a5a8f1dc723a","study_id":"60edd13110225f80f9f3709b","session_id":"6196c1f7f3a302e6d7ef6cec","condition":"contingent","relevant_dimensions":["antennae","legs"],"bee_group":{"antennae":"B","wings":"X","pattern":"X","legs":"M"},"bonus":0.9600000000000009},{"view_history":[{"page_index":0,"viewing_time":5408.599999997765},{"page_index":1,"viewing_time":31531},{"page_index":2,"viewing_time":20628.699999999255},{"page_index":3,"viewing_time":18744.300000000745},{"page_index":4,"viewing_time":4435.699999999255},{"page_index":5,"viewing_time":10405.800000000745},{"page_index":6,"viewing_time":7793},{"page_index":7,"viewing_time":10022.699999999255},{"page_index":8,"viewing_time":11335.900000002235},{"page_index":9,"viewing_time":5265.599999997765},{"page_index":10,"viewing_time":3270.10000000149},{"page_index":11,"viewing_time":19428.60000000149},{"page_index":12,"viewing_time":9391.79999999702},{"page_index":13,"viewing_time":1708.9000000022352},{"page_index":14,"viewing_time":2304.300000000745}],"rt":161675.5,"trial_type":"instructions","trial_index":3,"time_elapsed":222385,"internal_node_id":"0.0-3.0-0.0","subject_id":"6051f9a32647a5a8f1dc723a","study_id":"60edd13110225f80f9f3709b","session_id":"6196c1f7f3a302e6d7ef6cec","condition":"contingent","relevant_dimensions":["antennae","legs"],"bee_group":{"antennae":"B","wings":"X","pattern":"X","legs":"M"},"bonus":0.9600000000000009},{"rt":16813.20000000298,"response":{"Q0":["Two or six legs","Stripes or spots on body","Single or double wings","Antennae or no antennae"]},"question_order":[0],"trial_type":"survey-multi-select","trial_index":4,"time_elapsed":239230,"internal_node_id":"0.0-3.0-1.0","subject_id":"6051f9a32647a5a8f1dc723a","study_id":"60edd13110225f80f9f3709b","session_id":"6196c1f7f3a302e6d7ef6cec","condition":"contingent","relevant_dimensions":["antennae","legs"],"bee_group":{"antennae":"B","wings":"X","pattern":"X","legs":"M"},"correct":true,"bonus":0.9600000000000009},{"rt":21883.800000000745,"response":{"Q1":"No.","Q2":"Based on the four features of the bee.","Q3":"You do not learn if it was friendly or dangerous, and do not alter your bonus."},"question_order":[0,1,2],"trial_type":"survey-multi-choice","trial_index":5,"time_elapsed":261187,"internal_node_id":"0.0-3.0-2.0","subject_id":"6051f9a32647a5a8f1dc723a","study_id":"60edd13110225f80f9f3709b","session_id":"6196c1f7f3a302e6d7ef6cec","condition":"contingent","relevant_dimensions":["antennae","legs"],"bee_group":{"antennae":"B","wings":"X","pattern":"X","legs":"M"},"correct":true,"bonus":0.9600000000000009},{"rt":3280.400000002235,"stimulus":"<p>Congrats, you got everything right<br>When you're ready, click the button below to continue to the experiment.</p>","response":0,"trial_type":"html-button-response","trial_index":6,"time_elapsed":264469,"internal_node_id":"0.0-3.0-3.0","subject_id":"6051f9a32647a5a8f1dc723a","study_id":"60edd13110225f80f9f3709b","session_id":"6196c1f7f3a302e6d7ef6cec","condition":"contingent","relevant_dimensions":["antennae","legs"],"bee_group":{"antennae":"B","wings":"X","pattern":"X","legs":"M"},"bonus":0.9600000000000009},{"rt":11951.800000000745,"stimulus":"bees-with-color/bee-B1DF.svg","response":0,"trial_type":"image-button-response","trial_index":7,"time_elapsed":276425,"internal_node_id":"0.0-4.0-0.0","subject_id":"6051f9a32647a5a8f1dc723a","study_id":"60edd13110225f80f9f3709b","session_id":"6196c1f7f3a302e6d7ef6cec","condition":"contingent","relevant_dimensions":["antennae","legs"],"bee_group":{"antennae":"B","wings":"X","pattern":"X","legs":"M"},"action":"harvest","summary":"good-harvest","bonus":0.9600000000000009},{"rt":7839.29999999702,"stimulus":"\n                    <p><b>Action: <em>harvest</em></b></p>\n                    <p>This is the bee that you just saw.</p>\n                    <img src=\"bees-with-color/bee-B1DF.svg\" width=\"200\">\n                    <p><span class=\"greenText\"><b>Successful harvest!</b></span><br>Your pay has increased by $0.02. Your bonus pay is now $0.56.</p>\n            ","response":0,"trial_type":"html-button-response","trial_index":8,"time_elapsed":284268,"internal_node_id":"0.0-4.0-1.0","subject_id":"6051f9a32647a5a8f1dc723a","study_id":"60edd13110225f80f9f3709b","session_id":"6196c1f7f3a302e6d7ef6cec","condition":"contingent","relevant_dimensions":["antennae","legs"],"bee_group":{"antennae":"B","wings":"X","pattern":"X","legs":"M"},"bonus":0.9600000000000009},{"rt":2896,"stimulus":"bees-with-color/bee-A1DF.svg","response":1,"trial_type":"image-button-response","trial_index":9,"time_elapsed":287166,"internal_node_id":"0.0-4.0-0.1","subject_id":"6051f9a32647a5a8f1dc723a","study_id":"60edd13110225f80f9f3709b","session_id":"6196c1f7f3a302e6d7ef6cec","condition":"contingent","relevant_dimensions":["antennae","legs"],"bee_group":{"antennae":"B","wings":"X","pattern":"X","legs":"M"},"action":"avoid","summary":"bad-avoid","bonus":0.9600000000000009},{"rt":22930.5,"stimulus":"\n                    <p><b>Action: <em>avoid</em></b></p>\n                    <p>This is the bee that you just saw.</p>\n                    <img src=\"bees-with-color/bee-A1DF.svg\" width=\"200\">\n                    <p><br>Your bonus pay is unchanged, and remains at $0.56.</p>\n            ","response":0,"trial_type":"html-button-response","trial_index":10,"time_elapsed":310099,"internal_node_id":"0.0-4.0-1.1","subject_id":"6051f9a32647a5a8f1dc723a","study_id":"60edd13110225f80f9f3709b","session_id":"6196c1f7f3a302e6d7ef6cec","condition":"contingent","relevant_dimensions":["antennae","legs"],"bee_group":{"antennae":"B","wings":"X","pattern":"X","legs":"M"},"bonus":0.9600000000000009},{"rt":4742.900000002235,"stimulus":"bees-with-color/bee-B2DM.svg","response":0,"trial_type":"image-button-response","trial_index":11,"time_elapsed":314844,"internal_node_id":"0.0-4.0-0.2","subject_id":"6051f9a32647a5a8f1dc723a","study_id":"60edd13110225f80f9f3709b","session_id":"6196c1f7f3a302e6d7ef6cec","condition":"contingent","relevant_dimensions":["antennae","legs"],"bee_group":{"antennae":"B","wings":"X","pattern":"X","legs":"M"},"action":"harvest","summary":"bad-harvest","bonus":0.9600000000000009},{"rt":15337.800000000745,"stimulus":"\n                    <p><b>Action: <em>harvest</em></b></p>\n                    <p>This is the bee that you just saw.</p>\n                    <img src=\"bees-with-color/bee-B2DM.svg\" width=\"200\">\n                    <p><span class=\"redText\">Bad choice, the bee was angry.</span><br><b>You have been stung!</b><br>Your pay has been decreased by $0.10. Your bonus pay is now $0.46.</p>\n            ","response":0,"trial_type":"html-button-response","trial_index":12,"time_elapsed":330184,"internal_node_id":"0.0-4.0-1.2","subject_id":"6051f9a32647a5a8f1dc723a","study_id":"60edd13110225f80f9f3709b","session_id":"6196c1f7f3a302e6d7ef6cec","condition":"contingent","relevant_dimensions":["antennae","legs"],"bee_group":{"antennae":"B","wings":"X","pattern":"X","legs":"M"},"bonus":0.9600000000000009},{"rt":8719.29999999702,"stimulus":"bees-with-color/bee-A2DM.svg","response":1,"trial_type":"image-button-response","trial_index":13,"time_elapsed":338905,"internal_node_id":"0.0-4.0-0.3","subject_id":"6051f9a32647a5a8f1dc723a","study_id":"60edd13110225f80f9f3709b","session_id":"6196c1f7f3a302e6d7ef6cec","condition":"contingent","relevant_dimensions":["antennae","legs"],"bee_group":{"antennae":"B","wings":"X","pattern":"X","legs":"M"},"action":"avoid","summary":"bad-avoid","bonus":0.9600000000000009},{"rt":1992.9000000022352,"stimulus":"\n                    <p><b>Action: <em>avoid</em></b></p>\n                    <p>This is the bee that you just saw.</p>\n                    <img src=\"bees-with-color/bee-A2DM.svg\" width=\"200\">\n                    <p><br>Your bonus pay is unchanged, and remains at $0.46.</p>\n            ","response":0,"trial_type":"html-button-response","trial_index":14,"time_elapsed":340900,"internal_node_id":"0.0-4.0-1.3","subject_id":"6051f9a32647a5a8f1dc723a","study_id":"60edd13110225f80f9f3709b","session_id":"6196c1f7f3a302e6d7ef6cec","condition":"contingent","relevant_dimensions":["antennae","legs"],"bee_group":{"antennae":"B","wings":"X","pattern":"X","legs":"M"},"bonus":0.9600000000000009},{"rt":3244.300000000745,"stimulus":"bees-with-color/bee-A2DF.svg","response":1,"trial_type":"image-button-response","trial_index":15,"time_elapsed":344147,"internal_node_id":"0.0-4.0-0.4","subject_id":"6051f9a32647a5a8f1dc723a","study_id":"60edd13110225f80f9f3709b","session_id":"6196c1f7f3a302e6d7ef6cec","condition":"contingent","relevant_dimensions":["antennae","legs"],"bee_group":{"antennae":"B","wings":"X","pattern":"X","legs":"M"},"action":"avoid","summary":"bad-avoid","bonus":0.9600000000000009},{"rt":1595.800000000745,"stimulus":"\n                    <p><b>Action: <em>avoid</em></b></p>\n                    <p>This is the bee that you just saw.</p>\n                    <img src=\"bees-with-color/bee-A2DF.svg\" width=\"200\">\n                    <p><br>Your bonus pay is unchanged, and remains at $0.46.</p>\n            ","response":0,"trial_type":"html-button-response","trial_index":16,"time_elapsed":345744,"internal_node_id":"0.0-4.0-1.4","subject_id":"6051f9a32647a5a8f1dc723a","study_id":"60edd13110225f80f9f3709b","session_id":"6196c1f7f3a302e6d7ef6cec","condition":"contingent","relevant_dimensions":["antennae","legs"],"bee_group":{"antennae":"B","wings":"X","pattern":"X","legs":"M"},"bonus":0.9600000000000009},{"rt":1546.699999999255,"stimulus":"bees-with-color/bee-B2SM.svg","response":0,"trial_type":"image-button-response","trial_index":17,"time_elapsed":347293,"internal_node_id":"0.0-4.0-0.5","subject_id":"6051f9a32647a5a8f1dc723a","study_id":"60edd13110225f80f9f3709b","session_id":"6196c1f7f3a302e6d7ef6cec","condition":"contingent","relevant_dimensions":["antennae","legs"],"bee_group":{"antennae":"B","wings":"X","pattern":"X","legs":"M"},"action":"harvest","summary":"bad-harvest","bonus":0.9600000000000009},{"rt":6491.199999999255,"stimulus":"\n                    <p><b>Action: <em>harvest</em></b></p>\n                    <p>This is the bee that you just saw.</p>\n                    <img src=\"bees-with-color/bee-B2SM.svg\" width=\"200\">\n                    <p><span class=\"redText\">Bad choice, the bee was angry.</span><br><b>You have been stung!</b><br>Your pay has been decreased by $0.10. Your bonus pay is now $0.36.</p>\n            ","response":0,"trial_type":"html-button-response","trial_index":18,"time_elapsed":353787,"internal_node_id":"0.0-4.0-1.5","subject_id":"6051f9a32647a5a8f1dc723a","study_id":"60edd13110225f80f9f3709b","session_id":"6196c1f7f3a302e6d7ef6cec","condition":"contingent","relevant_dimensions":["antennae","legs"],"bee_group":{"antennae":"B","wings":"X","pattern":"X","legs":"M"},"bonus":0.9600000000000009},{"rt":2909.800000000745,"stimulus":"bees-with-color/bee-A2SF.svg","response":0,"trial_type":"image-button-response","trial_index":19,"time_elapsed":356699,"internal_node_id":"0.0-4.0-0.6","subject_id":"6051f9a32647a5a8f1dc723a","study_id":"60edd13110225f80f9f3709b","session_id":"6196c1f7f3a302e6d7ef6cec","condition":"contingent","relevant_dimensions":["antennae","legs"],"bee_group":{"antennae":"B","wings":"X","pattern":"X","legs":"M"},"action":"harvest","summary":"good-harvest","bonus":0.9600000000000009},{"rt":5511.300000000745,"stimulus":"\n                    <p><b>Action: <em>harvest</em></b></p>\n                    <p>This is the bee that you just saw.</p>\n                    <img src=\"bees-with-color/bee-A2SF.svg\" width=\"200\">\n                    <p><span class=\"greenText\"><b>Successful harvest!</b></span><br>Your pay has increased by $0.02. Your bonus pay is now $0.38.</p>\n            ","response":0,"trial_type":"html-button-response","trial_index":20,"time_elapsed":362213,"internal_node_id":"0.0-4.0-1.6","subject_id":"6051f9a32647a5a8f1dc723a","study_id":"60edd13110225f80f9f3709b","session_id":"6196c1f7f3a302e6d7ef6cec","condition":"contingent","relevant_dimensions":["antennae","legs"],"bee_group":{"antennae":"B","wings":"X","pattern":"X","legs":"M"},"bonus":0.9600000000000009},{"rt":2846.7000000029802,"stimulus":"bees-with-color/bee-A1SF.svg","response":0,"trial_type":"image-button-response","trial_index":21,"time_elapsed":365063,"internal_node_id":"0.0-4.0-0.7","subject_id":"6051f9a32647a5a8f1dc723a","study_id":"60edd13110225f80f9f3709b","session_id":"6196c1f7f3a302e6d7ef6cec","condition":"contingent","relevant_dimensions":["antennae","legs"],"bee_group":{"antennae":"B","wings":"X","pattern":"X","legs":"M"},"action":"harvest","summary":"good-harvest","bonus":0.9600000000000009},{"rt":4608.5,"stimulus":"\n                    <p><b>Action: <em>harvest</em></b></p>\n                    <p>This is the bee that you just saw.</p>\n                    <img src=\"bees-with-color/bee-A1SF.svg\" width=\"200\">\n                    <p><span class=\"greenText\"><b>Successful harvest!</b></span><br>Your pay has increased by $0.02. Your bonus pay is now $0.40.</p>\n            ","response":0,"trial_type":"html-button-response","trial_index":22,"time_elapsed":369673,"internal_node_id":"0.0-4.0-1.7","subject_id":"6051f9a32647a5a8f1dc723a","study_id":"60edd13110225f80f9f3709b","session_id":"6196c1f7f3a302e6d7ef6cec","condition":"contingent","relevant_dimensions":["antennae","legs"],"bee_group":{"antennae":"B","wings":"X","pattern":"X","legs":"M"},"bonus":0.9600000000000009},{"rt":1893.4000000022352,"stimulus":"bees-with-color/bee-B1SM.svg","response":1,"trial_type":"image-button-response","trial_index":23,"time_elapsed":371569,"internal_node_id":"0.0-4.0-0.8","subject_id":"6051f9a32647a5a8f1dc723a","study_id":"60edd13110225f80f9f3709b","session_id":"6196c1f7f3a302e6d7ef6cec","condition":"contingent","relevant_dimensions":["antennae","legs"],"bee_group":{"antennae":"B","wings":"X","pattern":"X","legs":"M"},"action":"avoid","summary":"good-avoid","bonus":0.9600000000000009},{"rt":1313.0999999977648,"stimulus":"\n                    <p><b>Action: <em>avoid</em></b></p>\n                    <p>This is the bee that you just saw.</p>\n                    <img src=\"bees-with-color/bee-B1SM.svg\" width=\"200\">\n                    <p><br>Your bonus pay is unchanged, and remains at $0.40.</p>\n            ","response":0,"trial_type":"html-button-response","trial_index":24,"time_elapsed":372884,"internal_node_id":"0.0-4.0-1.8","subject_id":"6051f9a32647a5a8f1dc723a","study_id":"60edd13110225f80f9f3709b","session_id":"6196c1f7f3a302e6d7ef6cec","condition":"contingent","relevant_dimensions":["antennae","legs"],"bee_group":{"antennae":"B","wings":"X","pattern":"X","legs":"M"},"bonus":0.9600000000000009},{"rt":1770.3999999985099,"stimulus":"bees-with-color/bee-B1SF.svg","response":0,"trial_type":"image-button-response","trial_index":25,"time_elapsed":374656,"internal_node_id":"0.0-4.0-0.9","subject_id":"6051f9a32647a5a8f1dc723a","study_id":"60edd13110225f80f9f3709b","session_id":"6196c1f7f3a302e6d7ef6cec","condition":"contingent","relevant_dimensions":["antennae","legs"],"bee_group":{"antennae":"B","wings":"X","pattern":"X","legs":"M"},"action":"harvest","summary":"good-harvest","bonus":0.9600000000000009},{"rt":2190.89999999851,"stimulus":"\n                    <p><b>Action: <em>harvest</em></b></p>\n                    <p>This is the bee that you just saw.</p>\n                    <img src=\"bees-with-color/bee-B1SF.svg\" width=\"200\">\n                    <p><span class=\"greenText\"><b>Successful harvest!</b></span><br>Your pay has increased by $0.02. Your bonus pay is now $0.42.</p>\n            ","response":0,"trial_type":"html-button-response","trial_index":26,"time_elapsed":376848,"internal_node_id":"0.0-4.0-1.9","subject_id":"6051f9a32647a5a8f1dc723a","study_id":"60edd13110225f80f9f3709b","session_id":"6196c1f7f3a302e6d7ef6cec","condition":"contingent","relevant_dimensions":["antennae","legs"],"bee_group":{"antennae":"B","wings":"X","pattern":"X","legs":"M"},"bonus":0.9600000000000009},{"rt":4149.800000000745,"stimulus":"bees-with-color/bee-A1DM.svg","response":1,"trial_type":"image-button-response","trial_index":27,"time_elapsed":381000,"internal_node_id":"0.0-4.0-0.10","subject_id":"6051f9a32647a5a8f1dc723a","study_id":"60edd13110225f80f9f3709b","session_id":"6196c1f7f3a302e6d7ef6cec","condition":"contingent","relevant_dimensions":["antennae","legs"],"bee_group":{"antennae":"B","wings":"X","pattern":"X","legs":"M"},"action":"avoid","summary":"bad-avoid","bonus":0.9600000000000009},{"rt":1497.5,"stimulus":"\n                    <p><b>Action: <em>avoid</em></b></p>\n                    <p>This is the bee that you just saw.</p>\n                    <img src=\"bees-with-color/bee-A1DM.svg\" width=\"200\">\n                    <p><br>Your bonus pay is unchanged, and remains at $0.42.</p>\n            ","response":0,"trial_type":"html-button-response","trial_index":28,"time_elapsed":382499,"internal_node_id":"0.0-4.0-1.10","subject_id":"6051f9a32647a5a8f1dc723a","study_id":"60edd13110225f80f9f3709b","session_id":"6196c1f7f3a302e6d7ef6cec","condition":"contingent","relevant_dimensions":["antennae","legs"],"bee_group":{"antennae":"B","wings":"X","pattern":"X","legs":"M"},"bonus":0.9600000000000009},{"rt":2475.39999999851,"stimulus":"bees-with-color/bee-A2SM.svg","response":1,"trial_type":"image-button-response","trial_index":29,"time_elapsed":384976,"internal_node_id":"0.0-4.0-0.11","subject_id":"6051f9a32647a5a8f1dc723a","study_id":"60edd13110225f80f9f3709b","session_id":"6196c1f7f3a302e6d7ef6cec","condition":"contingent","relevant_dimensions":["antennae","legs"],"bee_group":{"antennae":"B","wings":"X","pattern":"X","legs":"M"},"action":"avoid","summary":"bad-avoid","bonus":0.9600000000000009},{"rt":1237.8999999985099,"stimulus":"\n                    <p><b>Action: <em>avoid</em></b></p>\n                    <p>This is the bee that you just saw.</p>\n                    <img src=\"bees-with-color/bee-A2SM.svg\" width=\"200\">\n                    <p><br>Your bonus pay is unchanged, and remains at $0.42.</p>\n            ","response":0,"trial_type":"html-button-response","trial_index":30,"time_elapsed":386216,"internal_node_id":"0.0-4.0-1.11","subject_id":"6051f9a32647a5a8f1dc723a","study_id":"60edd13110225f80f9f3709b","session_id":"6196c1f7f3a302e6d7ef6cec","condition":"contingent","relevant_dimensions":["antennae","legs"],"bee_group":{"antennae":"B","wings":"X","pattern":"X","legs":"M"},"bonus":0.9600000000000009},{"rt":2116.400000002235,"stimulus":"bees-with-color/bee-B1DM.svg","response":1,"trial_type":"image-button-response","trial_index":31,"time_elapsed":388335,"internal_node_id":"0.0-4.0-0.12","subject_id":"6051f9a32647a5a8f1dc723a","study_id":"60edd13110225f80f9f3709b","session_id":"6196c1f7f3a302e6d7ef6cec","condition":"contingent","relevant_dimensions":["antennae","legs"],"bee_group":{"antennae":"B","wings":"X","pattern":"X","legs":"M"},"action":"avoid","summary":"good-avoid","bonus":0.9600000000000009},{"rt":1015.3000000007451,"stimulus":"\n                    <p><b>Action: <em>avoid</em></b></p>\n                    <p>This is the bee that you just saw.</p>\n                    <img src=\"bees-with-color/bee-B1DM.svg\" width=\"200\">\n                    <p><br>Your bonus pay is unchanged, and remains at $0.42.</p>\n            ","response":0,"trial_type":"html-button-response","trial_index":32,"time_elapsed":389352,"internal_node_id":"0.0-4.0-1.12","subject_id":"6051f9a32647a5a8f1dc723a","study_id":"60edd13110225f80f9f3709b","session_id":"6196c1f7f3a302e6d7ef6cec","condition":"contingent","relevant_dimensions":["antennae","legs"],"bee_group":{"antennae":"B","wings":"X","pattern":"X","legs":"M"},"bonus":0.9600000000000009},{"rt":2203.199999999255,"stimulus":"bees-with-color/bee-B2DF.svg","response":0,"trial_type":"image-button-response","trial_index":33,"time_elapsed":391557,"internal_node_id":"0.0-4.0-0.13","subject_id":"6051f9a32647a5a8f1dc723a","study_id":"60edd13110225f80f9f3709b","session_id":"6196c1f7f3a302e6d7ef6cec","condition":"contingent","relevant_dimensions":["antennae","legs"],"bee_group":{"antennae":"B","wings":"X","pattern":"X","legs":"M"},"action":"harvest","summary":"good-harvest","bonus":0.9600000000000009},{"rt":2241.199999999255,"stimulus":"\n                    <p><b>Action: <em>harvest</em></b></p>\n                    <p>This is the bee that you just saw.</p>\n                    <img src=\"bees-with-color/bee-B2DF.svg\" width=\"200\">\n                    <p><span class=\"greenText\"><b>Successful harvest!</b></span><br>Your pay has increased by $0.02. Your bonus pay is now $0.44.</p>\n            ","response":0,"trial_type":"html-button-response","trial_index":34,"time_elapsed":393800,"internal_node_id":"0.0-4.0-1.13","subject_id":"6051f9a32647a5a8f1dc723a","study_id":"60edd13110225f80f9f3709b","session_id":"6196c1f7f3a302e6d7ef6cec","condition":"contingent","relevant_dimensions":["antennae","legs"],"bee_group":{"antennae":"B","wings":"X","pattern":"X","legs":"M"},"bonus":0.9600000000000009},{"rt":1324.2999999970198,"stimulus":"bees-with-color/bee-B2SF.svg","response":0,"trial_type":"image-button-response","trial_index":35,"time_elapsed":395126,"internal_node_id":"0.0-4.0-0.14","subject_id":"6051f9a32647a5a8f1dc723a","study_id":"60edd13110225f80f9f3709b","session_id":"6196c1f7f3a302e6d7ef6cec","condition":"contingent","relevant_dimensions":["antennae","legs"],"bee_group":{"antennae":"B","wings":"X","pattern":"X","legs":"M"},"action":"harvest","summary":"good-harvest","bonus":0.9600000000000009},{"rt":1832.0999999977648,"stimulus":"\n                    <p><b>Action: <em>harvest</em></b></p>\n                    <p>This is the bee that you just saw.</p>\n                    <img src=\"bees-with-color/bee-B2SF.svg\" width=\"200\">\n                    <p><span class=\"greenText\"><b>Successful harvest!</b></span><br>Your pay has increased by $0.02. Your bonus pay is now $0.46.</p>\n            ","response":0,"trial_type":"html-button-response","trial_index":36,"time_elapsed":396960,"internal_node_id":"0.0-4.0-1.14","subject_id":"6051f9a32647a5a8f1dc723a","study_id":"60edd13110225f80f9f3709b","session_id":"6196c1f7f3a302e6d7ef6cec","condition":"contingent","relevant_dimensions":["antennae","legs"],"bee_group":{"antennae":"B","wings":"X","pattern":"X","legs":"M"},"bonus":0.9600000000000009},{"rt":2217.5,"stimulus":"bees-with-color/bee-A1SM.svg","response":0,"trial_type":"image-button-response","trial_index":37,"time_elapsed":399179,"internal_node_id":"0.0-4.0-0.15","subject_id":"6051f9a32647a5a8f1dc723a","study_id":"60edd13110225f80f9f3709b","session_id":"6196c1f7f3a302e6d7ef6cec","condition":"contingent","relevant_dimensions":["antennae","legs"],"bee_group":{"antennae":"B","wings":"X","pattern":"X","legs":"M"},"action":"harvest","summary":"good-harvest","bonus":0.9600000000000009},{"rt":4284.89999999851,"stimulus":"\n                    <p><b>Action: <em>harvest</em></b></p>\n                    <p>This is the bee that you just saw.</p>\n                    <img src=\"bees-with-color/bee-A1SM.svg\" width=\"200\">\n                    <p><span class=\"greenText\"><b>Successful harvest!</b></span><br>Your pay has increased by $0.02. Your bonus pay is now $0.48.</p>\n            ","response":0,"trial_type":"html-button-response","trial_index":38,"time_elapsed":403466,"internal_node_id":"0.0-4.0-1.15","subject_id":"6051f9a32647a5a8f1dc723a","study_id":"60edd13110225f80f9f3709b","session_id":"6196c1f7f3a302e6d7ef6cec","condition":"contingent","relevant_dimensions":["antennae","legs"],"bee_group":{"antennae":"B","wings":"X","pattern":"X","legs":"M"},"bonus":0.9600000000000009},{"rt":1869,"stimulus":"bees-with-color/bee-A1SM.svg","response":0,"trial_type":"image-button-response","trial_index":39,"time_elapsed":405337,"internal_node_id":"0.0-4.0-0.16","subject_id":"6051f9a32647a5a8f1dc723a","study_id":"60edd13110225f80f9f3709b","session_id":"6196c1f7f3a302e6d7ef6cec","condition":"contingent","relevant_dimensions":["antennae","legs"],"bee_group":{"antennae":"B","wings":"X","pattern":"X","legs":"M"},"action":"harvest","summary":"good-harvest","bonus":0.9600000000000009},{"rt":2488.5,"stimulus":"\n                    <p><b>Action: <em>harvest</em></b></p>\n                    <p>This is the bee that you just saw.</p>\n                    <img src=\"bees-with-color/bee-A1SM.svg\" width=\"200\">\n                    <p><span class=\"greenText\"><b>Successful harvest!</b></span><br>Your pay has increased by $0.02. Your bonus pay is now $0.50.</p>\n            ","response":0,"trial_type":"html-button-response","trial_index":40,"time_elapsed":407828,"internal_node_id":"0.0-4.0-1.16","subject_id":"6051f9a32647a5a8f1dc723a","study_id":"60edd13110225f80f9f3709b","session_id":"6196c1f7f3a302e6d7ef6cec","condition":"contingent","relevant_dimensions":["antennae","legs"],"bee_group":{"antennae":"B","wings":"X","pattern":"X","legs":"M"},"bonus":0.9600000000000009},{"rt":1373.4000000022352,"stimulus":"bees-with-color/bee-B2SM.svg","response":1,"trial_type":"image-button-response","trial_index":41,"time_elapsed":409203,"internal_node_id":"0.0-4.0-0.17","subject_id":"6051f9a32647a5a8f1dc723a","study_id":"60edd13110225f80f9f3709b","session_id":"6196c1f7f3a302e6d7ef6cec","condition":"contingent","relevant_dimensions":["antennae","legs"],"bee_group":{"antennae":"B","wings":"X","pattern":"X","legs":"M"},"action":"avoid","summary":"good-avoid","bonus":0.9600000000000009},{"rt":1447.800000000745,"stimulus":"\n                    <p><b>Action: <em>avoid</em></b></p>\n                    <p>This is the bee that you just saw.</p>\n                    <img src=\"bees-with-color/bee-B2SM.svg\" width=\"200\">\n                    <p><br>Your bonus pay is unchanged, and remains at $0.50.</p>\n            ","response":0,"trial_type":"html-button-response","trial_index":42,"time_elapsed":410653,"internal_node_id":"0.0-4.0-1.17","subject_id":"6051f9a32647a5a8f1dc723a","study_id":"60edd13110225f80f9f3709b","session_id":"6196c1f7f3a302e6d7ef6cec","condition":"contingent","relevant_dimensions":["antennae","legs"],"bee_group":{"antennae":"B","wings":"X","pattern":"X","legs":"M"},"bonus":0.9600000000000009},{"rt":1621.699999999255,"stimulus":"bees-with-color/bee-B1SF.svg","response":0,"trial_type":"image-button-response","trial_index":43,"time_elapsed":412277,"internal_node_id":"0.0-4.0-0.18","subject_id":"6051f9a32647a5a8f1dc723a","study_id":"60edd13110225f80f9f3709b","session_id":"6196c1f7f3a302e6d7ef6cec","condition":"contingent","relevant_dimensions":["antennae","legs"],"bee_group":{"antennae":"B","wings":"X","pattern":"X","legs":"M"},"action":"harvest","summary":"good-harvest","bonus":0.9600000000000009},{"rt":2874,"stimulus":"\n                    <p><b>Action: <em>harvest</em></b></p>\n                    <p>This is the bee that you just saw.</p>\n                    <img src=\"bees-with-color/bee-B1SF.svg\" width=\"200\">\n                    <p><span class=\"greenText\"><b>Successful harvest!</b></span><br>Your pay has increased by $0.02. Your bonus pay is now $0.52.</p>\n            ","response":0,"trial_type":"html-button-response","trial_index":44,"time_elapsed":415152,"internal_node_id":"0.0-4.0-1.18","subject_id":"6051f9a32647a5a8f1dc723a","study_id":"60edd13110225f80f9f3709b","session_id":"6196c1f7f3a302e6d7ef6cec","condition":"contingent","relevant_dimensions":["antennae","legs"],"bee_group":{"antennae":"B","wings":"X","pattern":"X","legs":"M"},"bonus":0.9600000000000009},{"rt":2054.699999999255,"stimulus":"bees-with-color/bee-B1DF.svg","response":0,"trial_type":"image-button-response","trial_index":45,"time_elapsed":417209,"internal_node_id":"0.0-4.0-0.19","subject_id":"6051f9a32647a5a8f1dc723a","study_id":"60edd13110225f80f9f3709b","session_id":"6196c1f7f3a302e6d7ef6cec","condition":"contingent","relevant_dimensions":["antennae","legs"],"bee_group":{"antennae":"B","wings":"X","pattern":"X","legs":"M"},"action":"harvest","summary":"good-harvest","bonus":0.9600000000000009},{"rt":1806.9000000022352,"stimulus":"\n                    <p><b>Action: <em>harvest</em></b></p>\n                    <p>This is the bee that you just saw.</p>\n                    <img src=\"bees-with-color/bee-B1DF.svg\" width=\"200\">\n                    <p><span class=\"greenText\"><b>Successful harvest!</b></span><br>Your pay has increased by $0.02. Your bonus pay is now $0.54.</p>\n            ","response":0,"trial_type":"html-button-response","trial_index":46,"time_elapsed":419018,"internal_node_id":"0.0-4.0-1.19","subject_id":"6051f9a32647a5a8f1dc723a","study_id":"60edd13110225f80f9f3709b","session_id":"6196c1f7f3a302e6d7ef6cec","condition":"contingent","relevant_dimensions":["antennae","legs"],"bee_group":{"antennae":"B","wings":"X","pattern":"X","legs":"M"},"bonus":0.9600000000000009},{"rt":1981.199999999255,"stimulus":"bees-with-color/bee-A1DF.svg","response":0,"trial_type":"image-button-response","trial_index":47,"time_elapsed":421001,"internal_node_id":"0.0-4.0-0.20","subject_id":"6051f9a32647a5a8f1dc723a","study_id":"60edd13110225f80f9f3709b","session_id":"6196c1f7f3a302e6d7ef6cec","condition":"contingent","relevant_dimensions":["antennae","legs"],"bee_group":{"antennae":"B","wings":"X","pattern":"X","legs":"M"},"action":"harvest","summary":"good-harvest","bonus":0.9600000000000009},{"rt":1298.5,"stimulus":"\n                    <p><b>Action: <em>harvest</em></b></p>\n                    <p>This is the bee that you just saw.</p>\n                    <img src=\"bees-with-color/bee-A1DF.svg\" width=\"200\">\n                    <p><span class=\"greenText\"><b>Successful harvest!</b></span><br>Your pay has increased by $0.02. Your bonus pay is now $0.56.</p>\n            ","response":0,"trial_type":"html-button-response","trial_index":48,"time_elapsed":422302,"internal_node_id":"0.0-4.0-1.20","subject_id":"6051f9a32647a5a8f1dc723a","study_id":"60edd13110225f80f9f3709b","session_id":"6196c1f7f3a302e6d7ef6cec","condition":"contingent","relevant_dimensions":["antennae","legs"],"bee_group":{"antennae":"B","wings":"X","pattern":"X","legs":"M"},"bonus":0.9600000000000009},{"rt":2279,"stimulus":"bees-with-color/bee-A1DM.svg","response":0,"trial_type":"image-button-response","trial_index":49,"time_elapsed":424583,"internal_node_id":"0.0-4.0-0.21","subject_id":"6051f9a32647a5a8f1dc723a","study_id":"60edd13110225f80f9f3709b","session_id":"6196c1f7f3a302e6d7ef6cec","condition":"contingent","relevant_dimensions":["antennae","legs"],"bee_group":{"antennae":"B","wings":"X","pattern":"X","legs":"M"},"action":"harvest","summary":"good-harvest","bonus":0.9600000000000009},{"rt":1845.3999999985099,"stimulus":"\n                    <p><b>Action: <em>harvest</em></b></p>\n                    <p>This is the bee that you just saw.</p>\n                    <img src=\"bees-with-color/bee-A1DM.svg\" width=\"200\">\n                    <p><span class=\"greenText\"><b>Successful harvest!</b></span><br>Your pay has increased by $0.02. Your bonus pay is now $0.58.</p>\n            ","response":0,"trial_type":"html-button-response","trial_index":50,"time_elapsed":426430,"internal_node_id":"0.0-4.0-1.21","subject_id":"6051f9a32647a5a8f1dc723a","study_id":"60edd13110225f80f9f3709b","session_id":"6196c1f7f3a302e6d7ef6cec","condition":"contingent","relevant_dimensions":["antennae","legs"],"bee_group":{"antennae":"B","wings":"X","pattern":"X","legs":"M"},"bonus":0.9600000000000009},{"rt":1261.3999999985099,"stimulus":"bees-with-color/bee-B2DF.svg","response":1,"trial_type":"image-button-response","trial_index":51,"time_elapsed":427694,"internal_node_id":"0.0-4.0-0.22","subject_id":"6051f9a32647a5a8f1dc723a","study_id":"60edd13110225f80f9f3709b","session_id":"6196c1f7f3a302e6d7ef6cec","condition":"contingent","relevant_dimensions":["antennae","legs"],"bee_group":{"antennae":"B","wings":"X","pattern":"X","legs":"M"},"action":"avoid","summary":"bad-avoid","bonus":0.9600000000000009},{"rt":1683.800000000745,"stimulus":"\n                    <p><b>Action: <em>avoid</em></b></p>\n                    <p>This is the bee that you just saw.</p>\n                    <img src=\"bees-with-color/bee-B2DF.svg\" width=\"200\">\n                    <p><br>Your bonus pay is unchanged, and remains at $0.58.</p>\n            ","response":0,"trial_type":"html-button-response","trial_index":52,"time_elapsed":429380,"internal_node_id":"0.0-4.0-1.22","subject_id":"6051f9a32647a5a8f1dc723a","study_id":"60edd13110225f80f9f3709b","session_id":"6196c1f7f3a302e6d7ef6cec","condition":"contingent","relevant_dimensions":["antennae","legs"],"bee_group":{"antennae":"B","wings":"X","pattern":"X","legs":"M"},"bonus":0.9600000000000009},{"rt":1125.300000000745,"stimulus":"bees-with-color/bee-B2DM.svg","response":1,"trial_type":"image-button-response","trial_index":53,"time_elapsed":430507,"internal_node_id":"0.0-4.0-0.23","subject_id":"6051f9a32647a5a8f1dc723a","study_id":"60edd13110225f80f9f3709b","session_id":"6196c1f7f3a302e6d7ef6cec","condition":"contingent","relevant_dimensions":["antennae","legs"],"bee_group":{"antennae":"B","wings":"X","pattern":"X","legs":"M"},"action":"avoid","summary":"good-avoid","bonus":0.9600000000000009},{"rt":877.8999999985099,"stimulus":"\n                    <p><b>Action: <em>avoid</em></b></p>\n                    <p>This is the bee that you just saw.</p>\n                    <img src=\"bees-with-color/bee-B2DM.svg\" width=\"200\">\n                    <p><br>Your bonus pay is unchanged, and remains at $0.58.</p>\n            ","response":0,"trial_type":"html-button-response","trial_index":54,"time_elapsed":431387,"internal_node_id":"0.0-4.0-1.23","subject_id":"6051f9a32647a5a8f1dc723a","study_id":"60edd13110225f80f9f3709b","session_id":"6196c1f7f3a302e6d7ef6cec","condition":"contingent","relevant_dimensions":["antennae","legs"],"bee_group":{"antennae":"B","wings":"X","pattern":"X","legs":"M"},"bonus":0.9600000000000009},{"rt":1670.3999999985099,"stimulus":"bees-with-color/bee-A2SM.svg","response":1,"trial_type":"image-button-response","trial_index":55,"time_elapsed":433059,"internal_node_id":"0.0-4.0-0.24","subject_id":"6051f9a32647a5a8f1dc723a","study_id":"60edd13110225f80f9f3709b","session_id":"6196c1f7f3a302e6d7ef6cec","condition":"contingent","relevant_dimensions":["antennae","legs"],"bee_group":{"antennae":"B","wings":"X","pattern":"X","legs":"M"},"action":"avoid","summary":"bad-avoid","bonus":0.9600000000000009},{"rt":1177,"stimulus":"\n                    <p><b>Action: <em>avoid</em></b></p>\n                    <p>This is the bee that you just saw.</p>\n                    <img src=\"bees-with-color/bee-A2SM.svg\" width=\"200\">\n                    <p><br>Your bonus pay is unchanged, and remains at $0.58.</p>\n            ","response":0,"trial_type":"html-button-response","trial_index":56,"time_elapsed":434237,"internal_node_id":"0.0-4.0-1.24","subject_id":"6051f9a32647a5a8f1dc723a","study_id":"60edd13110225f80f9f3709b","session_id":"6196c1f7f3a302e6d7ef6cec","condition":"contingent","relevant_dimensions":["antennae","legs"],"bee_group":{"antennae":"B","wings":"X","pattern":"X","legs":"M"},"bonus":0.9600000000000009},{"rt":1758.199999999255,"stimulus":"bees-with-color/bee-A1SF.svg","response":0,"trial_type":"image-button-response","trial_index":57,"time_elapsed":435998,"internal_node_id":"0.0-4.0-0.25","subject_id":"6051f9a32647a5a8f1dc723a","study_id":"60edd13110225f80f9f3709b","session_id":"6196c1f7f3a302e6d7ef6cec","condition":"contingent","relevant_dimensions":["antennae","legs"],"bee_group":{"antennae":"B","wings":"X","pattern":"X","legs":"M"},"action":"harvest","summary":"good-harvest","bonus":0.9600000000000009},{"rt":1571.8999999985099,"stimulus":"\n                    <p><b>Action: <em>harvest</em></b></p>\n                    <p>This is the bee that you just saw.</p>\n                    <img src=\"bees-with-color/bee-A1SF.svg\" width=\"200\">\n                    <p><span class=\"greenText\"><b>Successful harvest!</b></span><br>Your pay has increased by $0.02. Your bonus pay is now $0.60.</p>\n            ","response":0,"trial_type":"html-button-response","trial_index":58,"time_elapsed":437571,"internal_node_id":"0.0-4.0-1.25","subject_id":"6051f9a32647a5a8f1dc723a","study_id":"60edd13110225f80f9f3709b","session_id":"6196c1f7f3a302e6d7ef6cec","condition":"contingent","relevant_dimensions":["antennae","legs"],"bee_group":{"antennae":"B","wings":"X","pattern":"X","legs":"M"},"bonus":0.9600000000000009},{"rt":2452.300000000745,"stimulus":"bees-with-color/bee-A2SF.svg","response":1,"trial_type":"image-button-response","trial_index":59,"time_elapsed":440025,"internal_node_id":"0.0-4.0-0.26","subject_id":"6051f9a32647a5a8f1dc723a","study_id":"60edd13110225f80f9f3709b","session_id":"6196c1f7f3a302e6d7ef6cec","condition":"contingent","relevant_dimensions":["antennae","legs"],"bee_group":{"antennae":"B","wings":"X","pattern":"X","legs":"M"},"action":"avoid","summary":"bad-avoid","bonus":0.9600000000000009},{"rt":1869.3999999985099,"stimulus":"\n                    <p><b>Action: <em>avoid</em></b></p>\n                    <p>This is the bee that you just saw.</p>\n                    <img src=\"bees-with-color/bee-A2SF.svg\" width=\"200\">\n                    <p><br>Your bonus pay is unchanged, and remains at $0.60.</p>\n            ","response":0,"trial_type":"html-button-response","trial_index":60,"time_elapsed":441896,"internal_node_id":"0.0-4.0-1.26","subject_id":"6051f9a32647a5a8f1dc723a","study_id":"60edd13110225f80f9f3709b","session_id":"6196c1f7f3a302e6d7ef6cec","condition":"contingent","relevant_dimensions":["antennae","legs"],"bee_group":{"antennae":"B","wings":"X","pattern":"X","legs":"M"},"bonus":0.9600000000000009},{"rt":2476.800000000745,"stimulus":"bees-with-color/bee-B2SF.svg","response":1,"trial_type":"image-button-response","trial_index":61,"time_elapsed":444375,"internal_node_id":"0.0-4.0-0.27","subject_id":"6051f9a32647a5a8f1dc723a","study_id":"60edd13110225f80f9f3709b","session_id":"6196c1f7f3a302e6d7ef6cec","condition":"contingent","relevant_dimensions":["antennae","legs"],"bee_group":{"antennae":"B","wings":"X","pattern":"X","legs":"M"},"action":"avoid","summary":"bad-avoid","bonus":0.9600000000000009},{"rt":1149.2999999970198,"stimulus":"\n                    <p><b>Action: <em>avoid</em></b></p>\n                    <p>This is the bee that you just saw.</p>\n                    <img src=\"bees-with-color/bee-B2SF.svg\" width=\"200\">\n                    <p><br>Your bonus pay is unchanged, and remains at $0.60.</p>\n            ","response":0,"trial_type":"html-button-response","trial_index":62,"time_elapsed":445526,"internal_node_id":"0.0-4.0-1.27","subject_id":"6051f9a32647a5a8f1dc723a","study_id":"60edd13110225f80f9f3709b","session_id":"6196c1f7f3a302e6d7ef6cec","condition":"contingent","relevant_dimensions":["antennae","legs"],"bee_group":{"antennae":"B","wings":"X","pattern":"X","legs":"M"},"bonus":0.9600000000000009},{"rt":2241.900000002235,"stimulus":"bees-with-color/bee-A2DF.svg","response":0,"trial_type":"image-button-response","trial_index":63,"time_elapsed":447770,"internal_node_id":"0.0-4.0-0.28","subject_id":"6051f9a32647a5a8f1dc723a","study_id":"60edd13110225f80f9f3709b","session_id":"6196c1f7f3a302e6d7ef6cec","condition":"contingent","relevant_dimensions":["antennae","legs"],"bee_group":{"antennae":"B","wings":"X","pattern":"X","legs":"M"},"action":"harvest","summary":"good-harvest","bonus":0.9600000000000009},{"rt":5848.199999999255,"stimulus":"\n                    <p><b>Action: <em>harvest</em></b></p>\n                    <p>This is the bee that you just saw.</p>\n                    <img src=\"bees-with-color/bee-A2DF.svg\" width=\"200\">\n                    <p><span class=\"greenText\"><b>Successful harvest!</b></span><br>Your pay has increased by $0.02. Your bonus pay is now $0.62.</p>\n            ","response":0,"trial_type":"html-button-response","trial_index":64,"time_elapsed":453620,"internal_node_id":"0.0-4.0-1.28","subject_id":"6051f9a32647a5a8f1dc723a","study_id":"60edd13110225f80f9f3709b","session_id":"6196c1f7f3a302e6d7ef6cec","condition":"contingent","relevant_dimensions":["antennae","legs"],"bee_group":{"antennae":"B","wings":"X","pattern":"X","legs":"M"},"bonus":0.9600000000000009},{"rt":1881.800000000745,"stimulus":"bees-with-color/bee-A2DM.svg","response":1,"trial_type":"image-button-response","trial_index":65,"time_elapsed":455504,"internal_node_id":"0.0-4.0-0.29","subject_id":"6051f9a32647a5a8f1dc723a","study_id":"60edd13110225f80f9f3709b","session_id":"6196c1f7f3a302e6d7ef6cec","condition":"contingent","relevant_dimensions":["antennae","legs"],"bee_group":{"antennae":"B","wings":"X","pattern":"X","legs":"M"},"action":"avoid","summary":"bad-avoid","bonus":0.9600000000000009},{"rt":2216.60000000149,"stimulus":"\n                    <p><b>Action: <em>avoid</em></b></p>\n                    <p>This is the bee that you just saw.</p>\n                    <img src=\"bees-with-color/bee-A2DM.svg\" width=\"200\">\n                    <p><br>Your bonus pay is unchanged, and remains at $0.62.</p>\n            ","response":0,"trial_type":"html-button-response","trial_index":66,"time_elapsed":457722,"internal_node_id":"0.0-4.0-1.29","subject_id":"6051f9a32647a5a8f1dc723a","study_id":"60edd13110225f80f9f3709b","session_id":"6196c1f7f3a302e6d7ef6cec","condition":"contingent","relevant_dimensions":["antennae","legs"],"bee_group":{"antennae":"B","wings":"X","pattern":"X","legs":"M"},"bonus":0.9600000000000009},{"rt":2786.39999999851,"stimulus":"bees-with-color/bee-B1SM.svg","response":0,"trial_type":"image-button-response","trial_index":67,"time_elapsed":460511,"internal_node_id":"0.0-4.0-0.30","subject_id":"6051f9a32647a5a8f1dc723a","study_id":"60edd13110225f80f9f3709b","session_id":"6196c1f7f3a302e6d7ef6cec","condition":"contingent","relevant_dimensions":["antennae","legs"],"bee_group":{"antennae":"B","wings":"X","pattern":"X","legs":"M"},"action":"harvest","summary":"bad-harvest","bonus":0.9600000000000009},{"rt":5822.5,"stimulus":"\n                    <p><b>Action: <em>harvest</em></b></p>\n                    <p>This is the bee that you just saw.</p>\n                    <img src=\"bees-with-color/bee-B1SM.svg\" width=\"200\">\n                    <p><span class=\"redText\">Bad choice, the bee was angry.</span><br><b>You have been stung!</b><br>Your pay has been decreased by $0.10. Your bonus pay is now $0.52.</p>\n            ","response":0,"trial_type":"html-button-response","trial_index":68,"time_elapsed":466335,"internal_node_id":"0.0-4.0-1.30","subject_id":"6051f9a32647a5a8f1dc723a","study_id":"60edd13110225f80f9f3709b","session_id":"6196c1f7f3a302e6d7ef6cec","condition":"contingent","relevant_dimensions":["antennae","legs"],"bee_group":{"antennae":"B","wings":"X","pattern":"X","legs":"M"},"bonus":0.9600000000000009},{"rt":1026.1000000014901,"stimulus":"bees-with-color/bee-B1DM.svg","response":1,"trial_type":"image-button-response","trial_index":69,"time_elapsed":467363,"internal_node_id":"0.0-4.0-0.31","subject_id":"6051f9a32647a5a8f1dc723a","study_id":"60edd13110225f80f9f3709b","session_id":"6196c1f7f3a302e6d7ef6cec","condition":"contingent","relevant_dimensions":["antennae","legs"],"bee_group":{"antennae":"B","wings":"X","pattern":"X","legs":"M"},"action":"avoid","summary":"good-avoid","bonus":0.9600000000000009},{"rt":1076.6000000014901,"stimulus":"\n                    <p><b>Action: <em>avoid</em></b></p>\n                    <p>This is the bee that you just saw.</p>\n                    <img src=\"bees-with-color/bee-B1DM.svg\" width=\"200\">\n                    <p><br>Your bonus pay is unchanged, and remains at $0.52.</p>\n            ","response":0,"trial_type":"html-button-response","trial_index":70,"time_elapsed":468441,"internal_node_id":"0.0-4.0-1.31","subject_id":"6051f9a32647a5a8f1dc723a","study_id":"60edd13110225f80f9f3709b","session_id":"6196c1f7f3a302e6d7ef6cec","condition":"contingent","relevant_dimensions":["antennae","legs"],"bee_group":{"antennae":"B","wings":"X","pattern":"X","legs":"M"},"bonus":0.9600000000000009},{"rt":1907.7000000029802,"stimulus":"bees-with-color/bee-B2SF.svg","response":0,"trial_type":"image-button-response","trial_index":71,"time_elapsed":470351,"internal_node_id":"0.0-4.0-0.32","subject_id":"6051f9a32647a5a8f1dc723a","study_id":"60edd13110225f80f9f3709b","session_id":"6196c1f7f3a302e6d7ef6cec","condition":"contingent","relevant_dimensions":["antennae","legs"],"bee_group":{"antennae":"B","wings":"X","pattern":"X","legs":"M"},"action":"harvest","summary":"good-harvest","bonus":0.9600000000000009},{"rt":2612.300000000745,"stimulus":"\n                    <p><b>Action: <em>harvest</em></b></p>\n                    <p>This is the bee that you just saw.</p>\n                    <img src=\"bees-with-color/bee-B2SF.svg\" width=\"200\">\n                    <p><span class=\"greenText\"><b>Successful harvest!</b></span><br>Your pay has increased by $0.02. Your bonus pay is now $0.54.</p>\n            ","response":0,"trial_type":"html-button-response","trial_index":72,"time_elapsed":472965,"internal_node_id":"0.0-4.0-1.32","subject_id":"6051f9a32647a5a8f1dc723a","study_id":"60edd13110225f80f9f3709b","session_id":"6196c1f7f3a302e6d7ef6cec","condition":"contingent","relevant_dimensions":["antennae","legs"],"bee_group":{"antennae":"B","wings":"X","pattern":"X","legs":"M"},"bonus":0.9600000000000009},{"rt":1262,"stimulus":"bees-with-color/bee-B1SF.svg","response":0,"trial_type":"image-button-response","trial_index":73,"time_elapsed":474229,"internal_node_id":"0.0-4.0-0.33","subject_id":"6051f9a32647a5a8f1dc723a","study_id":"60edd13110225f80f9f3709b","session_id":"6196c1f7f3a302e6d7ef6cec","condition":"contingent","relevant_dimensions":["antennae","legs"],"bee_group":{"antennae":"B","wings":"X","pattern":"X","legs":"M"},"action":"harvest","summary":"good-harvest","bonus":0.9600000000000009},{"rt":1262.199999999255,"stimulus":"\n                    <p><b>Action: <em>harvest</em></b></p>\n                    <p>This is the bee that you just saw.</p>\n                    <img src=\"bees-with-color/bee-B1SF.svg\" width=\"200\">\n                    <p><span class=\"greenText\"><b>Successful harvest!</b></span><br>Your pay has increased by $0.02. Your bonus pay is now $0.56.</p>\n            ","response":0,"trial_type":"html-button-response","trial_index":74,"time_elapsed":475493,"internal_node_id":"0.0-4.0-1.33","subject_id":"6051f9a32647a5a8f1dc723a","study_id":"60edd13110225f80f9f3709b","session_id":"6196c1f7f3a302e6d7ef6cec","condition":"contingent","relevant_dimensions":["antennae","legs"],"bee_group":{"antennae":"B","wings":"X","pattern":"X","legs":"M"},"bonus":0.9600000000000009},{"rt":1484.4000000022352,"stimulus":"bees-with-color/bee-A2DM.svg","response":1,"trial_type":"image-button-response","trial_index":75,"time_elapsed":476980,"internal_node_id":"0.0-4.0-0.34","subject_id":"6051f9a32647a5a8f1dc723a","study_id":"60edd13110225f80f9f3709b","session_id":"6196c1f7f3a302e6d7ef6cec","condition":"contingent","relevant_dimensions":["antennae","legs"],"bee_group":{"antennae":"B","wings":"X","pattern":"X","legs":"M"},"action":"avoid","summary":"bad-avoid","bonus":0.9600000000000009},{"rt":1857.3999999985099,"stimulus":"\n                    <p><b>Action: <em>avoid</em></b></p>\n                    <p>This is the bee that you just saw.</p>\n                    <img src=\"bees-with-color/bee-A2DM.svg\" width=\"200\">\n                    <p><br>Your bonus pay is unchanged, and remains at $0.56.</p>\n            ","response":0,"trial_type":"html-button-response","trial_index":76,"time_elapsed":478839,"internal_node_id":"0.0-4.0-1.34","subject_id":"6051f9a32647a5a8f1dc723a","study_id":"60edd13110225f80f9f3709b","session_id":"6196c1f7f3a302e6d7ef6cec","condition":"contingent","relevant_dimensions":["antennae","legs"],"bee_group":{"antennae":"B","wings":"X","pattern":"X","legs":"M"},"bonus":0.9600000000000009},{"rt":1546.8999999985099,"stimulus":"bees-with-color/bee-A1DM.svg","response":1,"trial_type":"image-button-response","trial_index":77,"time_elapsed":480387,"internal_node_id":"0.0-4.0-0.35","subject_id":"6051f9a32647a5a8f1dc723a","study_id":"60edd13110225f80f9f3709b","session_id":"6196c1f7f3a302e6d7ef6cec","condition":"contingent","relevant_dimensions":["antennae","legs"],"bee_group":{"antennae":"B","wings":"X","pattern":"X","legs":"M"},"action":"avoid","summary":"bad-avoid","bonus":0.9600000000000009},{"rt":1027.300000000745,"stimulus":"\n                    <p><b>Action: <em>avoid</em></b></p>\n                    <p>This is the bee that you just saw.</p>\n                    <img src=\"bees-with-color/bee-A1DM.svg\" width=\"200\">\n                    <p><br>Your bonus pay is unchanged, and remains at $0.56.</p>\n            ","response":0,"trial_type":"html-button-response","trial_index":78,"time_elapsed":481416,"internal_node_id":"0.0-4.0-1.35","subject_id":"6051f9a32647a5a8f1dc723a","study_id":"60edd13110225f80f9f3709b","session_id":"6196c1f7f3a302e6d7ef6cec","condition":"contingent","relevant_dimensions":["antennae","legs"],"bee_group":{"antennae":"B","wings":"X","pattern":"X","legs":"M"},"bonus":0.9600000000000009},{"rt":2500,"stimulus":"bees-with-color/bee-A1SM.svg","response":1,"trial_type":"image-button-response","trial_index":79,"time_elapsed":483919,"internal_node_id":"0.0-4.0-0.36","subject_id":"6051f9a32647a5a8f1dc723a","study_id":"60edd13110225f80f9f3709b","session_id":"6196c1f7f3a302e6d7ef6cec","condition":"contingent","relevant_dimensions":["antennae","legs"],"bee_group":{"antennae":"B","wings":"X","pattern":"X","legs":"M"},"action":"avoid","summary":"bad-avoid","bonus":0.9600000000000009},{"rt":791.8999999985099,"stimulus":"\n                    <p><b>Action: <em>avoid</em></b></p>\n                    <p>This is the bee that you just saw.</p>\n                    <img src=\"bees-with-color/bee-A1SM.svg\" width=\"200\">\n                    <p><br>Your bonus pay is unchanged, and remains at $0.56.</p>\n            ","response":0,"trial_type":"html-button-response","trial_index":80,"time_elapsed":484713,"internal_node_id":"0.0-4.0-1.36","subject_id":"6051f9a32647a5a8f1dc723a","study_id":"60edd13110225f80f9f3709b","session_id":"6196c1f7f3a302e6d7ef6cec","condition":"contingent","relevant_dimensions":["antennae","legs"],"bee_group":{"antennae":"B","wings":"X","pattern":"X","legs":"M"},"bonus":0.9600000000000009},{"rt":3059.199999999255,"stimulus":"bees-with-color/bee-B1DM.svg","response":1,"trial_type":"image-button-response","trial_index":81,"time_elapsed":487774,"internal_node_id":"0.0-4.0-0.37","subject_id":"6051f9a32647a5a8f1dc723a","study_id":"60edd13110225f80f9f3709b","session_id":"6196c1f7f3a302e6d7ef6cec","condition":"contingent","relevant_dimensions":["antennae","legs"],"bee_group":{"antennae":"B","wings":"X","pattern":"X","legs":"M"},"action":"avoid","summary":"good-avoid","bonus":0.9600000000000009},{"rt":940.3999999985099,"stimulus":"\n                    <p><b>Action: <em>avoid</em></b></p>\n                    <p>This is the bee that you just saw.</p>\n                    <img src=\"bees-with-color/bee-B1DM.svg\" width=\"200\">\n                    <p><br>Your bonus pay is unchanged, and remains at $0.56.</p>\n            ","response":0,"trial_type":"html-button-response","trial_index":82,"time_elapsed":488716,"internal_node_id":"0.0-4.0-1.37","subject_id":"6051f9a32647a5a8f1dc723a","study_id":"60edd13110225f80f9f3709b","session_id":"6196c1f7f3a302e6d7ef6cec","condition":"contingent","relevant_dimensions":["antennae","legs"],"bee_group":{"antennae":"B","wings":"X","pattern":"X","legs":"M"},"bonus":0.9600000000000009},{"rt":1719.6000000014901,"stimulus":"bees-with-color/bee-B2DM.svg","response":1,"trial_type":"image-button-response","trial_index":83,"time_elapsed":490438,"internal_node_id":"0.0-4.0-0.38","subject_id":"6051f9a32647a5a8f1dc723a","study_id":"60edd13110225f80f9f3709b","session_id":"6196c1f7f3a302e6d7ef6cec","condition":"contingent","relevant_dimensions":["antennae","legs"],"bee_group":{"antennae":"B","wings":"X","pattern":"X","legs":"M"},"action":"avoid","summary":"good-avoid","bonus":0.9600000000000009},{"rt":877.1000000014901,"stimulus":"\n                    <p><b>Action: <em>avoid</em></b></p>\n                    <p>This is the bee that you just saw.</p>\n                    <img src=\"bees-with-color/bee-B2DM.svg\" width=\"200\">\n                    <p><br>Your bonus pay is unchanged, and remains at $0.56.</p>\n            ","response":0,"trial_type":"html-button-response","trial_index":84,"time_elapsed":491317,"internal_node_id":"0.0-4.0-1.38","subject_id":"6051f9a32647a5a8f1dc723a","study_id":"60edd13110225f80f9f3709b","session_id":"6196c1f7f3a302e6d7ef6cec","condition":"contingent","relevant_dimensions":["antennae","legs"],"bee_group":{"antennae":"B","wings":"X","pattern":"X","legs":"M"},"bonus":0.9600000000000009},{"rt":1014.6999999992549,"stimulus":"bees-with-color/bee-B1DF.svg","response":0,"trial_type":"image-button-response","trial_index":85,"time_elapsed":492335,"internal_node_id":"0.0-4.0-0.39","subject_id":"6051f9a32647a5a8f1dc723a","study_id":"60edd13110225f80f9f3709b","session_id":"6196c1f7f3a302e6d7ef6cec","condition":"contingent","relevant_dimensions":["antennae","legs"],"bee_group":{"antennae":"B","wings":"X","pattern":"X","legs":"M"},"action":"harvest","summary":"good-harvest","bonus":0.9600000000000009},{"rt":1620.0999999977648,"stimulus":"\n                    <p><b>Action: <em>harvest</em></b></p>\n                    <p>This is the bee that you just saw.</p>\n                    <img src=\"bees-with-color/bee-B1DF.svg\" width=\"200\">\n                    <p><span class=\"greenText\"><b>Successful harvest!</b></span><br>Your pay has increased by $0.02. Your bonus pay is now $0.58.</p>\n            ","response":0,"trial_type":"html-button-response","trial_index":86,"time_elapsed":493957,"internal_node_id":"0.0-4.0-1.39","subject_id":"6051f9a32647a5a8f1dc723a","study_id":"60edd13110225f80f9f3709b","session_id":"6196c1f7f3a302e6d7ef6cec","condition":"contingent","relevant_dimensions":["antennae","legs"],"bee_group":{"antennae":"B","wings":"X","pattern":"X","legs":"M"},"bonus":0.9600000000000009},{"rt":1175.699999999255,"stimulus":"bees-with-color/bee-A2DF.svg","response":0,"trial_type":"image-button-response","trial_index":87,"time_elapsed":495134,"internal_node_id":"0.0-4.0-0.40","subject_id":"6051f9a32647a5a8f1dc723a","study_id":"60edd13110225f80f9f3709b","session_id":"6196c1f7f3a302e6d7ef6cec","condition":"contingent","relevant_dimensions":["antennae","legs"],"bee_group":{"antennae":"B","wings":"X","pattern":"X","legs":"M"},"action":"harvest","summary":"good-harvest","bonus":0.9600000000000009},{"rt":1312.5,"stimulus":"\n                    <p><b>Action: <em>harvest</em></b></p>\n                    <p>This is the bee that you just saw.</p>\n                    <img src=\"bees-with-color/bee-A2DF.svg\" width=\"200\">\n                    <p><span class=\"greenText\"><b>Successful harvest!</b></span><br>Your pay has increased by $0.02. Your bonus pay is now $0.60.</p>\n            ","response":0,"trial_type":"html-button-response","trial_index":88,"time_elapsed":496448,"internal_node_id":"0.0-4.0-1.40","subject_id":"6051f9a32647a5a8f1dc723a","study_id":"60edd13110225f80f9f3709b","session_id":"6196c1f7f3a302e6d7ef6cec","condition":"contingent","relevant_dimensions":["antennae","legs"],"bee_group":{"antennae":"B","wings":"X","pattern":"X","legs":"M"},"bonus":0.9600000000000009},{"rt":1646.5999999977648,"stimulus":"bees-with-color/bee-B2SM.svg","response":1,"trial_type":"image-button-response","trial_index":89,"time_elapsed":498096,"internal_node_id":"0.0-4.0-0.41","subject_id":"6051f9a32647a5a8f1dc723a","study_id":"60edd13110225f80f9f3709b","session_id":"6196c1f7f3a302e6d7ef6cec","condition":"contingent","relevant_dimensions":["antennae","legs"],"bee_group":{"antennae":"B","wings":"X","pattern":"X","legs":"M"},"action":"avoid","summary":"good-avoid","bonus":0.9600000000000009},{"rt":1163.0999999977648,"stimulus":"\n                    <p><b>Action: <em>avoid</em></b></p>\n                    <p>This is the bee that you just saw.</p>\n                    <img src=\"bees-with-color/bee-B2SM.svg\" width=\"200\">\n                    <p><br>Your bonus pay is unchanged, and remains at $0.60.</p>\n            ","response":0,"trial_type":"html-button-response","trial_index":90,"time_elapsed":499261,"internal_node_id":"0.0-4.0-1.41","subject_id":"6051f9a32647a5a8f1dc723a","study_id":"60edd13110225f80f9f3709b","session_id":"6196c1f7f3a302e6d7ef6cec","condition":"contingent","relevant_dimensions":["antennae","legs"],"bee_group":{"antennae":"B","wings":"X","pattern":"X","legs":"M"},"bonus":0.9600000000000009},{"rt":4261.89999999851,"stimulus":"bees-with-color/bee-A2SM.svg","response":1,"trial_type":"image-button-response","trial_index":91,"time_elapsed":503525,"internal_node_id":"0.0-4.0-0.42","subject_id":"6051f9a32647a5a8f1dc723a","study_id":"60edd13110225f80f9f3709b","session_id":"6196c1f7f3a302e6d7ef6cec","condition":"contingent","relevant_dimensions":["antennae","legs"],"bee_group":{"antennae":"B","wings":"X","pattern":"X","legs":"M"},"action":"avoid","summary":"bad-avoid","bonus":0.9600000000000009},{"rt":864.8999999985099,"stimulus":"\n                    <p><b>Action: <em>avoid</em></b></p>\n                    <p>This is the bee that you just saw.</p>\n                    <img src=\"bees-with-color/bee-A2SM.svg\" width=\"200\">\n                    <p><br>Your bonus pay is unchanged, and remains at $0.60.</p>\n            ","response":0,"trial_type":"html-button-response","trial_index":92,"time_elapsed":504391,"internal_node_id":"0.0-4.0-1.42","subject_id":"6051f9a32647a5a8f1dc723a","study_id":"60edd13110225f80f9f3709b","session_id":"6196c1f7f3a302e6d7ef6cec","condition":"contingent","relevant_dimensions":["antennae","legs"],"bee_group":{"antennae":"B","wings":"X","pattern":"X","legs":"M"},"bonus":0.9600000000000009},{"rt":5077.900000002235,"stimulus":"bees-with-color/bee-B2DF.svg","response":1,"trial_type":"image-button-response","trial_index":93,"time_elapsed":509471,"internal_node_id":"0.0-4.0-0.43","subject_id":"6051f9a32647a5a8f1dc723a","study_id":"60edd13110225f80f9f3709b","session_id":"6196c1f7f3a302e6d7ef6cec","condition":"contingent","relevant_dimensions":["antennae","legs"],"bee_group":{"antennae":"B","wings":"X","pattern":"X","legs":"M"},"action":"avoid","summary":"bad-avoid","bonus":0.9600000000000009},{"rt":1337.800000000745,"stimulus":"\n                    <p><b>Action: <em>avoid</em></b></p>\n                    <p>This is the bee that you just saw.</p>\n                    <img src=\"bees-with-color/bee-B2DF.svg\" width=\"200\">\n                    <p><br>Your bonus pay is unchanged, and remains at $0.60.</p>\n            ","response":0,"trial_type":"html-button-response","trial_index":94,"time_elapsed":510810,"internal_node_id":"0.0-4.0-1.43","subject_id":"6051f9a32647a5a8f1dc723a","study_id":"60edd13110225f80f9f3709b","session_id":"6196c1f7f3a302e6d7ef6cec","condition":"contingent","relevant_dimensions":["antennae","legs"],"bee_group":{"antennae":"B","wings":"X","pattern":"X","legs":"M"},"bonus":0.9600000000000009},{"rt":1237.3999999985099,"stimulus":"bees-with-color/bee-A1SF.svg","response":0,"trial_type":"image-button-response","trial_index":95,"time_elapsed":512050,"internal_node_id":"0.0-4.0-0.44","subject_id":"6051f9a32647a5a8f1dc723a","study_id":"60edd13110225f80f9f3709b","session_id":"6196c1f7f3a302e6d7ef6cec","condition":"contingent","relevant_dimensions":["antennae","legs"],"bee_group":{"antennae":"B","wings":"X","pattern":"X","legs":"M"},"action":"harvest","summary":"good-harvest","bonus":0.9600000000000009},{"rt":1572.5,"stimulus":"\n                    <p><b>Action: <em>harvest</em></b></p>\n                    <p>This is the bee that you just saw.</p>\n                    <img src=\"bees-with-color/bee-A1SF.svg\" width=\"200\">\n                    <p><span class=\"greenText\"><b>Successful harvest!</b></span><br>Your pay has increased by $0.02. Your bonus pay is now $0.62.</p>\n            ","response":0,"trial_type":"html-button-response","trial_index":96,"time_elapsed":513624,"internal_node_id":"0.0-4.0-1.44","subject_id":"6051f9a32647a5a8f1dc723a","study_id":"60edd13110225f80f9f3709b","session_id":"6196c1f7f3a302e6d7ef6cec","condition":"contingent","relevant_dimensions":["antennae","legs"],"bee_group":{"antennae":"B","wings":"X","pattern":"X","legs":"M"},"bonus":0.9600000000000009},{"rt":1114.199999999255,"stimulus":"bees-with-color/bee-A2SF.svg","response":0,"trial_type":"image-button-response","trial_index":97,"time_elapsed":514739,"internal_node_id":"0.0-4.0-0.45","subject_id":"6051f9a32647a5a8f1dc723a","study_id":"60edd13110225f80f9f3709b","session_id":"6196c1f7f3a302e6d7ef6cec","condition":"contingent","relevant_dimensions":["antennae","legs"],"bee_group":{"antennae":"B","wings":"X","pattern":"X","legs":"M"},"action":"harvest","summary":"good-harvest","bonus":0.9600000000000009},{"rt":5264.60000000149,"stimulus":"\n                    <p><b>Action: <em>harvest</em></b></p>\n                    <p>This is the bee that you just saw.</p>\n                    <img src=\"bees-with-color/bee-A2SF.svg\" width=\"200\">\n                    <p><span class=\"greenText\"><b>Successful harvest!</b></span><br>Your pay has increased by $0.02. Your bonus pay is now $0.64.</p>\n            ","response":0,"trial_type":"html-button-response","trial_index":98,"time_elapsed":520006,"internal_node_id":"0.0-4.0-1.45","subject_id":"6051f9a32647a5a8f1dc723a","study_id":"60edd13110225f80f9f3709b","session_id":"6196c1f7f3a302e6d7ef6cec","condition":"contingent","relevant_dimensions":["antennae","legs"],"bee_group":{"antennae":"B","wings":"X","pattern":"X","legs":"M"},"bonus":0.9600000000000009},{"rt":903.5,"stimulus":"bees-with-color/bee-B1SM.svg","response":0,"trial_type":"image-button-response","trial_index":99,"time_elapsed":520911,"internal_node_id":"0.0-4.0-0.46","subject_id":"6051f9a32647a5a8f1dc723a","study_id":"60edd13110225f80f9f3709b","session_id":"6196c1f7f3a302e6d7ef6cec","condition":"contingent","relevant_dimensions":["antennae","legs"],"bee_group":{"antennae":"B","wings":"X","pattern":"X","legs":"M"},"action":"harvest","summary":"bad-harvest","bonus":0.9600000000000009},{"rt":2005.7000000029802,"stimulus":"\n                    <p><b>Action: <em>harvest</em></b></p>\n                    <p>This is the bee that you just saw.</p>\n                    <img src=\"bees-with-color/bee-B1SM.svg\" width=\"200\">\n                    <p><span class=\"redText\">Bad choice, the bee was angry.</span><br><b>You have been stung!</b><br>Your pay has been decreased by $0.10. Your bonus pay is now $0.54.</p>\n            ","response":0,"trial_type":"html-button-response","trial_index":100,"time_elapsed":522918,"internal_node_id":"0.0-4.0-1.46","subject_id":"6051f9a32647a5a8f1dc723a","study_id":"60edd13110225f80f9f3709b","session_id":"6196c1f7f3a302e6d7ef6cec","condition":"contingent","relevant_dimensions":["antennae","legs"],"bee_group":{"antennae":"B","wings":"X","pattern":"X","legs":"M"},"bonus":0.9600000000000009},{"rt":1572.6000000014901,"stimulus":"bees-with-color/bee-A1DF.svg","response":0,"trial_type":"image-button-response","trial_index":101,"time_elapsed":524492,"internal_node_id":"0.0-4.0-0.47","subject_id":"6051f9a32647a5a8f1dc723a","study_id":"60edd13110225f80f9f3709b","session_id":"6196c1f7f3a302e6d7ef6cec","condition":"contingent","relevant_dimensions":["antennae","legs"],"bee_group":{"antennae":"B","wings":"X","pattern":"X","legs":"M"},"action":"harvest","summary":"good-harvest","bonus":0.9600000000000009},{"rt":1684.1000000014901,"stimulus":"\n                    <p><b>Action: <em>harvest</em></b></p>\n                    <p>This is the bee that you just saw.</p>\n                    <img src=\"bees-with-color/bee-A1DF.svg\" width=\"200\">\n                    <p><span class=\"greenText\"><b>Successful harvest!</b></span><br>Your pay has increased by $0.02. Your bonus pay is now $0.56.</p>\n            ","response":0,"trial_type":"html-button-response","trial_index":102,"time_elapsed":526178,"internal_node_id":"0.0-4.0-1.47","subject_id":"6051f9a32647a5a8f1dc723a","study_id":"60edd13110225f80f9f3709b","session_id":"6196c1f7f3a302e6d7ef6cec","condition":"contingent","relevant_dimensions":["antennae","legs"],"bee_group":{"antennae":"B","wings":"X","pattern":"X","legs":"M"},"bonus":0.9600000000000009},{"rt":989.1000000014901,"stimulus":"bees-with-color/bee-A1DF.svg","response":0,"trial_type":"image-button-response","trial_index":103,"time_elapsed":527169,"internal_node_id":"0.0-4.0-0.48","subject_id":"6051f9a32647a5a8f1dc723a","study_id":"60edd13110225f80f9f3709b","session_id":"6196c1f7f3a302e6d7ef6cec","condition":"contingent","relevant_dimensions":["antennae","legs"],"bee_group":{"antennae":"B","wings":"X","pattern":"X","legs":"M"},"action":"harvest","summary":"good-harvest","bonus":0.9600000000000009},{"rt":1013.4000000022352,"stimulus":"\n                    <p><b>Action: <em>harvest</em></b></p>\n                    <p>This is the bee that you just saw.</p>\n                    <img src=\"bees-with-color/bee-A1DF.svg\" width=\"200\">\n                    <p><span class=\"greenText\"><b>Successful harvest!</b></span><br>Your pay has increased by $0.02. Your bonus pay is now $0.58.</p>\n            ","response":0,"trial_type":"html-button-response","trial_index":104,"time_elapsed":528185,"internal_node_id":"0.0-4.0-1.48","subject_id":"6051f9a32647a5a8f1dc723a","study_id":"60edd13110225f80f9f3709b","session_id":"6196c1f7f3a302e6d7ef6cec","condition":"contingent","relevant_dimensions":["antennae","legs"],"bee_group":{"antennae":"B","wings":"X","pattern":"X","legs":"M"},"bonus":0.9600000000000009},{"rt":1213.0999999977648,"stimulus":"bees-with-color/bee-A2SM.svg","response":1,"trial_type":"image-button-response","trial_index":105,"time_elapsed":529399,"internal_node_id":"0.0-4.0-0.49","subject_id":"6051f9a32647a5a8f1dc723a","study_id":"60edd13110225f80f9f3709b","session_id":"6196c1f7f3a302e6d7ef6cec","condition":"contingent","relevant_dimensions":["antennae","legs"],"bee_group":{"antennae":"B","wings":"X","pattern":"X","legs":"M"},"action":"avoid","summary":"bad-avoid","bonus":0.9600000000000009},{"rt":1175.300000000745,"stimulus":"\n                    <p><b>Action: <em>avoid</em></b></p>\n                    <p>This is the bee that you just saw.</p>\n                    <img src=\"bees-with-color/bee-A2SM.svg\" width=\"200\">\n                    <p><br>Your bonus pay is unchanged, and remains at $0.58.</p>\n            ","response":0,"trial_type":"html-button-response","trial_index":106,"time_elapsed":530576,"internal_node_id":"0.0-4.0-1.49","subject_id":"6051f9a32647a5a8f1dc723a","study_id":"60edd13110225f80f9f3709b","session_id":"6196c1f7f3a302e6d7ef6cec","condition":"contingent","relevant_dimensions":["antennae","legs"],"bee_group":{"antennae":"B","wings":"X","pattern":"X","legs":"M"},"bonus":0.9600000000000009},{"rt":1089.5,"stimulus":"bees-with-color/bee-B1SF.svg","response":0,"trial_type":"image-button-response","trial_index":107,"time_elapsed":531667,"internal_node_id":"0.0-4.0-0.50","subject_id":"6051f9a32647a5a8f1dc723a","study_id":"60edd13110225f80f9f3709b","session_id":"6196c1f7f3a302e6d7ef6cec","condition":"contingent","relevant_dimensions":["antennae","legs"],"bee_group":{"antennae":"B","wings":"X","pattern":"X","legs":"M"},"action":"harvest","summary":"good-harvest","bonus":0.9600000000000009},{"rt":878.1999999992549,"stimulus":"\n                    <p><b>Action: <em>harvest</em></b></p>\n                    <p>This is the bee that you just saw.</p>\n                    <img src=\"bees-with-color/bee-B1SF.svg\" width=\"200\">\n                    <p><span class=\"greenText\"><b>Successful harvest!</b></span><br>Your pay has increased by $0.02. Your bonus pay is now $0.60.</p>\n            ","response":0,"trial_type":"html-button-response","trial_index":108,"time_elapsed":532547,"internal_node_id":"0.0-4.0-1.50","subject_id":"6051f9a32647a5a8f1dc723a","study_id":"60edd13110225f80f9f3709b","session_id":"6196c1f7f3a302e6d7ef6cec","condition":"contingent","relevant_dimensions":["antennae","legs"],"bee_group":{"antennae":"B","wings":"X","pattern":"X","legs":"M"},"bonus":0.9600000000000009},{"rt":878.5,"stimulus":"bees-with-color/bee-A2SF.svg","response":0,"trial_type":"image-button-response","trial_index":109,"time_elapsed":533428,"internal_node_id":"0.0-4.0-0.51","subject_id":"6051f9a32647a5a8f1dc723a","study_id":"60edd13110225f80f9f3709b","session_id":"6196c1f7f3a302e6d7ef6cec","condition":"contingent","relevant_dimensions":["antennae","legs"],"bee_group":{"antennae":"B","wings":"X","pattern":"X","legs":"M"},"action":"harvest","summary":"good-harvest","bonus":0.9600000000000009},{"rt":1100.8999999985099,"stimulus":"\n                    <p><b>Action: <em>harvest</em></b></p>\n                    <p>This is the bee that you just saw.</p>\n                    <img src=\"bees-with-color/bee-A2SF.svg\" width=\"200\">\n                    <p><span class=\"greenText\"><b>Successful harvest!</b></span><br>Your pay has increased by $0.02. Your bonus pay is now $0.62.</p>\n            ","response":0,"trial_type":"html-button-response","trial_index":110,"time_elapsed":534530,"internal_node_id":"0.0-4.0-1.51","subject_id":"6051f9a32647a5a8f1dc723a","study_id":"60edd13110225f80f9f3709b","session_id":"6196c1f7f3a302e6d7ef6cec","condition":"contingent","relevant_dimensions":["antennae","legs"],"bee_group":{"antennae":"B","wings":"X","pattern":"X","legs":"M"},"bonus":0.9600000000000009},{"rt":1150.800000000745,"stimulus":"bees-with-color/bee-B2SM.svg","response":1,"trial_type":"image-button-response","trial_index":111,"time_elapsed":535682,"internal_node_id":"0.0-4.0-0.52","subject_id":"6051f9a32647a5a8f1dc723a","study_id":"60edd13110225f80f9f3709b","session_id":"6196c1f7f3a302e6d7ef6cec","condition":"contingent","relevant_dimensions":["antennae","legs"],"bee_group":{"antennae":"B","wings":"X","pattern":"X","legs":"M"},"action":"avoid","summary":"good-avoid","bonus":0.9600000000000009},{"rt":1980.3999999985099,"stimulus":"\n                    <p><b>Action: <em>avoid</em></b></p>\n                    <p>This is the bee that you just saw.</p>\n                    <img src=\"bees-with-color/bee-B2SM.svg\" width=\"200\">\n                    <p><br>Your bonus pay is unchanged, and remains at $0.62.</p>\n            ","response":0,"trial_type":"html-button-response","trial_index":112,"time_elapsed":537665,"internal_node_id":"0.0-4.0-1.52","subject_id":"6051f9a32647a5a8f1dc723a","study_id":"60edd13110225f80f9f3709b","session_id":"6196c1f7f3a302e6d7ef6cec","condition":"contingent","relevant_dimensions":["antennae","legs"],"bee_group":{"antennae":"B","wings":"X","pattern":"X","legs":"M"},"bonus":0.9600000000000009},{"rt":1200.300000000745,"stimulus":"bees-with-color/bee-B2DM.svg","response":1,"trial_type":"image-button-response","trial_index":113,"time_elapsed":538867,"internal_node_id":"0.0-4.0-0.53","subject_id":"6051f9a32647a5a8f1dc723a","study_id":"60edd13110225f80f9f3709b","session_id":"6196c1f7f3a302e6d7ef6cec","condition":"contingent","relevant_dimensions":["antennae","legs"],"bee_group":{"antennae":"B","wings":"X","pattern":"X","legs":"M"},"action":"avoid","summary":"good-avoid","bonus":0.9600000000000009},{"rt":791.3000000007451,"stimulus":"\n                    <p><b>Action: <em>avoid</em></b></p>\n                    <p>This is the bee that you just saw.</p>\n                    <img src=\"bees-with-color/bee-B2DM.svg\" width=\"200\">\n                    <p><br>Your bonus pay is unchanged, and remains at $0.62.</p>\n            ","response":0,"trial_type":"html-button-response","trial_index":114,"time_elapsed":539660,"internal_node_id":"0.0-4.0-1.53","subject_id":"6051f9a32647a5a8f1dc723a","study_id":"60edd13110225f80f9f3709b","session_id":"6196c1f7f3a302e6d7ef6cec","condition":"contingent","relevant_dimensions":["antennae","legs"],"bee_group":{"antennae":"B","wings":"X","pattern":"X","legs":"M"},"bonus":0.9600000000000009},{"rt":2228.800000000745,"stimulus":"bees-with-color/bee-B2SF.svg","response":0,"trial_type":"image-button-response","trial_index":115,"time_elapsed":541890,"internal_node_id":"0.0-4.0-0.54","subject_id":"6051f9a32647a5a8f1dc723a","study_id":"60edd13110225f80f9f3709b","session_id":"6196c1f7f3a302e6d7ef6cec","condition":"contingent","relevant_dimensions":["antennae","legs"],"bee_group":{"antennae":"B","wings":"X","pattern":"X","legs":"M"},"action":"harvest","summary":"good-harvest","bonus":0.9600000000000009},{"rt":1002,"stimulus":"\n                    <p><b>Action: <em>harvest</em></b></p>\n                    <p>This is the bee that you just saw.</p>\n                    <img src=\"bees-with-color/bee-B2SF.svg\" width=\"200\">\n                    <p><span class=\"greenText\"><b>Successful harvest!</b></span><br>Your pay has increased by $0.02. Your bonus pay is now $0.64.</p>\n            ","response":0,"trial_type":"html-button-response","trial_index":116,"time_elapsed":542894,"internal_node_id":"0.0-4.0-1.54","subject_id":"6051f9a32647a5a8f1dc723a","study_id":"60edd13110225f80f9f3709b","session_id":"6196c1f7f3a302e6d7ef6cec","condition":"contingent","relevant_dimensions":["antennae","legs"],"bee_group":{"antennae":"B","wings":"X","pattern":"X","legs":"M"},"bonus":0.9600000000000009},{"rt":1139.5999999977648,"stimulus":"bees-with-color/bee-A2DF.svg","response":0,"trial_type":"image-button-response","trial_index":117,"time_elapsed":544035,"internal_node_id":"0.0-4.0-0.55","subject_id":"6051f9a32647a5a8f1dc723a","study_id":"60edd13110225f80f9f3709b","session_id":"6196c1f7f3a302e6d7ef6cec","condition":"contingent","relevant_dimensions":["antennae","legs"],"bee_group":{"antennae":"B","wings":"X","pattern":"X","legs":"M"},"action":"harvest","summary":"good-harvest","bonus":0.9600000000000009},{"rt":975.4000000022352,"stimulus":"\n                    <p><b>Action: <em>harvest</em></b></p>\n                    <p>This is the bee that you just saw.</p>\n                    <img src=\"bees-with-color/bee-A2DF.svg\" width=\"200\">\n                    <p><span class=\"greenText\"><b>Successful harvest!</b></span><br>Your pay has increased by $0.02. Your bonus pay is now $0.66.</p>\n            ","response":0,"trial_type":"html-button-response","trial_index":118,"time_elapsed":545012,"internal_node_id":"0.0-4.0-1.55","subject_id":"6051f9a32647a5a8f1dc723a","study_id":"60edd13110225f80f9f3709b","session_id":"6196c1f7f3a302e6d7ef6cec","condition":"contingent","relevant_dimensions":["antennae","legs"],"bee_group":{"antennae":"B","wings":"X","pattern":"X","legs":"M"},"bonus":0.9600000000000009},{"rt":1090.5999999977648,"stimulus":"bees-with-color/bee-A1SF.svg","response":0,"trial_type":"image-button-response","trial_index":119,"time_elapsed":546104,"internal_node_id":"0.0-4.0-0.56","subject_id":"6051f9a32647a5a8f1dc723a","study_id":"60edd13110225f80f9f3709b","session_id":"6196c1f7f3a302e6d7ef6cec","condition":"contingent","relevant_dimensions":["antennae","legs"],"bee_group":{"antennae":"B","wings":"X","pattern":"X","legs":"M"},"action":"harvest","summary":"good-harvest","bonus":0.9600000000000009},{"rt":1038.300000000745,"stimulus":"\n                    <p><b>Action: <em>harvest</em></b></p>\n                    <p>This is the bee that you just saw.</p>\n                    <img src=\"bees-with-color/bee-A1SF.svg\" width=\"200\">\n                    <p><span class=\"greenText\"><b>Successful harvest!</b></span><br>Your pay has increased by $0.02. Your bonus pay is now $0.68.</p>\n            ","response":0,"trial_type":"html-button-response","trial_index":120,"time_elapsed":547145,"internal_node_id":"0.0-4.0-1.56","subject_id":"6051f9a32647a5a8f1dc723a","study_id":"60edd13110225f80f9f3709b","session_id":"6196c1f7f3a302e6d7ef6cec","condition":"contingent","relevant_dimensions":["antennae","legs"],"bee_group":{"antennae":"B","wings":"X","pattern":"X","legs":"M"},"bonus":0.9600000000000009},{"rt":940.3000000007451,"stimulus":"bees-with-color/bee-B2DF.svg","response":0,"trial_type":"image-button-response","trial_index":121,"time_elapsed":548087,"internal_node_id":"0.0-4.0-0.57","subject_id":"6051f9a32647a5a8f1dc723a","study_id":"60edd13110225f80f9f3709b","session_id":"6196c1f7f3a302e6d7ef6cec","condition":"contingent","relevant_dimensions":["antennae","legs"],"bee_group":{"antennae":"B","wings":"X","pattern":"X","legs":"M"},"action":"harvest","summary":"good-harvest","bonus":0.9600000000000009},{"rt":1014.0999999977648,"stimulus":"\n                    <p><b>Action: <em>harvest</em></b></p>\n                    <p>This is the bee that you just saw.</p>\n                    <img src=\"bees-with-color/bee-B2DF.svg\" width=\"200\">\n                    <p><span class=\"greenText\"><b>Successful harvest!</b></span><br>Your pay has increased by $0.02. Your bonus pay is now $0.70.</p>\n            ","response":0,"trial_type":"html-button-response","trial_index":122,"time_elapsed":549103,"internal_node_id":"0.0-4.0-1.57","subject_id":"6051f9a32647a5a8f1dc723a","study_id":"60edd13110225f80f9f3709b","session_id":"6196c1f7f3a302e6d7ef6cec","condition":"contingent","relevant_dimensions":["antennae","legs"],"bee_group":{"antennae":"B","wings":"X","pattern":"X","legs":"M"},"bonus":0.9600000000000009},{"rt":1101.6000000014901,"stimulus":"bees-with-color/bee-A1DM.svg","response":1,"trial_type":"image-button-response","trial_index":123,"time_elapsed":550206,"internal_node_id":"0.0-4.0-0.58","subject_id":"6051f9a32647a5a8f1dc723a","study_id":"60edd13110225f80f9f3709b","session_id":"6196c1f7f3a302e6d7ef6cec","condition":"contingent","relevant_dimensions":["antennae","legs"],"bee_group":{"antennae":"B","wings":"X","pattern":"X","legs":"M"},"action":"avoid","summary":"bad-avoid","bonus":0.9600000000000009},{"rt":1002.1000000014901,"stimulus":"\n                    <p><b>Action: <em>avoid</em></b></p>\n                    <p>This is the bee that you just saw.</p>\n                    <img src=\"bees-with-color/bee-A1DM.svg\" width=\"200\">\n                    <p><br>Your bonus pay is unchanged, and remains at $0.70.</p>\n            ","response":0,"trial_type":"html-button-response","trial_index":124,"time_elapsed":551210,"internal_node_id":"0.0-4.0-1.58","subject_id":"6051f9a32647a5a8f1dc723a","study_id":"60edd13110225f80f9f3709b","session_id":"6196c1f7f3a302e6d7ef6cec","condition":"contingent","relevant_dimensions":["antennae","legs"],"bee_group":{"antennae":"B","wings":"X","pattern":"X","legs":"M"},"bonus":0.9600000000000009},{"rt":1175.6000000014901,"stimulus":"bees-with-color/bee-A1SM.svg","response":1,"trial_type":"image-button-response","trial_index":125,"time_elapsed":552387,"internal_node_id":"0.0-4.0-0.59","subject_id":"6051f9a32647a5a8f1dc723a","study_id":"60edd13110225f80f9f3709b","session_id":"6196c1f7f3a302e6d7ef6cec","condition":"contingent","relevant_dimensions":["antennae","legs"],"bee_group":{"antennae":"B","wings":"X","pattern":"X","legs":"M"},"action":"avoid","summary":"bad-avoid","bonus":0.9600000000000009},{"rt":940.4000000022352,"stimulus":"\n                    <p><b>Action: <em>avoid</em></b></p>\n                    <p>This is the bee that you just saw.</p>\n                    <img src=\"bees-with-color/bee-A1SM.svg\" width=\"200\">\n                    <p><br>Your bonus pay is unchanged, and remains at $0.70.</p>\n            ","response":0,"trial_type":"html-button-response","trial_index":126,"time_elapsed":553329,"internal_node_id":"0.0-4.0-1.59","subject_id":"6051f9a32647a5a8f1dc723a","study_id":"60edd13110225f80f9f3709b","session_id":"6196c1f7f3a302e6d7ef6cec","condition":"contingent","relevant_dimensions":["antennae","legs"],"bee_group":{"antennae":"B","wings":"X","pattern":"X","legs":"M"},"bonus":0.9600000000000009},{"rt":865.8999999985099,"stimulus":"bees-with-color/bee-B1DF.svg","response":0,"trial_type":"image-button-response","trial_index":127,"time_elapsed":554197,"internal_node_id":"0.0-4.0-0.60","subject_id":"6051f9a32647a5a8f1dc723a","study_id":"60edd13110225f80f9f3709b","session_id":"6196c1f7f3a302e6d7ef6cec","condition":"contingent","relevant_dimensions":["antennae","legs"],"bee_group":{"antennae":"B","wings":"X","pattern":"X","legs":"M"},"action":"harvest","summary":"good-harvest","bonus":0.9600000000000009},{"rt":915.6000000014901,"stimulus":"\n                    <p><b>Action: <em>harvest</em></b></p>\n                    <p>This is the bee that you just saw.</p>\n                    <img src=\"bees-with-color/bee-B1DF.svg\" width=\"200\">\n                    <p><span class=\"greenText\"><b>Successful harvest!</b></span><br>Your pay has increased by $0.02. Your bonus pay is now $0.72.</p>\n            ","response":0,"trial_type":"html-button-response","trial_index":128,"time_elapsed":555114,"internal_node_id":"0.0-4.0-1.60","subject_id":"6051f9a32647a5a8f1dc723a","study_id":"60edd13110225f80f9f3709b","session_id":"6196c1f7f3a302e6d7ef6cec","condition":"contingent","relevant_dimensions":["antennae","legs"],"bee_group":{"antennae":"B","wings":"X","pattern":"X","legs":"M"},"bonus":0.9600000000000009},{"rt":951.5,"stimulus":"bees-with-color/bee-B1DM.svg","response":1,"trial_type":"image-button-response","trial_index":129,"time_elapsed":556067,"internal_node_id":"0.0-4.0-0.61","subject_id":"6051f9a32647a5a8f1dc723a","study_id":"60edd13110225f80f9f3709b","session_id":"6196c1f7f3a302e6d7ef6cec","condition":"contingent","relevant_dimensions":["antennae","legs"],"bee_group":{"antennae":"B","wings":"X","pattern":"X","legs":"M"},"action":"avoid","summary":"good-avoid","bonus":0.9600000000000009},{"rt":941,"stimulus":"\n                    <p><b>Action: <em>avoid</em></b></p>\n                    <p>This is the bee that you just saw.</p>\n                    <img src=\"bees-with-color/bee-B1DM.svg\" width=\"200\">\n                    <p><br>Your bonus pay is unchanged, and remains at $0.72.</p>\n            ","response":0,"trial_type":"html-button-response","trial_index":130,"time_elapsed":557010,"internal_node_id":"0.0-4.0-1.61","subject_id":"6051f9a32647a5a8f1dc723a","study_id":"60edd13110225f80f9f3709b","session_id":"6196c1f7f3a302e6d7ef6cec","condition":"contingent","relevant_dimensions":["antennae","legs"],"bee_group":{"antennae":"B","wings":"X","pattern":"X","legs":"M"},"bonus":0.9600000000000009},{"rt":1101.5999999977648,"stimulus":"bees-with-color/bee-B1SM.svg","response":1,"trial_type":"image-button-response","trial_index":131,"time_elapsed":558113,"internal_node_id":"0.0-4.0-0.62","subject_id":"6051f9a32647a5a8f1dc723a","study_id":"60edd13110225f80f9f3709b","session_id":"6196c1f7f3a302e6d7ef6cec","condition":"contingent","relevant_dimensions":["antennae","legs"],"bee_group":{"antennae":"B","wings":"X","pattern":"X","legs":"M"},"action":"avoid","summary":"good-avoid","bonus":0.9600000000000009},{"rt":927.5,"stimulus":"\n                    <p><b>Action: <em>avoid</em></b></p>\n                    <p>This is the bee that you just saw.</p>\n                    <img src=\"bees-with-color/bee-B1SM.svg\" width=\"200\">\n                    <p><br>Your bonus pay is unchanged, and remains at $0.72.</p>\n            ","response":0,"trial_type":"html-button-response","trial_index":132,"time_elapsed":559041,"internal_node_id":"0.0-4.0-1.62","subject_id":"6051f9a32647a5a8f1dc723a","study_id":"60edd13110225f80f9f3709b","session_id":"6196c1f7f3a302e6d7ef6cec","condition":"contingent","relevant_dimensions":["antennae","legs"],"bee_group":{"antennae":"B","wings":"X","pattern":"X","legs":"M"},"bonus":0.9600000000000009},{"rt":1015.4000000022352,"stimulus":"bees-with-color/bee-A2DM.svg","response":1,"trial_type":"image-button-response","trial_index":133,"time_elapsed":560058,"internal_node_id":"0.0-4.0-0.63","subject_id":"6051f9a32647a5a8f1dc723a","study_id":"60edd13110225f80f9f3709b","session_id":"6196c1f7f3a302e6d7ef6cec","condition":"contingent","relevant_dimensions":["antennae","legs"],"bee_group":{"antennae":"B","wings":"X","pattern":"X","legs":"M"},"action":"avoid","summary":"bad-avoid","bonus":0.9600000000000009},{"rt":1362.199999999255,"stimulus":"\n                    <p><b>Action: <em>avoid</em></b></p>\n                    <p>This is the bee that you just saw.</p>\n                    <img src=\"bees-with-color/bee-A2DM.svg\" width=\"200\">\n                    <p><br>Your bonus pay is unchanged, and remains at $0.72.</p>\n            ","response":0,"trial_type":"html-button-response","trial_index":134,"time_elapsed":561422,"internal_node_id":"0.0-4.0-1.63","subject_id":"6051f9a32647a5a8f1dc723a","study_id":"60edd13110225f80f9f3709b","session_id":"6196c1f7f3a302e6d7ef6cec","condition":"contingent","relevant_dimensions":["antennae","legs"],"bee_group":{"antennae":"B","wings":"X","pattern":"X","legs":"M"},"bonus":0.9600000000000009},{"rt":11614.10000000149,"stimulus":"You have completed the first part of this experiment.<br><br>You will now begin a shorter second part, in which you will receive no feedback.<br>The same rules regarding bonus pay apply.<br><br>Press any key to begin.","response":"g","trial_type":"html-keyboard-response","trial_index":135,"time_elapsed":573038,"internal_node_id":"0.0-5.0","subject_id":"6051f9a32647a5a8f1dc723a","study_id":"60edd13110225f80f9f3709b","session_id":"6196c1f7f3a302e6d7ef6cec","condition":"contingent","relevant_dimensions":["antennae","legs"],"bee_group":{"antennae":"B","wings":"X","pattern":"X","legs":"M"},"bonus":0.9600000000000009},{"rt":2081.199999999255,"stimulus":"bees-with-color/bee-B1SM.svg","response":1,"trial_type":"image-button-response","trial_index":136,"time_elapsed":575128,"internal_node_id":"0.0-6.0-0.0","subject_id":"6051f9a32647a5a8f1dc723a","study_id":"60edd13110225f80f9f3709b","session_id":"6196c1f7f3a302e6d7ef6cec","condition":"contingent","relevant_dimensions":["antennae","legs"],"bee_group":{"antennae":"B","wings":"X","pattern":"X","legs":"M"},"bonus":0.9600000000000009},{"rt":1199.5999999977648,"stimulus":"bees-with-color/bee-B1DM.svg","response":1,"trial_type":"image-button-response","trial_index":137,"time_elapsed":576331,"internal_node_id":"0.0-6.0-0.1","subject_id":"6051f9a32647a5a8f1dc723a","study_id":"60edd13110225f80f9f3709b","session_id":"6196c1f7f3a302e6d7ef6cec","condition":"contingent","relevant_dimensions":["antennae","legs"],"bee_group":{"antennae":"B","wings":"X","pattern":"X","legs":"M"},"bonus":0.9600000000000009},{"rt":1088.3999999985099,"stimulus":"bees-with-color/bee-A1SF.svg","response":0,"trial_type":"image-button-response","trial_index":138,"time_elapsed":577422,"internal_node_id":"0.0-6.0-0.2","subject_id":"6051f9a32647a5a8f1dc723a","study_id":"60edd13110225f80f9f3709b","session_id":"6196c1f7f3a302e6d7ef6cec","condition":"contingent","relevant_dimensions":["antennae","legs"],"bee_group":{"antennae":"B","wings":"X","pattern":"X","legs":"M"},"bonus":0.9600000000000009},{"rt":1137.8999999985099,"stimulus":"bees-with-color/bee-B2DF.svg","response":0,"trial_type":"image-button-response","trial_index":139,"time_elapsed":578562,"internal_node_id":"0.0-6.0-0.3","subject_id":"6051f9a32647a5a8f1dc723a","study_id":"60edd13110225f80f9f3709b","session_id":"6196c1f7f3a302e6d7ef6cec","condition":"contingent","relevant_dimensions":["antennae","legs"],"bee_group":{"antennae":"B","wings":"X","pattern":"X","legs":"M"},"bonus":0.9600000000000009},{"rt":765.6000000014901,"stimulus":"bees-with-color/bee-B2SF.svg","response":0,"trial_type":"image-button-response","trial_index":140,"time_elapsed":579330,"internal_node_id":"0.0-6.0-0.4","subject_id":"6051f9a32647a5a8f1dc723a","study_id":"60edd13110225f80f9f3709b","session_id":"6196c1f7f3a302e6d7ef6cec","condition":"contingent","relevant_dimensions":["antennae","legs"],"bee_group":{"antennae":"B","wings":"X","pattern":"X","legs":"M"},"bonus":0.9600000000000009},{"rt":1164,"stimulus":"bees-with-color/bee-A2SM.svg","response":1,"trial_type":"image-button-response","trial_index":141,"time_elapsed":580496,"internal_node_id":"0.0-6.0-0.5","subject_id":"6051f9a32647a5a8f1dc723a","study_id":"60edd13110225f80f9f3709b","session_id":"6196c1f7f3a302e6d7ef6cec","condition":"contingent","relevant_dimensions":["antennae","legs"],"bee_group":{"antennae":"B","wings":"X","pattern":"X","legs":"M"},"bonus":0.9600000000000009},{"rt":1088.699999999255,"stimulus":"bees-with-color/bee-B1SF.svg","response":0,"trial_type":"image-button-response","trial_index":142,"time_elapsed":581587,"internal_node_id":"0.0-6.0-0.6","subject_id":"6051f9a32647a5a8f1dc723a","study_id":"60edd13110225f80f9f3709b","session_id":"6196c1f7f3a302e6d7ef6cec","condition":"contingent","relevant_dimensions":["antennae","legs"],"bee_group":{"antennae":"B","wings":"X","pattern":"X","legs":"M"},"bonus":0.9600000000000009},{"rt":840.8000000007451,"stimulus":"bees-with-color/bee-B1DF.svg","response":0,"trial_type":"image-button-response","trial_index":143,"time_elapsed":582430,"internal_node_id":"0.0-6.0-0.7","subject_id":"6051f9a32647a5a8f1dc723a","study_id":"60edd13110225f80f9f3709b","session_id":"6196c1f7f3a302e6d7ef6cec","condition":"contingent","relevant_dimensions":["antennae","legs"],"bee_group":{"antennae":"B","wings":"X","pattern":"X","legs":"M"},"bonus":0.9600000000000009},{"rt":1732.2000000029802,"stimulus":"bees-with-color/bee-A2SF.svg","response":1,"trial_type":"image-button-response","trial_index":144,"time_elapsed":584164,"internal_node_id":"0.0-6.0-0.8","subject_id":"6051f9a32647a5a8f1dc723a","study_id":"60edd13110225f80f9f3709b","session_id":"6196c1f7f3a302e6d7ef6cec","condition":"contingent","relevant_dimensions":["antennae","legs"],"bee_group":{"antennae":"B","wings":"X","pattern":"X","legs":"M"},"bonus":0.9600000000000009},{"rt":739.6999999992549,"stimulus":"bees-with-color/bee-B2DM.svg","response":1,"trial_type":"image-button-response","trial_index":145,"time_elapsed":584908,"internal_node_id":"0.0-6.0-0.9","subject_id":"6051f9a32647a5a8f1dc723a","study_id":"60edd13110225f80f9f3709b","session_id":"6196c1f7f3a302e6d7ef6cec","condition":"contingent","relevant_dimensions":["antennae","legs"],"bee_group":{"antennae":"B","wings":"X","pattern":"X","legs":"M"},"bonus":0.9600000000000009},{"rt":617,"stimulus":"bees-with-color/bee-A1DM.svg","response":1,"trial_type":"image-button-response","trial_index":146,"time_elapsed":585527,"internal_node_id":"0.0-6.0-0.10","subject_id":"6051f9a32647a5a8f1dc723a","study_id":"60edd13110225f80f9f3709b","session_id":"6196c1f7f3a302e6d7ef6cec","condition":"contingent","relevant_dimensions":["antennae","legs"],"bee_group":{"antennae":"B","wings":"X","pattern":"X","legs":"M"},"bonus":0.9600000000000009},{"rt":877.6000000014901,"stimulus":"bees-with-color/bee-A1SM.svg","response":1,"trial_type":"image-button-response","trial_index":147,"time_elapsed":586408,"internal_node_id":"0.0-6.0-0.11","subject_id":"6051f9a32647a5a8f1dc723a","study_id":"60edd13110225f80f9f3709b","session_id":"6196c1f7f3a302e6d7ef6cec","condition":"contingent","relevant_dimensions":["antennae","legs"],"bee_group":{"antennae":"B","wings":"X","pattern":"X","legs":"M"},"bonus":0.9600000000000009},{"rt":629.6000000014901,"stimulus":"bees-with-color/bee-A2DM.svg","response":1,"trial_type":"image-button-response","trial_index":148,"time_elapsed":587039,"internal_node_id":"0.0-6.0-0.12","subject_id":"6051f9a32647a5a8f1dc723a","study_id":"60edd13110225f80f9f3709b","session_id":"6196c1f7f3a302e6d7ef6cec","condition":"contingent","relevant_dimensions":["antennae","legs"],"bee_group":{"antennae":"B","wings":"X","pattern":"X","legs":"M"},"bonus":0.9600000000000009},{"rt":890.0999999977648,"stimulus":"bees-with-color/bee-B2SM.svg","response":1,"trial_type":"image-button-response","trial_index":149,"time_elapsed":587932,"internal_node_id":"0.0-6.0-0.13","subject_id":"6051f9a32647a5a8f1dc723a","study_id":"60edd13110225f80f9f3709b","session_id":"6196c1f7f3a302e6d7ef6cec","condition":"contingent","relevant_dimensions":["antennae","legs"],"bee_group":{"antennae":"B","wings":"X","pattern":"X","legs":"M"},"bonus":0.9600000000000009},{"rt":678.3000000007451,"stimulus":"bees-with-color/bee-A2DF.svg","response":1,"trial_type":"image-button-response","trial_index":150,"time_elapsed":588613,"internal_node_id":"0.0-6.0-0.14","subject_id":"6051f9a32647a5a8f1dc723a","study_id":"60edd13110225f80f9f3709b","session_id":"6196c1f7f3a302e6d7ef6cec","condition":"contingent","relevant_dimensions":["antennae","legs"],"bee_group":{"antennae":"B","wings":"X","pattern":"X","legs":"M"},"bonus":0.9600000000000009},{"rt":927.5,"stimulus":"bees-with-color/bee-A1DF.svg","response":0,"trial_type":"image-button-response","trial_index":151,"time_elapsed":589542,"internal_node_id":"0.0-6.0-0.15","subject_id":"6051f9a32647a5a8f1dc723a","study_id":"60edd13110225f80f9f3709b","session_id":"6196c1f7f3a302e6d7ef6cec","condition":"contingent","relevant_dimensions":["antennae","legs"],"bee_group":{"antennae":"B","wings":"X","pattern":"X","legs":"M"},"bonus":0.9600000000000009},{"rt":1077,"stimulus":"bees-with-color/bee-A2DM.svg","response":1,"trial_type":"image-button-response","trial_index":152,"time_elapsed":590621,"internal_node_id":"0.0-6.0-0.16","subject_id":"6051f9a32647a5a8f1dc723a","study_id":"60edd13110225f80f9f3709b","session_id":"6196c1f7f3a302e6d7ef6cec","condition":"contingent","relevant_dimensions":["antennae","legs"],"bee_group":{"antennae":"B","wings":"X","pattern":"X","legs":"M"},"bonus":0.9600000000000009},{"rt":1485.0999999977648,"stimulus":"bees-with-color/bee-B1DM.svg","response":1,"trial_type":"image-button-response","trial_index":153,"time_elapsed":592108,"internal_node_id":"0.0-6.0-0.17","subject_id":"6051f9a32647a5a8f1dc723a","study_id":"60edd13110225f80f9f3709b","session_id":"6196c1f7f3a302e6d7ef6cec","condition":"contingent","relevant_dimensions":["antennae","legs"],"bee_group":{"antennae":"B","wings":"X","pattern":"X","legs":"M"},"bonus":0.9600000000000009},{"rt":1262.6000000014901,"stimulus":"bees-with-color/bee-A1SF.svg","response":0,"trial_type":"image-button-response","trial_index":154,"time_elapsed":593372,"internal_node_id":"0.0-6.0-0.18","subject_id":"6051f9a32647a5a8f1dc723a","study_id":"60edd13110225f80f9f3709b","session_id":"6196c1f7f3a302e6d7ef6cec","condition":"contingent","relevant_dimensions":["antennae","legs"],"bee_group":{"antennae":"B","wings":"X","pattern":"X","legs":"M"},"bonus":0.9600000000000009},{"rt":1212.3999999985099,"stimulus":"bees-with-color/bee-A2DF.svg","response":0,"trial_type":"image-button-response","trial_index":155,"time_elapsed":594587,"internal_node_id":"0.0-6.0-0.19","subject_id":"6051f9a32647a5a8f1dc723a","study_id":"60edd13110225f80f9f3709b","session_id":"6196c1f7f3a302e6d7ef6cec","condition":"contingent","relevant_dimensions":["antennae","legs"],"bee_group":{"antennae":"B","wings":"X","pattern":"X","legs":"M"},"bonus":0.9600000000000009},{"rt":777.6000000014901,"stimulus":"bees-with-color/bee-A2SM.svg","response":1,"trial_type":"image-button-response","trial_index":156,"time_elapsed":595367,"internal_node_id":"0.0-6.0-0.20","subject_id":"6051f9a32647a5a8f1dc723a","study_id":"60edd13110225f80f9f3709b","session_id":"6196c1f7f3a302e6d7ef6cec","condition":"contingent","relevant_dimensions":["antennae","legs"],"bee_group":{"antennae":"B","wings":"X","pattern":"X","legs":"M"},"bonus":0.9600000000000009},{"rt":2402.199999999255,"stimulus":"bees-with-color/bee-B2DM.svg","response":1,"trial_type":"image-button-response","trial_index":157,"time_elapsed":597771,"internal_node_id":"0.0-6.0-0.21","subject_id":"6051f9a32647a5a8f1dc723a","study_id":"60edd13110225f80f9f3709b","session_id":"6196c1f7f3a302e6d7ef6cec","condition":"contingent","relevant_dimensions":["antennae","legs"],"bee_group":{"antennae":"B","wings":"X","pattern":"X","legs":"M"},"bonus":0.9600000000000009},{"rt":964.8000000007451,"stimulus":"bees-with-color/bee-A2SF.svg","response":0,"trial_type":"image-button-response","trial_index":158,"time_elapsed":598738,"internal_node_id":"0.0-6.0-0.22","subject_id":"6051f9a32647a5a8f1dc723a","study_id":"60edd13110225f80f9f3709b","session_id":"6196c1f7f3a302e6d7ef6cec","condition":"contingent","relevant_dimensions":["antennae","legs"],"bee_group":{"antennae":"B","wings":"X","pattern":"X","legs":"M"},"bonus":0.9600000000000009},{"rt":1101,"stimulus":"bees-with-color/bee-A1DF.svg","response":0,"trial_type":"image-button-response","trial_index":159,"time_elapsed":599841,"internal_node_id":"0.0-6.0-0.23","subject_id":"6051f9a32647a5a8f1dc723a","study_id":"60edd13110225f80f9f3709b","session_id":"6196c1f7f3a302e6d7ef6cec","condition":"contingent","relevant_dimensions":["antennae","legs"],"bee_group":{"antennae":"B","wings":"X","pattern":"X","legs":"M"},"bonus":0.9600000000000009},{"rt":1286.1000000014901,"stimulus":"bees-with-color/bee-B1SF.svg","response":1,"trial_type":"image-button-response","trial_index":160,"time_elapsed":601129,"internal_node_id":"0.0-6.0-0.24","subject_id":"6051f9a32647a5a8f1dc723a","study_id":"60edd13110225f80f9f3709b","session_id":"6196c1f7f3a302e6d7ef6cec","condition":"contingent","relevant_dimensions":["antennae","legs"],"bee_group":{"antennae":"B","wings":"X","pattern":"X","legs":"M"},"bonus":0.9600000000000009},{"rt":692,"stimulus":"bees-with-color/bee-A1DM.svg","response":1,"trial_type":"image-button-response","trial_index":161,"time_elapsed":601823,"internal_node_id":"0.0-6.0-0.25","subject_id":"6051f9a32647a5a8f1dc723a","study_id":"60edd13110225f80f9f3709b","session_id":"6196c1f7f3a302e6d7ef6cec","condition":"contingent","relevant_dimensions":["antennae","legs"],"bee_group":{"antennae":"B","wings":"X","pattern":"X","legs":"M"},"bonus":0.9600000000000009},{"rt":1684.7000000029802,"stimulus":"bees-with-color/bee-B2DF.svg","response":0,"trial_type":"image-button-response","trial_index":162,"time_elapsed":603509,"internal_node_id":"0.0-6.0-0.26","subject_id":"6051f9a32647a5a8f1dc723a","study_id":"60edd13110225f80f9f3709b","session_id":"6196c1f7f3a302e6d7ef6cec","condition":"contingent","relevant_dimensions":["antennae","legs"],"bee_group":{"antennae":"B","wings":"X","pattern":"X","legs":"M"},"bonus":0.9600000000000009},{"rt":865.8999999985099,"stimulus":"bees-with-color/bee-B1SM.svg","response":1,"trial_type":"image-button-response","trial_index":163,"time_elapsed":604377,"internal_node_id":"0.0-6.0-0.27","subject_id":"6051f9a32647a5a8f1dc723a","study_id":"60edd13110225f80f9f3709b","session_id":"6196c1f7f3a302e6d7ef6cec","condition":"contingent","relevant_dimensions":["antennae","legs"],"bee_group":{"antennae":"B","wings":"X","pattern":"X","legs":"M"},"bonus":0.9600000000000009},{"rt":506.1000000014901,"stimulus":"bees-with-color/bee-A1SM.svg","response":1,"trial_type":"image-button-response","trial_index":164,"time_elapsed":60488