[{"success":true,"trial_type":"fullscreen","trial_index":0,"time_elapsed":2431,"internal_node_id":"0.0-0.0","subject_id":"60f5a773c448898bf72987bc","study_id":"6197b3f67c2b5cd3b6d9596a","session_id":"619bef118c2b4237f051b049","condition":"contingent","relevant_dimensions":["wings","pattern"],"bee_group":{"antennae":"X","wings":"1","pattern":"S","legs":"X"},"bonus":1.5800000000000014},{"success":true,"timeout":false,"failed_images":[],"failed_audio":[],"failed_video":[],"trial_type":"preload","trial_index":1,"time_elapsed":2563,"internal_node_id":"0.0-1.0","subject_id":"60f5a773c448898bf72987bc","study_id":"6197b3f67c2b5cd3b6d9596a","session_id":"619bef118c2b4237f051b049","condition":"contingent","relevant_dimensions":["wings","pattern"],"bee_group":{"antennae":"X","wings":"1","pattern":"S","legs":"X"},"bonus":1.5800000000000014},{"rt":1511.9000000953674,"stimulus":"Welcome! Press any key to begin.","response":" ","trial_type":"html-keyboard-response","trial_index":2,"time_elapsed":4076,"internal_node_id":"0.0-2.0","subject_id":"60f5a773c448898bf72987bc","study_id":"6197b3f67c2b5cd3b6d9596a","session_id":"619bef118c2b4237f051b049","condition":"contingent","relevant_dimensions":["wings","pattern"],"bee_group":{"antennae":"X","wings":"1","pattern":"S","legs":"X"},"bonus":1.5800000000000014},{"view_history":[{"page_index":0,"viewing_time":4743.200000047684},{"page_index":1,"viewing_time":13602.100000023842},{"page_index":2,"viewing_time":12511.799999952316},{"page_index":3,"viewing_time":12746.899999976158},{"page_index":4,"viewing_time":13850.300000071526},{"page_index":5,"viewing_time":630},{"page_index":6,"viewing_time":1044.8999999761581},{"page_index":7,"viewing_time":1162.2999999523163},{"page_index":8,"viewing_time":372.8000000715256},{"page_index":9,"viewing_time":344.39999997615814},{"page_index":10,"viewing_time":405.7000000476837},{"page_index":11,"viewing_time":1329.8999999761581},{"page_index":12,"viewing_time":4496},{"page_index":11,"viewing_time":1275.1000000238419},{"page_index":10,"viewing_time":1031.0999999046326},{"page_index":9,"viewing_time":639.3000000715256},{"page_index":8,"viewing_time":593.6000000238419},{"page_index":7,"viewing_time":676.0999999046326},{"page_index":6,"viewing_time":1277.2000000476837},{"page_index":7,"viewing_time":1623},{"page_index":8,"viewing_time":1218.8999999761581},{"page_index":9,"viewing_time":1342.7000000476837},{"page_index":10,"viewing_time":1002.3999999761581},{"page_index":9,"viewing_time":2458.2999999523163},{"page_index":10,"viewing_time":1767.5},{"page_index":11,"viewing_time":1747.4000000953674},{"page_index":12,"viewing_time":4229.799999952316},{"page_index":13,"viewing_time":1431.2999999523163},{"page_index":14,"viewing_time":889.6000000238419}],"rt":90444.10000002384,"trial_type":"instructions","trial_index":3,"time_elapsed":94533,"internal_node_id":"0.0-3.0-0.0","subject_id":"60f5a773c448898bf72987bc","study_id":"6197b3f67c2b5cd3b6d9596a","session_id":"619bef118c2b4237f051b049","condition":"contingent","relevant_dimensions":["wings","pattern"],"bee_group":{"antennae":"X","wings":"1","pattern":"S","legs":"X"},"bonus":1.5800000000000014},{"rt":18642.800000071526,"response":{"Q0":["Two or six legs","Stripes or spots on body","Stinger or no stinger","Single or double wings","Antennae or no antennae"]},"question_order":[0],"trial_type":"survey-multi-select","trial_index":4,"time_elapsed":113182,"internal_node_id":"0.0-3.0-1.0","subject_id":"60f5a773c448898bf72987bc","study_id":"6197b3f67c2b5cd3b6d9596a","session_id":"619bef118c2b4237f051b049","condition":"contingent","relevant_dimensions":["wings","pattern"],"bee_group":{"antennae":"X","wings":"1","pattern":"S","legs":"X"},"correct":false,"bonus":1.5800000000000014},{"rt":8770.200000047684,"response":{"Q1":"No.","Q2":"Based on the four features of the bee.","Q3":"You do not learn if it was friendly or dangerous, and do not alter your bonus."},"question_order":[0,1,2],"trial_type":"survey-multi-choice","trial_index":5,"time_elapsed":121956,"internal_node_id":"0.0-3.0-2.0","subject_id":"60f5a773c448898bf72987bc","study_id":"6197b3f67c2b5cd3b6d9596a","session_id":"619bef118c2b4237f051b049","condition":"contingent","relevant_dimensions":["wings","pattern"],"bee_group":{"antennae":"X","wings":"1","pattern":"S","legs":"X"},"correct":true,"bonus":1.5800000000000014},{"rt":3987,"stimulus":"<p>You did not answer all comprehension questions correctly.<br>Press <b>continue</b> to review the instructions again.</p>","response":0,"trial_type":"html-button-response","trial_index":6,"time_elapsed":125948,"internal_node_id":"0.0-3.0-3.0","subject_id":"60f5a773c448898bf72987bc","study_id":"6197b3f67c2b5cd3b6d9596a","session_id":"619bef118c2b4237f051b049","condition":"contingent","relevant_dimensions":["wings","pattern"],"bee_group":{"antennae":"X","wings":"1","pattern":"S","legs":"X"},"bonus":1.5800000000000014},{"view_history":[{"page_index":0,"viewing_time":2450.600000023842},{"page_index":1,"viewing_time":3925.2000000476837},{"page_index":2,"viewing_time":1527.8999999761581},{"page_index":3,"viewing_time":4782.600000023842},{"page_index":4,"viewing_time":3645.2999999523163},{"page_index":5,"viewing_time":6481.100000023842},{"page_index":6,"viewing_time":8252.200000047684},{"page_index":7,"viewing_time":1640.3999999761581},{"page_index":8,"viewing_time":390.1999999284744},{"page_index":9,"viewing_time":361.5},{"page_index":10,"viewing_time":342.5},{"page_index":11,"viewing_time":1386},{"page_index":12,"viewing_time":1177.1000000238419},{"page_index":13,"viewing_time":1412},{"page_index":14,"viewing_time":687.3000000715256}],"rt":38462.200000047684,"trial_type":"instructions","trial_index":7,"time_elapsed":164412,"internal_node_id":"0.0-3.0-4.0-0.0","subject_id":"60f5a773c448898bf72987bc","study_id":"6197b3f67c2b5cd3b6d9596a","session_id":"619bef118c2b4237f051b049","condition":"contingent","relevant_dimensions":["wings","pattern"],"bee_group":{"antennae":"X","wings":"1","pattern":"S","legs":"X"},"bonus":1.5800000000000014},{"rt":7113,"response":{"Q0":["Two or six legs","Stripes or spots on body","Single or double wings","Antennae or no antennae"]},"question_order":[0],"trial_type":"survey-multi-select","trial_index":8,"time_elapsed":171528,"internal_node_id":"0.0-3.0-4.0-1.0","subject_id":"60f5a773c448898bf72987bc","study_id":"6197b3f67c2b5cd3b6d9596a","session_id":"619bef118c2b4237f051b049","condition":"contingent","relevant_dimensions":["wings","pattern"],"bee_group":{"antennae":"X","wings":"1","pattern":"S","legs":"X"},"correct":true,"bonus":1.5800000000000014},{"rt":8206,"response":{"Q1":"No.","Q2":"Based on the four features of the bee.","Q3":"You do not learn if it was friendly or dangerous, and do not alter your bonus."},"question_order":[0,1,2],"trial_type":"survey-multi-choice","trial_index":9,"time_elapsed":179740,"internal_node_id":"0.0-3.0-4.0-2.0","subject_id":"60f5a773c448898bf72987bc","study_id":"6197b3f67c2b5cd3b6d9596a","session_id":"619bef118c2b4237f051b049","condition":"contingent","relevant_dimensions":["wings","pattern"],"bee_group":{"antennae":"X","wings":"1","pattern":"S","legs":"X"},"correct":true,"bonus":1.5800000000000014},{"rt":2887.2999999523163,"stimulus":"<p>Congrats, you got everything right<br>When you're ready, click the button below to continue to the experiment.</p>","response":0,"trial_type":"html-button-response","trial_index":10,"time_elapsed":182631,"internal_node_id":"0.0-3.0-4.0-3.0","subject_id":"60f5a773c448898bf72987bc","study_id":"6197b3f67c2b5cd3b6d9596a","session_id":"619bef118c2b4237f051b049","condition":"contingent","relevant_dimensions":["wings","pattern"],"bee_group":{"antennae":"X","wings":"1","pattern":"S","legs":"X"},"bonus":1.5800000000000014},{"rt":24522.800000071526,"stimulus":"bees-with-color/bee-A1SM.svg","response":0,"trial_type":"image-button-response","trial_index":11,"time_elapsed":207155,"internal_node_id":"0.0-4.0-0.0","subject_id":"60f5a773c448898bf72987bc","study_id":"6197b3f67c2b5cd3b6d9596a","session_id":"619bef118c2b4237f051b049","condition":"contingent","relevant_dimensions":["wings","pattern"],"bee_group":{"antennae":"X","wings":"1","pattern":"S","legs":"X"},"action":"harvest","summary":"bad-harvest","bonus":1.5800000000000014},{"rt":11071.799999952316,"stimulus":"\n                    <p><b>Action: <em>harvest</em></b></p>\n                    <p>This is the bee that you just saw.</p>\n                    <img src=\"bees-with-color/bee-A1SM.svg\" width=\"200\">\n                    <p><span class=\"redText\">Bad choice, the bee was angry.</span><br><b>You have been stung!</b><br>Your pay has been decreased by $0.10. Your bonus pay is now $0.44.</p>\n            ","response":0,"trial_type":"html-button-response","trial_index":12,"time_elapsed":218229,"internal_node_id":"0.0-4.0-1.0","subject_id":"60f5a773c448898bf72987bc","study_id":"6197b3f67c2b5cd3b6d9596a","session_id":"619bef118c2b4237f051b049","condition":"contingent","relevant_dimensions":["wings","pattern"],"bee_group":{"antennae":"X","wings":"1","pattern":"S","legs":"X"},"bonus":1.5800000000000014},{"rt":27503.200000047684,"stimulus":"bees-with-color/bee-B2DF.svg","response":0,"trial_type":"image-button-response","trial_index":13,"time_elapsed":245734,"internal_node_id":"0.0-4.0-0.1","subject_id":"60f5a773c448898bf72987bc","study_id":"6197b3f67c2b5cd3b6d9596a","session_id":"619bef118c2b4237f051b049","condition":"contingent","relevant_dimensions":["wings","pattern"],"bee_group":{"antennae":"X","wings":"1","pattern":"S","legs":"X"},"action":"harvest","summary":"good-harvest","bonus":1.5800000000000014},{"rt":11416.099999904633,"stimulus":"\n                    <p><b>Action: <em>harvest</em></b></p>\n                    <p>This is the bee that you just saw.</p>\n                    <img src=\"bees-with-color/bee-B2DF.svg\" width=\"200\">\n                    <p><span class=\"greenText\"><b>Successful harvest!</b></span><br>Your pay has increased by $0.02. Your bonus pay is now $0.46.</p>\n            ","response":0,"trial_type":"html-button-response","trial_index":14,"time_elapsed":257152,"internal_node_id":"0.0-4.0-1.1","subject_id":"60f5a773c448898bf72987bc","study_id":"6197b3f67c2b5cd3b6d9596a","session_id":"619bef118c2b4237f051b049","condition":"contingent","relevant_dimensions":["wings","pattern"],"bee_group":{"antennae":"X","wings":"1","pattern":"S","legs":"X"},"bonus":1.5800000000000014},{"rt":23241.100000023842,"stimulus":"bees-with-color/bee-B2SM.svg","response":0,"trial_type":"image-button-response","trial_index":15,"time_elapsed":280396,"internal_node_id":"0.0-4.0-0.2","subject_id":"60f5a773c448898bf72987bc","study_id":"6197b3f67c2b5cd3b6d9596a","session_id":"619bef118c2b4237f051b049","condition":"contingent","relevant_dimensions":["wings","pattern"],"bee_group":{"antennae":"X","wings":"1","pattern":"S","legs":"X"},"action":"harvest","summary":"good-harvest","bonus":1.5800000000000014},{"rt":6200.200000047684,"stimulus":"\n                    <p><b>Action: <em>harvest</em></b></p>\n                    <p>This is the bee that you just saw.</p>\n                    <img src=\"bees-with-color/bee-B2SM.svg\" width=\"200\">\n                    <p><span class=\"greenText\"><b>Successful harvest!</b></span><br>Your pay has increased by $0.02. Your bonus pay is now $0.48.</p>\n            ","response":0,"trial_type":"html-button-response","trial_index":16,"time_elapsed":286598,"internal_node_id":"0.0-4.0-1.2","subject_id":"60f5a773c448898bf72987bc","study_id":"6197b3f67c2b5cd3b6d9596a","session_id":"619bef118c2b4237f051b049","condition":"contingent","relevant_dimensions":["wings","pattern"],"bee_group":{"antennae":"X","wings":"1","pattern":"S","legs":"X"},"bonus":1.5800000000000014},{"rt":23473.299999952316,"stimulus":"bees-with-color/bee-B2DM.svg","response":0,"trial_type":"image-button-response","trial_index":17,"time_elapsed":310073,"internal_node_id":"0.0-4.0-0.3","subject_id":"60f5a773c448898bf72987bc","study_id":"6197b3f67c2b5cd3b6d9596a","session_id":"619bef118c2b4237f051b049","condition":"contingent","relevant_dimensions":["wings","pattern"],"bee_group":{"antennae":"X","wings":"1","pattern":"S","legs":"X"},"action":"harvest","summary":"good-harvest","bonus":1.5800000000000014},{"rt":5892.699999928474,"stimulus":"\n                    <p><b>Action: <em>harvest</em></b></p>\n                    <p>This is the bee that you just saw.</p>\n                    <img src=\"bees-with-color/bee-B2DM.svg\" width=\"200\">\n                    <p><span class=\"greenText\"><b>Successful harvest!</b></span><br>Your pay has increased by $0.02. Your bonus pay is now $0.50.</p>\n            ","response":0,"trial_type":"html-button-response","trial_index":18,"time_elapsed":315967,"internal_node_id":"0.0-4.0-1.3","subject_id":"60f5a773c448898bf72987bc","study_id":"6197b3f67c2b5cd3b6d9596a","session_id":"619bef118c2b4237f051b049","condition":"contingent","relevant_dimensions":["wings","pattern"],"bee_group":{"antennae":"X","wings":"1","pattern":"S","legs":"X"},"bonus":1.5800000000000014},{"rt":24455,"stimulus":"bees-with-color/bee-B1SF.svg","response":0,"trial_type":"image-button-response","trial_index":19,"time_elapsed":340423,"internal_node_id":"0.0-4.0-0.4","subject_id":"60f5a773c448898bf72987bc","study_id":"6197b3f67c2b5cd3b6d9596a","session_id":"619bef118c2b4237f051b049","condition":"contingent","relevant_dimensions":["wings","pattern"],"bee_group":{"antennae":"X","wings":"1","pattern":"S","legs":"X"},"action":"harvest","summary":"bad-harvest","bonus":1.5800000000000014},{"rt":15761.199999928474,"stimulus":"\n                    <p><b>Action: <em>harvest</em></b></p>\n                    <p>This is the bee that you just saw.</p>\n                    <img src=\"bees-with-color/bee-B1SF.svg\" width=\"200\">\n                    <p><span class=\"redText\">Bad choice, the bee was angry.</span><br><b>You have been stung!</b><br>Your pay has been decreased by $0.10. Your bonus pay is now $0.40.</p>\n            ","response":0,"trial_type":"html-button-response","trial_index":20,"time_elapsed":356186,"internal_node_id":"0.0-4.0-1.4","subject_id":"60f5a773c448898bf72987bc","study_id":"6197b3f67c2b5cd3b6d9596a","session_id":"619bef118c2b4237f051b049","condition":"contingent","relevant_dimensions":["wings","pattern"],"bee_group":{"antennae":"X","wings":"1","pattern":"S","legs":"X"},"bonus":1.5800000000000014},{"rt":22818.5,"stimulus":"bees-with-color/bee-A1DF.svg","response":0,"trial_type":"image-button-response","trial_index":21,"time_elapsed":379006,"internal_node_id":"0.0-4.0-0.5","subject_id":"60f5a773c448898bf72987bc","study_id":"6197b3f67c2b5cd3b6d9596a","session_id":"619bef118c2b4237f051b049","condition":"contingent","relevant_dimensions":["wings","pattern"],"bee_group":{"antennae":"X","wings":"1","pattern":"S","legs":"X"},"action":"harvest","summary":"good-harvest","bonus":1.5800000000000014},{"rt":12855.199999928474,"stimulus":"\n                    <p><b>Action: <em>harvest</em></b></p>\n                    <p>This is the bee that you just saw.</p>\n                    <img src=\"bees-with-color/bee-A1DF.svg\" width=\"200\">\n                    <p><span class=\"greenText\"><b>Successful harvest!</b></span><br>Your pay has increased by $0.02. Your bonus pay is now $0.42.</p>\n            ","response":0,"trial_type":"html-button-response","trial_index":22,"time_elapsed":391862,"internal_node_id":"0.0-4.0-1.5","subject_id":"60f5a773c448898bf72987bc","study_id":"6197b3f67c2b5cd3b6d9596a","session_id":"619bef118c2b4237f051b049","condition":"contingent","relevant_dimensions":["wings","pattern"],"bee_group":{"antennae":"X","wings":"1","pattern":"S","legs":"X"},"bonus":1.5800000000000014},{"rt":36669.39999997616,"stimulus":"bees-with-color/bee-B2SF.svg","response":0,"trial_type":"image-button-response","trial_index":23,"time_elapsed":428533,"internal_node_id":"0.0-4.0-0.6","subject_id":"60f5a773c448898bf72987bc","study_id":"6197b3f67c2b5cd3b6d9596a","session_id":"619bef118c2b4237f051b049","condition":"contingent","relevant_dimensions":["wings","pattern"],"bee_group":{"antennae":"X","wings":"1","pattern":"S","legs":"X"},"action":"harvest","summary":"good-harvest","bonus":1.5800000000000014},{"rt":6153.400000095367,"stimulus":"\n                    <p><b>Action: <em>harvest</em></b></p>\n                    <p>This is the bee that you just saw.</p>\n                    <img src=\"bees-with-color/bee-B2SF.svg\" width=\"200\">\n                    <p><span class=\"greenText\"><b>Successful harvest!</b></span><br>Your pay has increased by $0.02. Your bonus pay is now $0.44.</p>\n            ","response":0,"trial_type":"html-button-response","trial_index":24,"time_elapsed":434688,"internal_node_id":"0.0-4.0-1.6","subject_id":"60f5a773c448898bf72987bc","study_id":"6197b3f67c2b5cd3b6d9596a","session_id":"619bef118c2b4237f051b049","condition":"contingent","relevant_dimensions":["wings","pattern"],"bee_group":{"antennae":"X","wings":"1","pattern":"S","legs":"X"},"bonus":1.5800000000000014},{"rt":26126.199999928474,"stimulus":"bees-with-color/bee-A2SM.svg","response":0,"trial_type":"image-button-response","trial_index":25,"time_elapsed":460817,"internal_node_id":"0.0-4.0-0.7","subject_id":"60f5a773c448898bf72987bc","study_id":"6197b3f67c2b5cd3b6d9596a","session_id":"619bef118c2b4237f051b049","condition":"contingent","relevant_dimensions":["wings","pattern"],"bee_group":{"antennae":"X","wings":"1","pattern":"S","legs":"X"},"action":"harvest","summary":"good-harvest","bonus":1.5800000000000014},{"rt":6231,"stimulus":"\n                    <p><b>Action: <em>harvest</em></b></p>\n                    <p>This is the bee that you just saw.</p>\n                    <img src=\"bees-with-color/bee-A2SM.svg\" width=\"200\">\n                    <p><span class=\"greenText\"><b>Successful harvest!</b></span><br>Your pay has increased by $0.02. Your bonus pay is now $0.46.</p>\n            ","response":0,"trial_type":"html-button-response","trial_index":26,"time_elapsed":467049,"internal_node_id":"0.0-4.0-1.7","subject_id":"60f5a773c448898bf72987bc","study_id":"6197b3f67c2b5cd3b6d9596a","session_id":"619bef118c2b4237f051b049","condition":"contingent","relevant_dimensions":["wings","pattern"],"bee_group":{"antennae":"X","wings":"1","pattern":"S","legs":"X"},"bonus":1.5800000000000014},{"rt":42341.39999997616,"stimulus":"bees-with-color/bee-A1SF.svg","response":0,"trial_type":"image-button-response","trial_index":27,"time_elapsed":509394,"internal_node_id":"0.0-4.0-0.8","subject_id":"60f5a773c448898bf72987bc","study_id":"6197b3f67c2b5cd3b6d9596a","session_id":"619bef118c2b4237f051b049","condition":"contingent","relevant_dimensions":["wings","pattern"],"bee_group":{"antennae":"X","wings":"1","pattern":"S","legs":"X"},"action":"harvest","summary":"bad-harvest","bonus":1.5800000000000014},{"rt":6320.5,"stimulus":"\n                    <p><b>Action: <em>harvest</em></b></p>\n                    <p>This is the bee that you just saw.</p>\n                    <img src=\"bees-with-color/bee-A1SF.svg\" width=\"200\">\n                    <p><span class=\"redText\">Bad choice, the bee was angry.</span><br><b>You have been stung!</b><br>Your pay has been decreased by $0.10. Your bonus pay is now $0.36.</p>\n            ","response":0,"trial_type":"html-button-response","trial_index":28,"time_elapsed":515716,"internal_node_id":"0.0-4.0-1.8","subject_id":"60f5a773c448898bf72987bc","study_id":"6197b3f67c2b5cd3b6d9596a","session_id":"619bef118c2b4237f051b049","condition":"contingent","relevant_dimensions":["wings","pattern"],"bee_group":{"antennae":"X","wings":"1","pattern":"S","legs":"X"},"bonus":1.5800000000000014},{"rt":117382.10000002384,"stimulus":"bees-with-color/bee-A2SF.svg","response":0,"trial_type":"image-button-response","trial_index":29,"time_elapsed":633100,"internal_node_id":"0.0-4.0-0.9","subject_id":"60f5a773c448898bf72987bc","study_id":"6197b3f67c2b5cd3b6d9596a","session_id":"619bef118c2b4237f051b049","condition":"contingent","relevant_dimensions":["wings","pattern"],"bee_group":{"antennae":"X","wings":"1","pattern":"S","legs":"X"},"action":"harvest","summary":"good-harvest","bonus":1.5800000000000014},{"rt":5467.700000047684,"stimulus":"\n                    <p><b>Action: <em>harvest</em></b></p>\n                    <p>This is the bee that you just saw.</p>\n                    <img src=\"bees-with-color/bee-A2SF.svg\" width=\"200\">\n                    <p><span class=\"greenText\"><b>Successful harvest!</b></span><br>Your pay has increased by $0.02. Your bonus pay is now $0.38.</p>\n            ","response":0,"trial_type":"html-button-response","trial_index":30,"time_elapsed":638569,"internal_node_id":"0.0-4.0-1.9","subject_id":"60f5a773c448898bf72987bc","study_id":"6197b3f67c2b5cd3b6d9596a","session_id":"619bef118c2b4237f051b049","condition":"contingent","relevant_dimensions":["wings","pattern"],"bee_group":{"antennae":"X","wings":"1","pattern":"S","legs":"X"},"bonus":1.5800000000000014},{"rt":5080,"stimulus":"bees-with-color/bee-A2DM.svg","response":0,"trial_type":"image-button-response","trial_index":31,"time_elapsed":643650,"internal_node_id":"0.0-4.0-0.10","subject_id":"60f5a773c448898bf72987bc","study_id":"6197b3f67c2b5cd3b6d9596a","session_id":"619bef118c2b4237f051b049","condition":"contingent","relevant_dimensions":["wings","pattern"],"bee_group":{"antennae":"X","wings":"1","pattern":"S","legs":"X"},"action":"harvest","summary":"good-harvest","bonus":1.5800000000000014},{"rt":2684.8000000715256,"stimulus":"\n                    <p><b>Action: <em>harvest</em></b></p>\n                    <p>This is the bee that you just saw.</p>\n                    <img src=\"bees-with-color/bee-A2DM.svg\" width=\"200\">\n                    <p><span class=\"greenText\"><b>Successful harvest!</b></span><br>Your pay has increased by $0.02. Your bonus pay is now $0.40.</p>\n            ","response":0,"trial_type":"html-button-response","trial_index":32,"time_elapsed":646336,"internal_node_id":"0.0-4.0-1.10","subject_id":"60f5a773c448898bf72987bc","study_id":"6197b3f67c2b5cd3b6d9596a","session_id":"619bef118c2b4237f051b049","condition":"contingent","relevant_dimensions":["wings","pattern"],"bee_group":{"antennae":"X","wings":"1","pattern":"S","legs":"X"},"bonus":1.5800000000000014},{"rt":1274.7000000476837,"stimulus":"bees-with-color/bee-A1DM.svg","response":0,"trial_type":"image-button-response","trial_index":33,"time_elapsed":647612,"internal_node_id":"0.0-4.0-0.11","subject_id":"60f5a773c448898bf72987bc","study_id":"6197b3f67c2b5cd3b6d9596a","session_id":"619bef118c2b4237f051b049","condition":"contingent","relevant_dimensions":["wings","pattern"],"bee_group":{"antennae":"X","wings":"1","pattern":"S","legs":"X"},"action":"harvest","summary":"good-harvest","bonus":1.5800000000000014},{"rt":2263.6999999284744,"stimulus":"\n                    <p><b>Action: <em>harvest</em></b></p>\n                    <p>This is the bee that you just saw.</p>\n                    <img src=\"bees-with-color/bee-A1DM.svg\" width=\"200\">\n                    <p><span class=\"greenText\"><b>Successful harvest!</b></span><br>Your pay has increased by $0.02. Your bonus pay is now $0.42.</p>\n            ","response":0,"trial_type":"html-button-response","trial_index":34,"time_elapsed":649877,"internal_node_id":"0.0-4.0-1.11","subject_id":"60f5a773c448898bf72987bc","study_id":"6197b3f67c2b5cd3b6d9596a","session_id":"619bef118c2b4237f051b049","condition":"contingent","relevant_dimensions":["wings","pattern"],"bee_group":{"antennae":"X","wings":"1","pattern":"S","legs":"X"},"bonus":1.5800000000000014},{"rt":9703.600000023842,"stimulus":"bees-with-color/bee-B1DM.svg","response":0,"trial_type":"image-button-response","trial_index":35,"time_elapsed":659581,"internal_node_id":"0.0-4.0-0.12","subject_id":"60f5a773c448898bf72987bc","study_id":"6197b3f67c2b5cd3b6d9596a","session_id":"619bef118c2b4237f051b049","condition":"contingent","relevant_dimensions":["wings","pattern"],"bee_group":{"antennae":"X","wings":"1","pattern":"S","legs":"X"},"action":"harvest","summary":"good-harvest","bonus":1.5800000000000014},{"rt":1240.5,"stimulus":"\n                    <p><b>Action: <em>harvest</em></b></p>\n                    <p>This is the bee that you just saw.</p>\n                    <img src=\"bees-with-color/bee-B1DM.svg\" width=\"200\">\n                    <p><span class=\"greenText\"><b>Successful harvest!</b></span><br>Your pay has increased by $0.02. Your bonus pay is now $0.44.</p>\n            ","response":0,"trial_type":"html-button-response","trial_index":36,"time_elapsed":660823,"internal_node_id":"0.0-4.0-1.12","subject_id":"60f5a773c448898bf72987bc","study_id":"6197b3f67c2b5cd3b6d9596a","session_id":"619bef118c2b4237f051b049","condition":"contingent","relevant_dimensions":["wings","pattern"],"bee_group":{"antennae":"X","wings":"1","pattern":"S","legs":"X"},"bonus":1.5800000000000014},{"rt":1408.6000000238419,"stimulus":"bees-with-color/bee-A2DF.svg","response":0,"trial_type":"image-button-response","trial_index":37,"time_elapsed":662234,"internal_node_id":"0.0-4.0-0.13","subject_id":"60f5a773c448898bf72987bc","study_id":"6197b3f67c2b5cd3b6d9596a","session_id":"619bef118c2b4237f051b049","condition":"contingent","relevant_dimensions":["wings","pattern"],"bee_group":{"antennae":"X","wings":"1","pattern":"S","legs":"X"},"action":"harvest","summary":"good-harvest","bonus":1.5800000000000014},{"rt":1643.8999999761581,"stimulus":"\n                    <p><b>Action: <em>harvest</em></b></p>\n                    <p>This is the bee that you just saw.</p>\n                    <img src=\"bees-with-color/bee-A2DF.svg\" width=\"200\">\n                    <p><span class=\"greenText\"><b>Successful harvest!</b></span><br>Your pay has increased by $0.02. Your bonus pay is now $0.46.</p>\n            ","response":0,"trial_type":"html-button-response","trial_index":38,"time_elapsed":663879,"internal_node_id":"0.0-4.0-1.13","subject_id":"60f5a773c448898bf72987bc","study_id":"6197b3f67c2b5cd3b6d9596a","session_id":"619bef118c2b4237f051b049","condition":"contingent","relevant_dimensions":["wings","pattern"],"bee_group":{"antennae":"X","wings":"1","pattern":"S","legs":"X"},"bonus":1.5800000000000014},{"rt":906.5999999046326,"stimulus":"bees-with-color/bee-B1DF.svg","response":0,"trial_type":"image-button-response","trial_index":39,"time_elapsed":664787,"internal_node_id":"0.0-4.0-0.14","subject_id":"60f5a773c448898bf72987bc","study_id":"6197b3f67c2b5cd3b6d9596a","session_id":"619bef118c2b4237f051b049","condition":"contingent","relevant_dimensions":["wings","pattern"],"bee_group":{"antennae":"X","wings":"1","pattern":"S","legs":"X"},"action":"harvest","summary":"good-harvest","bonus":1.5800000000000014},{"rt":1024.8000000715256,"stimulus":"\n                    <p><b>Action: <em>harvest</em></b></p>\n                    <p>This is the bee that you just saw.</p>\n                    <img src=\"bees-with-color/bee-B1DF.svg\" width=\"200\">\n                    <p><span class=\"greenText\"><b>Successful harvest!</b></span><br>Your pay has increased by $0.02. Your bonus pay is now $0.48.</p>\n            ","response":0,"trial_type":"html-button-response","trial_index":40,"time_elapsed":665812,"internal_node_id":"0.0-4.0-1.14","subject_id":"60f5a773c448898bf72987bc","study_id":"6197b3f67c2b5cd3b6d9596a","session_id":"619bef118c2b4237f051b049","condition":"contingent","relevant_dimensions":["wings","pattern"],"bee_group":{"antennae":"X","wings":"1","pattern":"S","legs":"X"},"bonus":1.5800000000000014},{"rt":4781.200000047684,"stimulus":"bees-with-color/bee-B1SM.svg","response":0,"trial_type":"image-button-response","trial_index":41,"time_elapsed":670595,"internal_node_id":"0.0-4.0-0.15","subject_id":"60f5a773c448898bf72987bc","study_id":"6197b3f67c2b5cd3b6d9596a","session_id":"619bef118c2b4237f051b049","condition":"contingent","relevant_dimensions":["wings","pattern"],"bee_group":{"antennae":"X","wings":"1","pattern":"S","legs":"X"},"action":"harvest","summary":"bad-harvest","bonus":1.5800000000000014},{"rt":1762.3999999761581,"stimulus":"\n                    <p><b>Action: <em>harvest</em></b></p>\n                    <p>This is the bee that you just saw.</p>\n                    <img src=\"bees-with-color/bee-B1SM.svg\" width=\"200\">\n                    <p><span class=\"redText\">Bad choice, the bee was angry.</span><br><b>You have been stung!</b><br>Your pay has been decreased by $0.10. Your bonus pay is now $0.38.</p>\n            ","response":0,"trial_type":"html-button-response","trial_index":42,"time_elapsed":672358,"internal_node_id":"0.0-4.0-1.15","subject_id":"60f5a773c448898bf72987bc","study_id":"6197b3f67c2b5cd3b6d9596a","session_id":"619bef118c2b4237f051b049","condition":"contingent","relevant_dimensions":["wings","pattern"],"bee_group":{"antennae":"X","wings":"1","pattern":"S","legs":"X"},"bonus":1.5800000000000014},{"rt":11473,"stimulus":"bees-with-color/bee-B2SM.svg","response":0,"trial_type":"image-button-response","trial_index":43,"time_elapsed":683833,"internal_node_id":"0.0-4.0-0.16","subject_id":"60f5a773c448898bf72987bc","study_id":"6197b3f67c2b5cd3b6d9596a","session_id":"619bef118c2b4237f051b049","condition":"contingent","relevant_dimensions":["wings","pattern"],"bee_group":{"antennae":"X","wings":"1","pattern":"S","legs":"X"},"action":"harvest","summary":"good-harvest","bonus":1.5800000000000014},{"rt":1167.2999999523163,"stimulus":"\n                    <p><b>Action: <em>harvest</em></b></p>\n                    <p>This is the bee that you just saw.</p>\n                    <img src=\"bees-with-color/bee-B2SM.svg\" width=\"200\">\n                    <p><span class=\"greenText\"><b>Successful harvest!</b></span><br>Your pay has increased by $0.02. Your bonus pay is now $0.40.</p>\n            ","response":0,"trial_type":"html-button-response","trial_index":44,"time_elapsed":685001,"internal_node_id":"0.0-4.0-1.16","subject_id":"60f5a773c448898bf72987bc","study_id":"6197b3f67c2b5cd3b6d9596a","session_id":"619bef118c2b4237f051b049","condition":"contingent","relevant_dimensions":["wings","pattern"],"bee_group":{"antennae":"X","wings":"1","pattern":"S","legs":"X"},"bonus":1.5800000000000014},{"rt":2319.5,"stimulus":"bees-with-color/bee-B1SM.svg","response":1,"trial_type":"image-button-response","trial_index":45,"time_elapsed":687322,"internal_node_id":"0.0-4.0-0.17","subject_id":"60f5a773c448898bf72987bc","study_id":"6197b3f67c2b5cd3b6d9596a","session_id":"619bef118c2b4237f051b049","condition":"contingent","relevant_dimensions":["wings","pattern"],"bee_group":{"antennae":"X","wings":"1","pattern":"S","legs":"X"},"action":"avoid","summary":"good-avoid","bonus":1.5800000000000014},{"rt":1778.3999999761581,"stimulus":"\n                    <p><b>Action: <em>avoid</em></b></p>\n                    <p>This is the bee that you just saw.</p>\n                    <img src=\"bees-with-color/bee-B1SM.svg\" width=\"200\">\n                    <p><br>Your bonus pay is unchanged, and remains at $0.40.</p>\n            ","response":0,"trial_type":"html-button-response","trial_index":46,"time_elapsed":689102,"internal_node_id":"0.0-4.0-1.17","subject_id":"60f5a773c448898bf72987bc","study_id":"6197b3f67c2b5cd3b6d9596a","session_id":"619bef118c2b4237f051b049","condition":"contingent","relevant_dimensions":["wings","pattern"],"bee_group":{"antennae":"X","wings":"1","pattern":"S","legs":"X"},"bonus":1.5800000000000014},{"rt":1519.8000000715256,"stimulus":"bees-with-color/bee-B2SF.svg","response":0,"trial_type":"image-button-response","trial_index":47,"time_elapsed":690624,"internal_node_id":"0.0-4.0-0.18","subject_id":"60f5a773c448898bf72987bc","study_id":"6197b3f67c2b5cd3b6d9596a","session_id":"619bef118c2b4237f051b049","condition":"contingent","relevant_dimensions":["wings","pattern"],"bee_group":{"antennae":"X","wings":"1","pattern":"S","legs":"X"},"action":"harvest","summary":"good-harvest","bonus":1.5800000000000014},{"rt":1041.4000000953674,"stimulus":"\n                    <p><b>Action: <em>harvest</em></b></p>\n                    <p>This is the bee that you just saw.</p>\n                    <img src=\"bees-with-color/bee-B2SF.svg\" width=\"200\">\n                    <p><span class=\"greenText\"><b>Successful harvest!</b></span><br>Your pay has increased by $0.02. Your bonus pay is now $0.42.</p>\n            ","response":0,"trial_type":"html-button-response","trial_index":48,"time_elapsed":691667,"internal_node_id":"0.0-4.0-1.18","subject_id":"60f5a773c448898bf72987bc","study_id":"6197b3f67c2b5cd3b6d9596a","session_id":"619bef118c2b4237f051b049","condition":"contingent","relevant_dimensions":["wings","pattern"],"bee_group":{"antennae":"X","wings":"1","pattern":"S","legs":"X"},"bonus":1.5800000000000014},{"rt":1307.7000000476837,"stimulus":"bees-with-color/bee-A1SF.svg","response":1,"trial_type":"image-button-response","trial_index":49,"time_elapsed":692975,"internal_node_id":"0.0-4.0-0.19","subject_id":"60f5a773c448898bf72987bc","study_id":"6197b3f67c2b5cd3b6d9596a","session_id":"619bef118c2b4237f051b049","condition":"contingent","relevant_dimensions":["wings","pattern"],"bee_group":{"antennae":"X","wings":"1","pattern":"S","legs":"X"},"action":"avoid","summary":"good-avoid","bonus":1.5800000000000014},{"rt":1265.1999999284744,"stimulus":"\n                    <p><b>Action: <em>avoid</em></b></p>\n                    <p>This is the bee that you just saw.</p>\n                    <img src=\"bees-with-color/bee-A1SF.svg\" width=\"200\">\n                    <p><br>Your bonus pay is unchanged, and remains at $0.42.</p>\n            ","response":0,"trial_type":"html-button-response","trial_index":50,"time_elapsed":694242,"internal_node_id":"0.0-4.0-1.19","subject_id":"60f5a773c448898bf72987bc","study_id":"6197b3f67c2b5cd3b6d9596a","session_id":"619bef118c2b4237f051b049","condition":"contingent","relevant_dimensions":["wings","pattern"],"bee_group":{"antennae":"X","wings":"1","pattern":"S","legs":"X"},"bonus":1.5800000000000014},{"rt":1619.8999999761581,"stimulus":"bees-with-color/bee-A2SF.svg","response":0,"trial_type":"image-button-response","trial_index":51,"time_elapsed":695863,"internal_node_id":"0.0-4.0-0.20","subject_id":"60f5a773c448898bf72987bc","study_id":"6197b3f67c2b5cd3b6d9596a","session_id":"619bef118c2b4237f051b049","condition":"contingent","relevant_dimensions":["wings","pattern"],"bee_group":{"antennae":"X","wings":"1","pattern":"S","legs":"X"},"action":"harvest","summary":"good-harvest","bonus":1.5800000000000014},{"rt":976.5999999046326,"stimulus":"\n                    <p><b>Action: <em>harvest</em></b></p>\n                    <p>This is the bee that you just saw.</p>\n                    <img src=\"bees-with-color/bee-A2SF.svg\" width=\"200\">\n                    <p><span class=\"greenText\"><b>Successful harvest!</b></span><br>Your pay has increased by $0.02. Your bonus pay is now $0.44.</p>\n            ","response":0,"trial_type":"html-button-response","trial_index":52,"time_elapsed":696841,"internal_node_id":"0.0-4.0-1.20","subject_id":"60f5a773c448898bf72987bc","study_id":"6197b3f67c2b5cd3b6d9596a","session_id":"619bef118c2b4237f051b049","condition":"contingent","relevant_dimensions":["wings","pattern"],"bee_group":{"antennae":"X","wings":"1","pattern":"S","legs":"X"},"bonus":1.5800000000000014},{"rt":965,"stimulus":"bees-with-color/bee-A1DM.svg","response":0,"trial_type":"image-button-response","trial_index":53,"time_elapsed":697807,"internal_node_id":"0.0-4.0-0.21","subject_id":"60f5a773c448898bf72987bc","study_id":"6197b3f67c2b5cd3b6d9596a","session_id":"619bef118c2b4237f051b049","condition":"contingent","relevant_dimensions":["wings","pattern"],"bee_group":{"antennae":"X","wings":"1","pattern":"S","legs":"X"},"action":"harvest","summary":"good-harvest","bonus":1.5800000000000014},{"rt":881.1999999284744,"stimulus":"\n                    <p><b>Action: <em>harvest</em></b></p>\n                    <p>This is the bee that you just saw.</p>\n                    <img src=\"bees-with-color/bee-A1DM.svg\" width=\"200\">\n                    <p><span class=\"greenText\"><b>Successful harvest!</b></span><br>Your pay has increased by $0.02. Your bonus pay is now $0.46.</p>\n            ","response":0,"trial_type":"html-button-response","trial_index":54,"time_elapsed":698691,"internal_node_id":"0.0-4.0-1.21","subject_id":"60f5a773c448898bf72987bc","study_id":"6197b3f67c2b5cd3b6d9596a","session_id":"619bef118c2b4237f051b049","condition":"contingent","relevant_dimensions":["wings","pattern"],"bee_group":{"antennae":"X","wings":"1","pattern":"S","legs":"X"},"bonus":1.5800000000000014},{"rt":868.7000000476837,"stimulus":"bees-with-color/bee-A2DM.svg","response":0,"trial_type":"image-button-response","trial_index":55,"time_elapsed":699561,"internal_node_id":"0.0-4.0-0.22","subject_id":"60f5a773c448898bf72987bc","study_id":"6197b3f67c2b5cd3b6d9596a","session_id":"619bef118c2b4237f051b049","condition":"contingent","relevant_dimensions":["wings","pattern"],"bee_group":{"antennae":"X","wings":"1","pattern":"S","legs":"X"},"action":"harvest","summary":"good-harvest","bonus":1.5800000000000014},{"rt":880.2000000476837,"stimulus":"\n                    <p><b>Action: <em>harvest</em></b></p>\n                    <p>This is the bee that you just saw.</p>\n                    <img src=\"bees-with-color/bee-A2DM.svg\" width=\"200\">\n                    <p><span class=\"greenText\"><b>Successful harvest!</b></span><br>Your pay has increased by $0.02. Your bonus pay is now $0.48.</p>\n            ","response":0,"trial_type":"html-button-response","trial_index":56,"time_elapsed":700442,"internal_node_id":"0.0-4.0-1.22","subject_id":"60f5a773c448898bf72987bc","study_id":"6197b3f67c2b5cd3b6d9596a","session_id":"619bef118c2b4237f051b049","condition":"contingent","relevant_dimensions":["wings","pattern"],"bee_group":{"antennae":"X","wings":"1","pattern":"S","legs":"X"},"bonus":1.5800000000000014},{"rt":1242.6000000238419,"stimulus":"bees-with-color/bee-A2SM.svg","response":0,"trial_type":"image-button-response","trial_index":57,"time_elapsed":701686,"internal_node_id":"0.0-4.0-0.23","subject_id":"60f5a773c448898bf72987bc","study_id":"6197b3f67c2b5cd3b6d9596a","session_id":"619bef118c2b4237f051b049","condition":"contingent","relevant_dimensions":["wings","pattern"],"bee_group":{"antennae":"X","wings":"1","pattern":"S","legs":"X"},"action":"harvest","summary":"good-harvest","bonus":1.5800000000000014},{"rt":783.8999999761581,"stimulus":"\n                    <p><b>Action: <em>harvest</em></b></p>\n                    <p>This is the bee that you just saw.</p>\n                    <img src=\"bees-with-color/bee-A2SM.svg\" width=\"200\">\n                    <p><span class=\"greenText\"><b>Successful harvest!</b></span><br>Your pay has increased by $0.02. Your bonus pay is now $0.50.</p>\n            ","response":0,"trial_type":"html-button-response","trial_index":58,"time_elapsed":702471,"internal_node_id":"0.0-4.0-1.23","subject_id":"60f5a773c448898bf72987bc","study_id":"6197b3f67c2b5cd3b6d9596a","session_id":"619bef118c2b4237f051b049","condition":"contingent","relevant_dimensions":["wings","pattern"],"bee_group":{"antennae":"X","wings":"1","pattern":"S","legs":"X"},"bonus":1.5800000000000014},{"rt":978.1000000238419,"stimulus":"bees-with-color/bee-B1DM.svg","response":0,"trial_type":"image-button-response","trial_index":59,"time_elapsed":703450,"internal_node_id":"0.0-4.0-0.24","subject_id":"60f5a773c448898bf72987bc","study_id":"6197b3f67c2b5cd3b6d9596a","session_id":"619bef118c2b4237f051b049","condition":"contingent","relevant_dimensions":["wings","pattern"],"bee_group":{"antennae":"X","wings":"1","pattern":"S","legs":"X"},"action":"harvest","summary":"good-harvest","bonus":1.5800000000000014},{"rt":1336.9000000953674,"stimulus":"\n                    <p><b>Action: <em>harvest</em></b></p>\n                    <p>This is the bee that you just saw.</p>\n                    <img src=\"bees-with-color/bee-B1DM.svg\" width=\"200\">\n                    <p><span class=\"greenText\"><b>Successful harvest!</b></span><br>Your pay has increased by $0.02. Your bonus pay is now $0.52.</p>\n            ","response":0,"trial_type":"html-button-response","trial_index":60,"time_elapsed":704788,"internal_node_id":"0.0-4.0-1.24","subject_id":"60f5a773c448898bf72987bc","study_id":"6197b3f67c2b5cd3b6d9596a","session_id":"619bef118c2b4237f051b049","condition":"contingent","relevant_dimensions":["wings","pattern"],"bee_group":{"antennae":"X","wings":"1","pattern":"S","legs":"X"},"bonus":1.5800000000000014},{"rt":994.2000000476837,"stimulus":"bees-with-color/bee-A1DF.svg","response":0,"trial_type":"image-button-response","trial_index":61,"time_elapsed":705783,"internal_node_id":"0.0-4.0-0.25","subject_id":"60f5a773c448898bf72987bc","study_id":"6197b3f67c2b5cd3b6d9596a","session_id":"619bef118c2b4237f051b049","condition":"contingent","relevant_dimensions":["wings","pattern"],"bee_group":{"antennae":"X","wings":"1","pattern":"S","legs":"X"},"action":"harvest","summary":"good-harvest","bonus":1.5800000000000014},{"rt":918.8999999761581,"stimulus":"\n                    <p><b>Action: <em>harvest</em></b></p>\n                    <p>This is the bee that you just saw.</p>\n                    <img src=\"bees-with-color/bee-A1DF.svg\" width=\"200\">\n                    <p><span class=\"greenText\"><b>Successful harvest!</b></span><br>Your pay has increased by $0.02. Your bonus pay is now $0.54.</p>\n            ","response":0,"trial_type":"html-button-response","trial_index":62,"time_elapsed":706703,"internal_node_id":"0.0-4.0-1.25","subject_id":"60f5a773c448898bf72987bc","study_id":"6197b3f67c2b5cd3b6d9596a","session_id":"619bef118c2b4237f051b049","condition":"contingent","relevant_dimensions":["wings","pattern"],"bee_group":{"antennae":"X","wings":"1","pattern":"S","legs":"X"},"bonus":1.5800000000000014},{"rt":966.3999999761581,"stimulus":"bees-with-color/bee-B2DM.svg","response":0,"trial_type":"image-button-response","trial_index":63,"time_elapsed":707671,"internal_node_id":"0.0-4.0-0.26","subject_id":"60f5a773c448898bf72987bc","study_id":"6197b3f67c2b5cd3b6d9596a","session_id":"619bef118c2b4237f051b049","condition":"contingent","relevant_dimensions":["wings","pattern"],"bee_group":{"antennae":"X","wings":"1","pattern":"S","legs":"X"},"action":"harvest","summary":"good-harvest","bonus":1.5800000000000014},{"rt":809.8999999761581,"stimulus":"\n                    <p><b>Action: <em>harvest</em></b></p>\n                    <p>This is the bee that you just saw.</p>\n                    <img src=\"bees-with-color/bee-B2DM.svg\" width=\"200\">\n                    <p><span class=\"greenText\"><b>Successful harvest!</b></span><br>Your pay has increased by $0.02. Your bonus pay is now $0.56.</p>\n            ","response":0,"trial_type":"html-button-response","trial_index":64,"time_elapsed":708482,"internal_node_id":"0.0-4.0-1.26","subject_id":"60f5a773c448898bf72987bc","study_id":"6197b3f67c2b5cd3b6d9596a","session_id":"619bef118c2b4237f051b049","condition":"contingent","relevant_dimensions":["wings","pattern"],"bee_group":{"antennae":"X","wings":"1","pattern":"S","legs":"X"},"bonus":1.5800000000000014},{"rt":824.8999999761581,"stimulus":"bees-with-color/bee-B2DF.svg","response":0,"trial_type":"image-button-response","trial_index":65,"time_elapsed":709308,"internal_node_id":"0.0-4.0-0.27","subject_id":"60f5a773c448898bf72987bc","study_id":"6197b3f67c2b5cd3b6d9596a","session_id":"619bef118c2b4237f051b049","condition":"contingent","relevant_dimensions":["wings","pattern"],"bee_group":{"antennae":"X","wings":"1","pattern":"S","legs":"X"},"action":"harvest","summary":"good-harvest","bonus":1.5800000000000014},{"rt":821,"stimulus":"\n                    <p><b>Action: <em>harvest</em></b></p>\n                    <p>This is the bee that you just saw.</p>\n                    <img src=\"bees-with-color/bee-B2DF.svg\" width=\"200\">\n                    <p><span class=\"greenText\"><b>Successful harvest!</b></span><br>Your pay has increased by $0.02. Your bonus pay is now $0.58.</p>\n            ","response":0,"trial_type":"html-button-response","trial_index":66,"time_elapsed":710130,"internal_node_id":"0.0-4.0-1.27","subject_id":"60f5a773c448898bf72987bc","study_id":"6197b3f67c2b5cd3b6d9596a","session_id":"619bef118c2b4237f051b049","condition":"contingent","relevant_dimensions":["wings","pattern"],"bee_group":{"antennae":"X","wings":"1","pattern":"S","legs":"X"},"bonus":1.5800000000000014},{"rt":805.3999999761581,"stimulus":"bees-with-color/bee-B1DF.svg","response":0,"trial_type":"image-button-response","trial_index":67,"time_elapsed":710936,"internal_node_id":"0.0-4.0-0.28","subject_id":"60f5a773c448898bf72987bc","study_id":"6197b3f67c2b5cd3b6d9596a","session_id":"619bef118c2b4237f051b049","condition":"contingent","relevant_dimensions":["wings","pattern"],"bee_group":{"antennae":"X","wings":"1","pattern":"S","legs":"X"},"action":"harvest","summary":"good-harvest","bonus":1.5800000000000014},{"rt":775.7999999523163,"stimulus":"\n                    <p><b>Action: <em>harvest</em></b></p>\n                    <p>This is the bee that you just saw.</p>\n                    <img src=\"bees-with-color/bee-B1DF.svg\" width=\"200\">\n                    <p><span class=\"greenText\"><b>Successful harvest!</b></span><br>Your pay has increased by $0.02. Your bonus pay is now $0.60.</p>\n            ","response":0,"trial_type":"html-button-response","trial_index":68,"time_elapsed":711713,"internal_node_id":"0.0-4.0-1.28","subject_id":"60f5a773c448898bf72987bc","study_id":"6197b3f67c2b5cd3b6d9596a","session_id":"619bef118c2b4237f051b049","condition":"contingent","relevant_dimensions":["wings","pattern"],"bee_group":{"antennae":"X","wings":"1","pattern":"S","legs":"X"},"bonus":1.5800000000000014},{"rt":1355.2999999523163,"stimulus":"bees-with-color/bee-B1SF.svg","response":1,"trial_type":"image-button-response","trial_index":69,"time_elapsed":713069,"internal_node_id":"0.0-4.0-0.29","subject_id":"60f5a773c448898bf72987bc","study_id":"6197b3f67c2b5cd3b6d9596a","session_id":"619bef118c2b4237f051b049","condition":"contingent","relevant_dimensions":["wings","pattern"],"bee_group":{"antennae":"X","wings":"1","pattern":"S","legs":"X"},"action":"avoid","summary":"good-avoid","bonus":1.5800000000000014},{"rt":1154.1999999284744,"stimulus":"\n                    <p><b>Action: <em>avoid</em></b></p>\n                    <p>This is the bee that you just saw.</p>\n                    <img src=\"bees-with-color/bee-B1SF.svg\" width=\"200\">\n                    <p><br>Your bonus pay is unchanged, and remains at $0.60.</p>\n            ","response":0,"trial_type":"html-button-response","trial_index":70,"time_elapsed":714225,"internal_node_id":"0.0-4.0-1.29","subject_id":"60f5a773c448898bf72987bc","study_id":"6197b3f67c2b5cd3b6d9596a","session_id":"619bef118c2b4237f051b049","condition":"contingent","relevant_dimensions":["wings","pattern"],"bee_group":{"antennae":"X","wings":"1","pattern":"S","legs":"X"},"bonus":1.5800000000000014},{"rt":2928.899999976158,"stimulus":"bees-with-color/bee-A1SM.svg","response":1,"trial_type":"image-button-response","trial_index":71,"time_elapsed":717155,"internal_node_id":"0.0-4.0-0.30","subject_id":"60f5a773c448898bf72987bc","study_id":"6197b3f67c2b5cd3b6d9596a","session_id":"619bef118c2b4237f051b049","condition":"contingent","relevant_dimensions":["wings","pattern"],"bee_group":{"antennae":"X","wings":"1","pattern":"S","legs":"X"},"action":"avoid","summary":"good-avoid","bonus":1.5800000000000014},{"rt":1137.6000000238419,"stimulus":"\n                    <p><b>Action: <em>avoid</em></b></p>\n                    <p>This is the bee that you just saw.</p>\n                    <img src=\"bees-with-color/bee-A1SM.svg\" width=\"200\">\n                    <p><br>Your bonus pay is unchanged, and remains at $0.60.</p>\n            ","response":0,"trial_type":"html-button-response","trial_index":72,"time_elapsed":718293,"internal_node_id":"0.0-4.0-1.30","subject_id":"60f5a773c448898bf72987bc","study_id":"6197b3f67c2b5cd3b6d9596a","session_id":"619bef118c2b4237f051b049","condition":"contingent","relevant_dimensions":["wings","pattern"],"bee_group":{"antennae":"X","wings":"1","pattern":"S","legs":"X"},"bonus":1.5800000000000014},{"rt":1230.5,"stimulus":"bees-with-color/bee-A2DF.svg","response":0,"trial_type":"image-button-response","trial_index":73,"time_elapsed":719526,"internal_node_id":"0.0-4.0-0.31","subject_id":"60f5a773c448898bf72987bc","study_id":"6197b3f67c2b5cd3b6d9596a","session_id":"619bef118c2b4237f051b049","condition":"contingent","relevant_dimensions":["wings","pattern"],"bee_group":{"antennae":"X","wings":"1","pattern":"S","legs":"X"},"action":"harvest","summary":"good-harvest","bonus":1.5800000000000014},{"rt":906,"stimulus":"\n                    <p><b>Action: <em>harvest</em></b></p>\n                    <p>This is the bee that you just saw.</p>\n                    <img src=\"bees-with-color/bee-A2DF.svg\" width=\"200\">\n                    <p><span class=\"greenText\"><b>Successful harvest!</b></span><br>Your pay has increased by $0.02. Your bonus pay is now $0.62.</p>\n            ","response":0,"trial_type":"html-button-response","trial_index":74,"time_elapsed":720433,"internal_node_id":"0.0-4.0-1.31","subject_id":"60f5a773c448898bf72987bc","study_id":"6197b3f67c2b5cd3b6d9596a","session_id":"619bef118c2b4237f051b049","condition":"contingent","relevant_dimensions":["wings","pattern"],"bee_group":{"antennae":"X","wings":"1","pattern":"S","legs":"X"},"bonus":1.5800000000000014},{"rt":1228.7999999523163,"stimulus":"bees-with-color/bee-A1SM.svg","response":1,"trial_type":"image-button-response","trial_index":75,"time_elapsed":721663,"internal_node_id":"0.0-4.0-0.32","subject_id":"60f5a773c448898bf72987bc","study_id":"6197b3f67c2b5cd3b6d9596a","session_id":"619bef118c2b4237f051b049","condition":"contingent","relevant_dimensions":["wings","pattern"],"bee_group":{"antennae":"X","wings":"1","pattern":"S","legs":"X"},"action":"avoid","summary":"good-avoid","bonus":1.5800000000000014},{"rt":1012.1000000238419,"stimulus":"\n                    <p><b>Action: <em>avoid</em></b></p>\n                    <p>This is the bee that you just saw.</p>\n                    <img src=\"bees-with-color/bee-A1SM.svg\" width=\"200\">\n                    <p><br>Your bonus pay is unchanged, and remains at $0.62.</p>\n            ","response":0,"trial_type":"html-button-response","trial_index":76,"time_elapsed":722677,"internal_node_id":"0.0-4.0-1.32","subject_id":"60f5a773c448898bf72987bc","study_id":"6197b3f67c2b5cd3b6d9596a","session_id":"619bef118c2b4237f051b049","condition":"contingent","relevant_dimensions":["wings","pattern"],"bee_group":{"antennae":"X","wings":"1","pattern":"S","legs":"X"},"bonus":1.5800000000000014},{"rt":1872.8000000715256,"stimulus":"bees-with-color/bee-A1DM.svg","response":0,"trial_type":"image-button-response","trial_index":77,"time_elapsed":724552,"internal_node_id":"0.0-4.0-0.33","subject_id":"60f5a773c448898bf72987bc","study_id":"6197b3f67c2b5cd3b6d9596a","session_id":"619bef118c2b4237f051b049","condition":"contingent","relevant_dimensions":["wings","pattern"],"bee_group":{"antennae":"X","wings":"1","pattern":"S","legs":"X"},"action":"harvest","summary":"good-harvest","bonus":1.5800000000000014},{"rt":885.7000000476837,"stimulus":"\n                    <p><b>Action: <em>harvest</em></b></p>\n                    <p>This is the bee that you just saw.</p>\n                    <img src=\"bees-with-color/bee-A1DM.svg\" width=\"200\">\n                    <p><span class=\"greenText\"><b>Successful harvest!</b></span><br>Your pay has increased by $0.02. Your bonus pay is now $0.64.</p>\n            ","response":0,"trial_type":"html-button-response","trial_index":78,"time_elapsed":725439,"internal_node_id":"0.0-4.0-1.33","subject_id":"60f5a773c448898bf72987bc","study_id":"6197b3f67c2b5cd3b6d9596a","session_id":"619bef118c2b4237f051b049","condition":"contingent","relevant_dimensions":["wings","pattern"],"bee_group":{"antennae":"X","wings":"1","pattern":"S","legs":"X"},"bonus":1.5800000000000014},{"rt":1293.5999999046326,"stimulus":"bees-with-color/bee-B2SF.svg","response":0,"trial_type":"image-button-response","trial_index":79,"time_elapsed":726734,"internal_node_id":"0.0-4.0-0.34","subject_id":"60f5a773c448898bf72987bc","study_id":"6197b3f67c2b5cd3b6d9596a","session_id":"619bef118c2b4237f051b049","condition":"contingent","relevant_dimensions":["wings","pattern"],"bee_group":{"antennae":"X","wings":"1","pattern":"S","legs":"X"},"action":"harvest","summary":"good-harvest","bonus":1.5800000000000014},{"rt":746.8999999761581,"stimulus":"\n                    <p><b>Action: <em>harvest</em></b></p>\n                    <p>This is the bee that you just saw.</p>\n                    <img src=\"bees-with-color/bee-B2SF.svg\" width=\"200\">\n                    <p><span class=\"greenText\"><b>Successful harvest!</b></span><br>Your pay has increased by $0.02. Your bonus pay is now $0.66.</p>\n            ","response":0,"trial_type":"html-button-response","trial_index":80,"time_elapsed":727482,"internal_node_id":"0.0-4.0-1.34","subject_id":"60f5a773c448898bf72987bc","study_id":"6197b3f67c2b5cd3b6d9596a","session_id":"619bef118c2b4237f051b049","condition":"contingent","relevant_dimensions":["wings","pattern"],"bee_group":{"antennae":"X","wings":"1","pattern":"S","legs":"X"},"bonus":1.5800000000000014},{"rt":806.2999999523163,"stimulus":"bees-with-color/bee-A2DF.svg","response":0,"trial_type":"image-button-response","trial_index":81,"time_elapsed":728290,"internal_node_id":"0.0-4.0-0.35","subject_id":"60f5a773c448898bf72987bc","study_id":"6197b3f67c2b5cd3b6d9596a","session_id":"619bef118c2b4237f051b049","condition":"contingent","relevant_dimensions":["wings","pattern"],"bee_group":{"antennae":"X","wings":"1","pattern":"S","legs":"X"},"action":"harvest","summary":"good-harvest","bonus":1.5800000000000014},{"rt":780.6999999284744,"stimulus":"\n                    <p><b>Action: <em>harvest</em></b></p>\n                    <p>This is the bee that you just saw.</p>\n                    <img src=\"bees-with-color/bee-A2DF.svg\" width=\"200\">\n                    <p><span class=\"greenText\"><b>Successful harvest!</b></span><br>Your pay has increased by $0.02. Your bonus pay is now $0.68.</p>\n            ","response":0,"trial_type":"html-button-response","trial_index":82,"time_elapsed":729072,"internal_node_id":"0.0-4.0-1.35","subject_id":"60f5a773c448898bf72987bc","study_id":"6197b3f67c2b5cd3b6d9596a","session_id":"619bef118c2b4237f051b049","condition":"contingent","relevant_dimensions":["wings","pattern"],"bee_group":{"antennae":"X","wings":"1","pattern":"S","legs":"X"},"bonus":1.5800000000000014},{"rt":808.6999999284744,"stimulus":"bees-with-color/bee-B1DF.svg","response":0,"trial_type":"image-button-response","trial_index":83,"time_elapsed":729882,"internal_node_id":"0.0-4.0-0.36","subject_id":"60f5a773c448898bf72987bc","study_id":"6197b3f67c2b5cd3b6d9596a","session_id":"619bef118c2b4237f051b049","condition":"contingent","relevant_dimensions":["wings","pattern"],"bee_group":{"antennae":"X","wings":"1","pattern":"S","legs":"X"},"action":"harvest","summary":"good-harvest","bonus":1.5800000000000014},{"rt":805.6000000238419,"stimulus":"\n                    <p><b>Action: <em>harvest</em></b></p>\n                    <p>This is the bee that you just saw.</p>\n                    <img src=\"bees-with-color/bee-B1DF.svg\" width=\"200\">\n                    <p><span class=\"greenText\"><b>Successful harvest!</b></span><br>Your pay has increased by $0.02. Your bonus pay is now $0.70.</p>\n            ","response":0,"trial_type":"html-button-response","trial_index":84,"time_elapsed":730688,"internal_node_id":"0.0-4.0-1.36","subject_id":"60f5a773c448898bf72987bc","study_id":"6197b3f67c2b5cd3b6d9596a","session_id":"619bef118c2b4237f051b049","condition":"contingent","relevant_dimensions":["wings","pattern"],"bee_group":{"antennae":"X","wings":"1","pattern":"S","legs":"X"},"bonus":1.5800000000000014},{"rt":1165.1000000238419,"stimulus":"bees-with-color/bee-A2SM.svg","response":0,"trial_type":"image-button-response","trial_index":85,"time_elapsed":731855,"internal_node_id":"0.0-4.0-0.37","subject_id":"60f5a773c448898bf72987bc","study_id":"6197b3f67c2b5cd3b6d9596a","session_id":"619bef118c2b4237f051b049","condition":"contingent","relevant_dimensions":["wings","pattern"],"bee_group":{"antennae":"X","wings":"1","pattern":"S","legs":"X"},"action":"harvest","summary":"good-harvest","bonus":1.5800000000000014},{"rt":749.6000000238419,"stimulus":"\n                    <p><b>Action: <em>harvest</em></b></p>\n                    <p>This is the bee that you just saw.</p>\n                    <img src=\"bees-with-color/bee-A2SM.svg\" width=\"200\">\n                    <p><span class=\"greenText\"><b>Successful harvest!</b></span><br>Your pay has increased by $0.02. Your bonus pay is now $0.72.</p>\n            ","response":0,"trial_type":"html-button-response","trial_index":86,"time_elapsed":732606,"internal_node_id":"0.0-4.0-1.37","subject_id":"60f5a773c448898bf72987bc","study_id":"6197b3f67c2b5cd3b6d9596a","session_id":"619bef118c2b4237f051b049","condition":"contingent","relevant_dimensions":["wings","pattern"],"bee_group":{"antennae":"X","wings":"1","pattern":"S","legs":"X"},"bonus":1.5800000000000014},{"rt":1548.6000000238419,"stimulus":"bees-with-color/bee-A2DM.svg","response":0,"trial_type":"image-button-response","trial_index":87,"time_elapsed":734155,"internal_node_id":"0.0-4.0-0.38","subject_id":"60f5a773c448898bf72987bc","study_id":"6197b3f67c2b5cd3b6d9596a","session_id":"619bef118c2b4237f051b049","condition":"contingent","relevant_dimensions":["wings","pattern"],"bee_group":{"antennae":"X","wings":"1","pattern":"S","legs":"X"},"action":"harvest","summary":"good-harvest","bonus":1.5800000000000014},{"rt":793.2000000476837,"stimulus":"\n                    <p><b>Action: <em>harvest</em></b></p>\n                    <p>This is the bee that you just saw.</p>\n                    <img src=\"bees-with-color/bee-A2DM.svg\" width=\"200\">\n                    <p><span class=\"greenText\"><b>Successful harvest!</b></span><br>Your pay has increased by $0.02. Your bonus pay is now $0.74.</p>\n            ","response":0,"trial_type":"html-button-response","trial_index":88,"time_elapsed":734950,"internal_node_id":"0.0-4.0-1.38","subject_id":"60f5a773c448898bf72987bc","study_id":"6197b3f67c2b5cd3b6d9596a","session_id":"619bef118c2b4237f051b049","condition":"contingent","relevant_dimensions":["wings","pattern"],"bee_group":{"antennae":"X","wings":"1","pattern":"S","legs":"X"},"bonus":1.5800000000000014},{"rt":1257.1999999284744,"stimulus":"bees-with-color/bee-B1SF.svg","response":1,"trial_type":"image-button-response","trial_index":89,"time_elapsed":736208,"internal_node_id":"0.0-4.0-0.39","subject_id":"60f5a773c448898bf72987bc","study_id":"6197b3f67c2b5cd3b6d9596a","session_id":"619bef118c2b4237f051b049","condition":"contingent","relevant_dimensions":["wings","pattern"],"bee_group":{"antennae":"X","wings":"1","pattern":"S","legs":"X"},"action":"avoid","summary":"good-avoid","bonus":1.5800000000000014},{"rt":1341.5999999046326,"stimulus":"\n                    <p><b>Action: <em>avoid</em></b></p>\n                    <p>This is the bee that you just saw.</p>\n                    <img src=\"bees-with-color/bee-B1SF.svg\" width=\"200\">\n                    <p><br>Your bonus pay is unchanged, and remains at $0.74.</p>\n            ","response":0,"trial_type":"html-button-response","trial_index":90,"time_elapsed":737551,"internal_node_id":"0.0-4.0-1.39","subject_id":"60f5a773c448898bf72987bc","study_id":"6197b3f67c2b5cd3b6d9596a","session_id":"619bef118c2b4237f051b049","condition":"contingent","relevant_dimensions":["wings","pattern"],"bee_group":{"antennae":"X","wings":"1","pattern":"S","legs":"X"},"bonus":1.5800000000000014},{"rt":714.8999999761581,"stimulus":"bees-with-color/bee-A1DF.svg","response":0,"trial_type":"image-button-response","trial_index":91,"time_elapsed":738268,"internal_node_id":"0.0-4.0-0.40","subject_id":"60f5a773c448898bf72987bc","study_id":"6197b3f67c2b5cd3b6d9596a","session_id":"619bef118c2b4237f051b049","condition":"contingent","relevant_dimensions":["wings","pattern"],"bee_group":{"antennae":"X","wings":"1","pattern":"S","legs":"X"},"action":"harvest","summary":"good-harvest","bonus":1.5800000000000014},{"rt":1065.5999999046326,"stimulus":"\n                    <p><b>Action: <em>harvest</em></b></p>\n                    <p>This is the bee that you just saw.</p>\n                    <img src=\"bees-with-color/bee-A1DF.svg\" width=\"200\">\n                    <p><span class=\"greenText\"><b>Successful harvest!</b></span><br>Your pay has increased by $0.02. Your bonus pay is now $0.76.</p>\n            ","response":0,"trial_type":"html-button-response","trial_index":92,"time_elapsed":739334,"internal_node_id":"0.0-4.0-1.40","subject_id":"60f5a773c448898bf72987bc","study_id":"6197b3f67c2b5cd3b6d9596a","session_id":"619bef118c2b4237f051b049","condition":"contingent","relevant_dimensions":["wings","pattern"],"bee_group":{"antennae":"X","wings":"1","pattern":"S","legs":"X"},"bonus":1.5800000000000014},{"rt":2437,"stimulus":"bees-with-color/bee-A1SF.svg","response":1,"trial_type":"image-button-response","trial_index":93,"time_elapsed":741773,"internal_node_id":"0.0-4.0-0.41","subject_id":"60f5a773c448898bf72987bc","study_id":"6197b3f67c2b5cd3b6d9596a","session_id":"619bef118c2b4237f051b049","condition":"contingent","relevant_dimensions":["wings","pattern"],"bee_group":{"antennae":"X","wings":"1","pattern":"S","legs":"X"},"action":"avoid","summary":"good-avoid","bonus":1.5800000000000014},{"rt":932.3000000715256,"stimulus":"\n                    <p><b>Action: <em>avoid</em></b></p>\n                    <p>This is the bee that you just saw.</p>\n                    <img src=\"bees-with-color/bee-A1SF.svg\" width=\"200\">\n                    <p><br>Your bonus pay is unchanged, and remains at $0.76.</p>\n            ","response":0,"trial_type":"html-button-response","trial_index":94,"time_elapsed":742706,"internal_node_id":"0.0-4.0-1.41","subject_id":"60f5a773c448898bf72987bc","study_id":"6197b3f67c2b5cd3b6d9596a","session_id":"619bef118c2b4237f051b049","condition":"contingent","relevant_dimensions":["wings","pattern"],"bee_group":{"antennae":"X","wings":"1","pattern":"S","legs":"X"},"bonus":1.5800000000000014},{"rt":1465.1000000238419,"stimulus":"bees-with-color/bee-B2DF.svg","response":0,"trial_type":"image-button-response","trial_index":95,"time_elapsed":744172,"internal_node_id":"0.0-4.0-0.42","subject_id":"60f5a773c448898bf72987bc","study_id":"6197b3f67c2b5cd3b6d9596a","session_id":"619bef118c2b4237f051b049","condition":"contingent","relevant_dimensions":["wings","pattern"],"bee_group":{"antennae":"X","wings":"1","pattern":"S","legs":"X"},"action":"harvest","summary":"good-harvest","bonus":1.5800000000000014},{"rt":827.5999999046326,"stimulus":"\n                    <p><b>Action: <em>harvest</em></b></p>\n                    <p>This is the bee that you just saw.</p>\n                    <img src=\"bees-with-color/bee-B2DF.svg\" width=\"200\">\n                    <p><span class=\"greenText\"><b>Successful harvest!</b></span><br>Your pay has increased by $0.02. Your bonus pay is now $0.78.</p>\n            ","response":0,"trial_type":"html-button-response","trial_index":96,"time_elapsed":745002,"internal_node_id":"0.0-4.0-1.42","subject_id":"60f5a773c448898bf72987bc","study_id":"6197b3f67c2b5cd3b6d9596a","session_id":"619bef118c2b4237f051b049","condition":"contingent","relevant_dimensions":["wings","pattern"],"bee_group":{"antennae":"X","wings":"1","pattern":"S","legs":"X"},"bonus":1.5800000000000014},{"rt":1262.8000000715256,"stimulus":"bees-with-color/bee-A2SF.svg","response":0,"trial_type":"image-button-response","trial_index":97,"time_elapsed":746265,"internal_node_id":"0.0-4.0-0.43","subject_id":"60f5a773c448898bf72987bc","study_id":"6197b3f67c2b5cd3b6d9596a","session_id":"619bef118c2b4237f051b049","condition":"contingent","relevant_dimensions":["wings","pattern"],"bee_group":{"antennae":"X","wings":"1","pattern":"S","legs":"X"},"action":"harvest","summary":"good-harvest","bonus":1.5800000000000014},{"rt":761.7999999523163,"stimulus":"\n                    <p><b>Action: <em>harvest</em></b></p>\n                    <p>This is the bee that you just saw.</p>\n                    <img src=\"bees-with-color/bee-A2SF.svg\" width=\"200\">\n                    <p><span class=\"greenText\"><b>Successful harvest!</b></span><br>Your pay has increased by $0.02. Your bonus pay is now $0.80.</p>\n            ","response":0,"trial_type":"html-button-response","trial_index":98,"time_elapsed":747028,"internal_node_id":"0.0-4.0-1.43","subject_id":"60f5a773c448898bf72987bc","study_id":"6197b3f67c2b5cd3b6d9596a","session_id":"619bef118c2b4237f051b049","condition":"contingent","relevant_dimensions":["wings","pattern"],"bee_group":{"antennae":"X","wings":"1","pattern":"S","legs":"X"},"bonus":1.5800000000000014},{"rt":1400.5,"stimulus":"bees-with-color/bee-B1SM.svg","response":1,"trial_type":"image-button-response","trial_index":99,"time_elapsed":748430,"internal_node_id":"0.0-4.0-0.44","subject_id":"60f5a773c448898bf72987bc","study_id":"6197b3f67c2b5cd3b6d9596a","session_id":"619bef118c2b4237f051b049","condition":"contingent","relevant_dimensions":["wings","pattern"],"bee_group":{"antennae":"X","wings":"1","pattern":"S","legs":"X"},"action":"avoid","summary":"good-avoid","bonus":1.5800000000000014},{"rt":915.8999999761581,"stimulus":"\n                    <p><b>Action: <em>avoid</em></b></p>\n                    <p>This is the bee that you just saw.</p>\n                    <img src=\"bees-with-color/bee-B1SM.svg\" width=\"200\">\n                    <p><br>Your bonus pay is unchanged, and remains at $0.80.</p>\n            ","response":0,"trial_type":"html-button-response","trial_index":100,"time_elapsed":749347,"internal_node_id":"0.0-4.0-1.44","subject_id":"60f5a773c448898bf72987bc","study_id":"6197b3f67c2b5cd3b6d9596a","session_id":"619bef118c2b4237f051b049","condition":"contingent","relevant_dimensions":["wings","pattern"],"bee_group":{"antennae":"X","wings":"1","pattern":"S","legs":"X"},"bonus":1.5800000000000014},{"rt":2886.100000023842,"stimulus":"bees-with-color/bee-B2SM.svg","response":0,"trial_type":"image-button-response","trial_index":101,"time_elapsed":752234,"internal_node_id":"0.0-4.0-0.45","subject_id":"60f5a773c448898bf72987bc","study_id":"6197b3f67c2b5cd3b6d9596a","session_id":"619bef118c2b4237f051b049","condition":"contingent","relevant_dimensions":["wings","pattern"],"bee_group":{"antennae":"X","wings":"1","pattern":"S","legs":"X"},"action":"harvest","summary":"good-harvest","bonus":1.5800000000000014},{"rt":834.3999999761581,"stimulus":"\n                    <p><b>Action: <em>harvest</em></b></p>\n                    <p>This is the bee that you just saw.</p>\n                    <img src=\"bees-with-color/bee-B2SM.svg\" width=\"200\">\n                    <p><span class=\"greenText\"><b>Successful harvest!</b></span><br>Your pay has increased by $0.02. Your bonus pay is now $0.82.</p>\n            ","response":0,"trial_type":"html-button-response","trial_index":102,"time_elapsed":753070,"internal_node_id":"0.0-4.0-1.45","subject_id":"60f5a773c448898bf72987bc","study_id":"6197b3f67c2b5cd3b6d9596a","session_id":"619bef118c2b4237f051b049","condition":"contingent","relevant_dimensions":["wings","pattern"],"bee_group":{"antennae":"X","wings":"1","pattern":"S","legs":"X"},"bonus":1.5800000000000014},{"rt":1516.8999999761581,"stimulus":"bees-with-color/bee-B1DM.svg","response":0,"trial_type":"image-button-response","trial_index":103,"time_elapsed":754589,"internal_node_id":"0.0-4.0-0.46","subject_id":"60f5a773c448898bf72987bc","study_id":"6197b3f67c2b5cd3b6d9596a","session_id":"619bef118c2b4237f051b049","condition":"contingent","relevant_dimensions":["wings","pattern"],"bee_group":{"antennae":"X","wings":"1","pattern":"S","legs":"X"},"action":"harvest","summary":"good-harvest","bonus":1.5800000000000014},{"rt":732.6000000238419,"stimulus":"\n                    <p><b>Action: <em>harvest</em></b></p>\n                    <p>This is the bee that you just saw.</p>\n                    <img src=\"bees-with-color/bee-B1DM.svg\" width=\"200\">\n                    <p><span class=\"greenText\"><b>Successful harvest!</b></span><br>Your pay has increased by $0.02. Your bonus pay is now $0.84.</p>\n            ","response":0,"trial_type":"html-button-response","trial_index":104,"time_elapsed":755322,"internal_node_id":"0.0-4.0-1.46","subject_id":"60f5a773c448898bf72987bc","study_id":"6197b3f67c2b5cd3b6d9596a","session_id":"619bef118c2b4237f051b049","condition":"contingent","relevant_dimensions":["wings","pattern"],"bee_group":{"antennae":"X","wings":"1","pattern":"S","legs":"X"},"bonus":1.5800000000000014},{"rt":890,"stimulus":"bees-with-color/bee-B2DM.svg","response":0,"trial_type":"image-button-response","trial_index":105,"time_elapsed":756213,"internal_node_id":"0.0-4.0-0.47","subject_id":"60f5a773c448898bf72987bc","study_id":"6197b3f67c2b5cd3b6d9596a","session_id":"619bef118c2b4237f051b049","condition":"contingent","relevant_dimensions":["wings","pattern"],"bee_group":{"antennae":"X","wings":"1","pattern":"S","legs":"X"},"action":"harvest","summary":"good-harvest","bonus":1.5800000000000014},{"rt":781.5,"stimulus":"\n                    <p><b>Action: <em>harvest</em></b></p>\n                    <p>This is the bee that you just saw.</p>\n                    <img src=\"bees-with-color/bee-B2DM.svg\" width=\"200\">\n                    <p><span class=\"greenText\"><b>Successful harvest!</b></span><br>Your pay has increased by $0.02. Your bonus pay is now $0.86.</p>\n            ","response":0,"trial_type":"html-button-response","trial_index":106,"time_elapsed":756996,"internal_node_id":"0.0-4.0-1.47","subject_id":"60f5a773c448898bf72987bc","study_id":"6197b3f67c2b5cd3b6d9596a","session_id":"619bef118c2b4237f051b049","condition":"contingent","relevant_dimensions":["wings","pattern"],"bee_group":{"antennae":"X","wings":"1","pattern":"S","legs":"X"},"bonus":1.5800000000000014},{"rt":843.5,"stimulus":"bees-with-color/bee-B1DF.svg","response":0,"trial_type":"image-button-response","trial_index":107,"time_elapsed":757840,"internal_node_id":"0.0-4.0-0.48","subject_id":"60f5a773c448898bf72987bc","study_id":"6197b3f67c2b5cd3b6d9596a","session_id":"619bef118c2b4237f051b049","condition":"contingent","relevant_dimensions":["wings","pattern"],"bee_group":{"antennae":"X","wings":"1","pattern":"S","legs":"X"},"action":"harvest","summary":"good-harvest","bonus":1.5800000000000014},{"rt":1064.7999999523163,"stimulus":"\n                    <p><b>Action: <em>harvest</em></b></p>\n                    <p>This is the bee that you just saw.</p>\n                    <img src=\"bees-with-color/bee-B1DF.svg\" width=\"200\">\n                    <p><span class=\"greenText\"><b>Successful harvest!</b></span><br>Your pay has increased by $0.02. Your bonus pay is now $0.88.</p>\n            ","response":0,"trial_type":"html-button-response","trial_index":108,"time_elapsed":758906,"internal_node_id":"0.0-4.0-1.48","subject_id":"60f5a773c448898bf72987bc","study_id":"6197b3f67c2b5cd3b6d9596a","session_id":"619bef118c2b4237f051b049","condition":"contingent","relevant_dimensions":["wings","pattern"],"bee_group":{"antennae":"X","wings":"1","pattern":"S","legs":"X"},"bonus":1.5800000000000014},{"rt":1153.5,"stimulus":"bees-with-color/bee-A1SF.svg","response":1,"trial_type":"image-button-response","trial_index":109,"time_elapsed":760061,"internal_node_id":"0.0-4.0-0.49","subject_id":"60f5a773c448898bf72987bc","study_id":"6197b3f67c2b5cd3b6d9596a","session_id":"619bef118c2b4237f051b049","condition":"contingent","relevant_dimensions":["wings","pattern"],"bee_group":{"antennae":"X","wings":"1","pattern":"S","legs":"X"},"action":"avoid","summary":"good-avoid","bonus":1.5800000000000014},{"rt":810.8999999761581,"stimulus":"\n                    <p><b>Action: <em>avoid</em></b></p>\n                    <p>This is the bee that you just saw.</p>\n                    <img src=\"bees-with-color/bee-A1SF.svg\" width=\"200\">\n                    <p><br>Your bonus pay is unchanged, and remains at $0.88.</p>\n            ","response":0,"trial_type":"html-button-response","trial_index":110,"time_elapsed":760873,"internal_node_id":"0.0-4.0-1.49","subject_id":"60f5a773c448898bf72987bc","study_id":"6197b3f67c2b5cd3b6d9596a","session_id":"619bef118c2b4237f051b049","condition":"contingent","relevant_dimensions":["wings","pattern"],"bee_group":{"antennae":"X","wings":"1","pattern":"S","legs":"X"},"bonus":1.5800000000000014},{"rt":1140.7000000476837,"stimulus":"bees-with-color/bee-B2DM.svg","response":0,"trial_type":"image-button-response","trial_index":111,"time_elapsed":762015,"internal_node_id":"0.0-4.0-0.50","subject_id":"60f5a773c448898bf72987bc","study_id":"6197b3f67c2b5cd3b6d9596a","session_id":"619bef118c2b4237f051b049","condition":"contingent","relevant_dimensions":["wings","pattern"],"bee_group":{"antennae":"X","wings":"1","pattern":"S","legs":"X"},"action":"harvest","summary":"good-harvest","bonus":1.5800000000000014},{"rt":883.8000000715256,"stimulus":"\n                    <p><b>Action: <em>harvest</em></b></p>\n                    <p>This is the bee that you just saw.</p>\n                    <img src=\"bees-with-color/bee-B2DM.svg\" width=\"200\">\n                    <p><span class=\"greenText\"><b>Successful harvest!</b></span><br>Your pay has increased by $0.02. Your bonus pay is now $0.90.</p>\n            ","response":0,"trial_type":"html-button-response","trial_index":112,"time_elapsed":762900,"internal_node_id":"0.0-4.0-1.50","subject_id":"60f5a773c448898bf72987bc","study_id":"6197b3f67c2b5cd3b6d9596a","session_id":"619bef118c2b4237f051b049","condition":"contingent","relevant_dimensions":["wings","pattern"],"bee_group":{"antennae":"X","wings":"1","pattern":"S","legs":"X"},"bonus":1.5800000000000014},{"rt":1559.5,"stimulus":"bees-with-color/bee-B1SM.svg","response":1,"trial_type":"image-button-response","trial_index":113,"time_elapsed":764461,"internal_node_id":"0.0-4.0-0.51","subject_id":"60f5a773c448898bf72987bc","study_id":"6197b3f67c2b5cd3b6d9596a","session_id":"619bef118c2b4237f051b049","condition":"contingent","relevant_dimensions":["wings","pattern"],"bee_group":{"antennae":"X","wings":"1","pattern":"S","legs":"X"},"action":"avoid","summary":"good-avoid","bonus":1.5800000000000014},{"rt":935.7000000476837,"stimulus":"\n                    <p><b>Action: <em>avoid</em></b></p>\n                    <p>This is the bee that you just saw.</p>\n                    <img src=\"bees-with-color/bee-B1SM.svg\" width=\"200\">\n                    <p><br>Your bonus pay is unchanged, and remains at $0.90.</p>\n            ","response":0,"trial_type":"html-button-response","trial_index":114,"time_elapsed":765397,"internal_node_id":"0.0-4.0-1.51","subject_id":"60f5a773c448898bf72987bc","study_id":"6197b3f67c2b5cd3b6d9596a","session_id":"619bef118c2b4237f051b049","condition":"contingent","relevant_dimensions":["wings","pattern"],"bee_group":{"antennae":"X","wings":"1","pattern":"S","legs":"X"},"bonus":1.5800000000000014},{"rt":1857,"stimulus":"bees-with-color/bee-A1DF.svg","response":0,"trial_type":"image-button-response","trial_index":115,"time_elapsed":767256,"internal_node_id":"0.0-4.0-0.52","subject_id":"60f5a773c448898bf72987bc","study_id":"6197b3f67c2b5cd3b6d9596a","session_id":"619bef118c2b4237f051b049","condition":"contingent","relevant_dimensions":["wings","pattern"],"bee_group":{"antennae":"X","wings":"1","pattern":"S","legs":"X"},"action":"harvest","summary":"good-harvest","bonus":1.5800000000000014},{"rt":791.5999999046326,"stimulus":"\n                    <p><b>Action: <em>harvest</em></b></p>\n                    <p>This is the bee that you just saw.</p>\n                    <img src=\"bees-with-color/bee-A1DF.svg\" width=\"200\">\n                    <p><span class=\"greenText\"><b>Successful harvest!</b></span><br>Your pay has increased by $0.02. Your bonus pay is now $0.92.</p>\n            ","response":0,"trial_type":"html-button-response","trial_index":116,"time_elapsed":768048,"internal_node_id":"0.0-4.0-1.52","subject_id":"60f5a773c448898bf72987bc","study_id":"6197b3f67c2b5cd3b6d9596a","session_id":"619bef118c2b4237f051b049","condition":"contingent","relevant_dimensions":["wings","pattern"],"bee_group":{"antennae":"X","wings":"1","pattern":"S","legs":"X"},"bonus":1.5800000000000014},{"rt":858.5,"stimulus":"bees-with-color/bee-A2DM.svg","response":0,"trial_type":"image-button-response","trial_index":117,"time_elapsed":768908,"internal_node_id":"0.0-4.0-0.53","subject_id":"60f5a773c448898bf72987bc","study_id":"6197b3f67c2b5cd3b6d9596a","session_id":"619bef118c2b4237f051b049","condition":"contingent","relevant_dimensions":["wings","pattern"],"bee_group":{"antennae":"X","wings":"1","pattern":"S","legs":"X"},"action":"harvest","summary":"good-harvest","bonus":1.5800000000000014},{"rt":787.1000000238419,"stimulus":"\n                    <p><b>Action: <em>harvest</em></b></p>\n                    <p>This is the bee that you just saw.</p>\n                    <img src=\"bees-with-color/bee-A2DM.svg\" width=\"200\">\n                    <p><span class=\"greenText\"><b>Successful harvest!</b></span><br>Your pay has increased by $0.02. Your bonus pay is now $0.94.</p>\n            ","response":0,"trial_type":"html-button-response","trial_index":118,"time_elapsed":769697,"internal_node_id":"0.0-4.0-1.53","subject_id":"60f5a773c448898bf72987bc","study_id":"6197b3f67c2b5cd3b6d9596a","session_id":"619bef118c2b4237f051b049","condition":"contingent","relevant_dimensions":["wings","pattern"],"bee_group":{"antennae":"X","wings":"1","pattern":"S","legs":"X"},"bonus":1.5800000000000014},{"rt":1092.3999999761581,"stimulus":"bees-with-color/bee-B2SF.svg","response":0,"trial_type":"image-button-response","trial_index":119,"time_elapsed":770790,"internal_node_id":"0.0-4.0-0.54","subject_id":"60f5a773c448898bf72987bc","study_id":"6197b3f67c2b5cd3b6d9596a","session_id":"619bef118c2b4237f051b049","condition":"contingent","relevant_dimensions":["wings","pattern"],"bee_group":{"antennae":"X","wings":"1","pattern":"S","legs":"X"},"action":"harvest","summary":"good-harvest","bonus":1.5800000000000014},{"rt":738.3999999761581,"stimulus":"\n                    <p><b>Action: <em>harvest</em></b></p>\n                    <p>This is the bee that you just saw.</p>\n                    <img src=\"bees-with-color/bee-B2SF.svg\" width=\"200\">\n                    <p><span class=\"greenText\"><b>Successful harvest!</b></span><br>Your pay has increased by $0.02. Your bonus pay is now $0.96.</p>\n            ","response":0,"trial_type":"html-button-response","trial_index":120,"time_elapsed":771530,"internal_node_id":"0.0-4.0-1.54","subject_id":"60f5a773c448898bf72987bc","study_id":"6197b3f67c2b5cd3b6d9596a","session_id":"619bef118c2b4237f051b049","condition":"contingent","relevant_dimensions":["wings","pattern"],"bee_group":{"antennae":"X","wings":"1","pattern":"S","legs":"X"},"bonus":1.5800000000000014},{"rt":929.7999999523163,"stimulus":"bees-with-color/bee-B2SM.svg","response":0,"trial_type":"image-button-response","trial_index":121,"time_elapsed":772462,"internal_node_id":"0.0-4.0-0.55","subject_id":"60f5a773c448898bf72987bc","study_id":"6197b3f67c2b5cd3b6d9596a","session_id":"619bef118c2b4237f051b049","condition":"contingent","relevant_dimensions":["wings","pattern"],"bee_group":{"antennae":"X","wings":"1","pattern":"S","legs":"X"},"action":"harvest","summary":"good-harvest","bonus":1.5800000000000014},{"rt":764.6999999284744,"stimulus":"\n                    <p><b>Action: <em>harvest</em></b></p>\n                    <p>This is the bee that you just saw.</p>\n                    <img src=\"bees-with-color/bee-B2SM.svg\" width=\"200\">\n                    <p><span class=\"greenText\"><b>Successful harvest!</b></span><br>Your pay has increased by $0.02. Your bonus pay is now $0.98.</p>\n            ","response":0,"trial_type":"html-button-response","trial_index":122,"time_elapsed":773228,"internal_node_id":"0.0-4.0-1.55","subject_id":"60f5a773c448898bf72987bc","study_id":"6197b3f67c2b5cd3b6d9596a","session_id":"619bef118c2b4237f051b049","condition":"contingent","relevant_dimensions":["wings","pattern"],"bee_group":{"antennae":"X","wings":"1","pattern":"S","legs":"X"},"bonus":1.5800000000000014},{"rt":1242.7999999523163,"stimulus":"bees-with-color/bee-B1SF.svg","response":1,"trial_type":"image-button-response","trial_index":123,"time_elapsed":774473,"internal_node_id":"0.0-4.0-0.56","subject_id":"60f5a773c448898bf72987bc","study_id":"6197b3f67c2b5cd3b6d9596a","session_id":"619bef118c2b4237f051b049","condition":"contingent","relevant_dimensions":["wings","pattern"],"bee_group":{"antennae":"X","wings":"1","pattern":"S","legs":"X"},"action":"avoid","summary":"good-avoid","bonus":1.5800000000000014},{"rt":1260.6999999284744,"stimulus":"\n                    <p><b>Action: <em>avoid</em></b></p>\n                    <p>This is the bee that you just saw.</p>\n                    <img src=\"bees-with-color/bee-B1SF.svg\" width=\"200\">\n                    <p><br>Your bonus pay is unchanged, and remains at $0.98.</p>\n            ","response":0,"trial_type":"html-button-response","trial_index":124,"time_elapsed":775736,"internal_node_id":"0.0-4.0-1.56","subject_id":"60f5a773c448898bf72987bc","study_id":"6197b3f67c2b5cd3b6d9596a","session_id":"619bef118c2b4237f051b049","condition":"contingent","relevant_dimensions":["wings","pattern"],"bee_group":{"antennae":"X","wings":"1","pattern":"S","legs":"X"},"bonus":1.5800000000000014},{"rt":1397.6000000238419,"stimulus":"bees-with-color/bee-A1DM.svg","response":0,"trial_type":"image-button-response","trial_index":125,"time_elapsed":777135,"internal_node_id":"0.0-4.0-0.57","subject_id":"60f5a773c448898bf72987bc","study_id":"6197b3f67c2b5cd3b6d9596a","session_id":"619bef118c2b4237f051b049","condition":"contingent","relevant_dimensions":["wings","pattern"],"bee_group":{"antennae":"X","wings":"1","pattern":"S","legs":"X"},"action":"harvest","summary":"good-harvest","bonus":1.5800000000000014},{"rt":715.5,"stimulus":"\n                    <p><b>Action: <em>harvest</em></b></p>\n                    <p>This is the bee that you just saw.</p>\n                    <img src=\"bees-with-color/bee-A1DM.svg\" width=\"200\">\n                    <p><span class=\"greenText\"><b>Successful harvest!</b></span><br>Your pay has increased by $0.02. Your bonus pay is now $1.00.</p>\n            ","response":0,"trial_type":"html-button-response","trial_index":126,"time_elapsed":777852,"internal_node_id":"0.0-4.0-1.57","subject_id":"60f5a773c448898bf72987bc","study_id":"6197b3f67c2b5cd3b6d9596a","session_id":"619bef118c2b4237f051b049","condition":"contingent","relevant_dimensions":["wings","pattern"],"bee_group":{"antennae":"X","wings":"1","pattern":"S","legs":"X"},"bonus":1.5800000000000014},{"rt":1218.2000000476837,"stimulus":"bees-with-color/bee-A1SM.svg","response":1,"trial_type":"image-button-response","trial_index":127,"time_elapsed":779072,"internal_node_id":"0.0-4.0-0.58","subject_id":"60f5a773c448898bf72987bc","study_id":"6197b3f67c2b5cd3b6d9596a","session_id":"619bef118c2b4237f051b049","condition":"contingent","relevant_dimensions":["wings","pattern"],"bee_group":{"antennae":"X","wings":"1","pattern":"S","legs":"X"},"action":"avoid","summary":"good-avoid","bonus":1.5800000000000014},{"rt":825.1000000238419,"stimulus":"\n                    <p><b>Action: <em>avoid</em></b></p>\n                    <p>This is the bee that you just saw.</p>\n                    <img src=\"bees-with-color/bee-A1SM.svg\" width=\"200\">\n                    <p><br>Your bonus pay is unchanged, and remains at $1.00.</p>\n            ","response":0,"trial_type":"html-button-response","trial_index":128,"time_elapsed":779898,"internal_node_id":"0.0-4.0-1.58","subject_id":"60f5a773c448898bf72987bc","study_id":"6197b3f67c2b5cd3b6d9596a","session_id":"619bef118c2b4237f051b049","condition":"contingent","relevant_dimensions":["wings","pattern"],"bee_group":{"antennae":"X","wings":"1","pattern":"S","legs":"X"},"bonus":1.5800000000000014},{"rt":838.5,"stimulus":"bees-with-color/bee-A2SF.svg","response":0,"trial_type":"image-button-response","trial_index":129,"time_elapsed":780737,"internal_node_id":"0.0-4.0-0.59","subject_id":"60f5a773c448898bf72987bc","study_id":"6197b3f67c2b5cd3b6d9596a","session_id":"619bef118c2b4237f051b049","condition":"contingent","relevant_dimensions":["wings","pattern"],"bee_group":{"antennae":"X","wings":"1","pattern":"S","legs":"X"},"action":"harvest","summary":"good-harvest","bonus":1.5800000000000014},{"rt":1292.3000000715256,"stimulus":"\n                    <p><b>Action: <em>harvest</em></b></p>\n                    <p>This is the bee that you just saw.</p>\n                    <img src=\"bees-with-color/bee-A2SF.svg\" width=\"200\">\n                    <p><span class=\"greenText\"><b>Successful harvest!</b></span><br>Your pay has increased by $0.02. Your bonus pay is now $1.02.</p>\n            ","response":0,"trial_type":"html-button-response","trial_index":130,"time_elapsed":782031,"internal_node_id":"0.0-4.0-1.59","subject_id":"60f5a773c448898bf72987bc","study_id":"6197b3f67c2b5cd3b6d9596a","session_id":"619bef118c2b4237f051b049","condition":"contingent","relevant_dimensions":["wings","pattern"],"bee_group":{"antennae":"X","wings":"1","pattern":"S","legs":"X"},"bonus":1.5800000000000014},{"rt":917.8000000715256,"stimulus":"bees-with-color/bee-A2DF.svg","response":0,"trial_type":"image-button-response","trial_index":131,"time_elapsed":782950,"internal_node_id":"0.0-4.0-0.60","subject_id":"60f5a773c448898bf72987bc","study_id":"6197b3f67c2b5cd3b6d9596a","session_id":"619bef118c2b4237f051b049","condition":"contingent","relevant_dimensions":["wings","pattern"],"bee_group":{"antennae":"X","wings":"1","pattern":"S","legs":"X"},"action":"harvest","summary":"good-harvest","bonus":1.5800000000000014},{"rt":1189.1999999284744,"stimulus":"\n                    <p><b>Action: <em>harvest</em></b></p>\n                    <p>This is the bee that you just saw.</p>\n                    <img src=\"bees-with-color/bee-A2DF.svg\" width=\"200\">\n                    <p><span class=\"greenText\"><b>Successful harvest!</b></span><br>Your pay has increased by $0.02. Your bonus pay is now $1.04.</p>\n            ","response":0,"trial_type":"html-button-response","trial_index":132,"time_elapsed":784140,"internal_node_id":"0.0-4.0-1.60","subject_id":"60f5a773c448898bf72987bc","study_id":"6197b3f67c2b5cd3b6d9596a","session_id":"619bef118c2b4237f051b049","condition":"contingent","relevant_dimensions":["wings","pattern"],"bee_group":{"antennae":"X","wings":"1","pattern":"S","legs":"X"},"bonus":1.5800000000000014},{"rt":1162.2000000476837,"stimulus":"bees-with-color/bee-B2DF.svg","response":0,"trial_type":"image-button-response","trial_index":133,"time_elapsed":785303,"internal_node_id":"0.0-4.0-0.61","subject_id":"60f5a773c448898bf72987bc","study_id":"6197b3f67c2b5cd3b6d9596a","session_id":"619bef118c2b4237f051b049","condition":"contingent","relevant_dimensions":["wings","pattern"],"bee_group":{"antennae":"X","wings":"1","pattern":"S","legs":"X"},"action":"harvest","summary":"good-harvest","bonus":1.5800000000000014},{"rt":875.6000000238419,"stimulus":"\n                    <p><b>Action: <em>harvest</em></b></p>\n                    <p>This is the bee that you just saw.</p>\n                    <img src=\"bees-with-color/bee-B2DF.svg\" width=\"200\">\n                    <p><span class=\"greenText\"><b>Successful harvest!</b></span><br>Your pay has increased by $0.02. Your bonus pay is now $1.06.</p>\n            ","response":0,"trial_type":"html-button-response","trial_index":134,"time_elapsed":786180,"internal_node_id":"0.0-4.0-1.61","subject_id":"60f5a773c448898bf72987bc","study_id":"6197b3f67c2b5cd3b6d9596a","session_id":"619bef118c2b4237f051b049","condition":"contingent","relevant_dimensions":["wings","pattern"],"bee_group":{"antennae":"X","wings":"1","pattern":"S","legs":"X"},"bonus":1.5800000000000014},{"rt":1855.6000000238419,"stimulus":"bees-with-color/bee-A2SM.svg","response":0,"trial_type":"image-button-response","trial_index":135,"time_elapsed":788036,"internal_node_id":"0.0-4.0-0.62","subject_id":"60f5a773c448898bf72987bc","study_id":"6197b3f67c2b5cd3b6d9596a","session_id":"619bef118c2b4237f051b049","condition":"contingent","relevant_dimensions":["wings","pattern"],"bee_group":{"antennae":"X","wings":"1","pattern":"S","legs":"X"},"action":"harvest","summary":"good-harvest","bonus":1.5800000000000014},{"rt":775.7000000476837,"stimulus":"\n                    <p><b>Action: <em>harvest</em></b></p>\n                    <p>This is the bee that you just saw.</p>\n                    <img src=\"bees-with-color/bee-A2SM.svg\" width=\"200\">\n                    <p><span class=\"greenText\"><b>Successful harvest!</b></span><br>Your pay has increased by $0.02. Your bonus pay is now $1.08.</p>\n            ","response":0,"trial_type":"html-button-response","trial_index":136,"time_elapsed":788813,"internal_node_id":"0.0-4.0-1.62","subject_id":"60f5a773c448898bf72987bc","study_id":"6197b3f67c2b5cd3b6d9596a","session_id":"619bef118c2b4237f051b049","condition":"contingent","relevant_dimensions":["wings","pattern"],"bee_group":{"antennae":"X","wings":"1","pattern":"S","legs":"X"},"bonus":1.5800000000000014},{"rt":1498.8999999761581,"stimulus":"bees-with-color/bee-B1DM.svg","response":0,"trial_type":"image-button-response","trial_index":137,"time_elapsed":790314,"internal_node_id":"0.0-4.0-0.63","subject_id":"60f5a773c448898bf72987bc","study_id":"6197b3f67c2b5cd3b6d9596a","session_id":"619bef118c2b4237f051b049","condition":"contingent","relevant_dimensions":["wings","pattern"],"bee_group":{"antennae":"X","wings":"1","pattern":"S","legs":"X"},"action":"harvest","summary":"good-harvest","bonus":1.5800000000000014},{"rt":1105.5,"stimulus":"\n                    <p><b>Action: <em>harvest</em></b></p>\n                    <p>This is the bee that you just saw.</p>\n                    <img src=\"bees-with-color/bee-B1DM.svg\" width=\"200\">\n                    <p><span class=\"greenText\"><b>Successful harvest!</b></span><br>Your pay has increased by $0.02. Your bonus pay is now $1.10.</p>\n            ","response":0,"trial_type":"html-button-response","trial_index":138,"time_elapsed":791421,"internal_node_id":"0.0-4.0-1.63","subject_id":"60f5a773c448898bf72987bc","study_id":"6197b3f67c2b5cd3b6d9596a","session_id":"619bef118c2b4237f051b049","condition":"contingent","relevant_dimensions":["wings","pattern"],"bee_group":{"antennae":"X","wings":"1","pattern":"S","legs":"X"},"bonus":1.5800000000000014},{"rt":9893.400000095367,"stimulus":"You have completed the first part of this experiment.<br><br>You will now begin a shorter second part, in which you will receive no feedback.<br>The same rules regarding bonus pay apply.<br><br>Press any key to begin.","response":" ","trial_type":"html-keyboard-response","trial_index":139,"time_elapsed":801315,"internal_node_id":"0.0-5.0","subject_id":"60f5a773c448898bf72987bc","study_id":"6197b3f67c2b5cd3b6d9596a","session_id":"619bef118c2b4237f051b049","condition":"contingent","relevant_dimensions":["wings","pattern"],"bee_group":{"antennae":"X","wings":"1","pattern":"S","legs":"X"},"bonus":1.5800000000000014},{"rt":3929.600000023842,"stimulus":"bees-with-color/bee-B1DF.svg","response":0,"trial_type":"image-button-response","trial_index":140,"time_elapsed":805250,"internal_node_id":"0.0-6.0-0.0","subject_id":"60f5a773c448898bf72987bc","study_id":"6197b3f67c2b5cd3b6d9596a","session_id":"619bef118c2b4237f051b049","condition":"contingent","relevant_dimensions":["wings","pattern"],"bee_group":{"antennae":"X","wings":"1","pattern":"S","legs":"X"},"bonus":1.5800000000000014},{"rt":2045.5,"stimulus":"bees-with-color/bee-B2SF.svg","response":0,"trial_type":"image-button-response","trial_index":141,"time_elapsed":807298,"internal_node_id":"0.0-6.0-0.1","subject_id":"60f5a773c448898bf72987bc","study_id":"6197b3f67c2b5cd3b6d9596a","session_id":"619bef118c2b4237f051b049","condition":"contingent","relevant_dimensions":["wings","pattern"],"bee_group":{"antennae":"X","wings":"1","pattern":"S","legs":"X"},"bonus":1.5800000000000014},{"rt":1080,"stimulus":"bees-with-color/bee-A2SF.svg","response":0,"trial_type":"image-button-response","trial_index":142,"time_elapsed":808379,"internal_node_id":"0.0-6.0-0.2","subject_id":"60f5a773c448898bf72987bc","study_id":"6197b3f67c2b5cd3b6d9596a","session_id":"619bef118c2b4237f051b049","condition":"contingent","relevant_dimensions":["wings","pattern"],"bee_group":{"antennae":"X","wings":"1","pattern":"S","legs":"X"},"bonus":1.5800000000000014},{"rt":1358.8999999761581,"stimulus":"bees-with-color/bee-A1SM.svg","response":1,"trial_type":"image-button-response","trial_index":143,"time_elapsed":809739,"internal_node_id":"0.0-6.0-0.3","subject_id":"60f5a773c448898bf72987bc","study_id":"6197b3f67c2b5cd3b6d9596a","session_id":"619bef118c2b4237f051b049","condition":"contingent","relevant_dimensions":["wings","pattern"],"bee_group":{"antennae":"X","wings":"1","pattern":"S","legs":"X"},"bonus":1.5800000000000014},{"rt":3459.7999999523163,"stimulus":"bees-with-color/bee-A2DF.svg","response":0,"trial_type":"image-button-response","trial_index":144,"time_elapsed":813201,"internal_node_id":"0.0-6.0-0.4","subject_id":"60f5a773c448898bf72987bc","study_id":"6197b3f67c2b5cd3b6d9596a","session_id":"619bef118c2b4237f051b049","condition":"contingent","relevant_dimensions":["wings","pattern"],"bee_group":{"antennae":"X","wings":"1","pattern":"S","legs":"X"},"bonus":1.5800000000000014},{"rt":720.3999999761581,"stimulus":"bees-with-color/bee-A1DF.svg","response":0,"trial_type":"image-button-response","trial_index":145,"time_elapsed":813923,"internal_node_id":"0.0-6.0-0.5","subject_id":"60f5a773c448898bf72987bc","study_id":"6197b3f67c2b5cd3b6d9596a","session_id":"619bef118c2b4237f051b049","condition":"contingent","relevant_dimensions":["wings","pattern"],"bee_group":{"antennae":"X","wings":"1","pattern":"S","legs":"X"},"bonus":1.5800000000000014},{"rt":731.2000000476837,"stimulus":"bees-with-color/bee-B2DM.svg","response":0,"trial_type":"image-button-response","trial_index":146,"time_elapsed":814657,"internal_node_id":"0.0-6.0-0.6","subject_id":"60f5a773c448898bf72987bc","study_id":"6197b3f67c2b5cd3b6d9596a","session_id":"619bef118c2b4237f051b049","condition":"contingent","relevant_dimensions":["wings","pattern"],"bee_group":{"antennae":"X","wings":"1","pattern":"S","legs":"X"},"bonus":1.5800000000000014},{"rt":1299.8999999761581,"stimulus":"bees-with-color/bee-B1SM.svg","response":1,"trial_type":"image-button-response","trial_index":147,"time_elapsed":815959,"internal_node_id":"0.0-6.0-0.7","subject_id":"60f5a773c448898bf72987bc","study_id":"6197b3f67c2b5cd3b6d9596a","session_id":"619bef118c2b4237f051b049","condition":"contingent","relevant_dimensions":["wings","pattern"],"bee_group":{"antennae":"X","wings":"1","pattern":"S","legs":"X"},"bonus":1.5800000000000014},{"rt":1237.3999999761581,"stimulus":"bees-with-color/bee-B2SM.svg","response":0,"trial_type":"image-button-response","trial_index":148,"time_elapsed":817198,"internal_node_id":"0.0-6.0-0.8","subject_id":"60f5a773c448898bf72987bc","study_id":"6197b3f67c2b5cd3b6d9596a","session_id":"619bef118c2b4237f051b049","condition":"contingent","relevant_dimensions":["wings","pattern"],"bee_group":{"antennae":"X","wings":"1","pattern":"S","legs":"X"},"bonus":1.5800000000000014},{"rt":1175.8999999761581,"stimulus":"bees-with-color/bee-A1SF.svg","response":1,"trial_type":"image-button-response","trial_index":149,"time_elapsed":818375,"internal_node_id":"0.0-6.0-0.9","subject_id":"60f5a773c448898bf72987bc","study_id":"6197b3f67c2b5cd3b6d9596a","session_id":"619bef118c2b4237f051b049","condition":"contingent","relevant_dimensions":["wings","pattern"],"bee_group":{"antennae":"X","wings":"1","pattern":"S","legs":"X"},"bonus":1.5800000000000014},{"rt":1103.6000000238419,"stimulus":"bees-with-color/bee-B2DF.svg","response":0,"trial_type":"image-button-response","trial_index":150,"time_elapsed":819480,"internal_node_id":"0.0-6.0-0.10","subject_id":"60f5a773c448898bf72987bc","study_id":"6197b3f67c2b5cd3b6d9596a","session_id":"619bef118c2b4237f051b049","condition":"contingent","relevant_dimensions":["wings","pattern"],"bee_group":{"antennae":"X","wings":"1","pattern":"S","legs":"X"},"bonus":1.5800000000000014},{"rt":676.8999999761581,"stimulus":"bees-with-color/bee-A2DM.svg","response":0,"trial_type":"image-button-response","trial_index":151,"time_elapsed":820159,"internal_node_id":"0.0-6.0-0.11","subject_id":"60f5a773c448898bf72987bc","study_id":"6197b3f67c2b5cd3b6d9596a","session_id":"619bef118c2b4237f051b049","condition":"contingent","relevant_dimensions":["wings","pattern"],"bee_group":{"antennae":"X","wings":"1","pattern":"S","legs":"X"},"bonus":1.5800000000000014},{"rt":1219.3999999761581,"stimulus":"bees-with-color/bee-B1SF.svg","response":1,"trial_type":"image-button-response","trial_index":152,"time_elapsed":821381,"internal_node_id":"0.0-6.0-0.12","subject_id":"60f5a773c448898bf72987bc","study_id":"6197b3f67c2b5cd3b6d9596a","session_id":"619bef118c2b4237f051b049","condition":"contingent","relevant_dimensions":["wings","pattern"],"bee_group":{"antennae":"X","wings":"1","pattern":"S","legs":"X"},"bonus":1.5800000000000014},{"rt":2177.5,"stimulus":"bees-with-color/bee-A2SM.svg","response":0,"trial_type":"image-button-response","trial_index":153,"time_elapsed":823560,"internal_node_id":"0.0-6.0-0.13","subject_id":"60f5a773c448898bf72987bc","study_id":"6197b3f67c2b5cd3b6d9596a","session_id":"619bef118c2b4237f051b049","condition":"contingent","relevant_dimensions":["wings","pattern"],"bee_group":{"antennae":"X","wings":"1","pattern":"S","legs":"X"},"bonus":1.5800000000000014},{"rt":1656.3999999761581,"stimulus":"bees-with-color/bee-A1DM.svg","response":0,"trial_type":"image-button-response","trial_index":154,"time_elapsed":825217,"internal_node_id":"0.0-6.0-0.14","subject_id":"60f5a773c448898bf72987bc","study_id":"6197b3f67c2b5cd3b6d9596a","session_id":"619bef118c2b4237f051b049","condition":"contingent","relevant_dimensions":["wings","pattern"],"bee_group":{"antennae":"X","wings":"1","pattern":"S","legs":"X"},"bonus":1.5800000000000014},{"rt":863.5999999046326,"stimulus":"bees-with-color/bee-B1DM.svg","response":0,"trial_type":"image-button-response","trial_index":155,"time_elapsed":826083,"internal_node_id":"0.0-6.0-0.15","subject_id":"60f5a773c448898bf72987bc","study_id":"6197b3f67c2b5cd3b6d9596a","session_id":"619bef118c2b4237f051b049","condition":"contingent","relevant_dimensions":["wings","pattern"],"bee_group":{"antennae":"X","wings":"1","pattern":"S","legs":"X"},"bonus":1.5800000000000014},{"rt":988.7000000476837,"stimulus":"bees-with-color/bee-B2SM.svg","response":0,"trial_type":"image-button-response","trial_index":156,"time_elapsed":827072,"internal_node_id":"0.0-6.0-0.16","subject_id":"60f5a773c448898bf72987bc","study_id":"6197b3f67c2b5cd3b6d9596a","session_id":"619bef118c2b4237f051b049","condition":"contingent","relevant_dimensions":["wings","pattern"],"bee_group":{"antennae":"X","wings":"1","pattern":"S","legs":"X"},"bonus":1.5800000000000014},{"rt":892.0999999046326,"stimulus":"bees-with-color/bee-B1DF.svg","response":0,"trial_type":"image-button-response","trial_index":157,"time_elapsed":827966,"internal_node_id":"0.0-6.0-0.17","subject_id":"60f5a773c448898bf72987bc","study_id