[{"success":true,"trial_type":"fullscreen","trial_index":0,"time_elapsed":8085,"internal_node_id":"0.0-0.0","subject_id":"613bbfebd7cdd60585f6a3a2","study_id":"6197b3f67c2b5cd3b6d9596a","session_id":"619be58e64fe1271ded52e20","condition":"contingent","relevant_dimensions":["antennae","wings"],"bee_group":{"antennae":"B","wings":"1","pattern":"X","legs":"X"},"bonus":1.080000000000001},{"success":true,"timeout":false,"failed_images":[],"failed_audio":[],"failed_video":[],"trial_type":"preload","trial_index":1,"time_elapsed":9467,"internal_node_id":"0.0-1.0","subject_id":"613bbfebd7cdd60585f6a3a2","study_id":"6197b3f67c2b5cd3b6d9596a","session_id":"619be58e64fe1271ded52e20","condition":"contingent","relevant_dimensions":["antennae","wings"],"bee_group":{"antennae":"B","wings":"1","pattern":"X","legs":"X"},"bonus":1.080000000000001},{"rt":2118.699999988079,"stimulus":"Welcome! Press any key to begin.","response":" ","trial_type":"html-keyboard-response","trial_index":2,"time_elapsed":11587,"internal_node_id":"0.0-2.0","subject_id":"613bbfebd7cdd60585f6a3a2","study_id":"6197b3f67c2b5cd3b6d9596a","session_id":"619be58e64fe1271ded52e20","condition":"contingent","relevant_dimensions":["antennae","wings"],"bee_group":{"antennae":"B","wings":"1","pattern":"X","legs":"X"},"bonus":1.080000000000001},{"view_history":[{"page_index":0,"viewing_time":13601.600000023842},{"page_index":1,"viewing_time":22010.299999952316},{"page_index":2,"viewing_time":10657.700000047684},{"page_index":3,"viewing_time":18838.19999998808},{"page_index":4,"viewing_time":7139.300000011921},{"page_index":5,"viewing_time":6707},{"page_index":6,"viewing_time":10279.099999964237},{"page_index":7,"viewing_time":6280.100000023842},{"page_index":8,"viewing_time":4929.399999976158},{"page_index":9,"viewing_time":4944.400000035763},{"page_index":10,"viewing_time":3187.899999976158},{"page_index":11,"viewing_time":10199.800000011921},{"page_index":12,"viewing_time":9477.800000011921},{"page_index":13,"viewing_time":2371.399999976158},{"page_index":14,"viewing_time":2448.600000023842}],"rt":133074,"trial_type":"instructions","trial_index":3,"time_elapsed":144670,"internal_node_id":"0.0-3.0-0.0","subject_id":"613bbfebd7cdd60585f6a3a2","study_id":"6197b3f67c2b5cd3b6d9596a","session_id":"619be58e64fe1271ded52e20","condition":"contingent","relevant_dimensions":["antennae","wings"],"bee_group":{"antennae":"B","wings":"1","pattern":"X","legs":"X"},"bonus":1.080000000000001},{"rt":17392.099999964237,"response":{"Q0":["Two or six legs","Stripes or spots on body","Single or double wings","Antennae or no antennae"]},"question_order":[0],"trial_type":"survey-multi-select","trial_index":4,"time_elapsed":162072,"internal_node_id":"0.0-3.0-1.0","subject_id":"613bbfebd7cdd60585f6a3a2","study_id":"6197b3f67c2b5cd3b6d9596a","session_id":"619be58e64fe1271ded52e20","condition":"contingent","relevant_dimensions":["antennae","wings"],"bee_group":{"antennae":"B","wings":"1","pattern":"X","legs":"X"},"correct":true,"bonus":1.080000000000001},{"rt":41126,"response":{"Q1":"No.","Q2":"Based on the four features of the bee.","Q3":"You do not learn if it was friendly or dangerous, and do not alter your bonus."},"question_order":[0,1,2],"trial_type":"survey-multi-choice","trial_index":5,"time_elapsed":203202,"internal_node_id":"0.0-3.0-2.0","subject_id":"613bbfebd7cdd60585f6a3a2","study_id":"6197b3f67c2b5cd3b6d9596a","session_id":"619be58e64fe1271ded52e20","condition":"contingent","relevant_dimensions":["antennae","wings"],"bee_group":{"antennae":"B","wings":"1","pattern":"X","legs":"X"},"correct":true,"bonus":1.080000000000001},{"rt":7201.599999964237,"stimulus":"<p>Congrats, you got everything right<br>When you're ready, click the button below to continue to the experiment.</p>","response":0,"trial_type":"html-button-response","trial_index":6,"time_elapsed":210409,"internal_node_id":"0.0-3.0-3.0","subject_id":"613bbfebd7cdd60585f6a3a2","study_id":"6197b3f67c2b5cd3b6d9596a","session_id":"619be58e64fe1271ded52e20","condition":"contingent","relevant_dimensions":["antennae","wings"],"bee_group":{"antennae":"B","wings":"1","pattern":"X","legs":"X"},"bonus":1.080000000000001},{"rt":5887.199999988079,"stimulus":"bees-with-color/bee-A1DF.svg","response":1,"trial_type":"image-button-response","trial_index":7,"time_elapsed":216303,"internal_node_id":"0.0-4.0-0.0","subject_id":"613bbfebd7cdd60585f6a3a2","study_id":"6197b3f67c2b5cd3b6d9596a","session_id":"619be58e64fe1271ded52e20","condition":"contingent","relevant_dimensions":["antennae","wings"],"bee_group":{"antennae":"B","wings":"1","pattern":"X","legs":"X"},"action":"avoid","summary":"bad-avoid","bonus":1.080000000000001},{"rt":6018.800000011921,"stimulus":"\n                    <p><b>Action: <em>avoid</em></b></p>\n                    <p>This is the bee that you just saw.</p>\n                    <img src=\"bees-with-color/bee-A1DF.svg\" width=\"200\">\n                    <p><br>Your bonus pay is unchanged, and remains at $0.54.</p>\n            ","response":0,"trial_type":"html-button-response","trial_index":8,"time_elapsed":222424,"internal_node_id":"0.0-4.0-1.0","subject_id":"613bbfebd7cdd60585f6a3a2","study_id":"6197b3f67c2b5cd3b6d9596a","session_id":"619be58e64fe1271ded52e20","condition":"contingent","relevant_dimensions":["antennae","wings"],"bee_group":{"antennae":"B","wings":"1","pattern":"X","legs":"X"},"bonus":1.080000000000001},{"rt":1859.300000011921,"stimulus":"bees-with-color/bee-B2SF.svg","response":0,"trial_type":"image-button-response","trial_index":9,"time_elapsed":224287,"internal_node_id":"0.0-4.0-0.1","subject_id":"613bbfebd7cdd60585f6a3a2","study_id":"6197b3f67c2b5cd3b6d9596a","session_id":"619be58e64fe1271ded52e20","condition":"contingent","relevant_dimensions":["antennae","wings"],"bee_group":{"antennae":"B","wings":"1","pattern":"X","legs":"X"},"action":"harvest","summary":"good-harvest","bonus":1.080000000000001},{"rt":3993,"stimulus":"\n                    <p><b>Action: <em>harvest</em></b></p>\n                    <p>This is the bee that you just saw.</p>\n                    <img src=\"bees-with-color/bee-B2SF.svg\" width=\"200\">\n                    <p><span class=\"greenText\"><b>Successful harvest!</b></span><br>Your pay has increased by $0.02. Your bonus pay is now $0.56.</p>\n            ","response":0,"trial_type":"html-button-response","trial_index":10,"time_elapsed":228284,"internal_node_id":"0.0-4.0-1.1","subject_id":"613bbfebd7cdd60585f6a3a2","study_id":"6197b3f67c2b5cd3b6d9596a","session_id":"619be58e64fe1271ded52e20","condition":"contingent","relevant_dimensions":["antennae","wings"],"bee_group":{"antennae":"B","wings":"1","pattern":"X","legs":"X"},"bonus":1.080000000000001},{"rt":1613.300000011921,"stimulus":"bees-with-color/bee-B1SF.svg","response":0,"trial_type":"image-button-response","trial_index":11,"time_elapsed":229901,"internal_node_id":"0.0-4.0-0.2","subject_id":"613bbfebd7cdd60585f6a3a2","study_id":"6197b3f67c2b5cd3b6d9596a","session_id":"619be58e64fe1271ded52e20","condition":"contingent","relevant_dimensions":["antennae","wings"],"bee_group":{"antennae":"B","wings":"1","pattern":"X","legs":"X"},"action":"harvest","summary":"bad-harvest","bonus":1.080000000000001},{"rt":5501.5,"stimulus":"\n                    <p><b>Action: <em>harvest</em></b></p>\n                    <p>This is the bee that you just saw.</p>\n                    <img src=\"bees-with-color/bee-B1SF.svg\" width=\"200\">\n                    <p><span class=\"redText\">Bad choice, the bee was angry.</span><br><b>You have been stung!</b><br>Your pay has been decreased by $0.10. Your bonus pay is now $0.46.</p>\n            ","response":0,"trial_type":"html-button-response","trial_index":12,"time_elapsed":235406,"internal_node_id":"0.0-4.0-1.2","subject_id":"613bbfebd7cdd60585f6a3a2","study_id":"6197b3f67c2b5cd3b6d9596a","session_id":"619be58e64fe1271ded52e20","condition":"contingent","relevant_dimensions":["antennae","wings"],"bee_group":{"antennae":"B","wings":"1","pattern":"X","legs":"X"},"bonus":1.080000000000001},{"rt":2725.599999964237,"stimulus":"bees-with-color/bee-A1DM.svg","response":0,"trial_type":"image-button-response","trial_index":13,"time_elapsed":238135,"internal_node_id":"0.0-4.0-0.3","subject_id":"613bbfebd7cdd60585f6a3a2","study_id":"6197b3f67c2b5cd3b6d9596a","session_id":"619be58e64fe1271ded52e20","condition":"contingent","relevant_dimensions":["antennae","wings"],"bee_group":{"antennae":"B","wings":"1","pattern":"X","legs":"X"},"action":"harvest","summary":"good-harvest","bonus":1.080000000000001},{"rt":2243.699999988079,"stimulus":"\n                    <p><b>Action: <em>harvest</em></b></p>\n                    <p>This is the bee that you just saw.</p>\n                    <img src=\"bees-with-color/bee-A1DM.svg\" width=\"200\">\n                    <p><span class=\"greenText\"><b>Successful harvest!</b></span><br>Your pay has increased by $0.02. Your bonus pay is now $0.48.</p>\n            ","response":0,"trial_type":"html-button-response","trial_index":14,"time_elapsed":240382,"internal_node_id":"0.0-4.0-1.3","subject_id":"613bbfebd7cdd60585f6a3a2","study_id":"6197b3f67c2b5cd3b6d9596a","session_id":"619be58e64fe1271ded52e20","condition":"contingent","relevant_dimensions":["antennae","wings"],"bee_group":{"antennae":"B","wings":"1","pattern":"X","legs":"X"},"bonus":1.080000000000001},{"rt":1987.5,"stimulus":"bees-with-color/bee-A2SF.svg","response":1,"trial_type":"image-button-response","trial_index":15,"time_elapsed":242374,"internal_node_id":"0.0-4.0-0.4","subject_id":"613bbfebd7cdd60585f6a3a2","study_id":"6197b3f67c2b5cd3b6d9596a","session_id":"619be58e64fe1271ded52e20","condition":"contingent","relevant_dimensions":["antennae","wings"],"bee_group":{"antennae":"B","wings":"1","pattern":"X","legs":"X"},"action":"avoid","summary":"bad-avoid","bonus":1.080000000000001},{"rt":1660.3999999761581,"stimulus":"\n                    <p><b>Action: <em>avoid</em></b></p>\n                    <p>This is the bee that you just saw.</p>\n                    <img src=\"bees-with-color/bee-A2SF.svg\" width=\"200\">\n                    <p><br>Your bonus pay is unchanged, and remains at $0.48.</p>\n            ","response":0,"trial_type":"html-button-response","trial_index":16,"time_elapsed":244037,"internal_node_id":"0.0-4.0-1.4","subject_id":"613bbfebd7cdd60585f6a3a2","study_id":"6197b3f67c2b5cd3b6d9596a","session_id":"619be58e64fe1271ded52e20","condition":"contingent","relevant_dimensions":["antennae","wings"],"bee_group":{"antennae":"B","wings":"1","pattern":"X","legs":"X"},"bonus":1.080000000000001},{"rt":1629,"stimulus":"bees-with-color/bee-B2SM.svg","response":0,"trial_type":"image-button-response","trial_index":17,"time_elapsed":245670,"internal_node_id":"0.0-4.0-0.5","subject_id":"613bbfebd7cdd60585f6a3a2","study_id":"6197b3f67c2b5cd3b6d9596a","session_id":"619be58e64fe1271ded52e20","condition":"contingent","relevant_dimensions":["antennae","wings"],"bee_group":{"antennae":"B","wings":"1","pattern":"X","legs":"X"},"action":"harvest","summary":"good-harvest","bonus":1.080000000000001},{"rt":1630.1000000238419,"stimulus":"\n                    <p><b>Action: <em>harvest</em></b></p>\n                    <p>This is the bee that you just saw.</p>\n                    <img src=\"bees-with-color/bee-B2SM.svg\" width=\"200\">\n                    <p><span class=\"greenText\"><b>Successful harvest!</b></span><br>Your pay has increased by $0.02. Your bonus pay is now $0.50.</p>\n            ","response":0,"trial_type":"html-button-response","trial_index":18,"time_elapsed":247303,"internal_node_id":"0.0-4.0-1.5","subject_id":"613bbfebd7cdd60585f6a3a2","study_id":"6197b3f67c2b5cd3b6d9596a","session_id":"619be58e64fe1271ded52e20","condition":"contingent","relevant_dimensions":["antennae","wings"],"bee_group":{"antennae":"B","wings":"1","pattern":"X","legs":"X"},"bonus":1.080000000000001},{"rt":2127.599999964237,"stimulus":"bees-with-color/bee-A2SM.svg","response":1,"trial_type":"image-button-response","trial_index":19,"time_elapsed":249433,"internal_node_id":"0.0-4.0-0.6","subject_id":"613bbfebd7cdd60585f6a3a2","study_id":"6197b3f67c2b5cd3b6d9596a","session_id":"619be58e64fe1271ded52e20","condition":"contingent","relevant_dimensions":["antennae","wings"],"bee_group":{"antennae":"B","wings":"1","pattern":"X","legs":"X"},"action":"avoid","summary":"bad-avoid","bonus":1.080000000000001},{"rt":1139.8999999761581,"stimulus":"\n                    <p><b>Action: <em>avoid</em></b></p>\n                    <p>This is the bee that you just saw.</p>\n                    <img src=\"bees-with-color/bee-A2SM.svg\" width=\"200\">\n                    <p><br>Your bonus pay is unchanged, and remains at $0.50.</p>\n            ","response":0,"trial_type":"html-button-response","trial_index":20,"time_elapsed":250576,"internal_node_id":"0.0-4.0-1.6","subject_id":"613bbfebd7cdd60585f6a3a2","study_id":"6197b3f67c2b5cd3b6d9596a","session_id":"619be58e64fe1271ded52e20","condition":"contingent","relevant_dimensions":["antennae","wings"],"bee_group":{"antennae":"B","wings":"1","pattern":"X","legs":"X"},"bonus":1.080000000000001},{"rt":2080.699999988079,"stimulus":"bees-with-color/bee-B1DF.svg","response":0,"trial_type":"image-button-response","trial_index":21,"time_elapsed":252660,"internal_node_id":"0.0-4.0-0.7","subject_id":"613bbfebd7cdd60585f6a3a2","study_id":"6197b3f67c2b5cd3b6d9596a","session_id":"619be58e64fe1271ded52e20","condition":"contingent","relevant_dimensions":["antennae","wings"],"bee_group":{"antennae":"B","wings":"1","pattern":"X","legs":"X"},"action":"harvest","summary":"bad-harvest","bonus":1.080000000000001},{"rt":2072.899999976158,"stimulus":"\n                    <p><b>Action: <em>harvest</em></b></p>\n                    <p>This is the bee that you just saw.</p>\n                    <img src=\"bees-with-color/bee-B1DF.svg\" width=\"200\">\n                    <p><span class=\"redText\">Bad choice, the bee was angry.</span><br><b>You have been stung!</b><br>Your pay has been decreased by $0.10. Your bonus pay is now $0.40.</p>\n            ","response":0,"trial_type":"html-button-response","trial_index":22,"time_elapsed":254736,"internal_node_id":"0.0-4.0-1.7","subject_id":"613bbfebd7cdd60585f6a3a2","study_id":"6197b3f67c2b5cd3b6d9596a","session_id":"619be58e64fe1271ded52e20","condition":"contingent","relevant_dimensions":["antennae","wings"],"bee_group":{"antennae":"B","wings":"1","pattern":"X","legs":"X"},"bonus":1.080000000000001},{"rt":1735.199999988079,"stimulus":"bees-with-color/bee-A1SM.svg","response":0,"trial_type":"image-button-response","trial_index":23,"time_elapsed":256477,"internal_node_id":"0.0-4.0-0.8","subject_id":"613bbfebd7cdd60585f6a3a2","study_id":"6197b3f67c2b5cd3b6d9596a","session_id":"619be58e64fe1271ded52e20","condition":"contingent","relevant_dimensions":["antennae","wings"],"bee_group":{"antennae":"B","wings":"1","pattern":"X","legs":"X"},"action":"harvest","summary":"good-harvest","bonus":1.080000000000001},{"rt":1248.800000011921,"stimulus":"\n                    <p><b>Action: <em>harvest</em></b></p>\n                    <p>This is the bee that you just saw.</p>\n                    <img src=\"bees-with-color/bee-A1SM.svg\" width=\"200\">\n                    <p><span class=\"greenText\"><b>Successful harvest!</b></span><br>Your pay has increased by $0.02. Your bonus pay is now $0.42.</p>\n            ","response":0,"trial_type":"html-button-response","trial_index":24,"time_elapsed":257730,"internal_node_id":"0.0-4.0-1.8","subject_id":"613bbfebd7cdd60585f6a3a2","study_id":"6197b3f67c2b5cd3b6d9596a","session_id":"619be58e64fe1271ded52e20","condition":"contingent","relevant_dimensions":["antennae","wings"],"bee_group":{"antennae":"B","wings":"1","pattern":"X","legs":"X"},"bonus":1.080000000000001},{"rt":1442,"stimulus":"bees-with-color/bee-B2DM.svg","response":1,"trial_type":"image-button-response","trial_index":25,"time_elapsed":259176,"internal_node_id":"0.0-4.0-0.9","subject_id":"613bbfebd7cdd60585f6a3a2","study_id":"6197b3f67c2b5cd3b6d9596a","session_id":"619be58e64fe1271ded52e20","condition":"contingent","relevant_dimensions":["antennae","wings"],"bee_group":{"antennae":"B","wings":"1","pattern":"X","legs":"X"},"action":"avoid","summary":"bad-avoid","bonus":1.080000000000001},{"rt":1062,"stimulus":"\n                    <p><b>Action: <em>avoid</em></b></p>\n                    <p>This is the bee that you just saw.</p>\n                    <img src=\"bees-with-color/bee-B2DM.svg\" width=\"200\">\n                    <p><br>Your bonus pay is unchanged, and remains at $0.42.</p>\n            ","response":0,"trial_type":"html-button-response","trial_index":26,"time_elapsed":260241,"internal_node_id":"0.0-4.0-1.9","subject_id":"613bbfebd7cdd60585f6a3a2","study_id":"6197b3f67c2b5cd3b6d9596a","session_id":"619be58e64fe1271ded52e20","condition":"contingent","relevant_dimensions":["antennae","wings"],"bee_group":{"antennae":"B","wings":"1","pattern":"X","legs":"X"},"bonus":1.080000000000001},{"rt":1661.300000011921,"stimulus":"bees-with-color/bee-B2DF.svg","response":0,"trial_type":"image-button-response","trial_index":27,"time_elapsed":261906,"internal_node_id":"0.0-4.0-0.10","subject_id":"613bbfebd7cdd60585f6a3a2","study_id":"6197b3f67c2b5cd3b6d9596a","session_id":"619be58e64fe1271ded52e20","condition":"contingent","relevant_dimensions":["antennae","wings"],"bee_group":{"antennae":"B","wings":"1","pattern":"X","legs":"X"},"action":"harvest","summary":"good-harvest","bonus":1.080000000000001},{"rt":1410.5,"stimulus":"\n                    <p><b>Action: <em>harvest</em></b></p>\n                    <p>This is the bee that you just saw.</p>\n                    <img src=\"bees-with-color/bee-B2DF.svg\" width=\"200\">\n                    <p><span class=\"greenText\"><b>Successful harvest!</b></span><br>Your pay has increased by $0.02. Your bonus pay is now $0.44.</p>\n            ","response":0,"trial_type":"html-button-response","trial_index":28,"time_elapsed":263322,"internal_node_id":"0.0-4.0-1.10","subject_id":"613bbfebd7cdd60585f6a3a2","study_id":"6197b3f67c2b5cd3b6d9596a","session_id":"619be58e64fe1271ded52e20","condition":"contingent","relevant_dimensions":["antennae","wings"],"bee_group":{"antennae":"B","wings":"1","pattern":"X","legs":"X"},"bonus":1.080000000000001},{"rt":1231.300000011921,"stimulus":"bees-with-color/bee-A2DF.svg","response":0,"trial_type":"image-button-response","trial_index":29,"time_elapsed":264557,"internal_node_id":"0.0-4.0-0.11","subject_id":"613bbfebd7cdd60585f6a3a2","study_id":"6197b3f67c2b5cd3b6d9596a","session_id":"619be58e64fe1271ded52e20","condition":"contingent","relevant_dimensions":["antennae","wings"],"bee_group":{"antennae":"B","wings":"1","pattern":"X","legs":"X"},"action":"harvest","summary":"good-harvest","bonus":1.080000000000001},{"rt":1209.1000000238419,"stimulus":"\n                    <p><b>Action: <em>harvest</em></b></p>\n                    <p>This is the bee that you just saw.</p>\n                    <img src=\"bees-with-color/bee-A2DF.svg\" width=\"200\">\n                    <p><span class=\"greenText\"><b>Successful harvest!</b></span><br>Your pay has increased by $0.02. Your bonus pay is now $0.46.</p>\n            ","response":0,"trial_type":"html-button-response","trial_index":30,"time_elapsed":265769,"internal_node_id":"0.0-4.0-1.11","subject_id":"613bbfebd7cdd60585f6a3a2","study_id":"6197b3f67c2b5cd3b6d9596a","session_id":"619be58e64fe1271ded52e20","condition":"contingent","relevant_dimensions":["antennae","wings"],"bee_group":{"antennae":"B","wings":"1","pattern":"X","legs":"X"},"bonus":1.080000000000001},{"rt":1293.3999999761581,"stimulus":"bees-with-color/bee-B1SM.svg","response":1,"trial_type":"image-button-response","trial_index":31,"time_elapsed":267068,"internal_node_id":"0.0-4.0-0.12","subject_id":"613bbfebd7cdd60585f6a3a2","study_id":"6197b3f67c2b5cd3b6d9596a","session_id":"619be58e64fe1271ded52e20","condition":"contingent","relevant_dimensions":["antennae","wings"],"bee_group":{"antennae":"B","wings":"1","pattern":"X","legs":"X"},"action":"avoid","summary":"good-avoid","bonus":1.080000000000001},{"rt":1076.2000000476837,"stimulus":"\n                    <p><b>Action: <em>avoid</em></b></p>\n                    <p>This is the bee that you just saw.</p>\n                    <img src=\"bees-with-color/bee-B1SM.svg\" width=\"200\">\n                    <p><br>Your bonus pay is unchanged, and remains at $0.46.</p>\n            ","response":0,"trial_type":"html-button-response","trial_index":32,"time_elapsed":268149,"internal_node_id":"0.0-4.0-1.12","subject_id":"613bbfebd7cdd60585f6a3a2","study_id":"6197b3f67c2b5cd3b6d9596a","session_id":"619be58e64fe1271ded52e20","condition":"contingent","relevant_dimensions":["antennae","wings"],"bee_group":{"antennae":"B","wings":"1","pattern":"X","legs":"X"},"bonus":1.080000000000001},{"rt":1256.9000000357628,"stimulus":"bees-with-color/bee-A2DM.svg","response":0,"trial_type":"image-button-response","trial_index":33,"time_elapsed":269409,"internal_node_id":"0.0-4.0-0.13","subject_id":"613bbfebd7cdd60585f6a3a2","study_id":"6197b3f67c2b5cd3b6d9596a","session_id":"619be58e64fe1271ded52e20","condition":"contingent","relevant_dimensions":["antennae","wings"],"bee_group":{"antennae":"B","wings":"1","pattern":"X","legs":"X"},"action":"harvest","summary":"good-harvest","bonus":1.080000000000001},{"rt":1155.2999999523163,"stimulus":"\n                    <p><b>Action: <em>harvest</em></b></p>\n                    <p>This is the bee that you just saw.</p>\n                    <img src=\"bees-with-color/bee-A2DM.svg\" width=\"200\">\n                    <p><span class=\"greenText\"><b>Successful harvest!</b></span><br>Your pay has increased by $0.02. Your bonus pay is now $0.48.</p>\n            ","response":0,"trial_type":"html-button-response","trial_index":34,"time_elapsed":270567,"internal_node_id":"0.0-4.0-1.13","subject_id":"613bbfebd7cdd60585f6a3a2","study_id":"6197b3f67c2b5cd3b6d9596a","session_id":"619be58e64fe1271ded52e20","condition":"contingent","relevant_dimensions":["antennae","wings"],"bee_group":{"antennae":"B","wings":"1","pattern":"X","legs":"X"},"bonus":1.080000000000001},{"rt":2140.899999976158,"stimulus":"bees-with-color/bee-B1DM.svg","response":1,"trial_type":"image-button-response","trial_index":35,"time_elapsed":272713,"internal_node_id":"0.0-4.0-0.14","subject_id":"613bbfebd7cdd60585f6a3a2","study_id":"6197b3f67c2b5cd3b6d9596a","session_id":"619be58e64fe1271ded52e20","condition":"contingent","relevant_dimensions":["antennae","wings"],"bee_group":{"antennae":"B","wings":"1","pattern":"X","legs":"X"},"action":"avoid","summary":"good-avoid","bonus":1.080000000000001},{"rt":798.5999999642372,"stimulus":"\n                    <p><b>Action: <em>avoid</em></b></p>\n                    <p>This is the bee that you just saw.</p>\n                    <img src=\"bees-with-color/bee-B1DM.svg\" width=\"200\">\n                    <p><br>Your bonus pay is unchanged, and remains at $0.48.</p>\n            ","response":0,"trial_type":"html-button-response","trial_index":36,"time_elapsed":273514,"internal_node_id":"0.0-4.0-1.14","subject_id":"613bbfebd7cdd60585f6a3a2","study_id":"6197b3f67c2b5cd3b6d9596a","session_id":"619be58e64fe1271ded52e20","condition":"contingent","relevant_dimensions":["antennae","wings"],"bee_group":{"antennae":"B","wings":"1","pattern":"X","legs":"X"},"bonus":1.080000000000001},{"rt":2274.699999988079,"stimulus":"bees-with-color/bee-A1SF.svg","response":1,"trial_type":"image-button-response","trial_index":37,"time_elapsed":275792,"internal_node_id":"0.0-4.0-0.15","subject_id":"613bbfebd7cdd60585f6a3a2","study_id":"6197b3f67c2b5cd3b6d9596a","session_id":"619be58e64fe1271ded52e20","condition":"contingent","relevant_dimensions":["antennae","wings"],"bee_group":{"antennae":"B","wings":"1","pattern":"X","legs":"X"},"action":"avoid","summary":"bad-avoid","bonus":1.080000000000001},{"rt":1210,"stimulus":"\n                    <p><b>Action: <em>avoid</em></b></p>\n                    <p>This is the bee that you just saw.</p>\n                    <img src=\"bees-with-color/bee-A1SF.svg\" width=\"200\">\n                    <p><br>Your bonus pay is unchanged, and remains at $0.48.</p>\n            ","response":0,"trial_type":"html-button-response","trial_index":38,"time_elapsed":277005,"internal_node_id":"0.0-4.0-1.15","subject_id":"613bbfebd7cdd60585f6a3a2","study_id":"6197b3f67c2b5cd3b6d9596a","session_id":"619be58e64fe1271ded52e20","condition":"contingent","relevant_dimensions":["antennae","wings"],"bee_group":{"antennae":"B","wings":"1","pattern":"X","legs":"X"},"bonus":1.080000000000001},{"rt":1644.199999988079,"stimulus":"bees-with-color/bee-A2DF.svg","response":0,"trial_type":"image-button-response","trial_index":39,"time_elapsed":278653,"internal_node_id":"0.0-4.0-0.16","subject_id":"613bbfebd7cdd60585f6a3a2","study_id":"6197b3f67c2b5cd3b6d9596a","session_id":"619be58e64fe1271ded52e20","condition":"contingent","relevant_dimensions":["antennae","wings"],"bee_group":{"antennae":"B","wings":"1","pattern":"X","legs":"X"},"action":"harvest","summary":"good-harvest","bonus":1.080000000000001},{"rt":1800.5999999642372,"stimulus":"\n                    <p><b>Action: <em>harvest</em></b></p>\n                    <p>This is the bee that you just saw.</p>\n                    <img src=\"bees-with-color/bee-A2DF.svg\" width=\"200\">\n                    <p><span class=\"greenText\"><b>Successful harvest!</b></span><br>Your pay has increased by $0.02. Your bonus pay is now $0.50.</p>\n            ","response":0,"trial_type":"html-button-response","trial_index":40,"time_elapsed":280457,"internal_node_id":"0.0-4.0-1.16","subject_id":"613bbfebd7cdd60585f6a3a2","study_id":"6197b3f67c2b5cd3b6d9596a","session_id":"619be58e64fe1271ded52e20","condition":"contingent","relevant_dimensions":["antennae","wings"],"bee_group":{"antennae":"B","wings":"1","pattern":"X","legs":"X"},"bonus":1.080000000000001},{"rt":1334.1000000238419,"stimulus":"bees-with-color/bee-B1DM.svg","response":0,"trial_type":"image-button-response","trial_index":41,"time_elapsed":281794,"internal_node_id":"0.0-4.0-0.17","subject_id":"613bbfebd7cdd60585f6a3a2","study_id":"6197b3f67c2b5cd3b6d9596a","session_id":"619be58e64fe1271ded52e20","condition":"contingent","relevant_dimensions":["antennae","wings"],"bee_group":{"antennae":"B","wings":"1","pattern":"X","legs":"X"},"action":"harvest","summary":"bad-harvest","bonus":1.080000000000001},{"rt":2432.899999976158,"stimulus":"\n                    <p><b>Action: <em>harvest</em></b></p>\n                    <p>This is the bee that you just saw.</p>\n                    <img src=\"bees-with-color/bee-B1DM.svg\" width=\"200\">\n                    <p><span class=\"redText\">Bad choice, the bee was angry.</span><br><b>You have been stung!</b><br>Your pay has been decreased by $0.10. Your bonus pay is now $0.40.</p>\n            ","response":0,"trial_type":"html-button-response","trial_index":42,"time_elapsed":284234,"internal_node_id":"0.0-4.0-1.17","subject_id":"613bbfebd7cdd60585f6a3a2","study_id":"6197b3f67c2b5cd3b6d9596a","session_id":"619be58e64fe1271ded52e20","condition":"contingent","relevant_dimensions":["antennae","wings"],"bee_group":{"antennae":"B","wings":"1","pattern":"X","legs":"X"},"bonus":1.080000000000001},{"rt":1696.300000011921,"stimulus":"bees-with-color/bee-A2SM.svg","response":0,"trial_type":"image-button-response","trial_index":43,"time_elapsed":285935,"internal_node_id":"0.0-4.0-0.18","subject_id":"613bbfebd7cdd60585f6a3a2","study_id":"6197b3f67c2b5cd3b6d9596a","session_id":"619be58e64fe1271ded52e20","condition":"contingent","relevant_dimensions":["antennae","wings"],"bee_group":{"antennae":"B","wings":"1","pattern":"X","legs":"X"},"action":"harvest","summary":"good-harvest","bonus":1.080000000000001},{"rt":1041.8999999761581,"stimulus":"\n                    <p><b>Action: <em>harvest</em></b></p>\n                    <p>This is the bee that you just saw.</p>\n                    <img src=\"bees-with-color/bee-A2SM.svg\" width=\"200\">\n                    <p><span class=\"greenText\"><b>Successful harvest!</b></span><br>Your pay has increased by $0.02. Your bonus pay is now $0.42.</p>\n            ","response":0,"trial_type":"html-button-response","trial_index":44,"time_elapsed":286980,"internal_node_id":"0.0-4.0-1.18","subject_id":"613bbfebd7cdd60585f6a3a2","study_id":"6197b3f67c2b5cd3b6d9596a","session_id":"619be58e64fe1271ded52e20","condition":"contingent","relevant_dimensions":["antennae","wings"],"bee_group":{"antennae":"B","wings":"1","pattern":"X","legs":"X"},"bonus":1.080000000000001},{"rt":1103.300000011921,"stimulus":"bees-with-color/bee-B2SM.svg","response":0,"trial_type":"image-button-response","trial_index":45,"time_elapsed":288087,"internal_node_id":"0.0-4.0-0.19","subject_id":"613bbfebd7cdd60585f6a3a2","study_id":"6197b3f67c2b5cd3b6d9596a","session_id":"619be58e64fe1271ded52e20","condition":"contingent","relevant_dimensions":["antennae","wings"],"bee_group":{"antennae":"B","wings":"1","pattern":"X","legs":"X"},"action":"harvest","summary":"good-harvest","bonus":1.080000000000001},{"rt":1028.5,"stimulus":"\n                    <p><b>Action: <em>harvest</em></b></p>\n                    <p>This is the bee that you just saw.</p>\n                    <img src=\"bees-with-color/bee-B2SM.svg\" width=\"200\">\n                    <p><span class=\"greenText\"><b>Successful harvest!</b></span><br>Your pay has increased by $0.02. Your bonus pay is now $0.44.</p>\n            ","response":0,"trial_type":"html-button-response","trial_index":46,"time_elapsed":289119,"internal_node_id":"0.0-4.0-1.19","subject_id":"613bbfebd7cdd60585f6a3a2","study_id":"6197b3f67c2b5cd3b6d9596a","session_id":"619be58e64fe1271ded52e20","condition":"contingent","relevant_dimensions":["antennae","wings"],"bee_group":{"antennae":"B","wings":"1","pattern":"X","legs":"X"},"bonus":1.080000000000001},{"rt":1226.0999999642372,"stimulus":"bees-with-color/bee-A1DM.svg","response":1,"trial_type":"image-button-response","trial_index":47,"time_elapsed":290348,"internal_node_id":"0.0-4.0-0.20","subject_id":"613bbfebd7cdd60585f6a3a2","study_id":"6197b3f67c2b5cd3b6d9596a","session_id":"619be58e64fe1271ded52e20","condition":"contingent","relevant_dimensions":["antennae","wings"],"bee_group":{"antennae":"B","wings":"1","pattern":"X","legs":"X"},"action":"avoid","summary":"bad-avoid","bonus":1.080000000000001},{"rt":1255.8999999761581,"stimulus":"\n                    <p><b>Action: <em>avoid</em></b></p>\n                    <p>This is the bee that you just saw.</p>\n                    <img src=\"bees-with-color/bee-A1DM.svg\" width=\"200\">\n                    <p><br>Your bonus pay is unchanged, and remains at $0.44.</p>\n            ","response":0,"trial_type":"html-button-response","trial_index":48,"time_elapsed":291607,"internal_node_id":"0.0-4.0-1.20","subject_id":"613bbfebd7cdd60585f6a3a2","study_id":"6197b3f67c2b5cd3b6d9596a","session_id":"619be58e64fe1271ded52e20","condition":"contingent","relevant_dimensions":["antennae","wings"],"bee_group":{"antennae":"B","wings":"1","pattern":"X","legs":"X"},"bonus":1.080000000000001},{"rt":1505.8999999761581,"stimulus":"bees-with-color/bee-A1SF.svg","response":1,"trial_type":"image-button-response","trial_index":49,"time_elapsed":293115,"internal_node_id":"0.0-4.0-0.21","subject_id":"613bbfebd7cdd60585f6a3a2","study_id":"6197b3f67c2b5cd3b6d9596a","session_id":"619be58e64fe1271ded52e20","condition":"contingent","relevant_dimensions":["antennae","wings"],"bee_group":{"antennae":"B","wings":"1","pattern":"X","legs":"X"},"action":"avoid","summary":"bad-avoid","bonus":1.080000000000001},{"rt":1630.3999999761581,"stimulus":"\n                    <p><b>Action: <em>avoid</em></b></p>\n                    <p>This is the bee that you just saw.</p>\n                    <img src=\"bees-with-color/bee-A1SF.svg\" width=\"200\">\n                    <p><br>Your bonus pay is unchanged, and remains at $0.44.</p>\n            ","response":0,"trial_type":"html-button-response","trial_index":50,"time_elapsed":294748,"internal_node_id":"0.0-4.0-1.21","subject_id":"613bbfebd7cdd60585f6a3a2","study_id":"6197b3f67c2b5cd3b6d9596a","session_id":"619be58e64fe1271ded52e20","condition":"contingent","relevant_dimensions":["antennae","wings"],"bee_group":{"antennae":"B","wings":"1","pattern":"X","legs":"X"},"bonus":1.080000000000001},{"rt":2438.5,"stimulus":"bees-with-color/bee-A1SM.svg","response":1,"trial_type":"image-button-response","trial_index":51,"time_elapsed":297189,"internal_node_id":"0.0-4.0-0.22","subject_id":"613bbfebd7cdd60585f6a3a2","study_id":"6197b3f67c2b5cd3b6d9596a","session_id":"619be58e64fe1271ded52e20","condition":"contingent","relevant_dimensions":["antennae","wings"],"bee_group":{"antennae":"B","wings":"1","pattern":"X","legs":"X"},"action":"avoid","summary":"bad-avoid","bonus":1.080000000000001},{"rt":898.8999999761581,"stimulus":"\n                    <p><b>Action: <em>avoid</em></b></p>\n                    <p>This is the bee that you just saw.</p>\n                    <img src=\"bees-with-color/bee-A1SM.svg\" width=\"200\">\n                    <p><br>Your bonus pay is unchanged, and remains at $0.44.</p>\n            ","response":0,"trial_type":"html-button-response","trial_index":52,"time_elapsed":298091,"internal_node_id":"0.0-4.0-1.22","subject_id":"613bbfebd7cdd60585f6a3a2","study_id":"6197b3f67c2b5cd3b6d9596a","session_id":"619be58e64fe1271ded52e20","condition":"contingent","relevant_dimensions":["antennae","wings"],"bee_group":{"antennae":"B","wings":"1","pattern":"X","legs":"X"},"bonus":1.080000000000001},{"rt":1537.2999999523163,"stimulus":"bees-with-color/bee-B1SF.svg","response":0,"trial_type":"image-button-response","trial_index":53,"time_elapsed":299631,"internal_node_id":"0.0-4.0-0.23","subject_id":"613bbfebd7cdd60585f6a3a2","study_id":"6197b3f67c2b5cd3b6d9596a","session_id":"619be58e64fe1271ded52e20","condition":"contingent","relevant_dimensions":["antennae","wings"],"bee_group":{"antennae":"B","wings":"1","pattern":"X","legs":"X"},"action":"harvest","summary":"bad-harvest","bonus":1.080000000000001},{"rt":1567.2999999523163,"stimulus":"\n                    <p><b>Action: <em>harvest</em></b></p>\n                    <p>This is the bee that you just saw.</p>\n                    <img src=\"bees-with-color/bee-B1SF.svg\" width=\"200\">\n                    <p><span class=\"redText\">Bad choice, the bee was angry.</span><br><b>You have been stung!</b><br>Your pay has been decreased by $0.10. Your bonus pay is now $0.34.</p>\n            ","response":0,"trial_type":"html-button-response","trial_index":54,"time_elapsed":301201,"internal_node_id":"0.0-4.0-1.23","subject_id":"613bbfebd7cdd60585f6a3a2","study_id":"6197b3f67c2b5cd3b6d9596a","session_id":"619be58e64fe1271ded52e20","condition":"contingent","relevant_dimensions":["antennae","wings"],"bee_group":{"antennae":"B","wings":"1","pattern":"X","legs":"X"},"bonus":1.080000000000001},{"rt":1785.300000011921,"stimulus":"bees-with-color/bee-B1SM.svg","response":1,"trial_type":"image-button-response","trial_index":55,"time_elapsed":302989,"internal_node_id":"0.0-4.0-0.24","subject_id":"613bbfebd7cdd60585f6a3a2","study_id":"6197b3f67c2b5cd3b6d9596a","session_id":"619be58e64fe1271ded52e20","condition":"contingent","relevant_dimensions":["antennae","wings"],"bee_group":{"antennae":"B","wings":"1","pattern":"X","legs":"X"},"action":"avoid","summary":"good-avoid","bonus":1.080000000000001},{"rt":1287.5,"stimulus":"\n                    <p><b>Action: <em>avoid</em></b></p>\n                    <p>This is the bee that you just saw.</p>\n                    <img src=\"bees-with-color/bee-B1SM.svg\" width=\"200\">\n                    <p><br>Your bonus pay is unchanged, and remains at $0.34.</p>\n            ","response":0,"trial_type":"html-button-response","trial_index":56,"time_elapsed":304279,"internal_node_id":"0.0-4.0-1.24","subject_id":"613bbfebd7cdd60585f6a3a2","study_id":"6197b3f67c2b5cd3b6d9596a","session_id":"619be58e64fe1271ded52e20","condition":"contingent","relevant_dimensions":["antennae","wings"],"bee_group":{"antennae":"B","wings":"1","pattern":"X","legs":"X"},"bonus":1.080000000000001},{"rt":1147.199999988079,"stimulus":"bees-with-color/bee-A2DM.svg","response":0,"trial_type":"image-button-response","trial_index":57,"time_elapsed":305429,"internal_node_id":"0.0-4.0-0.25","subject_id":"613bbfebd7cdd60585f6a3a2","study_id":"6197b3f67c2b5cd3b6d9596a","session_id":"619be58e64fe1271ded52e20","condition":"contingent","relevant_dimensions":["antennae","wings"],"bee_group":{"antennae":"B","wings":"1","pattern":"X","legs":"X"},"action":"harvest","summary":"good-harvest","bonus":1.080000000000001},{"rt":1032,"stimulus":"\n                    <p><b>Action: <em>harvest</em></b></p>\n                    <p>This is the bee that you just saw.</p>\n                    <img src=\"bees-with-color/bee-A2DM.svg\" width=\"200\">\n                    <p><span class=\"greenText\"><b>Successful harvest!</b></span><br>Your pay has increased by $0.02. Your bonus pay is now $0.36.</p>\n            ","response":0,"trial_type":"html-button-response","trial_index":58,"time_elapsed":306464,"internal_node_id":"0.0-4.0-1.25","subject_id":"613bbfebd7cdd60585f6a3a2","study_id":"6197b3f67c2b5cd3b6d9596a","session_id":"619be58e64fe1271ded52e20","condition":"contingent","relevant_dimensions":["antennae","wings"],"bee_group":{"antennae":"B","wings":"1","pattern":"X","legs":"X"},"bonus":1.080000000000001},{"rt":1186.5999999642372,"stimulus":"bees-with-color/bee-A1DF.svg","response":1,"trial_type":"image-button-response","trial_index":59,"time_elapsed":307655,"internal_node_id":"0.0-4.0-0.26","subject_id":"613bbfebd7cdd60585f6a3a2","study_id":"6197b3f67c2b5cd3b6d9596a","session_id":"619be58e64fe1271ded52e20","condition":"contingent","relevant_dimensions":["antennae","wings"],"bee_group":{"antennae":"B","wings":"1","pattern":"X","legs":"X"},"action":"avoid","summary":"bad-avoid","bonus":1.080000000000001},{"rt":856.1000000238419,"stimulus":"\n                    <p><b>Action: <em>avoid</em></b></p>\n                    <p>This is the bee that you just saw.</p>\n                    <img src=\"bees-with-color/bee-A1DF.svg\" width=\"200\">\n                    <p><br>Your bonus pay is unchanged, and remains at $0.36.</p>\n            ","response":0,"trial_type":"html-button-response","trial_index":60,"time_elapsed":308517,"internal_node_id":"0.0-4.0-1.26","subject_id":"613bbfebd7cdd60585f6a3a2","study_id":"6197b3f67c2b5cd3b6d9596a","session_id":"619be58e64fe1271ded52e20","condition":"contingent","relevant_dimensions":["antennae","wings"],"bee_group":{"antennae":"B","wings":"1","pattern":"X","legs":"X"},"bonus":1.080000000000001},{"rt":1077.8999999761581,"stimulus":"bees-with-color/bee-A2SF.svg","response":0,"trial_type":"image-button-response","trial_index":61,"time_elapsed":309598,"internal_node_id":"0.0-4.0-0.27","subject_id":"613bbfebd7cdd60585f6a3a2","study_id":"6197b3f67c2b5cd3b6d9596a","session_id":"619be58e64fe1271ded52e20","condition":"contingent","relevant_dimensions":["antennae","wings"],"bee_group":{"antennae":"B","wings":"1","pattern":"X","legs":"X"},"action":"harvest","summary":"good-harvest","bonus":1.080000000000001},{"rt":820.9000000357628,"stimulus":"\n                    <p><b>Action: <em>harvest</em></b></p>\n                    <p>This is the bee that you just saw.</p>\n                    <img src=\"bees-with-color/bee-A2SF.svg\" width=\"200\">\n                    <p><span class=\"greenText\"><b>Successful harvest!</b></span><br>Your pay has increased by $0.02. Your bonus pay is now $0.38.</p>\n            ","response":0,"trial_type":"html-button-response","trial_index":62,"time_elapsed":310422,"internal_node_id":"0.0-4.0-1.27","subject_id":"613bbfebd7cdd60585f6a3a2","study_id":"6197b3f67c2b5cd3b6d9596a","session_id":"619be58e64fe1271ded52e20","condition":"contingent","relevant_dimensions":["antennae","wings"],"bee_group":{"antennae":"B","wings":"1","pattern":"X","legs":"X"},"bonus":1.080000000000001},{"rt":4834.299999952316,"stimulus":"bees-with-color/bee-B2DF.svg","response":1,"trial_type":"image-button-response","trial_index":63,"time_elapsed":315259,"internal_node_id":"0.0-4.0-0.28","subject_id":"613bbfebd7cdd60585f6a3a2","study_id":"6197b3f67c2b5cd3b6d9596a","session_id":"619be58e64fe1271ded52e20","condition":"contingent","relevant_dimensions":["antennae","wings"],"bee_group":{"antennae":"B","wings":"1","pattern":"X","legs":"X"},"action":"avoid","summary":"bad-avoid","bonus":1.080000000000001},{"rt":1387.300000011921,"stimulus":"\n                    <p><b>Action: <em>avoid</em></b></p>\n                    <p>This is the bee that you just saw.</p>\n                    <img src=\"bees-with-color/bee-B2DF.svg\" width=\"200\">\n                    <p><br>Your bonus pay is unchanged, and remains at $0.38.</p>\n            ","response":0,"trial_type":"html-button-response","trial_index":64,"time_elapsed":316649,"internal_node_id":"0.0-4.0-1.28","subject_id":"613bbfebd7cdd60585f6a3a2","study_id":"6197b3f67c2b5cd3b6d9596a","session_id":"619be58e64fe1271ded52e20","condition":"contingent","relevant_dimensions":["antennae","wings"],"bee_group":{"antennae":"B","wings":"1","pattern":"X","legs":"X"},"bonus":1.080000000000001},{"rt":1108.4000000357628,"stimulus":"bees-with-color/bee-B2DM.svg","response":0,"trial_type":"image-button-response","trial_index":65,"time_elapsed":317761,"internal_node_id":"0.0-4.0-0.29","subject_id":"613bbfebd7cdd60585f6a3a2","study_id":"6197b3f67c2b5cd3b6d9596a","session_id":"619be58e64fe1271ded52e20","condition":"contingent","relevant_dimensions":["antennae","wings"],"bee_group":{"antennae":"B","wings":"1","pattern":"X","legs":"X"},"action":"harvest","summary":"good-harvest","bonus":1.080000000000001},{"rt":1015.6999999880791,"stimulus":"\n                    <p><b>Action: <em>harvest</em></b></p>\n                    <p>This is the bee that you just saw.</p>\n                    <img src=\"bees-with-color/bee-B2DM.svg\" width=\"200\">\n                    <p><span class=\"greenText\"><b>Successful harvest!</b></span><br>Your pay has increased by $0.02. Your bonus pay is now $0.40.</p>\n            ","response":0,"trial_type":"html-button-response","trial_index":66,"time_elapsed":318780,"internal_node_id":"0.0-4.0-1.29","subject_id":"613bbfebd7cdd60585f6a3a2","study_id":"6197b3f67c2b5cd3b6d9596a","session_id":"619be58e64fe1271ded52e20","condition":"contingent","relevant_dimensions":["antennae","wings"],"bee_group":{"antennae":"B","wings":"1","pattern":"X","legs":"X"},"bonus":1.080000000000001},{"rt":1233.199999988079,"stimulus":"bees-with-color/bee-B1DF.svg","response":1,"trial_type":"image-button-response","trial_index":67,"time_elapsed":320016,"internal_node_id":"0.0-4.0-0.30","subject_id":"613bbfebd7cdd60585f6a3a2","study_id":"6197b3f67c2b5cd3b6d9596a","session_id":"619be58e64fe1271ded52e20","condition":"contingent","relevant_dimensions":["antennae","wings"],"bee_group":{"antennae":"B","wings":"1","pattern":"X","legs":"X"},"action":"avoid","summary":"good-avoid","bonus":1.080000000000001},{"rt":758.1999999880791,"stimulus":"\n                    <p><b>Action: <em>avoid</em></b></p>\n                    <p>This is the bee that you just saw.</p>\n                    <img src=\"bees-with-color/bee-B1DF.svg\" width=\"200\">\n                    <p><br>Your bonus pay is unchanged, and remains at $0.40.</p>\n            ","response":0,"trial_type":"html-button-response","trial_index":68,"time_elapsed":320778,"internal_node_id":"0.0-4.0-1.30","subject_id":"613bbfebd7cdd60585f6a3a2","study_id":"6197b3f67c2b5cd3b6d9596a","session_id":"619be58e64fe1271ded52e20","condition":"contingent","relevant_dimensions":["antennae","wings"],"bee_group":{"antennae":"B","wings":"1","pattern":"X","legs":"X"},"bonus":1.080000000000001},{"rt":993.0999999642372,"stimulus":"bees-with-color/bee-B2SF.svg","response":0,"trial_type":"image-button-response","trial_index":69,"time_elapsed":321774,"internal_node_id":"0.0-4.0-0.31","subject_id":"613bbfebd7cdd60585f6a3a2","study_id":"6197b3f67c2b5cd3b6d9596a","session_id":"619be58e64fe1271ded52e20","condition":"contingent","relevant_dimensions":["antennae","wings"],"bee_group":{"antennae":"B","wings":"1","pattern":"X","legs":"X"},"action":"harvest","summary":"good-harvest","bonus":1.080000000000001},{"rt":913.8000000119209,"stimulus":"\n                    <p><b>Action: <em>harvest</em></b></p>\n                    <p>This is the bee that you just saw.</p>\n                    <img src=\"bees-with-color/bee-B2SF.svg\" width=\"200\">\n                    <p><span class=\"greenText\"><b>Successful harvest!</b></span><br>Your pay has increased by $0.02. Your bonus pay is now $0.42.</p>\n            ","response":0,"trial_type":"html-button-response","trial_index":70,"time_elapsed":322691,"internal_node_id":"0.0-4.0-1.31","subject_id":"613bbfebd7cdd60585f6a3a2","study_id":"6197b3f67c2b5cd3b6d9596a","session_id":"619be58e64fe1271ded52e20","condition":"contingent","relevant_dimensions":["antennae","wings"],"bee_group":{"antennae":"B","wings":"1","pattern":"X","legs":"X"},"bonus":1.080000000000001},{"rt":1191.800000011921,"stimulus":"bees-with-color/bee-A2SM.svg","response":0,"trial_type":"image-button-response","trial_index":71,"time_elapsed":323885,"internal_node_id":"0.0-4.0-0.32","subject_id":"613bbfebd7cdd60585f6a3a2","study_id":"6197b3f67c2b5cd3b6d9596a","session_id":"619be58e64fe1271ded52e20","condition":"contingent","relevant_dimensions":["antennae","wings"],"bee_group":{"antennae":"B","wings":"1","pattern":"X","legs":"X"},"action":"harvest","summary":"good-harvest","bonus":1.080000000000001},{"rt":1466.3999999761581,"stimulus":"\n                    <p><b>Action: <em>harvest</em></b></p>\n                    <p>This is the bee that you just saw.</p>\n                    <img src=\"bees-with-color/bee-A2SM.svg\" width=\"200\">\n                    <p><span class=\"greenText\"><b>Successful harvest!</b></span><br>Your pay has increased by $0.02. Your bonus pay is now $0.44.</p>\n            ","response":0,"trial_type":"html-button-response","trial_index":72,"time_elapsed":325358,"internal_node_id":"0.0-4.0-1.32","subject_id":"613bbfebd7cdd60585f6a3a2","study_id":"6197b3f67c2b5cd3b6d9596a","session_id":"619be58e64fe1271ded52e20","condition":"contingent","relevant_dimensions":["antennae","wings"],"bee_group":{"antennae":"B","wings":"1","pattern":"X","legs":"X"},"bonus":1.080000000000001},{"rt":1160.8999999761581,"stimulus":"bees-with-color/bee-B2DF.svg","response":0,"trial_type":"image-button-response","trial_index":73,"time_elapsed":326523,"internal_node_id":"0.0-4.0-0.33","subject_id":"613bbfebd7cdd60585f6a3a2","study_id":"6197b3f67c2b5cd3b6d9596a","session_id":"619be58e64fe1271ded52e20","condition":"contingent","relevant_dimensions":["antennae","wings"],"bee_group":{"antennae":"B","wings":"1","pattern":"X","legs":"X"},"action":"harvest","summary":"good-harvest","bonus":1.080000000000001},{"rt":992.3000000119209,"stimulus":"\n                    <p><b>Action: <em>harvest</em></b></p>\n                    <p>This is the bee that you just saw.</p>\n                    <img src=\"bees-with-color/bee-B2DF.svg\" width=\"200\">\n                    <p><span class=\"greenText\"><b>Successful harvest!</b></span><br>Your pay has increased by $0.02. Your bonus pay is now $0.46.</p>\n            ","response":0,"trial_type":"html-button-response","trial_index":74,"time_elapsed":327518,"internal_node_id":"0.0-4.0-1.33","subject_id":"613bbfebd7cdd60585f6a3a2","study_id":"6197b3f67c2b5cd3b6d9596a","session_id":"619be58e64fe1271ded52e20","condition":"contingent","relevant_dimensions":["antennae","wings"],"bee_group":{"antennae":"B","wings":"1","pattern":"X","legs":"X"},"bonus":1.080000000000001},{"rt":1488.4000000357628,"stimulus":"bees-with-color/bee-A1DM.svg","response":1,"trial_type":"image-button-response","trial_index":75,"time_elapsed":329011,"internal_node_id":"0.0-4.0-0.34","subject_id":"613bbfebd7cdd60585f6a3a2","study_id":"6197b3f67c2b5cd3b6d9596a","session_id":"619be58e64fe1271ded52e20","condition":"contingent","relevant_dimensions":["antennae","wings"],"bee_group":{"antennae":"B","wings":"1","pattern":"X","legs":"X"},"action":"avoid","summary":"bad-avoid","bonus":1.080000000000001},{"rt":999.6999999880791,"stimulus":"\n                    <p><b>Action: <em>avoid</em></b></p>\n                    <p>This is the bee that you just saw.</p>\n                    <img src=\"bees-with-color/bee-A1DM.svg\" width=\"200\">\n                    <p><br>Your bonus pay is unchanged, and remains at $0.46.</p>\n            ","response":0,"trial_type":"html-button-response","trial_index":76,"time_elapsed":330014,"internal_node_id":"0.0-4.0-1.34","subject_id":"613bbfebd7cdd60585f6a3a2","study_id":"6197b3f67c2b5cd3b6d9596a","session_id":"619be58e64fe1271ded52e20","condition":"contingent","relevant_dimensions":["antennae","wings"],"bee_group":{"antennae":"B","wings":"1","pattern":"X","legs":"X"},"bonus":1.080000000000001},{"rt":1473.8999999761581,"stimulus":"bees-with-color/bee-A2SF.svg","response":0,"trial_type":"image-button-response","trial_index":77,"time_elapsed":331491,"internal_node_id":"0.0-4.0-0.35","subject_id":"613bbfebd7cdd60585f6a3a2","study_id":"6197b3f67c2b5cd3b6d9596a","session_id":"619be58e64fe1271ded52e20","condition":"contingent","relevant_dimensions":["antennae","wings"],"bee_group":{"antennae":"B","wings":"1","pattern":"X","legs":"X"},"action":"harvest","summary":"good-harvest","bonus":1.080000000000001},{"rt":961.9000000357628,"stimulus":"\n                    <p><b>Action: <em>harvest</em></b></p>\n                    <p>This is the bee that you just saw.</p>\n                    <img src=\"bees-with-color/bee-A2SF.svg\" width=\"200\">\n                    <p><span class=\"greenText\"><b>Successful harvest!</b></span><br>Your pay has increased by $0.02. Your bonus pay is now $0.48.</p>\n            ","response":0,"trial_type":"html-button-response","trial_index":78,"time_elapsed":332456,"internal_node_id":"0.0-4.0-1.35","subject_id":"613bbfebd7cdd60585f6a3a2","study_id":"6197b3f67c2b5cd3b6d9596a","session_id":"619be58e64fe1271ded52e20","condition":"contingent","relevant_dimensions":["antennae","wings"],"bee_group":{"antennae":"B","wings":"1","pattern":"X","legs":"X"},"bonus":1.080000000000001},{"rt":1271.4000000357628,"stimulus":"bees-with-color/bee-A2DM.svg","response":0,"trial_type":"image-button-response","trial_index":79,"time_elapsed":333731,"internal_node_id":"0.0-4.0-0.36","subject_id":"613bbfebd7cdd60585f6a3a2","study_id":"6197b3f67c2b5cd3b6d9596a","session_id":"619be58e64fe1271ded52e20","condition":"contingent","relevant_dimensions":["antennae","wings"],"bee_group":{"antennae":"B","wings":"1","pattern":"X","legs":"X"},"action":"harvest","summary":"good-harvest","bonus":1.080000000000001},{"rt":1038.5,"stimulus":"\n                    <p><b>Action: <em>harvest</em></b></p>\n                    <p>This is the bee that you just saw.</p>\n                    <img src=\"bees-with-color/bee-A2DM.svg\" width=\"200\">\n                    <p><span class=\"greenText\"><b>Successful harvest!</b></span><br>Your pay has increased by $0.02. Your bonus pay is now $0.50.</p>\n            ","response":0,"trial_type":"html-button-response","trial_index":80,"time_elapsed":334773,"internal_node_id":"0.0-4.0-1.36","subject_id":"613bbfebd7cdd60585f6a3a2","study_id":"6197b3f67c2b5cd3b6d9596a","session_id":"619be58e64fe1271ded52e20","condition":"contingent","relevant_dimensions":["antennae","wings"],"bee_group":{"antennae":"B","wings":"1","pattern":"X","legs":"X"},"bonus":1.080000000000001},{"rt":1261.199999988079,"stimulus":"bees-with-color/bee-B1DM.svg","response":1,"trial_type":"image-button-response","trial_index":81,"time_elapsed":336040,"internal_node_id":"0.0-4.0-0.37","subject_id":"613bbfebd7cdd60585f6a3a2","study_id":"6197b3f67c2b5cd3b6d9596a","session_id":"619be58e64fe1271ded52e20","condition":"contingent","relevant_dimensions":["antennae","wings"],"bee_group":{"antennae":"B","wings":"1","pattern":"X","legs":"X"},"action":"avoid","summary":"good-avoid","bonus":1.080000000000001},{"rt":1023.1999999880791,"stimulus":"\n                    <p><b>Action: <em>avoid</em></b></p>\n                    <p>This is the bee that you just saw.</p>\n                    <img src=\"bees-with-color/bee-B1DM.svg\" width=\"200\">\n                    <p><br>Your bonus pay is unchanged, and remains at $0.50.</p>\n            ","response":0,"trial_type":"html-button-response","trial_index":82,"time_elapsed":337066,"internal_node_id":"0.0-4.0-1.37","subject_id":"613bbfebd7cdd60585f6a3a2","study_id":"6197b3f67c2b5cd3b6d9596a","session_id":"619be58e64fe1271ded52e20","condition":"contingent","relevant_dimensions":["antennae","wings"],"bee_group":{"antennae":"B","wings":"1","pattern":"X","legs":"X"},"bonus":1.080000000000001},{"rt":1807.7000000476837,"stimulus":"bees-with-color/bee-B1DF.svg","response":1,"trial_type":"image-button-response","trial_index":83,"time_elapsed":338879,"internal_node_id":"0.0-4.0-0.38","subject_id":"613bbfebd7cdd60585f6a3a2","study_id":"6197b3f67c2b5cd3b6d9596a","session_id":"619be58e64fe1271ded52e20","condition":"contingent","relevant_dimensions":["antennae","wings"],"bee_group":{"antennae":"B","wings":"1","pattern":"X","legs":"X"},"action":"avoid","summary":"good-avoid","bonus":1.080000000000001},{"rt":928.6999999880791,"stimulus":"\n                    <p><b>Action: <em>avoid</em></b></p>\n                    <p>This is the bee that you just saw.</p>\n                    <img src=\"bees-with-color/bee-B1DF.svg\" width=\"200\">\n                    <p><br>Your bonus pay is unchanged, and remains at $0.50.</p>\n            ","response":0,"trial_type":"html-button-response","trial_index":84,"time_elapsed":339811,"internal_node_id":"0.0-4.0-1.38","subject_id":"613bbfebd7cdd60585f6a3a2","study_id":"6197b3f67c2b5cd3b6d9596a","session_id":"619be58e64fe1271ded52e20","condition":"contingent","relevant_dimensions":["antennae","wings"],"bee_group":{"antennae":"B","wings":"1","pattern":"X","legs":"X"},"bonus":1.080000000000001},{"rt":1217.5999999642372,"stimulus":"bees-with-color/bee-B2SF.svg","response":0,"trial_type":"image-button-response","trial_index":85,"time_elapsed":341031,"internal_node_id":"0.0-4.0-0.39","subject_id":"613bbfebd7cdd60585f6a3a2","study_id":"6197b3f67c2b5cd3b6d9596a","session_id":"619be58e64fe1271ded52e20","condition":"contingent","relevant_dimensions":["antennae","wings"],"bee_group":{"antennae":"B","wings":"1","pattern":"X","legs":"X"},"action":"harvest","summary":"good-harvest","bonus":1.080000000000001},{"rt":945.1000000238419,"stimulus":"\n                    <p><b>Action: <em>harvest</em></b></p>\n                    <p>This is the bee that you just saw.</p>\n                    <img src=\"bees-with-color/bee-B2SF.svg\" width=\"200\">\n                    <p><span class=\"greenText\"><b>Successful harvest!</b></span><br>Your pay has increased by $0.02. Your bonus pay is now $0.52.</p>\n            ","response":0,"trial_type":"html-button-response","trial_index":86,"time_elapsed":341980,"internal_node_id":"0.0-4.0-1.39","subject_id":"613bbfebd7cdd60585f6a3a2","study_id":"6197b3f67c2b5cd3b6d9596a","session_id":"619be58e64fe1271ded52e20","condition":"contingent","relevant_dimensions":["antennae","wings"],"bee_group":{"antennae":"B","wings":"1","pattern":"X","legs":"X"},"bonus":1.080000000000001},{"rt":1217,"stimulus":"bees-with-color/bee-A1DF.svg","response":1,"trial_type":"image-button-response","trial_index":87,"time_elapsed":343201,"internal_node_id":"0.0-4.0-0.40","subject_id":"613bbfebd7cdd60585f6a3a2","study_id":"6197b3f67c2b5cd3b6d9596a","session_id":"619be58e64fe1271ded52e20","condition":"contingent","relevant_dimensions":["antennae","wings"],"bee_group":{"antennae":"B","wings":"1","pattern":"X","legs":"X"},"action":"avoid","summary":"bad-avoid","bonus":1.080000000000001},{"rt":991.8999999761581,"stimulus":"\n                    <p><b>Action: <em>avoid</em></b></p>\n                    <p>This is the bee that you just saw.</p>\n                    <img src=\"bees-with-color/bee-A1DF.svg\" width=\"200\">\n                    <p><br>Your bonus pay is unchanged, and remains at $0.52.</p>\n            ","response":0,"trial_type":"html-button-response","trial_index":88,"time_elapsed":344196,"internal_node_id":"0.0-4.0-1.40","subject_id":"613bbfebd7cdd60585f6a3a2","study_id":"6197b3f67c2b5cd3b6d9596a","session_id":"619be58e64fe1271ded52e20","condition":"contingent","relevant_dimensions":["antennae","wings"],"bee_group":{"antennae":"B","wings":"1","pattern":"X","legs":"X"},"bonus":1.080000000000001},{"rt":1327.199999988079,"stimulus":"bees-with-color/bee-A1SM.svg","response":1,"trial_type":"image-button-response","trial_index":89,"time_elapsed":345525,"internal_node_id":"0.0-4.0-0.41","subject_id":"613bbfebd7cdd60585f6a3a2","study_id":"6197b3f67c2b5cd3b6d9596a","session_id":"619be58e64fe1271ded52e20","condition":"contingent","relevant_dimensions":["antennae","wings"],"bee_group":{"antennae":"B","wings":"1","pattern":"X","legs":"X"},"action":"avoid","summary":"bad-avoid","bonus":1.080000000000001},{"rt":899.8000000119209,"stimulus":"\n                    <p><b>Action: <em>avoid</em></b></p>\n                    <p>This is the bee that you just saw.</p>\n                    <img src=\"bees-with-color/bee-A1SM.svg\" width=\"200\">\n                    <p><br>Your bonus pay is unchanged, and remains at $0.52.</p>\n            ","response":0,"trial_type":"html-button-response","trial_index":90,"time_elapsed":346428,"internal_node_id":"0.0-4.0-1.41","subject_id":"613bbfebd7cdd60585f6a3a2","study_id":"6197b3f67c2b5cd3b6d9596a","session_id":"619be58e64fe1271ded52e20","condition":"contingent","relevant_dimensions":["antennae","wings"],"bee_group":{"antennae":"B","wings":"1","pattern":"X","legs":"X"},"bonus":1.080000000000001},{"rt":1241,"stimulus":"bees-with-color/bee-B2DM.svg","response":0,"trial_type":"image-button-response","trial_index":91,"time_elapsed":347671,"internal_node_id":"0.0-4.0-0.42","subject_id":"613bbfebd7cdd60585f6a3a2","study_id":"6197b3f67c2b5cd3b6d9596a","session_id":"619be58e64fe1271ded52e20","condition":"contingent","relevant_dimensions":["antennae","wings"],"bee_group":{"antennae":"B","wings":"1","pattern":"X","legs":"X"},"action":"harvest","summary":"good-harvest","bonus":1.080000000000001},{"rt":1047.1000000238419,"stimulus":"\n                    <p><b>Action: <em>harvest</em></b></p>\n                    <p>This is the bee that you just saw.</p>\n                    <img src=\"bees-with-color/bee-B2DM.svg\" width=\"200\">\n                    <p><span class=\"greenText\"><b>Successful harvest!</b></span><br>Your pay has increased by $0.02. Your bonus pay is now $0.54.</p>\n            ","response":0,"trial_type":"html-button-response","trial_index":92,"time_elapsed":348721,"internal_node_id":"0.0-4.0-1.42","subject_id":"613bbfebd7cdd60585f6a3a2","study_id":"6197b3f67c2b5cd3b6d9596a","session_id":"619be58e64fe1271ded52e20","condition":"contingent","relevant_dimensions":["antennae","wings"],"bee_group":{"antennae":"B","wings":"1","pattern":"X","legs":"X"},"bonus":1.080000000000001},{"rt":1148.300000011921,"stimulus":"bees-with-color/bee-A2DF.svg","response":0,"trial_type":"image-button-response","trial_index":93,"time_elapsed":349872,"internal_node_id":"0.0-4.0-0.43","subject_id":"613bbfebd7cdd60585f6a3a2","study_id":"6197b3f67c2b5cd3b6d9596a","session_id":"619be58e64fe1271ded52e20","condition":"contingent","relevant_dimensions":["antennae","wings"],"bee_group":{"antennae":"B","wings":"1","pattern":"X","legs":"X"},"action":"harvest","summary":"good-harvest","bonus":1.080000000000001},{"rt":899.2000000476837,"stimulus":"\n                    <p><b>Action: <em>harvest</em></b></p>\n                    <p>This is the bee that you just saw.</p>\n                    <img src=\"bees-with-color/bee-A2DF.svg\" width=\"200\">\n                    <p><span class=\"greenText\"><b>Successful harvest!</b></span><br>Your pay has increased by $0.02. Your bonus pay is now $0.56.</p>\n            ","response":0,"trial_type":"html-button-response","trial_index":94,"time_elapsed":350774,"internal_node_id":"0.0-4.0-1.43","subject_id":"613bbfebd7cdd60585f6a3a2","study_id":"6197b3f67c2b5cd3b6d9596a","session_id":"619be58e64fe1271ded52e20","condition":"contingent","relevant_dimensions":["antennae","wings"],"bee_group":{"antennae":"B","wings":"1","pattern":"X","legs":"X"},"bonus":1.080000000000001},{"rt":1140.5,"stimulus":"bees-with-color/bee-B2SM.svg","response":0,"trial_type":"image-button-response","trial_index":95,"time_elapsed":351916,"internal_node_id":"0.0-4.0-0.44","subject_id":"613bbfebd7cdd60585f6a3a2","study_id":"6197b3f67c2b5cd3b6d9596a","session_id":"619be58e64fe1271ded52e20","condition":"contingent","relevant_dimensions":["antennae","wings"],"bee_group":{"antennae":"B","wings":"1","pattern":"X","legs":"X"},"action":"harvest","summary":"good-harvest","bonus":1.080000000000001},{"rt":883.5999999642372,"stimulus":"\n                    <p><b>Action: <em>harvest</em></b></p>\n                    <p>This is the bee that you just saw.</p>\n                    <img src=\"bees-with-color/bee-B2SM.svg\" width=\"200\">\n                    <p><span class=\"greenText\"><b>Successful harvest!</b></span><br>Your pay has increased by $0.02. Your bonus pay is now $0.58.</p>\n            ","response":0,"trial_type":"html-button-response","trial_index":96,"time_elapsed":352803,"internal_node_id":"0.0-4.0-1.44","subject_id":"613bbfebd7cdd60585f6a3a2","study_id":"6197b3f67c2b5cd3b6d9596a","session_id":"619be58e64fe1271ded52e20","condition":"contingent","relevant_dimensions":["antennae","wings"],"bee_group":{"antennae":"B","wings":"1","pattern":"X","legs":"X"},"bonus":1.080000000000001},{"rt":1700.199999988079,"stimulus":"bees-with-color/bee-B1SM.svg","response":1,"trial_type":"image-button-response","trial_index":97,"time_elapsed":354506,"internal_node_id":"0.0-4.0-0.45","subject_id":"613bbfebd7cdd60585f6a3a2","study_id":"6197b3f67c2b5cd3b6d9596a","session_id":"619be58e64fe1271ded52e20","condition":"contingent","relevant_dimensions":["antennae","wings"],"bee_group":{"antennae":"B","wings":"1","pattern":"X","legs":"X"},"action":"avoid","summary":"good-avoid","bonus":1.080000000000001},{"rt":1551.699999988079,"stimulus":"\n                    <p><b>Action: <em>avoid</em></b></p>\n                    <p>This is the bee that you just saw.</p>\n                    <img src=\"bees-with-color/bee-B1SM.svg\" width=\"200\">\n                    <p><br>Your bonus pay is unchanged, and remains at $0.58.</p>\n            ","response":0,"trial_type":"html-button-response","trial_index":98,"time_elapsed":356060,"internal_node_id":"0.0-4.0-1.45","subject_id":"613bbfebd7cdd60585f6a3a2","study_id":"6197b3f67c2b5cd3b6d9596a","session_id":"619be58e64fe1271ded52e20","condition":"contingent","relevant_dimensions":["antennae","wings"],"bee_group":{"antennae":"B","wings":"1","pattern":"X","legs":"X"},"bonus":1.080000000000001},{"rt":1718.3999999761581,"stimulus":"bees-with-color/bee-B1SF.svg","response":1,"trial_type":"image-button-response","trial_index":99,"time_elapsed":357783,"internal_node_id":"0.0-4.0-0.46","subject_id":"613bbfebd7cdd60585f6a3a2","study_id":"6197b3f67c2b5cd3b6d9596a","session_id":"619be58e64fe1271ded52e20","condition":"contingent","relevant_dimensions":["antennae","wings"],"bee_group":{"antennae":"B","wings":"1","pattern":"X","legs":"X"},"action":"avoid","summary":"good-avoid","bonus":1.080000000000001},{"rt":940.5,"stimulus":"\n                    <p><b>Action: <em>avoid</em></b></p>\n                    <p>This is the bee that you just saw.</p>\n                    <img src=\"bees-with-color/bee-B1SF.svg\" width=\"200\">\n                    <p><br>Your bonus pay is unchanged, and remains at $0.58.</p>\n            ","response":0,"trial_type":"html-button-response","trial_index":100,"time_elapsed":358727,"internal_node_id":"0.0-4.0-1.46","subject_id":"613bbfebd7cdd60585f6a3a2","study_id":"6197b3f67c2b5cd3b6d9596a","session_id":"619be58e64fe1271ded52e20","condition":"contingent","relevant_dimensions":["antennae","wings"],"bee_group":{"antennae":"B","wings":"1","pattern":"X","legs":"X"},"bonus":1.080000000000001},{"rt":1582.8999999761581,"stimulus":"bees-with-color/bee-A1SF.svg","response":1,"trial_type":"image-button-response","trial_index":101,"time_elapsed":360314,"internal_node_id":"0.0-4.0-0.47","subject_id":"613bbfebd7cdd60585f6a3a2","study_id":"6197b3f67c2b5cd3b6d9596a","session_id":"619be58e64fe1271ded52e20","condition":"contingent","relevant_dimensions":["antennae","wings"],"bee_group":{"antennae":"B","wings":"1","pattern":"X","legs":"X"},"action":"avoid","summary":"bad-avoid","bonus":1.080000000000001},{"rt":867.3000000119209,"stimulus":"\n                    <p><b>Action: <em>avoid</em></b></p>\n                    <p>This is the bee that you just saw.</p>\n                    <img src=\"bees-with-color/bee-A1SF.svg\" width=\"200\">\n                    <p><br>Your bonus pay is unchanged, and remains at $0.58.</p>\n            ","response":0,"trial_type":"html-button-response","trial_index":102,"time_elapsed":361184,"internal_node_id":"0.0-4.0-1.47","subject_id":"613bbfebd7cdd60585f6a3a2","study_id":"6197b3f67c2b5cd3b6d9596a","session_id":"619be58e64fe1271ded52e20","condition":"contingent","relevant_dimensions":["antennae","wings"],"bee_group":{"antennae":"B","wings":"1","pattern":"X","legs":"X"},"bonus":1.080000000000001},{"rt":1264.699999988079,"stimulus":"bees-with-color/bee-B1DM.svg","response":1,"trial_type":"image-button-response","trial_index":103,"time_elapsed":362452,"internal_node_id":"0.0-4.0-0.48","subject_id":"613bbfebd7cdd60585f6a3a2","study_id":"6197b3f67c2b5cd3b6d9596a","session_id":"619be58e64fe1271ded52e20","condition":"contingent","relevant_dimensions":["antennae","wings"],"bee_group":{"antennae":"B","wings":"1","pattern":"X","legs":"X"},"action":"avoid","summary":"good-avoid","bonus":1.080000000000001},{"rt":797.6999999880791,"stimulus":"\n                    <p><b>Action: <em>avoid</em></b></p>\n                    <p>This is the bee that you just saw.</p>\n                    <img src=\"bees-with-color/bee-B1DM.svg\" width=\"200\">\n                    <p><br>Your bonus pay is unchanged, and remains at $0.58.</p>\n            ","response":0,"trial_type":"html-button-response","trial_index":104,"time_elapsed":363252,"internal_node_id":"0.0-4.0-1.48","subject_id":"613bbfebd7cdd60585f6a3a2","study_id":"6197b3f67c2b5cd3b6d9596a","session_id":"619be58e64fe1271ded52e20","condition":"contingent","relevant_dimensions":["antennae","wings"],"bee_group":{"antennae":"B","wings":"1","pattern":"X","legs":"X"},"bonus":1.080000000000001},{"rt":1249,"stimulus":"bees-with-color/bee-A2DM.svg","response":0,"trial_type":"image-button-response","trial_index":105,"time_elapsed":364504,"internal_node_id":"0.0-4.0-0.49","subject_id":"613bbfebd7cdd60585f6a3a2","study_id":"6197b3f67c2b5cd3b6d9596a","session_id":"619be58e64fe1271ded52e20","condition":"contingent","relevant_dimensions":["antennae","wings"],"bee_group":{"antennae":"B","wings":"1","pattern":"X","legs":"X"},"action":"harvest","summary":"good-harvest","bonus":1.080000000000001},{"rt":883.6000000238419,"stimulus":"\n                    <p><b>Action: <em>harvest</em></b></p>\n                    <p>This is the bee that you just saw.</p>\n                    <img src=\"bees-with-color/bee-A2DM.svg\" width=\"200\">\n                    <p><span class=\"greenText\"><b>Successful harvest!</b></span><br>Your pay has increased by $0.02. Your bonus pay is now $0.60.</p>\n            ","response":0,"trial_type":"html-button-response","trial_index":106,"time_elapsed":365391,"internal_node_id":"0.0-4.0-1.49","subject_id":"613bbfebd7cdd60585f6a3a2","study_id":"6197b3f67c2b5cd3b6d9596a","session_id":"619be58e64fe1271ded52e20","condition":"contingent","relevant_dimensions":["antennae","wings"],"bee_group":{"antennae":"B","wings":"1","pattern":"X","legs":"X"},"bonus":1.080000000000001},{"rt":1117.0999999642372,"stimulus":"bees-with-color/bee-B2DM.svg","response":0,"trial_type":"image-button-response","trial_index":107,"time_elapsed":366513,"internal_node_id":"0.0-4.0-0.50","subject_id":"613bbfebd7cdd60585f6a3a2","study_id":"6197b3f67c2b5cd3b6d9596a","session_id":"619be58e64fe1271ded52e20","condition":"contingent","relevant_dimensions":["antennae","wings"],"bee_group":{"antennae":"B","wings":"1","pattern":"X","legs":"X"},"action":"harvest","summary":"good-harvest","bonus":1.080000000000001},{"rt":935.3999999761581,"stimulus":"\n                    <p><b>Action: <em>harvest</em></b></p>\n                    <p>This is the bee that you just saw.</p>\n                    <img src=\"bees-with-color/bee-B2DM.svg\" width=\"200\">\n                    <p><span class=\"greenText\"><b>Successful harvest!</b></span><br>Your pay has increased by $0.02. Your bonus pay is now $0.62.</p>\n            ","response":0,"trial_type":"html-button-response","trial_index":108,"time_elapsed":367451,"internal_node_id":"0.0-4.0-1.50","subject_id":"613bbfebd7cdd60585f6a3a2","study_id":"6197b3f67c2b5cd3b6d9596a","session_id":"619be58e64fe1271ded52e20","condition":"contingent","relevant_dimensions":["antennae","wings"],"bee_group":{"antennae":"B","wings":"1","pattern":"X","legs":"X"},"bonus":1.080000000000001},{"rt":1132.199999988079,"stimulus":"bees-with-color/bee-A2DF.svg","response":0,"trial_type":"image-button-response","trial_index":109,"time_elapsed":368586,"internal_node_id":"0.0-4.0-0.51","subject_id":"613bbfebd7cdd60585f6a3a2","study_id":"6197b3f67c2b5cd3b6d9596a","session_id":"619be58e64fe1271ded52e20","condition":"contingent","relevant_dimensions":["antennae","wings"],"bee_group":{"antennae":"B","wings":"1","pattern":"X","legs":"X"},"action":"harvest","summary":"good-harvest","bonus":1.080000000000001},{"rt":1002.7000000476837,"stimulus":"\n                    <p><b>Action: <em>harvest</em></b></p>\n                    <p>This is the bee that you just saw.</p>\n                    <img src=\"bees-with-color/bee-A2DF.svg\" width=\"200\">\n                    <p><span class=\"greenText\"><b>Successful harvest!</b></span><br>Your pay has increased by $0.02. Your bonus pay is now $0.64.</p>\n            ","response":0,"trial_type":"html-button-response","trial_index":110,"time_elapsed":369594,"internal_node_id":"0.0-4.0-1.51","subject_id":"613bbfebd7cdd60585f6a3a2","study_id":"6197b3f67c2b5cd3b6d9596a","session_id":"619be58e64fe1271ded52e20","condition":"contingent","relevant_dimensions":["antennae","wings"],"bee_group":{"antennae":"B","wings":"1","pattern":"X","legs":"X"},"bonus":1.080000000000001},{"rt":1375.300000011921,"stimulus":"bees-with-color/bee-B2SM.svg","response":0,"trial_type":"image-button-response","trial_index":111,"time_elapsed":370973,"internal_node_id":"0.0-4.0-0.52","subject_id":"613bbfebd7cdd60585f6a3a2","study_id":"6197b3f67c2b5cd3b6d9596a","session_id":"619be58e64fe1271ded52e20","condition":"contingent","relevant_dimensions":["antennae","wings"],"bee_group":{"antennae":"B","wings":"1","pattern":"X","legs":"X"},"action":"harvest","summary":"good-harvest","bonus":1.080000000000001},{"rt":983.5,"stimulus":"\n                    <p><b>Action: <em>harvest</em></b></p>\n                    <p>This is the bee that you just saw.</p>\n                    <img src=\"bees-with-color/bee-B2SM.svg\" width=\"200\">\n                    <p><span class=\"greenText\"><b>Successful harvest!</b></span><br>Your pay has increased by $0.02. Your bonus pay is now $0.66.</p>\n            ","response":0,"trial_type":"html-button-response","trial_index":112,"time_elapsed":371961,"internal_node_id":"0.0-4.0-1.52","subject_id":"613bbfebd7cdd60585f6a3a2","study_id":"6197b3f67c2b5cd3b6d9596a","session_id":"619be58e64fe1271ded52e20","condition":"contingent","relevant_dimensions":["antennae","wings"],"bee_group":{"antennae":"B","wings":"1","pattern":"X","legs":"X"},"bonus":1.080000000000001},{"rt":1349.300000011921,"stimulus":"bees-with-color/bee-B1SF.svg","response":1,"trial_type":"image-button-response","trial_index":113,"time_elapsed":373314,"internal_node_id":"0.0-4.0-0.53","subject_id":"613bbfebd7cdd60585f6a3a2","study_id":"6197b3f67c2b5cd3b6d9596a","session_id":"619be58e64fe1271ded52e20","condition":"contingent","relevant_dimensions":["antennae","wings"],"bee_group":{"antennae":"B","wings":"1","pattern":"X","legs":"X"},"action":"avoid","summary":"good-avoid","bonus":1.080000000000001},{"rt":1358,"stimulus":"\n                    <p><b>Action: <em>avoid</em></b></p>\n                    <p>This is the bee that you just saw.</p>\n                    <img src=\"bees-with-color/bee-B1SF.svg\" width=\"200\">\n                    <p><br>Your bonus pay is unchanged, and remains at $0.66.</p>\n            ","response":0,"trial_type":"html-button-response","trial_index":114,"time_elapsed":374676,"internal_node_id":"0.0-4.0-1.53","subject_id":"613bbfebd7cdd60585f6a3a2","study_id":"6197b3f67c2b5cd3b6d9596a","session_id":"619be58e64fe1271ded52e20","condition":"contingent","relevant_dimensions":["antennae","wings"],"bee_group":{"antennae":"B","wings":"1","pattern":"X","legs":"X"},"bonus":1.080000000000001},{"rt":1278.800000011921,"stimulus":"bees-with-color/bee-A2SM.svg","response":0,"trial_type":"image-button-response","trial_index":115,"time_elapsed":375959,"internal_node_id":"0.0-4.0-0.54","subject_id":"613bbfebd7cdd60585f6a3a2","study_id":"6197b3f67c2b5cd3b6d9596a","session_id":"619be58e64fe1271ded52e20","condition":"contingent","relevant_dimensions":["antennae","wings"],"bee_group":{"antennae":"B","wings":"1","pattern":"X","legs":"X"},"action":"harvest","summary":"good-harvest","bonus":1.080000000000001},{"rt":983.1000000238419,"stimulus":"\n                    <p><b>Action: <em>harvest</em></b></p>\n                    <p>This is the bee that you just saw.</p>\n                    <img src=\"bees-with-color/bee-A2SM.svg\" width=\"200\">\n                    <p><span class=\"greenText\"><b>Successful harvest!</b></span><br>Your pay has increased by $0.02. Your bonus pay is now $0.68.</p>\n            ","response":0,"trial_type":"html-button-response","trial_index":116,"time_elapsed":376945,"internal_node_id":"0.0-4.0-1.54","subject_id":"613bbfebd7cdd60585f6a3a2","study_id":"6197b3f67c2b5cd3b6d9596a","session_id":"619be58e64fe1271ded52e20","condition":"contingent","relevant_dimensions":["antennae","wings"],"bee_group":{"antennae":"B","wings":"1","pattern":"X","legs":"X"},"bonus":1.080000000000001},{"rt":1101.8999999761581,"stimulus":"bees-with-color/bee-A1SM.svg","response":1,"trial_type":"image-button-response","trial_index":117,"time_elapsed":378049,"internal_node_id":"0.0-4.0-0.55","subject_id":"613bbfebd7cdd60585f6a3a2","study_id":"6197b3f67c2b5cd3b6d9596a","session_id":"619be58e64fe1271ded52e20","condition":"contingent","relevant_dimensions":["antennae","wings"],"bee_group":{"antennae":"B","wings":"1","pattern":"X","legs":"X"},"action":"avoid","summary":"bad-avoid","bonus":1.080000000000001},{"rt":805.6000000238419,"stimulus":"\n                    <p><b>Action: <em>avoid</em></b></p>\n                    <p>This is the bee that you just saw.</p>\n                    <img src=\"bees-with-color/bee-A1SM.svg\" width=\"200\">\n                    <p><br>Your bonus pay is unchanged, and remains at $0.68.</p>\n            ","response":0,"trial_type":"html-button-response","trial_index":118,"time_elapsed":378858,"internal_node_id":"0.0-4.0-1.55","subject_id":"613bbfebd7cdd60585f6a3a2","study_id":"6197b3f67c2b5cd3b6d9596a","session_id":"619be58e64fe1271ded52e20","condition":"contingent","relevant_dimensions":["antennae","wings"],"bee_group":{"antennae":"B","wings":"1","pattern":"X","legs":"X"},"bonus":1.080000000000001},{"rt":1170.6000000238419,"stimulus":"bees-with-color/bee-B2DF.svg","response":0,"trial_type":"image-button-response","trial_index":119,"time_elapsed":380032,"internal_node_id":"0.0-4.0-0.56","subject_id":"613bbfebd7cdd60585f6a3a2","study_id":"6197b3f67c2b5cd3b6d9596a","session_id":"619be58e64fe1271ded52e20","condition":"contingent","relevant_dimensions":["antennae","wings"],"bee_group":{"antennae":"B","wings":"1","pattern":"X","legs":"X"},"action":"harvest","summary":"good-harvest","bonus":1.080000000000001},{"rt":1015.1999999880791,"stimulus":"\n                    <p><b>Action: <em>harvest</em></b></p>\n                    <p>This is the bee that you just saw.</p>\n                    <img src=\"bees-with-color/bee-B2DF.svg\" width=\"200\">\n                    <p><span class=\"greenText\"><b>Successful harvest!</b></span><br>Your pay has increased by $0.02. Your bonus pay is now $0.70.</p>\n            ","response":0,"trial_type":"html-button-response","trial_index":120,"time_elapsed":381050,"internal_node_id":"0.0-4.0-1.56","subject_id":"613bbfebd7cdd60585f6a3a2","study_id":"6197b3f67c2b5cd3b6d9596a","session_id":"619be58e64fe1271ded52e20","condition":"contingent","relevant_dimensions":["antennae","wings"],"bee_group":{"antennae":"B","wings":"1","pattern":"X","legs":"X"},"bonus":1.080000000000001},{"rt":1233.4000000357628,"stimulus":"bees-with-color/bee-B1SM.svg","response":1,"trial_type":"image-button-response","trial_index":121,"time_elapsed":382287,"internal_node_id":"0.0-4.0-0.57","subject_id":"613bbfebd7cdd60585f6a3a2","study_id":"6197b3f67c2b5cd3b6d9596a","session_id":"619be58e64fe1271ded52e20","condition":"contingent","relevant_dimensions":["antennae","wings"],"bee_group":{"antennae":"B","wings":"1","pattern":"X","legs":"X"},"action":"avoid","summary":"good-avoid","bonus":1.080000000000001},{"rt":1044.800000011921,"stimulus":"\n                    <p><b>Action: <em>avoid</em></b></p>\n                    <p>This is the bee that you just saw.</p>\n                    <img src=\"bees-with-color/bee-B1SM.svg\" width=\"200\">\n                    <p><br>Your bonus pay is unchanged, and remains at $0.70.</p>\n            ","response":0,"trial_type":"html-button-response","trial_index":122,"time_elapsed":383336,"internal_node_id":"0.0-4.0-1.57","subject_id":"613bbfebd7cdd60585f6a3a2","study_id":"6197b3f67c2b5cd3b6d9596a","session_id":"619be58e64fe1271ded52e20","condition":"contingent","relevant_dimensions":["antennae","wings"],"bee_group":{"antennae":"B","wings":"1","pattern":"X","legs":"X"},"bonus":1.080000000000001},{"rt":1278.4000000357628,"stimulus":"bees-with-color/bee-A1DM.svg","response":1,"trial_type":"image-button-response","trial_index":123,"time_elapsed":384619,"internal_node_id":"0.0-4.0-0.58","subject_id":"613bbfebd7cdd60585f6a3a2","study_id":"6197b3f67c2b5cd3b6d9596a","session_id":"619be58e64fe1271ded52e20","condition":"contingent","relevant_dimensions":["antennae","wings"],"bee_group":{"antennae":"B","wings":"1","pattern":"X","legs":"X"},"action":"avoid","summary":"bad-avoid","bonus":1.080000000000001},{"rt":1300.1000000238419,"stimulus":"\n                    <p><b>Action: <em>avoid</em></b></p>\n                    <p>This is the bee that you just saw.</p>\n                    <img src=\"bees-with-color/bee-A1DM.svg\" width=\"200\">\n                    <p><br>Your bonus pay is unchanged, and remains at $0.70.</p>\n            ","response":0,"trial_type":"html-button-response","trial_index":124,"time_elapsed":385925,"internal_node_id":"0.0-4.0-1.58","subject_id":"613bbfebd7cdd60585f6a3a2","study_id":"6197b3f67c2b5cd3b6d9596a","session_id":"619be58e64fe1271ded52e20","condition":"contingent","relevant_dimensions":["antennae","wings"],"bee_group":{"antennae":"B","wings":"1","pattern":"X","legs":"X"},"bonus":1.080000000000001},{"rt":1194.800000011921,"stimulus":"bees-with-color/bee-B2SF.svg","response":0,"trial_type":"image-button-response","trial_index":125,"time_elapsed":387123,"internal_node_id":"0.0-4.0-0.59","subject_id":"613bbfebd7cdd60585f6a3a2","study_id":"6197b3f67c2b5cd3b6d9596a","session_id":"619be58e64fe1271ded52e20","condition":"contingent","relevant_dimensions":["antennae","wings"],"bee_group":{"antennae":"B","wings":"1","pattern":"X","legs":"X"},"action":"harvest","summary":"good-harvest","bonus":1.080000000000001},{"rt":1263.8999999761581,"stimulus":"\n                    <p><b>Action: <em>harvest</em></b></p>\n                    <p>This is the bee that you just saw.</p>\n                    <img src=\"bees-with-color/bee-B2SF.svg\" width=\"200\">\n                    <p><span class=\"greenText\"><b>Successful harvest!</b></span><br>Your pay has increased by $0.02. Your bonus pay is now $0.72.</p>\n            ","response":0,"trial_type":"html-button-response","trial_index":126,"time_elapsed":388390,"internal_node_id":"0.0-4.0-1.59","subject_id":"613bbfebd7cdd60585f6a3a2","study_id":"6197b3f67c2b5cd3b6d9596a","session_id":"619be58e64fe1271ded52e20","condition":"contingent","relevant_dimensions":["antennae","wings"],"bee_group":{"antennae":"B","wings":"1","pattern":"X","legs":"X"},"bonus":1.080000000000001},{"rt":1488.8999999761581,"stimulus":"bees-with-color/bee-A2SF.svg","response":0,"trial_type":"image-button-response","trial_index":127,"time_elapsed":389882,"internal_node_id":"0.0-4.0-0.60","subject_id":"613bbfebd7cdd60585f6a3a2","study_id":"6197b3f67c2b5cd3b6d9596a","session_id":"619be58e64fe1271ded52e20","condition":"contingent","relevant_dimensions":["antennae","wings"],"bee_group":{"antennae":"B","wings":"1","pattern":"X","legs":"X"},"action":"harvest","summary":"good-harvest","bonus":1.080000000000001},{"rt":907.5,"stimulus":"\n                    <p><b>Action: <em>harvest</em></b></p>\n                    <p>This is the bee that you just saw.</p>\n                    <img src=\"bees-with-color/bee-A2SF.svg\" width=\"200\">\n                    <p><span class=\"greenText\"><b>Successful harvest!</b></span><br>Your pay has increased by $0.02. Your bonus pay is now $0.74.</p>\n            ","response":0,"trial_type":"html-button-response","trial_index":128,"time_elapsed":390792,"internal_node_id":"0.0-4.0-1.60","subject_id":"613bbfebd7cdd60585f6a3a2","study_id":"6197b3f67c2b5cd3b6d9596a","session_id":"619be58e64fe1271ded52e20","condition":"contingent","relevant_dimensions":["antennae","wings"],"bee_group":{"antennae":"B","wings":"1","pattern":"X","legs":"X"},"bonus":1.080000000000001},{"rt":1179.300000011921,"stimulus":"bees-with-color/bee-A1SF.svg","response":1,"trial_type":"image-button-response","trial_index":129,"time_elapsed":391974,"internal_node_id":"0.0-4.0-0.61","subject_id":"613bbfebd7cdd60585f6a3a2","study_id":"6197b3f67c2b5cd3b6d9596a","session_id":"619be58e64fe1271ded52e20","condition":"contingent","relevant_dimensions":["antennae","wings"],"bee_group":{"antennae":"B","wings":"1","pattern":"X","legs":"X"},"action":"avoid","summary":"bad-avoid","bonus":1.080000000000001},{"rt":929.8000000119209,"stimulus":"\n                    <p><b>Action: <em>avoid</em></b></p>\n                    <p>This is the bee that you just saw.</p>\n                    <img src=\"bees-with-color/bee-A1SF.svg\" width=\"200\">\n                    <p><br>Your bonus pay is unchanged, and remains at $0.74.</p>\n            ","response":0,"trial_type":"html-button-response","trial_index":130,"time_elapsed":392907,"internal_node_id":"0.0-4.0-1.61","subject_id":"613bbfebd7cdd60585f6a3a2","study_id":"6197b3f67c2b5cd3b6d9596a","session_id":"619be58e64fe1271ded52e20","condition":"contingent","relevant_dimensions":["antennae","wings"],"bee_group":{"antennae":"B","wings":"1","pattern":"X","legs":"X"},"bonus":1.080000000000001},{"rt":1468.199999988079,"stimulus":"bees-with-color/bee-A1DF.svg","response":1,"trial_type":"image-button-response","trial_index":131,"time_elapsed":394378,"internal_node_id":"0.0-4.0-0.62","subject_id":"613bbfebd7cdd60585f6a3a2","study_id":"6197b3f67c2b5cd3b6d9596a","session_id":"619be58e64fe1271ded52e20","condition":"contingent","relevant_dimensions":["antennae","wings"],"bee_group":{"antennae":"B","wings":"1","pattern":"X","legs":"X"},"action":"avoid","summary":"bad-avoid","bonus":1.080000000000001},{"rt":921.5,"stimulus":"\n                    <p><b>Action: <em>avoid</em></b></p>\n                    <p>This is the bee that you just saw.</p>\n                    <img src=\"bees-with-color/bee-A1DF.svg\" width=\"200\">\n                    <p><br>Your bonus pay is unchanged, and remains at $0.74.</p>\n            ","response":0,"trial_type":"html-button-response","trial_index":132,"time_elapsed":395302,"internal_node_id":"0.0-4.0-1.62","subject_id":"613bbfebd7cdd60585f6a3a2","study_id":"6197b3f67c2b5cd3b6d9596a","session_id":"619be58e64fe1271ded52e20","condition":"contingent","relevant_dimensions":["antennae","wings"],"bee_group":{"antennae":"B","wings":"1","pattern":"X","legs":"X"},"bonus":1.080000000000001},{"rt":1311.3999999761581,"stimulus":"bees-with-color/bee-B1DF.svg","response":1,"trial_type":"image-button-response","trial_index":133,"time_elapsed":396616,"internal_node_id":"0.0-4.0-0.63","subject_id":"613bbfebd7cdd60585f6a3a2","study_id":"6197b3f67c2b5cd3b6d9596a","session_id":"619be58e64fe1271ded52e20","condition":"contingent","relevant_dimensions":["antennae","wings"],"bee_group":{"antennae":"B","wings":"1","pattern":"X","legs":"X"},"action":"avoid","summary":"good-avoid","bonus":1.080000000000001},{"rt":967.8999999761581,"stimulus":"\n                    <p><b>Action: <em>avoid</em></b></p>\n                    <p>This is the bee that you just saw.</p>\n                    <img src=\"bees-with-color/bee-B1DF.svg\" width=\"200\">\n                    <p><br>Your bonus pay is unchanged, and remains at $0.74.</p>\n            ","response":0,"trial_type":"html-button-response","trial_index":134,"time_elapsed":397588,"internal_node_id":"0.0-4.0-1.63","subject_id":"613bbfebd7cdd60585f6a3a2","study_id":"6197b3f67c2b5cd3b6d9596a","session_id":"619be58e64fe1271ded52e20","condition":"contingent","relevant_dimensions":["antennae","wings"],"bee_group":{"antennae":"B","wings":"1","pattern":"X","legs":"X"},"bonus":1.080000000000001},{"rt":19322,"stimulus":"You have completed the first part of this experiment.<br><br>You will now begin a shorter second part, in which you will receive no feedback.<br>The same rules regarding bonus pay apply.<br><br>Press any key to begin.","response":" ","trial_type":"html-keyboard-response","trial_index":135,"time_elapsed":416912,"internal_node_id":"0.0-5.0","subject_id":"613bbfebd7cdd60585f6a3a2","study_id":"6197b3f67c2b5cd3b6d9596a","session_id":"619be58e64fe1271ded52e20","condition":"contingent","relevant_dimensions":["antennae","wings"],"bee_group":{"antennae":"B","wings":"1","pattern":"X","legs":"X"},"bonus":1.080000000000001},{"rt":2517.300000011921,"stimulus":"bees-with-color/bee-B2SF.svg","response":0,"trial_type":"image-button-response","trial_index":136,"time_elapsed":419456,"internal_node_id":"0.0-6.0-0.0","subject_id":"613bbfebd7cdd60585f6a3a2","study_id":"6197b3f67c2b5cd3b6d9596a","session_id":"619be58e64fe1271ded52e20","condition":"contingent","relevant_dimensions":["antennae","wings"],"bee_group":{"antennae":"B","wings":"1","pattern":"X","legs":"X"},"bonus":1.080000000000001},{"rt":1271.7000000476837,"stimulus":"bees-with-color/bee-A1DF.svg","response":1,"trial_type":"image-button-response","trial_index":137,"time_elapsed":420732,"internal_node_id":"0.0-6.0-0.1","subject_id":"613bbfebd7cdd60585f6a3a2","study_id":"6197b3f67c2b5cd3b6d9596a","session_id":"619be58e64fe1271ded52e20","condition":"contingent","relevant_dimensions":["antennae","wings"],"bee_group":{"antennae":"B","wings":"1","pattern":"X","legs":"X"},"bonus":1.080000000000001},{"rt":729.3999999761581,"stimulus":"bees-with-color/bee-B1DM.svg","response":1,"trial_type":"image-button-response","trial_index":138,"time_elapsed":421467,"internal_node_id":"0.0-6.0-0.2","subject_id":"613bbfebd7cdd60585f6a3a2","study_id":"6197b3f67c2b5cd3b6d9596a","session_id":"619be58e64fe1271ded52e20","condition":"contingent","relevant_dimensions":["antennae","wings"],"bee_group":{"antennae":"B","wings":"1","pattern":"X","legs":"X"},"bonus":1.080000000000001},{"rt":1233.9000000357628,"stimulus":"bees-with-color/bee-A1SM.svg","response":0,"trial_type":"image-button-response","trial_index":139,"time_elapsed":422706,"internal_node_id":"0.0-6.0-0.3","subject_id":"613bbfebd7cdd60585f6a3a2","study_id":"6197b3f67c2b5cd3b6d9596a","session_id":"619be58e64fe1271ded52e20","condition":"contingent","relevant_dimensions":["antennae","wings"],"bee_group":{"antennae":"B","wings":"1","pattern":"X","legs":"X"},"bonus":1.080000000000001},{"rt":803.6000000238419,"stimulus":"bees-with-color/bee-A2SF.svg","response":0,"trial_type":"image-button-response","trial_index":140,"time_elapsed":423514,"internal_node_id":"0.0-6.0-0.4","subject_id":"613bbfebd7cdd60585f6a3a2","study_id":"6197b3f67c2b5cd3b6d9596a","session_id":"619be58e64fe1271ded52e20","condition":"contingent","relevant_dimensions":["antennae","wings"],"bee_group":{"antennae":"B","wings":"1","pattern":"X","legs":"X"},"bonus":1.080000000000001},{"rt":835.3999999761581,"stimulus":"bees-with-color/bee-B2DF.svg","response":0,"trial_type":"image-button-response","trial_index":141,"time_elapsed":424350,"internal_node_id":"0.0-6.0-0.5","subject_id":"613bbfebd7cdd60585f6a3a2","study_id":"6197b3f67c2b5cd3b6d9596a","session_id":"619be58e64fe1271ded52e20","condition":"contingent","relevant_dimensions":["antennae","wings"],"bee_group":{"antennae":"B","wings":"1","pattern":"X","legs":"X"},"bonus":1.080000000000001},{"rt":677.7999999523163,"stimulus":"bees-with-color/bee-B2SM.svg","response":0,"trial_type":"image-button-response","trial_index":142,"time_elapsed":425032,"internal_node_id":"0.0-6.0-0.6","subject_id":"613bbfebd7cdd60585f6a3a2","study_id":"6197b3f67c2b5cd3b6d9596a","session_id":"619be58e64fe1271ded52e20","condition":"contingent","relevant_dimensions":["antennae","wings"],"bee_group":{"antennae":"B","wings":"1","pattern":"X","legs":"X"},"bonus":1.080000000000001},{"rt":1093.6000000238419,"stimulus":"bees-with-color/bee-B1SF.svg","response":1,"trial_type":"image-button-response","trial_index":143,"time_elapsed":426131,"internal_node_id":"0.0-6.0-0.7","subject_id":"613bbfebd7cdd60585f6a3a2","study_id":"6197b3f67c2b5cd3b6d9596a","session_id":"619be58e64fe1271ded52e20","condition":"contingent","relevant_dimensions":["antennae","wings"],"bee_group":{"antennae":"B","wings":"1","pattern":"X","legs":"X"},"bonus":1.080000000000001},{"rt":2150,"stimulus":"bees-with-color/bee-A1DM.svg","response":1,"trial_type":"image-button-response","trial_index":144,"time_elapsed":428285,"internal_node_id":"0.0-6.0-0.8","subject_id":"613bbfebd7cdd60585f6a3a2","study_id":"6197b3f67c2b5cd3b6d9596a","session_id":"619be58e64fe1271ded52e20","condition":"contingent","relevant_dimensions":["antennae","wings"],"bee_group":{"antennae":"B","wings":"1","pattern":"X","legs":"X"},"bonus":1.080000000000001},{"rt":701.8000000119209,"stimulus":"bees-with-color/bee-A1SF.svg","response":1,"trial_type":"image-button-response","trial_index":145,"time_elapsed":428993,"internal_node_id":"0.0-6.0-0.9","subject_id":"613bbfebd7cdd60585f6a3a2","study_id":"6197b3f67c2b5cd3b6d9596a","session_id":"619be58e64fe1271ded52e20","condition":"contingent","relevant_dimensions":["antennae","wings"],"bee_group":{"antennae":"B","wings":"1","pattern":"X","legs":"X"},"bonus":1.080000000000001},{"rt":1068.4000000357628,"stimulus":"bees-with-color/bee-A2DM.svg","response":0,"trial_type":"image-button-response","trial_index":146,"time_elapsed":430066,"internal_node_id":"0.0-6.0-0.10","subject_id":"613bbfebd7cdd60585f6a3a2","study_id":"6197b3f67c2b5cd3b6d9596a","session_id":"619be58e64fe1271ded52e20","condition":"contingent","relevant_dimensions":["antennae","wings"],"bee_group":{"antennae":"B","wings":"1","pattern":"X","legs":"X"},"bonus":1.080000000000001},{"rt":741.1999999880791,"stimulus":"bees-with-color/bee-A2DF.svg","response":0,"trial_type":"image-button-response","trial_index":147,"time_elapsed":430812,"internal_node_id":"0.0-6.0-0.11","subject_id":"613bbfebd7cdd60585f6a3a2","study_id":"6197b3f67c2b5cd3b6d9596a","session_id":"619be58e64fe1271ded52e20","condition":"contingent","relevant_dimensions":["antennae","wings"],"bee_group":{"antennae":"B","wings":"1","pattern":"X","legs":"X"},"bonus":1.080000000000001},{"rt":1325.699999988079,"stimulus":"bees-with-color/bee-B1DF.svg","response":1,"trial_type":"image-button-response","trial_index":148,"time_elapsed":432142,"internal_node_id":"0.0-6.0-0.12","subject_id":"613bbfebd7cdd60585f6a3a2","study_id":"6197b3f67c2b5cd3b6d9596a","session_id":"619be58e64fe1271ded52e20","condition":"contingent","relevant_dimensions":["antennae","wings"],"bee_group":{"antennae":"B","wings":"1","pattern":"X","legs":"X"},"bonus":1.080000000000001},{"rt":1062.1000000238419,"stimulus":"bees-with-color/bee-B2DM.svg","response":0,"trial_type":"image-button-response","trial_index":149,"time_elapsed":433208,"internal_node_id":"0.0-6.0-0.13","subject_id":"613bbfebd7cdd60585f6a3a2","study_id":"6197b3f67c2b5cd3b6d9596a","session_id":"619be58e64fe1271ded52e20","condition":"contingent","relevant_dimensions":["antennae","wings"],"bee_group":{"antennae":"B","wings":"1","pattern":"X","legs":"X"},"bonus":1.080000000000001},{"rt":1106.199999988079,"stimulus":"bees-with-color/bee-B1SM.svg","response":1,"trial_type":"image-button-response","trial_index":150,"time_elapsed":434319,"internal_node_id":"0.0-6.0-0.14","subject_id":"613bbfebd7cdd60585f6a3a2","study_id":"6197b3f67c2b5cd3b6d9596a","session_id":"619be58e64fe1271ded52e20","condition":"contingent","relevant_dimensions":["antennae","wings"],"bee_group":{"antennae":"B","wings":"1","pattern":"X","legs":"X"},"bonus":1.080000000000001},{"rt":1070.800000011921,"stimulus":"bees-with-color/bee-A2SM.svg","response":0,"trial_type":"image-button-response","trial_index":151,"time_elapsed":435396,"internal_node_id":"0.0-6.0-0.15","subject_id":"613bbfebd7cdd60585f6a3a2","study_id":"6197b3f67c2b5cd3b6d9596a","session_id":"619be58e64fe1271ded52e20","condition":"contingent","relevant_dimensions":["antennae","wings"],"bee_group":{"antennae":"B","wings":"1","pattern":"X","legs":"X"},"bonus":1.080000000000001},{"rt":1472.300000011921,"stimulus":"bees-with-color/bee-A2SM.svg","response":0,"trial_type":"image-button-response","trial_index":152,"time_elapsed":436874,"internal_node_id":"0.0-6.0-0.16","subject_id":"613bbfebd7cdd60585f6a3a2","study_id":"6197b3f67c2b5cd3b6d9596a","session_id":"619be58e64fe1271ded52e20","condition":"contingent","relevant_dimensions":["antennae","wings"],"bee_group":{"antennae":"B","wings":"1","pattern":"X","legs":"X"},"bonus":1.080000000000001},{"rt":1437.0999999642372,"stimulus":"bees-with-color/bee-B1DM.svg","response":1,"trial_type":"image-button-response","trial_index":153,"time_elapsed":438315,"internal_node_id":"0.0-6.0-0.17","subject_id":"613bbfebd7cdd60585f6a3a2","study_id":"6197b3f67c2b5cd3b6d9596a","session_id":"619be58e64fe1271ded52e20","condition":"contingent","relevant_dimensions":["antennae","wings"],"bee_group":{"antennae":"B","wings":"1","pattern":"X","legs":"X"},"bonus":1.080000000000001},{"rt":727.8999999761581,"stimulus":"bees-with-color/bee-A1SF.svg","response":1,"trial_type":"image-button-response","trial_index":154,"time_elapsed":439047,"internal_node_id":"0.0-6.0-0.18","subject_id":"613bbfebd7cdd60585f6a3a2","study_id":"6197b3f67c2b5cd3b6d9596a","session_id":"619be58e64fe1271ded52e20","condition":"contingent","relevant_dimensions":["antennae","wings"],"bee_group":{"antennae":"B","wings":"1","pattern":"X","legs":"X"},"bonus":1.080000000000001},{"rt":1006.6999999880791,"stimulus":"bees-with-color/bee-B2DM.svg","response":0,"trial_type":"image-button-response","trial_index":155,"time_elapsed":440058,"internal_node_id":"0.0-6.0-0.19","subject_id":"613bbfebd7cdd60585f6a3a2","study_id":"6197b3f67c2b5cd3b6d9596a","session_id":"619be58e64fe1271ded52e20","condition":"contingent","relevant_dimensions":["antennae","wings"],"bee_group":{"antennae":"B","wings":"1","pattern":"X","legs":"X"},"bonus":1.080000000000001},{"rt":1107.6000000238419,"stimulus":"bees-with-color/bee-B1DF.svg","response":1,"trial_type":"image-button-response","trial_index":156,"time_elapsed":441170,"internal_node_id":"0.0-6.0-0.20","subject_id":"613bbfebd7cdd60585f6a3a2","study_id":"6197b3f67c2b5cd3b6d9596a","session_id":"619be58e64fe1271ded52e20","condition":"contingent","relevant_dimensions":["antennae","wings"],"bee_group":{"antennae":"B","wings":"1","pattern":"X","legs":"X"},"bonus":1.080000000000001},{"rt":1464.7000000476837,"stimulus":"bees-with-color/bee-A1DM.svg","response":1,"trial_type":"image-button-response","trial_index":157,"time_elapsed":442639,"internal_node_id":"0.0-6.0-0.21","subject_id":"613bbfebd7cdd60585f6a3a2","study_id":"6197b3f67c2b5cd3b6d9596a","session_id":"619be58e64fe1271ded52e20","condition":"contingent","relevant_dimensions":["antennae","wings"],"bee_group":{"antennae":"B","wings":"1","pattern":"X","legs":"X"},"bonus":1.080000000000001},{"rt":978.8000000119209,"stimulus":"bees-with-color/bee-B2DF.svg","response":0,"trial_type":"image-button-response","trial_index":158,"time_elapsed":443621,"internal_node_id":"0.0-6.0-0.22","subject_id":"613bbfebd7cdd60585f6a3a2","study_id":"6197b3f67c2b5cd3b6d9596a","session_id":"619be58e64fe1271ded52e20","condition":"contingent","relevant_dimensions":["antennae","wings"],"bee_group":{"antennae":"B","wings":"1","pattern":"X","legs":"X"},"bonus":1.080000000000001},{"rt":1208.9000000357628,"stimulus":"bees-with-color/bee-A2DF.svg","response":0,"trial_type":"image-button-response","trial_index":159,"time_elapsed":444837,"internal_node_id":"0.0-6.0-0.23","subject_id":"613bbfebd7cdd60585f6a3a2","study_id":"6197b3f67c2b5cd3b6d9596a","session_id":"619be58e64fe1271ded52e20","condition":"contingent","relevant_dimensions":["antennae","wings"],"bee_group":{"antennae":"B","wings":"1","pattern":"X","legs":"X"},"bonus":1.080000000000001},{"rt":1607.0999999642372,"stimulus":"bees-with-color/bee-A1SM.svg","response":1,"trial_type":"image-button-response","trial_index":160,"time_elapsed":446449,"internal_node_id":"0.0-6.0-0.24","subject_id":"613bbfebd7cdd60585f6a3a2","study_id":"6197b3f67c2b5cd3b6d9596a","session_id":"619be58e64fe1271ded52e20","condition":"contingent","relevant_dimensions":["antennae","wings"],"bee_group":{"antennae":"B","wings":"1","pattern":"X","legs":"X"},"bonus":1.080000000000001},{"rt":1635.300000011921,"stimulus":"bees-with-color/bee-B2SM.svg","response":0,"trial_type":"image-button-response","trial_index":161,"time_elapsed":448090,"internal_node_id":"0.0-6.0-0.25","subject_id":"613bbfebd7cdd60585f6a3a2","study_id":"6197b3f67c2b5cd3b6d9596a","session_id":"619be58e64fe1271ded52e20","condition":"contingent","relevant_dimensions":["antennae","wings"],"bee_group":{"antennae":"B","wings":"1","pattern":"X","legs":"X"},"bonus":1.080000000000001},{"rt":1015.2999999523163,"stimulus":"bees-with-color/bee-B1SM.svg","response":1,"trial_type":"image-button-response","trial_index":162,"time_elapsed":449109,"internal_node_id":"0.0-6.0-0.26","subject_id":"613bbfebd7cdd60585f6a3a2","study_id":"6197b3f67c2b5cd3b6d9596a","session_id":"619be58e64fe1271ded52e20","condition":"contingent","relevant_dimensions":["antennae","wings"],"bee_group":{"antennae":"B","wings":"1","pattern":"X","legs":"X"},"bonus":1.080000000000001},{"rt":945.2000000476837,"stimulus":"bees-with-color/bee-A2SF.svg","response":0,"trial_type":"image-button-response","trial_index":163,"time_elapsed":450057,"internal_node_id":"0.0-6.0-0.27","subject_id":"613bbfebd7cdd60585f6a3a2","study_id":"6197b3f67c2b5cd3b6d9596a","session_id":"619be58e64fe1271ded52e20","condition":"contingent","relevant_dimensions":["antennae","wings"],"bee_group":{"antennae":"B","wings":"1","pattern":"X","legs":"X"},"bonus":1.080000000000001},{"rt":1