[{"success":true,"trial_type":"fullscreen","trial_index":0,"time_elapsed":2413,"internal_node_id":"0.0-0.0","subject_id":"5e3c2706dbd7c6000ec882ae","study_id":"6197b3f67c2b5cd3b6d9596a","session_id":"619be78937991423789a94c6","condition":"contingent","relevant_dimensions":["pattern","legs"],"bee_group":{"antennae":"X","wings":"X","pattern":"D","legs":"M"},"bonus":1.040000000000001},{"success":true,"timeout":false,"failed_images":[],"failed_audio":[],"failed_video":[],"trial_type":"preload","trial_index":1,"time_elapsed":5602,"internal_node_id":"0.0-1.0","subject_id":"5e3c2706dbd7c6000ec882ae","study_id":"6197b3f67c2b5cd3b6d9596a","session_id":"619be78937991423789a94c6","condition":"contingent","relevant_dimensions":["pattern","legs"],"bee_group":{"antennae":"X","wings":"X","pattern":"D","legs":"M"},"bonus":1.040000000000001},{"rt":1863.9000000357628,"stimulus":"Welcome! Press any key to begin.","response":"f","trial_type":"html-keyboard-response","trial_index":2,"time_elapsed":7469,"internal_node_id":"0.0-2.0","subject_id":"5e3c2706dbd7c6000ec882ae","study_id":"6197b3f67c2b5cd3b6d9596a","session_id":"619be78937991423789a94c6","condition":"contingent","relevant_dimensions":["pattern","legs"],"bee_group":{"antennae":"X","wings":"X","pattern":"D","legs":"M"},"bonus":1.040000000000001},{"view_history":[{"page_index":0,"viewing_time":1330.1000000238419},{"page_index":1,"viewing_time":16500.19999998808},{"page_index":2,"viewing_time":7402.899999976158},{"page_index":3,"viewing_time":16712},{"page_index":4,"viewing_time":6211.900000035763},{"page_index":5,"viewing_time":6811.099999964237},{"page_index":6,"viewing_time":13748.700000047684},{"page_index":7,"viewing_time":5690.199999988079},{"page_index":8,"viewing_time":4100.599999964237},{"page_index":9,"viewing_time":2682.900000035763},{"page_index":10,"viewing_time":5620.899999976158},{"page_index":11,"viewing_time":9444.100000023842},{"page_index":12,"viewing_time":15922.599999964237},{"page_index":13,"viewing_time":1187.1000000238419},{"page_index":14,"viewing_time":2129}],"rt":115494.60000002384,"trial_type":"instructions","trial_index":3,"time_elapsed":122965,"internal_node_id":"0.0-3.0-0.0","subject_id":"5e3c2706dbd7c6000ec882ae","study_id":"6197b3f67c2b5cd3b6d9596a","session_id":"619be78937991423789a94c6","condition":"contingent","relevant_dimensions":["pattern","legs"],"bee_group":{"antennae":"X","wings":"X","pattern":"D","legs":"M"},"bonus":1.040000000000001},{"rt":19006.399999976158,"response":{"Q0":["Two or six legs","Stripes or spots on body","Stinger or no stinger","Single or double wings","Antennae or no antennae"]},"question_order":[0],"trial_type":"survey-multi-select","trial_index":4,"time_elapsed":141975,"internal_node_id":"0.0-3.0-1.0","subject_id":"5e3c2706dbd7c6000ec882ae","study_id":"6197b3f67c2b5cd3b6d9596a","session_id":"619be78937991423789a94c6","condition":"contingent","relevant_dimensions":["pattern","legs"],"bee_group":{"antennae":"X","wings":"X","pattern":"D","legs":"M"},"correct":false,"bonus":1.040000000000001},{"rt":23922,"response":{"Q1":"No.","Q2":"Based on the four features of the bee.","Q3":"You do not learn if it was friendly or dangerous, and do not alter your bonus."},"question_order":[0,1,2],"trial_type":"survey-multi-choice","trial_index":5,"time_elapsed":165903,"internal_node_id":"0.0-3.0-2.0","subject_id":"5e3c2706dbd7c6000ec882ae","study_id":"6197b3f67c2b5cd3b6d9596a","session_id":"619be78937991423789a94c6","condition":"contingent","relevant_dimensions":["pattern","legs"],"bee_group":{"antennae":"X","wings":"X","pattern":"D","legs":"M"},"correct":true,"bonus":1.040000000000001},{"rt":4671.199999988079,"stimulus":"<p>You did not answer all comprehension questions correctly.<br>Press <b>continue</b> to review the instructions again.</p>","response":0,"trial_type":"html-button-response","trial_index":6,"time_elapsed":170588,"internal_node_id":"0.0-3.0-3.0","subject_id":"5e3c2706dbd7c6000ec882ae","study_id":"6197b3f67c2b5cd3b6d9596a","session_id":"619be78937991423789a94c6","condition":"contingent","relevant_dimensions":["pattern","legs"],"bee_group":{"antennae":"X","wings":"X","pattern":"D","legs":"M"},"bonus":1.040000000000001},{"view_history":[{"page_index":0,"viewing_time":1497.2000000476837},{"page_index":1,"viewing_time":895.7999999523163},{"page_index":2,"viewing_time":926.5},{"page_index":3,"viewing_time":497.5},{"page_index":4,"viewing_time":688.7000000476837},{"page_index":5,"viewing_time":737.7999999523163},{"page_index":6,"viewing_time":462.4000000357628},{"page_index":7,"viewing_time":1607.3999999761581},{"page_index":8,"viewing_time":863.4000000357628},{"page_index":9,"viewing_time":1757.0999999642372},{"page_index":10,"viewing_time":1034.800000011921},{"page_index":11,"viewing_time":1058.800000011921},{"page_index":12,"viewing_time":1057.0999999642372},{"page_index":13,"viewing_time":899.4000000357628},{"page_index":14,"viewing_time":723.8999999761581}],"rt":14708.100000023842,"trial_type":"instructions","trial_index":7,"time_elapsed":185299,"internal_node_id":"0.0-3.0-4.0-0.0","subject_id":"5e3c2706dbd7c6000ec882ae","study_id":"6197b3f67c2b5cd3b6d9596a","session_id":"619be78937991423789a94c6","condition":"contingent","relevant_dimensions":["pattern","legs"],"bee_group":{"antennae":"X","wings":"X","pattern":"D","legs":"M"},"bonus":1.040000000000001},{"rt":12467.300000011921,"response":{"Q0":["Two or six legs","Stripes or spots on body","Single or double wings","Antennae or no antennae"]},"question_order":[0],"trial_type":"survey-multi-select","trial_index":8,"time_elapsed":197774,"internal_node_id":"0.0-3.0-4.0-1.0","subject_id":"5e3c2706dbd7c6000ec882ae","study_id":"6197b3f67c2b5cd3b6d9596a","session_id":"619be78937991423789a94c6","condition":"contingent","relevant_dimensions":["pattern","legs"],"bee_group":{"antennae":"X","wings":"X","pattern":"D","legs":"M"},"correct":true,"bonus":1.040000000000001},{"rt":10566.800000011921,"response":{"Q1":"No.","Q2":"Based on the four features of the bee.","Q3":"You do not learn if it was friendly or dangerous, and do not alter your bonus."},"question_order":[0,1,2],"trial_type":"survey-multi-choice","trial_index":9,"time_elapsed":208354,"internal_node_id":"0.0-3.0-4.0-2.0","subject_id":"5e3c2706dbd7c6000ec882ae","study_id":"6197b3f67c2b5cd3b6d9596a","session_id":"619be78937991423789a94c6","condition":"contingent","relevant_dimensions":["pattern","legs"],"bee_group":{"antennae":"X","wings":"X","pattern":"D","legs":"M"},"correct":true,"bonus":1.040000000000001},{"rt":2624.400000035763,"stimulus":"<p>Congrats, you got everything right<br>When you're ready, click the button below to continue to the experiment.</p>","response":0,"trial_type":"html-button-response","trial_index":10,"time_elapsed":210992,"internal_node_id":"0.0-3.0-4.0-3.0","subject_id":"5e3c2706dbd7c6000ec882ae","study_id":"6197b3f67c2b5cd3b6d9596a","session_id":"619be78937991423789a94c6","condition":"contingent","relevant_dimensions":["pattern","legs"],"bee_group":{"antennae":"X","wings":"X","pattern":"D","legs":"M"},"bonus":1.040000000000001},{"rt":5386,"stimulus":"bees-with-color/bee-B1SF.svg","response":0,"trial_type":"image-button-response","trial_index":11,"time_elapsed":216385,"internal_node_id":"0.0-4.0-0.0","subject_id":"5e3c2706dbd7c6000ec882ae","study_id":"6197b3f67c2b5cd3b6d9596a","session_id":"619be78937991423789a94c6","condition":"contingent","relevant_dimensions":["pattern","legs"],"bee_group":{"antennae":"X","wings":"X","pattern":"D","legs":"M"},"action":"harvest","summary":"good-harvest","bonus":1.040000000000001},{"rt":8288.800000011921,"stimulus":"\n                    <p><b>Action: <em>harvest</em></b></p>\n                    <p>This is the bee that you just saw.</p>\n                    <img src=\"bees-with-color/bee-B1SF.svg\" width=\"200\">\n                    <p><span class=\"greenText\"><b>Successful harvest!</b></span><br>Your pay has increased by $0.02. Your bonus pay is now $0.56.</p>\n            ","response":0,"trial_type":"html-button-response","trial_index":12,"time_elapsed":224682,"internal_node_id":"0.0-4.0-1.0","subject_id":"5e3c2706dbd7c6000ec882ae","study_id":"6197b3f67c2b5cd3b6d9596a","session_id":"619be78937991423789a94c6","condition":"contingent","relevant_dimensions":["pattern","legs"],"bee_group":{"antennae":"X","wings":"X","pattern":"D","legs":"M"},"bonus":1.040000000000001},{"rt":1692.5,"stimulus":"bees-with-color/bee-A2SF.svg","response":0,"trial_type":"image-button-response","trial_index":13,"time_elapsed":226381,"internal_node_id":"0.0-4.0-0.1","subject_id":"5e3c2706dbd7c6000ec882ae","study_id":"6197b3f67c2b5cd3b6d9596a","session_id":"619be78937991423789a94c6","condition":"contingent","relevant_dimensions":["pattern","legs"],"bee_group":{"antennae":"X","wings":"X","pattern":"D","legs":"M"},"action":"harvest","summary":"good-harvest","bonus":1.040000000000001},{"rt":2854.900000035763,"stimulus":"\n                    <p><b>Action: <em>harvest</em></b></p>\n                    <p>This is the bee that you just saw.</p>\n                    <img src=\"bees-with-color/bee-A2SF.svg\" width=\"200\">\n                    <p><span class=\"greenText\"><b>Successful harvest!</b></span><br>Your pay has increased by $0.02. Your bonus pay is now $0.58.</p>\n            ","response":0,"trial_type":"html-button-response","trial_index":14,"time_elapsed":229242,"internal_node_id":"0.0-4.0-1.1","subject_id":"5e3c2706dbd7c6000ec882ae","study_id":"6197b3f67c2b5cd3b6d9596a","session_id":"619be78937991423789a94c6","condition":"contingent","relevant_dimensions":["pattern","legs"],"bee_group":{"antennae":"X","wings":"X","pattern":"D","legs":"M"},"bonus":1.040000000000001},{"rt":2109.900000035763,"stimulus":"bees-with-color/bee-A2DF.svg","response":1,"trial_type":"image-button-response","trial_index":15,"time_elapsed":231358,"internal_node_id":"0.0-4.0-0.2","subject_id":"5e3c2706dbd7c6000ec882ae","study_id":"6197b3f67c2b5cd3b6d9596a","session_id":"619be78937991423789a94c6","condition":"contingent","relevant_dimensions":["pattern","legs"],"bee_group":{"antennae":"X","wings":"X","pattern":"D","legs":"M"},"action":"avoid","summary":"bad-avoid","bonus":1.040000000000001},{"rt":6310.099999964237,"stimulus":"\n                    <p><b>Action: <em>avoid</em></b></p>\n                    <p>This is the bee that you just saw.</p>\n                    <img src=\"bees-with-color/bee-A2DF.svg\" width=\"200\">\n                    <p><br>Your bonus pay is unchanged, and remains at $0.58.</p>\n            ","response":0,"trial_type":"html-button-response","trial_index":16,"time_elapsed":237673,"internal_node_id":"0.0-4.0-1.2","subject_id":"5e3c2706dbd7c6000ec882ae","study_id":"6197b3f67c2b5cd3b6d9596a","session_id":"619be78937991423789a94c6","condition":"contingent","relevant_dimensions":["pattern","legs"],"bee_group":{"antennae":"X","wings":"X","pattern":"D","legs":"M"},"bonus":1.040000000000001},{"rt":1010,"stimulus":"bees-with-color/bee-A1DM.svg","response":0,"trial_type":"image-button-response","trial_index":17,"time_elapsed":238689,"internal_node_id":"0.0-4.0-0.3","subject_id":"5e3c2706dbd7c6000ec882ae","study_id":"6197b3f67c2b5cd3b6d9596a","session_id":"619be78937991423789a94c6","condition":"contingent","relevant_dimensions":["pattern","legs"],"bee_group":{"antennae":"X","wings":"X","pattern":"D","legs":"M"},"action":"harvest","summary":"bad-harvest","bonus":1.040000000000001},{"rt":4773.5,"stimulus":"\n                    <p><b>Action: <em>harvest</em></b></p>\n                    <p>This is the bee that you just saw.</p>\n                    <img src=\"bees-with-color/bee-A1DM.svg\" width=\"200\">\n                    <p><span class=\"redText\">Bad choice, the bee was angry.</span><br><b>You have been stung!</b><br>Your pay has been decreased by $0.10. Your bonus pay is now $0.48.</p>\n            ","response":0,"trial_type":"html-button-response","trial_index":18,"time_elapsed":243468,"internal_node_id":"0.0-4.0-1.3","subject_id":"5e3c2706dbd7c6000ec882ae","study_id":"6197b3f67c2b5cd3b6d9596a","session_id":"619be78937991423789a94c6","condition":"contingent","relevant_dimensions":["pattern","legs"],"bee_group":{"antennae":"X","wings":"X","pattern":"D","legs":"M"},"bonus":1.040000000000001},{"rt":1215.7999999523163,"stimulus":"bees-with-color/bee-A2DM.svg","response":1,"trial_type":"image-button-response","trial_index":19,"time_elapsed":244689,"internal_node_id":"0.0-4.0-0.4","subject_id":"5e3c2706dbd7c6000ec882ae","study_id":"6197b3f67c2b5cd3b6d9596a","session_id":"619be78937991423789a94c6","condition":"contingent","relevant_dimensions":["pattern","legs"],"bee_group":{"antennae":"X","wings":"X","pattern":"D","legs":"M"},"action":"avoid","summary":"good-avoid","bonus":1.040000000000001},{"rt":1142.9000000357628,"stimulus":"\n                    <p><b>Action: <em>avoid</em></b></p>\n                    <p>This is the bee that you just saw.</p>\n                    <img src=\"bees-with-color/bee-A2DM.svg\" width=\"200\">\n                    <p><br>Your bonus pay is unchanged, and remains at $0.48.</p>\n            ","response":0,"trial_type":"html-button-response","trial_index":20,"time_elapsed":245838,"internal_node_id":"0.0-4.0-1.4","subject_id":"5e3c2706dbd7c6000ec882ae","study_id":"6197b3f67c2b5cd3b6d9596a","session_id":"619be78937991423789a94c6","condition":"contingent","relevant_dimensions":["pattern","legs"],"bee_group":{"antennae":"X","wings":"X","pattern":"D","legs":"M"},"bonus":1.040000000000001},{"rt":878.5999999642372,"stimulus":"bees-with-color/bee-A1SF.svg","response":0,"trial_type":"image-button-response","trial_index":21,"time_elapsed":246719,"internal_node_id":"0.0-4.0-0.5","subject_id":"5e3c2706dbd7c6000ec882ae","study_id":"6197b3f67c2b5cd3b6d9596a","session_id":"619be78937991423789a94c6","condition":"contingent","relevant_dimensions":["pattern","legs"],"bee_group":{"antennae":"X","wings":"X","pattern":"D","legs":"M"},"action":"harvest","summary":"good-harvest","bonus":1.040000000000001},{"rt":1064.1000000238419,"stimulus":"\n                    <p><b>Action: <em>harvest</em></b></p>\n                    <p>This is the bee that you just saw.</p>\n                    <img src=\"bees-with-color/bee-A1SF.svg\" width=\"200\">\n                    <p><span class=\"greenText\"><b>Successful harvest!</b></span><br>Your pay has increased by $0.02. Your bonus pay is now $0.50.</p>\n            ","response":0,"trial_type":"html-button-response","trial_index":22,"time_elapsed":247790,"internal_node_id":"0.0-4.0-1.5","subject_id":"5e3c2706dbd7c6000ec882ae","study_id":"6197b3f67c2b5cd3b6d9596a","session_id":"619be78937991423789a94c6","condition":"contingent","relevant_dimensions":["pattern","legs"],"bee_group":{"antennae":"X","wings":"X","pattern":"D","legs":"M"},"bonus":1.040000000000001},{"rt":717.5,"stimulus":"bees-with-color/bee-A1DF.svg","response":0,"trial_type":"image-button-response","trial_index":23,"time_elapsed":248512,"internal_node_id":"0.0-4.0-0.6","subject_id":"5e3c2706dbd7c6000ec882ae","study_id":"6197b3f67c2b5cd3b6d9596a","session_id":"619be78937991423789a94c6","condition":"contingent","relevant_dimensions":["pattern","legs"],"bee_group":{"antennae":"X","wings":"X","pattern":"D","legs":"M"},"action":"harvest","summary":"good-harvest","bonus":1.040000000000001},{"rt":1050.300000011921,"stimulus":"\n                    <p><b>Action: <em>harvest</em></b></p>\n                    <p>This is the bee that you just saw.</p>\n                    <img src=\"bees-with-color/bee-A1DF.svg\" width=\"200\">\n                    <p><span class=\"greenText\"><b>Successful harvest!</b></span><br>Your pay has increased by $0.02. Your bonus pay is now $0.52.</p>\n            ","response":0,"trial_type":"html-button-response","trial_index":24,"time_elapsed":249568,"internal_node_id":"0.0-4.0-1.6","subject_id":"5e3c2706dbd7c6000ec882ae","study_id":"6197b3f67c2b5cd3b6d9596a","session_id":"619be78937991423789a94c6","condition":"contingent","relevant_dimensions":["pattern","legs"],"bee_group":{"antennae":"X","wings":"X","pattern":"D","legs":"M"},"bonus":1.040000000000001},{"rt":514.1999999880791,"stimulus":"bees-with-color/bee-B2SM.svg","response":0,"trial_type":"image-button-response","trial_index":25,"time_elapsed":250086,"internal_node_id":"0.0-4.0-0.7","subject_id":"5e3c2706dbd7c6000ec882ae","study_id":"6197b3f67c2b5cd3b6d9596a","session_id":"619be78937991423789a94c6","condition":"contingent","relevant_dimensions":["pattern","legs"],"bee_group":{"antennae":"X","wings":"X","pattern":"D","legs":"M"},"action":"harvest","summary":"good-harvest","bonus":1.040000000000001},{"rt":988.0999999642372,"stimulus":"\n                    <p><b>Action: <em>harvest</em></b></p>\n                    <p>This is the bee that you just saw.</p>\n                    <img src=\"bees-with-color/bee-B2SM.svg\" width=\"200\">\n                    <p><span class=\"greenText\"><b>Successful harvest!</b></span><br>Your pay has increased by $0.02. Your bonus pay is now $0.54.</p>\n            ","response":0,"trial_type":"html-button-response","trial_index":26,"time_elapsed":251081,"internal_node_id":"0.0-4.0-1.7","subject_id":"5e3c2706dbd7c6000ec882ae","study_id":"6197b3f67c2b5cd3b6d9596a","session_id":"619be78937991423789a94c6","condition":"contingent","relevant_dimensions":["pattern","legs"],"bee_group":{"antennae":"X","wings":"X","pattern":"D","legs":"M"},"bonus":1.040000000000001},{"rt":519.0999999642372,"stimulus":"bees-with-color/bee-B2DM.svg","response":0,"trial_type":"image-button-response","trial_index":27,"time_elapsed":251603,"internal_node_id":"0.0-4.0-0.8","subject_id":"5e3c2706dbd7c6000ec882ae","study_id":"6197b3f67c2b5cd3b6d9596a","session_id":"619be78937991423789a94c6","condition":"contingent","relevant_dimensions":["pattern","legs"],"bee_group":{"antennae":"X","wings":"X","pattern":"D","legs":"M"},"action":"harvest","summary":"bad-harvest","bonus":1.040000000000001},{"rt":958.6000000238419,"stimulus":"\n                    <p><b>Action: <em>harvest</em></b></p>\n                    <p>This is the bee that you just saw.</p>\n                    <img src=\"bees-with-color/bee-B2DM.svg\" width=\"200\">\n                    <p><span class=\"redText\">Bad choice, the bee was angry.</span><br><b>You have been stung!</b><br>Your pay has been decreased by $0.10. Your bonus pay is now $0.44.</p>\n            ","response":0,"trial_type":"html-button-response","trial_index":28,"time_elapsed":252567,"internal_node_id":"0.0-4.0-1.8","subject_id":"5e3c2706dbd7c6000ec882ae","study_id":"6197b3f67c2b5cd3b6d9596a","session_id":"619be78937991423789a94c6","condition":"contingent","relevant_dimensions":["pattern","legs"],"bee_group":{"antennae":"X","wings":"X","pattern":"D","legs":"M"},"bonus":1.040000000000001},{"rt":1650.300000011921,"stimulus":"bees-with-color/bee-A1SM.svg","response":0,"trial_type":"image-button-response","trial_index":29,"time_elapsed":254220,"internal_node_id":"0.0-4.0-0.9","subject_id":"5e3c2706dbd7c6000ec882ae","study_id":"6197b3f67c2b5cd3b6d9596a","session_id":"619be78937991423789a94c6","condition":"contingent","relevant_dimensions":["pattern","legs"],"bee_group":{"antennae":"X","wings":"X","pattern":"D","legs":"M"},"action":"harvest","summary":"good-harvest","bonus":1.040000000000001},{"rt":731.3000000119209,"stimulus":"\n                    <p><b>Action: <em>harvest</em></b></p>\n                    <p>This is the bee that you just saw.</p>\n                    <img src=\"bees-with-color/bee-A1SM.svg\" width=\"200\">\n                    <p><span class=\"greenText\"><b>Successful harvest!</b></span><br>Your pay has increased by $0.02. Your bonus pay is now $0.46.</p>\n            ","response":0,"trial_type":"html-button-response","trial_index":30,"time_elapsed":254955,"internal_node_id":"0.0-4.0-1.9","subject_id":"5e3c2706dbd7c6000ec882ae","study_id":"6197b3f67c2b5cd3b6d9596a","session_id":"619be78937991423789a94c6","condition":"contingent","relevant_dimensions":["pattern","legs"],"bee_group":{"antennae":"X","wings":"X","pattern":"D","legs":"M"},"bonus":1.040000000000001},{"rt":610.8000000119209,"stimulus":"bees-with-color/bee-B2SF.svg","response":0,"trial_type":"image-button-response","trial_index":31,"time_elapsed":255569,"internal_node_id":"0.0-4.0-0.10","subject_id":"5e3c2706dbd7c6000ec882ae","study_id":"6197b3f67c2b5cd3b6d9596a","session_id":"619be78937991423789a94c6","condition":"contingent","relevant_dimensions":["pattern","legs"],"bee_group":{"antennae":"X","wings":"X","pattern":"D","legs":"M"},"action":"harvest","summary":"good-harvest","bonus":1.040000000000001},{"rt":892.5,"stimulus":"\n                    <p><b>Action: <em>harvest</em></b></p>\n                    <p>This is the bee that you just saw.</p>\n                    <img src=\"bees-with-color/bee-B2SF.svg\" width=\"200\">\n                    <p><span class=\"greenText\"><b>Successful harvest!</b></span><br>Your pay has increased by $0.02. Your bonus pay is now $0.48.</p>\n            ","response":0,"trial_type":"html-button-response","trial_index":32,"time_elapsed":256466,"internal_node_id":"0.0-4.0-1.10","subject_id":"5e3c2706dbd7c6000ec882ae","study_id":"6197b3f67c2b5cd3b6d9596a","session_id":"619be78937991423789a94c6","condition":"contingent","relevant_dimensions":["pattern","legs"],"bee_group":{"antennae":"X","wings":"X","pattern":"D","legs":"M"},"bonus":1.040000000000001},{"rt":512.1999999880791,"stimulus":"bees-with-color/bee-A2SM.svg","response":0,"trial_type":"image-button-response","trial_index":33,"time_elapsed":256980,"internal_node_id":"0.0-4.0-0.11","subject_id":"5e3c2706dbd7c6000ec882ae","study_id":"6197b3f67c2b5cd3b6d9596a","session_id":"619be78937991423789a94c6","condition":"contingent","relevant_dimensions":["pattern","legs"],"bee_group":{"antennae":"X","wings":"X","pattern":"D","legs":"M"},"action":"harvest","summary":"good-harvest","bonus":1.040000000000001},{"rt":834,"stimulus":"\n                    <p><b>Action: <em>harvest</em></b></p>\n                    <p>This is the bee that you just saw.</p>\n                    <img src=\"bees-with-color/bee-A2SM.svg\" width=\"200\">\n                    <p><span class=\"greenText\"><b>Successful harvest!</b></span><br>Your pay has increased by $0.02. Your bonus pay is now $0.50.</p>\n            ","response":0,"trial_type":"html-button-response","trial_index":34,"time_elapsed":257819,"internal_node_id":"0.0-4.0-1.11","subject_id":"5e3c2706dbd7c6000ec882ae","study_id":"6197b3f67c2b5cd3b6d9596a","session_id":"619be78937991423789a94c6","condition":"contingent","relevant_dimensions":["pattern","legs"],"bee_group":{"antennae":"X","wings":"X","pattern":"D","legs":"M"},"bonus":1.040000000000001},{"rt":444.80000001192093,"stimulus":"bees-with-color/bee-B1DM.svg","response":0,"trial_type":"image-button-response","trial_index":35,"time_elapsed":258267,"internal_node_id":"0.0-4.0-0.12","subject_id":"5e3c2706dbd7c6000ec882ae","study_id":"6197b3f67c2b5cd3b6d9596a","session_id":"619be78937991423789a94c6","condition":"contingent","relevant_dimensions":["pattern","legs"],"bee_group":{"antennae":"X","wings":"X","pattern":"D","legs":"M"},"action":"harvest","summary":"bad-harvest","bonus":1.040000000000001},{"rt":1796.5,"stimulus":"\n                    <p><b>Action: <em>harvest</em></b></p>\n                    <p>This is the bee that you just saw.</p>\n                    <img src=\"bees-with-color/bee-B1DM.svg\" width=\"200\">\n                    <p><span class=\"redText\">Bad choice, the bee was angry.</span><br><b>You have been stung!</b><br>Your pay has been decreased by $0.10. Your bonus pay is now $0.40.</p>\n            ","response":0,"trial_type":"html-button-response","trial_index":36,"time_elapsed":260068,"internal_node_id":"0.0-4.0-1.12","subject_id":"5e3c2706dbd7c6000ec882ae","study_id":"6197b3f67c2b5cd3b6d9596a","session_id":"619be78937991423789a94c6","condition":"contingent","relevant_dimensions":["pattern","legs"],"bee_group":{"antennae":"X","wings":"X","pattern":"D","legs":"M"},"bonus":1.040000000000001},{"rt":966.8999999761581,"stimulus":"bees-with-color/bee-B1SM.svg","response":0,"trial_type":"image-button-response","trial_index":37,"time_elapsed":261039,"internal_node_id":"0.0-4.0-0.13","subject_id":"5e3c2706dbd7c6000ec882ae","study_id":"6197b3f67c2b5cd3b6d9596a","session_id":"619be78937991423789a94c6","condition":"contingent","relevant_dimensions":["pattern","legs"],"bee_group":{"antennae":"X","wings":"X","pattern":"D","legs":"M"},"action":"harvest","summary":"good-harvest","bonus":1.040000000000001},{"rt":710,"stimulus":"\n                    <p><b>Action: <em>harvest</em></b></p>\n                    <p>This is the bee that you just saw.</p>\n                    <img src=\"bees-with-color/bee-B1SM.svg\" width=\"200\">\n                    <p><span class=\"greenText\"><b>Successful harvest!</b></span><br>Your pay has increased by $0.02. Your bonus pay is now $0.42.</p>\n            ","response":0,"trial_type":"html-button-response","trial_index":38,"time_elapsed":261751,"internal_node_id":"0.0-4.0-1.13","subject_id":"5e3c2706dbd7c6000ec882ae","study_id":"6197b3f67c2b5cd3b6d9596a","session_id":"619be78937991423789a94c6","condition":"contingent","relevant_dimensions":["pattern","legs"],"bee_group":{"antennae":"X","wings":"X","pattern":"D","legs":"M"},"bonus":1.040000000000001},{"rt":1044.6000000238419,"stimulus":"bees-with-color/bee-B1DF.svg","response":1,"trial_type":"image-button-response","trial_index":39,"time_elapsed":262800,"internal_node_id":"0.0-4.0-0.14","subject_id":"5e3c2706dbd7c6000ec882ae","study_id":"6197b3f67c2b5cd3b6d9596a","session_id":"619be78937991423789a94c6","condition":"contingent","relevant_dimensions":["pattern","legs"],"bee_group":{"antennae":"X","wings":"X","pattern":"D","legs":"M"},"action":"avoid","summary":"bad-avoid","bonus":1.040000000000001},{"rt":1003.2999999523163,"stimulus":"\n                    <p><b>Action: <em>avoid</em></b></p>\n                    <p>This is the bee that you just saw.</p>\n                    <img src=\"bees-with-color/bee-B1DF.svg\" width=\"200\">\n                    <p><br>Your bonus pay is unchanged, and remains at $0.42.</p>\n            ","response":0,"trial_type":"html-button-response","trial_index":40,"time_elapsed":263808,"internal_node_id":"0.0-4.0-1.14","subject_id":"5e3c2706dbd7c6000ec882ae","study_id":"6197b3f67c2b5cd3b6d9596a","session_id":"619be78937991423789a94c6","condition":"contingent","relevant_dimensions":["pattern","legs"],"bee_group":{"antennae":"X","wings":"X","pattern":"D","legs":"M"},"bonus":1.040000000000001},{"rt":531.6999999880791,"stimulus":"bees-with-color/bee-B2DF.svg","response":0,"trial_type":"image-button-response","trial_index":41,"time_elapsed":264341,"internal_node_id":"0.0-4.0-0.15","subject_id":"5e3c2706dbd7c6000ec882ae","study_id":"6197b3f67c2b5cd3b6d9596a","session_id":"619be78937991423789a94c6","condition":"contingent","relevant_dimensions":["pattern","legs"],"bee_group":{"antennae":"X","wings":"X","pattern":"D","legs":"M"},"action":"harvest","summary":"good-harvest","bonus":1.040000000000001},{"rt":720.0999999642372,"stimulus":"\n                    <p><b>Action: <em>harvest</em></b></p>\n                    <p>This is the bee that you just saw.</p>\n                    <img src=\"bees-with-color/bee-B2DF.svg\" width=\"200\">\n                    <p><span class=\"greenText\"><b>Successful harvest!</b></span><br>Your pay has increased by $0.02. Your bonus pay is now $0.44.</p>\n            ","response":0,"trial_type":"html-button-response","trial_index":42,"time_elapsed":265064,"internal_node_id":"0.0-4.0-1.15","subject_id":"5e3c2706dbd7c6000ec882ae","study_id":"6197b3f67c2b5cd3b6d9596a","session_id":"619be78937991423789a94c6","condition":"contingent","relevant_dimensions":["pattern","legs"],"bee_group":{"antennae":"X","wings":"X","pattern":"D","legs":"M"},"bonus":1.040000000000001},{"rt":948.6000000238419,"stimulus":"bees-with-color/bee-B1DM.svg","response":1,"trial_type":"image-button-response","trial_index":43,"time_elapsed":266015,"internal_node_id":"0.0-4.0-0.16","subject_id":"5e3c2706dbd7c6000ec882ae","study_id":"6197b3f67c2b5cd3b6d9596a","session_id":"619be78937991423789a94c6","condition":"contingent","relevant_dimensions":["pattern","legs"],"bee_group":{"antennae":"X","wings":"X","pattern":"D","legs":"M"},"action":"avoid","summary":"good-avoid","bonus":1.040000000000001},{"rt":612.3000000119209,"stimulus":"\n                    <p><b>Action: <em>avoid</em></b></p>\n                    <p>This is the bee that you just saw.</p>\n                    <img src=\"bees-with-color/bee-B1DM.svg\" width=\"200\">\n                    <p><br>Your bonus pay is unchanged, and remains at $0.44.</p>\n            ","response":0,"trial_type":"html-button-response","trial_index":44,"time_elapsed":266632,"internal_node_id":"0.0-4.0-1.16","subject_id":"5e3c2706dbd7c6000ec882ae","study_id":"6197b3f67c2b5cd3b6d9596a","session_id":"619be78937991423789a94c6","condition":"contingent","relevant_dimensions":["pattern","legs"],"bee_group":{"antennae":"X","wings":"X","pattern":"D","legs":"M"},"bonus":1.040000000000001},{"rt":719.3000000119209,"stimulus":"bees-with-color/bee-B2SM.svg","response":0,"trial_type":"image-button-response","trial_index":45,"time_elapsed":267355,"internal_node_id":"0.0-4.0-0.17","subject_id":"5e3c2706dbd7c6000ec882ae","study_id":"6197b3f67c2b5cd3b6d9596a","session_id":"619be78937991423789a94c6","condition":"contingent","relevant_dimensions":["pattern","legs"],"bee_group":{"antennae":"X","wings":"X","pattern":"D","legs":"M"},"action":"harvest","summary":"good-harvest","bonus":1.040000000000001},{"rt":845.5,"stimulus":"\n                    <p><b>Action: <em>harvest</em></b></p>\n                    <p>This is the bee that you just saw.</p>\n                    <img src=\"bees-with-color/bee-B2SM.svg\" width=\"200\">\n                    <p><span class=\"greenText\"><b>Successful harvest!</b></span><br>Your pay has increased by $0.02. Your bonus pay is now $0.46.</p>\n            ","response":0,"trial_type":"html-button-response","trial_index":46,"time_elapsed":268206,"internal_node_id":"0.0-4.0-1.17","subject_id":"5e3c2706dbd7c6000ec882ae","study_id":"6197b3f67c2b5cd3b6d9596a","session_id":"619be78937991423789a94c6","condition":"contingent","relevant_dimensions":["pattern","legs"],"bee_group":{"antennae":"X","wings":"X","pattern":"D","legs":"M"},"bonus":1.040000000000001},{"rt":1105,"stimulus":"bees-with-color/bee-A2DF.svg","response":1,"trial_type":"image-button-response","trial_index":47,"time_elapsed":269314,"internal_node_id":"0.0-4.0-0.18","subject_id":"5e3c2706dbd7c6000ec882ae","study_id":"6197b3f67c2b5cd3b6d9596a","session_id":"619be78937991423789a94c6","condition":"contingent","relevant_dimensions":["pattern","legs"],"bee_group":{"antennae":"X","wings":"X","pattern":"D","legs":"M"},"action":"avoid","summary":"bad-avoid","bonus":1.040000000000001},{"rt":598.6000000238419,"stimulus":"\n                    <p><b>Action: <em>avoid</em></b></p>\n                    <p>This is the bee that you just saw.</p>\n                    <img src=\"bees-with-color/bee-A2DF.svg\" width=\"200\">\n                    <p><br>Your bonus pay is unchanged, and remains at $0.46.</p>\n            ","response":0,"trial_type":"html-button-response","trial_index":48,"time_elapsed":269918,"internal_node_id":"0.0-4.0-1.18","subject_id":"5e3c2706dbd7c6000ec882ae","study_id":"6197b3f67c2b5cd3b6d9596a","session_id":"619be78937991423789a94c6","condition":"contingent","relevant_dimensions":["pattern","legs"],"bee_group":{"antennae":"X","wings":"X","pattern":"D","legs":"M"},"bonus":1.040000000000001},{"rt":693.4000000357628,"stimulus":"bees-with-color/bee-B2SF.svg","response":0,"trial_type":"image-button-response","trial_index":49,"time_elapsed":270613,"internal_node_id":"0.0-4.0-0.19","subject_id":"5e3c2706dbd7c6000ec882ae","study_id":"6197b3f67c2b5cd3b6d9596a","session_id":"619be78937991423789a94c6","condition":"contingent","relevant_dimensions":["pattern","legs"],"bee_group":{"antennae":"X","wings":"X","pattern":"D","legs":"M"},"action":"harvest","summary":"good-harvest","bonus":1.040000000000001},{"rt":548.3000000119209,"stimulus":"\n                    <p><b>Action: <em>harvest</em></b></p>\n                    <p>This is the bee that you just saw.</p>\n                    <img src=\"bees-with-color/bee-B2SF.svg\" width=\"200\">\n                    <p><span class=\"greenText\"><b>Successful harvest!</b></span><br>Your pay has increased by $0.02. Your bonus pay is now $0.48.</p>\n            ","response":0,"trial_type":"html-button-response","trial_index":50,"time_elapsed":271167,"internal_node_id":"0.0-4.0-1.19","subject_id":"5e3c2706dbd7c6000ec882ae","study_id":"6197b3f67c2b5cd3b6d9596a","session_id":"619be78937991423789a94c6","condition":"contingent","relevant_dimensions":["pattern","legs"],"bee_group":{"antennae":"X","wings":"X","pattern":"D","legs":"M"},"bonus":1.040000000000001},{"rt":1201.5,"stimulus":"bees-with-color/bee-B1DF.svg","response":1,"trial_type":"image-button-response","trial_index":51,"time_elapsed":272371,"internal_node_id":"0.0-4.0-0.20","subject_id":"5e3c2706dbd7c6000ec882ae","study_id":"6197b3f67c2b5cd3b6d9596a","session_id":"619be78937991423789a94c6","condition":"contingent","relevant_dimensions":["pattern","legs"],"bee_group":{"antennae":"X","wings":"X","pattern":"D","legs":"M"},"action":"avoid","summary":"bad-avoid","bonus":1.040000000000001},{"rt":588.1999999880791,"stimulus":"\n                    <p><b>Action: <em>avoid</em></b></p>\n                    <p>This is the bee that you just saw.</p>\n                    <img src=\"bees-with-color/bee-B1DF.svg\" width=\"200\">\n                    <p><br>Your bonus pay is unchanged, and remains at $0.48.</p>\n            ","response":0,"trial_type":"html-button-response","trial_index":52,"time_elapsed":272965,"internal_node_id":"0.0-4.0-1.20","subject_id":"5e3c2706dbd7c6000ec882ae","study_id":"6197b3f67c2b5cd3b6d9596a","session_id":"619be78937991423789a94c6","condition":"contingent","relevant_dimensions":["pattern","legs"],"bee_group":{"antennae":"X","wings":"X","pattern":"D","legs":"M"},"bonus":1.040000000000001},{"rt":704.5999999642372,"stimulus":"bees-with-color/bee-A1DM.svg","response":0,"trial_type":"image-button-response","trial_index":53,"time_elapsed":273672,"internal_node_id":"0.0-4.0-0.21","subject_id":"5e3c2706dbd7c6000ec882ae","study_id":"6197b3f67c2b5cd3b6d9596a","session_id":"619be78937991423789a94c6","condition":"contingent","relevant_dimensions":["pattern","legs"],"bee_group":{"antennae":"X","wings":"X","pattern":"D","legs":"M"},"action":"harvest","summary":"bad-harvest","bonus":1.040000000000001},{"rt":1420.300000011921,"stimulus":"\n                    <p><b>Action: <em>harvest</em></b></p>\n                    <p>This is the bee that you just saw.</p>\n                    <img src=\"bees-with-color/bee-A1DM.svg\" width=\"200\">\n                    <p><span class=\"redText\">Bad choice, the bee was angry.</span><br><b>You have been stung!</b><br>Your pay has been decreased by $0.10. Your bonus pay is now $0.38.</p>\n            ","response":0,"trial_type":"html-button-response","trial_index":54,"time_elapsed":275097,"internal_node_id":"0.0-4.0-1.21","subject_id":"5e3c2706dbd7c6000ec882ae","study_id":"6197b3f67c2b5cd3b6d9596a","session_id":"619be78937991423789a94c6","condition":"contingent","relevant_dimensions":["pattern","legs"],"bee_group":{"antennae":"X","wings":"X","pattern":"D","legs":"M"},"bonus":1.040000000000001},{"rt":1075.699999988079,"stimulus":"bees-with-color/bee-A2SM.svg","response":0,"trial_type":"image-button-response","trial_index":55,"time_elapsed":276176,"internal_node_id":"0.0-4.0-0.22","subject_id":"5e3c2706dbd7c6000ec882ae","study_id":"6197b3f67c2b5cd3b6d9596a","session_id":"619be78937991423789a94c6","condition":"contingent","relevant_dimensions":["pattern","legs"],"bee_group":{"antennae":"X","wings":"X","pattern":"D","legs":"M"},"action":"harvest","summary":"good-harvest","bonus":1.040000000000001},{"rt":1065.7999999523163,"stimulus":"\n                    <p><b>Action: <em>harvest</em></b></p>\n                    <p>This is the bee that you just saw.</p>\n                    <img src=\"bees-with-color/bee-A2SM.svg\" width=\"200\">\n                    <p><span class=\"greenText\"><b>Successful harvest!</b></span><br>Your pay has increased by $0.02. Your bonus pay is now $0.40.</p>\n            ","response":0,"trial_type":"html-button-response","trial_index":56,"time_elapsed":277246,"internal_node_id":"0.0-4.0-1.22","subject_id":"5e3c2706dbd7c6000ec882ae","study_id":"6197b3f67c2b5cd3b6d9596a","session_id":"619be78937991423789a94c6","condition":"contingent","relevant_dimensions":["pattern","legs"],"bee_group":{"antennae":"X","wings":"X","pattern":"D","legs":"M"},"bonus":1.040000000000001},{"rt":2575.899999976158,"stimulus":"bees-with-color/bee-B1SM.svg","response":0,"trial_type":"image-button-response","trial_index":57,"time_elapsed":279823,"internal_node_id":"0.0-4.0-0.23","subject_id":"5e3c2706dbd7c6000ec882ae","study_id":"6197b3f67c2b5cd3b6d9596a","session_id":"619be78937991423789a94c6","condition":"contingent","relevant_dimensions":["pattern","legs"],"bee_group":{"antennae":"X","wings":"X","pattern":"D","legs":"M"},"action":"harvest","summary":"good-harvest","bonus":1.040000000000001},{"rt":816.5999999642372,"stimulus":"\n                    <p><b>Action: <em>harvest</em></b></p>\n                    <p>This is the bee that you just saw.</p>\n                    <img src=\"bees-with-color/bee-B1SM.svg\" width=\"200\">\n                    <p><span class=\"greenText\"><b>Successful harvest!</b></span><br>Your pay has increased by $0.02. Your bonus pay is now $0.42.</p>\n            ","response":0,"trial_type":"html-button-response","trial_index":58,"time_elapsed":280644,"internal_node_id":"0.0-4.0-1.23","subject_id":"5e3c2706dbd7c6000ec882ae","study_id":"6197b3f67c2b5cd3b6d9596a","session_id":"619be78937991423789a94c6","condition":"contingent","relevant_dimensions":["pattern","legs"],"bee_group":{"antennae":"X","wings":"X","pattern":"D","legs":"M"},"bonus":1.040000000000001},{"rt":1006.1999999880791,"stimulus":"bees-with-color/bee-B1SF.svg","response":0,"trial_type":"image-button-response","trial_index":59,"time_elapsed":281654,"internal_node_id":"0.0-4.0-0.24","subject_id":"5e3c2706dbd7c6000ec882ae","study_id":"6197b3f67c2b5cd3b6d9596a","session_id":"619be78937991423789a94c6","condition":"contingent","relevant_dimensions":["pattern","legs"],"bee_group":{"antennae":"X","wings":"X","pattern":"D","legs":"M"},"action":"harvest","summary":"good-harvest","bonus":1.040000000000001},{"rt":593.5999999642372,"stimulus":"\n                    <p><b>Action: <em>harvest</em></b></p>\n                    <p>This is the bee that you just saw.</p>\n                    <img src=\"bees-with-color/bee-B1SF.svg\" width=\"200\">\n                    <p><span class=\"greenText\"><b>Successful harvest!</b></span><br>Your pay has increased by $0.02. Your bonus pay is now $0.44.</p>\n            ","response":0,"trial_type":"html-button-response","trial_index":60,"time_elapsed":282253,"internal_node_id":"0.0-4.0-1.24","subject_id":"5e3c2706dbd7c6000ec882ae","study_id":"6197b3f67c2b5cd3b6d9596a","session_id":"619be78937991423789a94c6","condition":"contingent","relevant_dimensions":["pattern","legs"],"bee_group":{"antennae":"X","wings":"X","pattern":"D","legs":"M"},"bonus":1.040000000000001},{"rt":897.8000000119209,"stimulus":"bees-with-color/bee-B2DF.svg","response":1,"trial_type":"image-button-response","trial_index":61,"time_elapsed":283154,"internal_node_id":"0.0-4.0-0.25","subject_id":"5e3c2706dbd7c6000ec882ae","study_id":"6197b3f67c2b5cd3b6d9596a","session_id":"619be78937991423789a94c6","condition":"contingent","relevant_dimensions":["pattern","legs"],"bee_group":{"antennae":"X","wings":"X","pattern":"D","legs":"M"},"action":"avoid","summary":"bad-avoid","bonus":1.040000000000001},{"rt":482.5999999642372,"stimulus":"\n                    <p><b>Action: <em>avoid</em></b></p>\n                    <p>This is the bee that you just saw.</p>\n                    <img src=\"bees-with-color/bee-B2DF.svg\" width=\"200\">\n                    <p><br>Your bonus pay is unchanged, and remains at $0.44.</p>\n            ","response":0,"trial_type":"html-button-response","trial_index":62,"time_elapsed":283641,"internal_node_id":"0.0-4.0-1.25","subject_id":"5e3c2706dbd7c6000ec882ae","study_id":"6197b3f67c2b5cd3b6d9596a","session_id":"619be78937991423789a94c6","condition":"contingent","relevant_dimensions":["pattern","legs"],"bee_group":{"antennae":"X","wings":"X","pattern":"D","legs":"M"},"bonus":1.040000000000001},{"rt":952.8999999761581,"stimulus":"bees-with-color/bee-A1DF.svg","response":1,"trial_type":"image-button-response","trial_index":63,"time_elapsed":284596,"internal_node_id":"0.0-4.0-0.26","subject_id":"5e3c2706dbd7c6000ec882ae","study_id":"6197b3f67c2b5cd3b6d9596a","session_id":"619be78937991423789a94c6","condition":"contingent","relevant_dimensions":["pattern","legs"],"bee_group":{"antennae":"X","wings":"X","pattern":"D","legs":"M"},"action":"avoid","summary":"bad-avoid","bonus":1.040000000000001},{"rt":531.2999999523163,"stimulus":"\n                    <p><b>Action: <em>avoid</em></b></p>\n                    <p>This is the bee that you just saw.</p>\n                    <img src=\"bees-with-color/bee-A1DF.svg\" width=\"200\">\n                    <p><br>Your bonus pay is unchanged, and remains at $0.44.</p>\n            ","response":0,"trial_type":"html-button-response","trial_index":64,"time_elapsed":285132,"internal_node_id":"0.0-4.0-1.26","subject_id":"5e3c2706dbd7c6000ec882ae","study_id":"6197b3f67c2b5cd3b6d9596a","session_id":"619be78937991423789a94c6","condition":"contingent","relevant_dimensions":["pattern","legs"],"bee_group":{"antennae":"X","wings":"X","pattern":"D","legs":"M"},"bonus":1.040000000000001},{"rt":726.0999999642372,"stimulus":"bees-with-color/bee-A1SF.svg","response":0,"trial_type":"image-button-response","trial_index":65,"time_elapsed":285861,"internal_node_id":"0.0-4.0-0.27","subject_id":"5e3c2706dbd7c6000ec882ae","study_id":"6197b3f67c2b5cd3b6d9596a","session_id":"619be78937991423789a94c6","condition":"contingent","relevant_dimensions":["pattern","legs"],"bee_group":{"antennae":"X","wings":"X","pattern":"D","legs":"M"},"action":"harvest","summary":"good-harvest","bonus":1.040000000000001},{"rt":565.5,"stimulus":"\n                    <p><b>Action: <em>harvest</em></b></p>\n                    <p>This is the bee that you just saw.</p>\n                    <img src=\"bees-with-color/bee-A1SF.svg\" width=\"200\">\n                    <p><span class=\"greenText\"><b>Successful harvest!</b></span><br>Your pay has increased by $0.02. Your bonus pay is now $0.46.</p>\n            ","response":0,"trial_type":"html-button-response","trial_index":66,"time_elapsed":286432,"internal_node_id":"0.0-4.0-1.27","subject_id":"5e3c2706dbd7c6000ec882ae","study_id":"6197b3f67c2b5cd3b6d9596a","session_id":"619be78937991423789a94c6","condition":"contingent","relevant_dimensions":["pattern","legs"],"bee_group":{"antennae":"X","wings":"X","pattern":"D","legs":"M"},"bonus":1.040000000000001},{"rt":982.6999999880791,"stimulus":"bees-with-color/bee-A2SF.svg","response":0,"trial_type":"image-button-response","trial_index":67,"time_elapsed":287418,"internal_node_id":"0.0-4.0-0.28","subject_id":"5e3c2706dbd7c6000ec882ae","study_id":"6197b3f67c2b5cd3b6d9596a","session_id":"619be78937991423789a94c6","condition":"contingent","relevant_dimensions":["pattern","legs"],"bee_group":{"antennae":"X","wings":"X","pattern":"D","legs":"M"},"action":"harvest","summary":"good-harvest","bonus":1.040000000000001},{"rt":468.19999998807907,"stimulus":"\n                    <p><b>Action: <em>harvest</em></b></p>\n                    <p>This is the bee that you just saw.</p>\n                    <img src=\"bees-with-color/bee-A2SF.svg\" width=\"200\">\n                    <p><span class=\"greenText\"><b>Successful harvest!</b></span><br>Your pay has increased by $0.02. Your bonus pay is now $0.48.</p>\n            ","response":0,"trial_type":"html-button-response","trial_index":68,"time_elapsed":287892,"internal_node_id":"0.0-4.0-1.28","subject_id":"5e3c2706dbd7c6000ec882ae","study_id":"6197b3f67c2b5cd3b6d9596a","session_id":"619be78937991423789a94c6","condition":"contingent","relevant_dimensions":["pattern","legs"],"bee_group":{"antennae":"X","wings":"X","pattern":"D","legs":"M"},"bonus":1.040000000000001},{"rt":672.5999999642372,"stimulus":"bees-with-color/bee-A1SM.svg","response":0,"trial_type":"image-button-response","trial_index":69,"time_elapsed":288568,"internal_node_id":"0.0-4.0-0.29","subject_id":"5e3c2706dbd7c6000ec882ae","study_id":"6197b3f67c2b5cd3b6d9596a","session_id":"619be78937991423789a94c6","condition":"contingent","relevant_dimensions":["pattern","legs"],"bee_group":{"antennae":"X","wings":"X","pattern":"D","legs":"M"},"action":"harvest","summary":"good-harvest","bonus":1.040000000000001},{"rt":564.3999999761581,"stimulus":"\n                    <p><b>Action: <em>harvest</em></b></p>\n                    <p>This is the bee that you just saw.</p>\n                    <img src=\"bees-with-color/bee-A1SM.svg\" width=\"200\">\n                    <p><span class=\"greenText\"><b>Successful harvest!</b></span><br>Your pay has increased by $0.02. Your bonus pay is now $0.50.</p>\n            ","response":0,"trial_type":"html-button-response","trial_index":70,"time_elapsed":289137,"internal_node_id":"0.0-4.0-1.29","subject_id":"5e3c2706dbd7c6000ec882ae","study_id":"6197b3f67c2b5cd3b6d9596a","session_id":"619be78937991423789a94c6","condition":"contingent","relevant_dimensions":["pattern","legs"],"bee_group":{"antennae":"X","wings":"X","pattern":"D","legs":"M"},"bonus":1.040000000000001},{"rt":959.6999999880791,"stimulus":"bees-with-color/bee-A2DM.svg","response":1,"trial_type":"image-button-response","trial_index":71,"time_elapsed":290099,"internal_node_id":"0.0-4.0-0.30","subject_id":"5e3c2706dbd7c6000ec882ae","study_id":"6197b3f67c2b5cd3b6d9596a","session_id":"619be78937991423789a94c6","condition":"contingent","relevant_dimensions":["pattern","legs"],"bee_group":{"antennae":"X","wings":"X","pattern":"D","legs":"M"},"action":"avoid","summary":"good-avoid","bonus":1.040000000000001},{"rt":984.1000000238419,"stimulus":"\n                    <p><b>Action: <em>avoid</em></b></p>\n                    <p>This is the bee that you just saw.</p>\n                    <img src=\"bees-with-color/bee-A2DM.svg\" width=\"200\">\n                    <p><br>Your bonus pay is unchanged, and remains at $0.50.</p>\n            ","response":0,"trial_type":"html-button-response","trial_index":72,"time_elapsed":291089,"internal_node_id":"0.0-4.0-1.30","subject_id":"5e3c2706dbd7c6000ec882ae","study_id":"6197b3f67c2b5cd3b6d9596a","session_id":"619be78937991423789a94c6","condition":"contingent","relevant_dimensions":["pattern","legs"],"bee_group":{"antennae":"X","wings":"X","pattern":"D","legs":"M"},"bonus":1.040000000000001},{"rt":1426.5,"stimulus":"bees-with-color/bee-B2DM.svg","response":1,"trial_type":"image-button-response","trial_index":73,"time_elapsed":292519,"internal_node_id":"0.0-4.0-0.31","subject_id":"5e3c2706dbd7c6000ec882ae","study_id":"6197b3f67c2b5cd3b6d9596a","session_id":"619be78937991423789a94c6","condition":"contingent","relevant_dimensions":["pattern","legs"],"bee_group":{"antennae":"X","wings":"X","pattern":"D","legs":"M"},"action":"avoid","summary":"good-avoid","bonus":1.040000000000001},{"rt":519.4000000357628,"stimulus":"\n                    <p><b>Action: <em>avoid</em></b></p>\n                    <p>This is the bee that you just saw.</p>\n                    <img src=\"bees-with-color/bee-B2DM.svg\" width=\"200\">\n                    <p><br>Your bonus pay is unchanged, and remains at $0.50.</p>\n            ","response":0,"trial_type":"html-button-response","trial_index":74,"time_elapsed":293045,"internal_node_id":"0.0-4.0-1.31","subject_id":"5e3c2706dbd7c6000ec882ae","study_id":"6197b3f67c2b5cd3b6d9596a","session_id":"619be78937991423789a94c6","condition":"contingent","relevant_dimensions":["pattern","legs"],"bee_group":{"antennae":"X","wings":"X","pattern":"D","legs":"M"},"bonus":1.040000000000001},{"rt":775.6999999880791,"stimulus":"bees-with-color/bee-A1SF.svg","response":0,"trial_type":"image-button-response","trial_index":75,"time_elapsed":293825,"internal_node_id":"0.0-4.0-0.32","subject_id":"5e3c2706dbd7c6000ec882ae","study_id":"6197b3f67c2b5cd3b6d9596a","session_id":"619be78937991423789a94c6","condition":"contingent","relevant_dimensions":["pattern","legs"],"bee_group":{"antennae":"X","wings":"X","pattern":"D","legs":"M"},"action":"harvest","summary":"good-harvest","bonus":1.040000000000001},{"rt":546.1999999880791,"stimulus":"\n                    <p><b>Action: <em>harvest</em></b></p>\n                    <p>This is the bee that you just saw.</p>\n                    <img src=\"bees-with-color/bee-A1SF.svg\" width=\"200\">\n                    <p><span class=\"greenText\"><b>Successful harvest!</b></span><br>Your pay has increased by $0.02. Your bonus pay is now $0.52.</p>\n            ","response":0,"trial_type":"html-button-response","trial_index":76,"time_elapsed":294378,"internal_node_id":"0.0-4.0-1.32","subject_id":"5e3c2706dbd7c6000ec882ae","study_id":"6197b3f67c2b5cd3b6d9596a","session_id":"619be78937991423789a94c6","condition":"contingent","relevant_dimensions":["pattern","legs"],"bee_group":{"antennae":"X","wings":"X","pattern":"D","legs":"M"},"bonus":1.040000000000001},{"rt":527.7999999523163,"stimulus":"bees-with-color/bee-B1SF.svg","response":0,"trial_type":"image-button-response","trial_index":77,"time_elapsed":294908,"internal_node_id":"0.0-4.0-0.33","subject_id":"5e3c2706dbd7c6000ec882ae","study_id":"6197b3f67c2b5cd3b6d9596a","session_id":"619be78937991423789a94c6","condition":"contingent","relevant_dimensions":["pattern","legs"],"bee_group":{"antennae":"X","wings":"X","pattern":"D","legs":"M"},"action":"harvest","summary":"good-harvest","bonus":1.040000000000001},{"rt":524.4000000357628,"stimulus":"\n                    <p><b>Action: <em>harvest</em></b></p>\n                    <p>This is the bee that you just saw.</p>\n                    <img src=\"bees-with-color/bee-B1SF.svg\" width=\"200\">\n                    <p><span class=\"greenText\"><b>Successful harvest!</b></span><br>Your pay has increased by $0.02. Your bonus pay is now $0.54.</p>\n            ","response":0,"trial_type":"html-button-response","trial_index":78,"time_elapsed":295436,"internal_node_id":"0.0-4.0-1.33","subject_id":"5e3c2706dbd7c6000ec882ae","study_id":"6197b3f67c2b5cd3b6d9596a","session_id":"619be78937991423789a94c6","condition":"contingent","relevant_dimensions":["pattern","legs"],"bee_group":{"antennae":"X","wings":"X","pattern":"D","legs":"M"},"bonus":1.040000000000001},{"rt":800.4000000357628,"stimulus":"bees-with-color/bee-A2DM.svg","response":1,"trial_type":"image-button-response","trial_index":79,"time_elapsed":296238,"internal_node_id":"0.0-4.0-0.34","subject_id":"5e3c2706dbd7c6000ec882ae","study_id":"6197b3f67c2b5cd3b6d9596a","session_id":"619be78937991423789a94c6","condition":"contingent","relevant_dimensions":["pattern","legs"],"bee_group":{"antennae":"X","wings":"X","pattern":"D","legs":"M"},"action":"avoid","summary":"good-avoid","bonus":1.040000000000001},{"rt":484.30000001192093,"stimulus":"\n                    <p><b>Action: <em>avoid</em></b></p>\n                    <p>This is the bee that you just saw.</p>\n                    <img src=\"bees-with-color/bee-A2DM.svg\" width=\"200\">\n                    <p><br>Your bonus pay is unchanged, and remains at $0.54.</p>\n            ","response":0,"trial_type":"html-button-response","trial_index":80,"time_elapsed":296725,"internal_node_id":"0.0-4.0-1.34","subject_id":"5e3c2706dbd7c6000ec882ae","study_id":"6197b3f67c2b5cd3b6d9596a","session_id":"619be78937991423789a94c6","condition":"contingent","relevant_dimensions":["pattern","legs"],"bee_group":{"antennae":"X","wings":"X","pattern":"D","legs":"M"},"bonus":1.040000000000001},{"rt":964.7000000476837,"stimulus":"bees-with-color/bee-A1DF.svg","response":1,"trial_type":"image-button-response","trial_index":81,"time_elapsed":297692,"internal_node_id":"0.0-4.0-0.35","subject_id":"5e3c2706dbd7c6000ec882ae","study_id":"6197b3f67c2b5cd3b6d9596a","session_id":"619be78937991423789a94c6","condition":"contingent","relevant_dimensions":["pattern","legs"],"bee_group":{"antennae":"X","wings":"X","pattern":"D","legs":"M"},"action":"avoid","summary":"bad-avoid","bonus":1.040000000000001},{"rt":498.80000001192093,"stimulus":"\n                    <p><b>Action: <em>avoid</em></b></p>\n                    <p>This is the bee that you just saw.</p>\n                    <img src=\"bees-with-color/bee-A1DF.svg\" width=\"200\">\n                    <p><br>Your bonus pay is unchanged, and remains at $0.54.</p>\n            ","response":0,"trial_type":"html-button-response","trial_index":82,"time_elapsed":298196,"internal_node_id":"0.0-4.0-1.35","subject_id":"5e3c2706dbd7c6000ec882ae","study_id":"6197b3f67c2b5cd3b6d9596a","session_id":"619be78937991423789a94c6","condition":"contingent","relevant_dimensions":["pattern","legs"],"bee_group":{"antennae":"X","wings":"X","pattern":"D","legs":"M"},"bonus":1.040000000000001},{"rt":912.4000000357628,"stimulus":"bees-with-color/bee-B1DF.svg","response":1,"trial_type":"image-button-response","trial_index":83,"time_elapsed":299110,"internal_node_id":"0.0-4.0-0.36","subject_id":"5e3c2706dbd7c6000ec882ae","study_id":"6197b3f67c2b5cd3b6d9596a","session_id":"619be78937991423789a94c6","condition":"contingent","relevant_dimensions":["pattern","legs"],"bee_group":{"antennae":"X","wings":"X","pattern":"D","legs":"M"},"action":"avoid","summary":"bad-avoid","bonus":1.040000000000001},{"rt":1736.5,"stimulus":"\n                    <p><b>Action: <em>avoid</em></b></p>\n                    <p>This is the bee that you just saw.</p>\n                    <img src=\"bees-with-color/bee-B1DF.svg\" width=\"200\">\n                    <p><br>Your bonus pay is unchanged, and remains at $0.54.</p>\n            ","response":0,"trial_type":"html-button-response","trial_index":84,"time_elapsed":300851,"internal_node_id":"0.0-4.0-1.36","subject_id":"5e3c2706dbd7c6000ec882ae","study_id":"6197b3f67c2b5cd3b6d9596a","session_id":"619be78937991423789a94c6","condition":"contingent","relevant_dimensions":["pattern","legs"],"bee_group":{"antennae":"X","wings":"X","pattern":"D","legs":"M"},"bonus":1.040000000000001},{"rt":1121.199999988079,"stimulus":"bees-with-color/bee-B1DM.svg","response":0,"trial_type":"image-button-response","trial_index":85,"time_elapsed":301974,"internal_node_id":"0.0-4.0-0.37","subject_id":"5e3c2706dbd7c6000ec882ae","study_id":"6197b3f67c2b5cd3b6d9596a","session_id":"619be78937991423789a94c6","condition":"contingent","relevant_dimensions":["pattern","legs"],"bee_group":{"antennae":"X","wings":"X","pattern":"D","legs":"M"},"action":"harvest","summary":"bad-harvest","bonus":1.040000000000001},{"rt":700.6000000238419,"stimulus":"\n                    <p><b>Action: <em>harvest</em></b></p>\n                    <p>This is the bee that you just saw.</p>\n                    <img src=\"bees-with-color/bee-B1DM.svg\" width=\"200\">\n                    <p><span class=\"redText\">Bad choice, the bee was angry.</span><br><b>You have been stung!</b><br>Your pay has been decreased by $0.10. Your bonus pay is now $0.44.</p>\n            ","response":0,"trial_type":"html-button-response","trial_index":86,"time_elapsed":302680,"internal_node_id":"0.0-4.0-1.37","subject_id":"5e3c2706dbd7c6000ec882ae","study_id":"6197b3f67c2b5cd3b6d9596a","session_id":"619be78937991423789a94c6","condition":"contingent","relevant_dimensions":["pattern","legs"],"bee_group":{"antennae":"X","wings":"X","pattern":"D","legs":"M"},"bonus":1.040000000000001},{"rt":486.2999999523163,"stimulus":"bees-with-color/bee-A2DF.svg","response":1,"trial_type":"image-button-response","trial_index":87,"time_elapsed":303170,"internal_node_id":"0.0-4.0-0.38","subject_id":"5e3c2706dbd7c6000ec882ae","study_id":"6197b3f67c2b5cd3b6d9596a","session_id":"619be78937991423789a94c6","condition":"contingent","relevant_dimensions":["pattern","legs"],"bee_group":{"antennae":"X","wings":"X","pattern":"D","legs":"M"},"action":"avoid","summary":"bad-avoid","bonus":1.040000000000001},{"rt":831.8000000119209,"stimulus":"\n                    <p><b>Action: <em>avoid</em></b></p>\n                    <p>This is the bee that you just saw.</p>\n                    <img src=\"bees-with-color/bee-A2DF.svg\" width=\"200\">\n                    <p><br>Your bonus pay is unchanged, and remains at $0.44.</p>\n            ","response":0,"trial_type":"html-button-response","trial_index":88,"time_elapsed":304007,"internal_node_id":"0.0-4.0-1.38","subject_id":"5e3c2706dbd7c6000ec882ae","study_id":"6197b3f67c2b5cd3b6d9596a","session_id":"619be78937991423789a94c6","condition":"contingent","relevant_dimensions":["pattern","legs"],"bee_group":{"antennae":"X","wings":"X","pattern":"D","legs":"M"},"bonus":1.040000000000001},{"rt":929.3000000119209,"stimulus":"bees-with-color/bee-B2SF.svg","response":0,"trial_type":"image-button-response","trial_index":89,"time_elapsed":304939,"internal_node_id":"0.0-4.0-0.39","subject_id":"5e3c2706dbd7c6000ec882ae","study_id":"6197b3f67c2b5cd3b6d9596a","session_id":"619be78937991423789a94c6","condition":"contingent","relevant_dimensions":["pattern","legs"],"bee_group":{"antennae":"X","wings":"X","pattern":"D","legs":"M"},"action":"harvest","summary":"good-harvest","bonus":1.040000000000001},{"rt":444.5999999642372,"stimulus":"\n                    <p><b>Action: <em>harvest</em></b></p>\n                    <p>This is the bee that you just saw.</p>\n                    <img src=\"bees-with-color/bee-B2SF.svg\" width=\"200\">\n                    <p><span class=\"greenText\"><b>Successful harvest!</b></span><br>Your pay has increased by $0.02. Your bonus pay is now $0.46.</p>\n            ","response":0,"trial_type":"html-button-response","trial_index":90,"time_elapsed":305389,"internal_node_id":"0.0-4.0-1.39","subject_id":"5e3c2706dbd7c6000ec882ae","study_id":"6197b3f67c2b5cd3b6d9596a","session_id":"619be78937991423789a94c6","condition":"contingent","relevant_dimensions":["pattern","legs"],"bee_group":{"antennae":"X","wings":"X","pattern":"D","legs":"M"},"bonus":1.040000000000001},{"rt":615.5,"stimulus":"bees-with-color/bee-B2DM.svg","response":1,"trial_type":"image-button-response","trial_index":91,"time_elapsed":306008,"internal_node_id":"0.0-4.0-0.40","subject_id":"5e3c2706dbd7c6000ec882ae","study_id":"6197b3f67c2b5cd3b6d9596a","session_id":"619be78937991423789a94c6","condition":"contingent","relevant_dimensions":["pattern","legs"],"bee_group":{"antennae":"X","wings":"X","pattern":"D","legs":"M"},"action":"avoid","summary":"good-avoid","bonus":1.040000000000001},{"rt":501.69999998807907,"stimulus":"\n                    <p><b>Action: <em>avoid</em></b></p>\n                    <p>This is the bee that you just saw.</p>\n                    <img src=\"bees-with-color/bee-B2DM.svg\" width=\"200\">\n                    <p><br>Your bonus pay is unchanged, and remains at $0.46.</p>\n            ","response":0,"trial_type":"html-button-response","trial_index":92,"time_elapsed":306516,"internal_node_id":"0.0-4.0-1.40","subject_id":"5e3c2706dbd7c6000ec882ae","study_id":"6197b3f67c2b5cd3b6d9596a","session_id":"619be78937991423789a94c6","condition":"contingent","relevant_dimensions":["pattern","legs"],"bee_group":{"antennae":"X","wings":"X","pattern":"D","legs":"M"},"bonus":1.040000000000001},{"rt":832.5,"stimulus":"bees-with-color/bee-B2DF.svg","response":1,"trial_type":"image-button-response","trial_index":93,"time_elapsed":307351,"internal_node_id":"0.0-4.0-0.41","subject_id":"5e3c2706dbd7c6000ec882ae","study_id":"6197b3f67c2b5cd3b6d9596a","session_id":"619be78937991423789a94c6","condition":"contingent","relevant_dimensions":["pattern","legs"],"bee_group":{"antennae":"X","wings":"X","pattern":"D","legs":"M"},"action":"avoid","summary":"bad-avoid","bonus":1.040000000000001},{"rt":452.30000001192093,"stimulus":"\n                    <p><b>Action: <em>avoid</em></b></p>\n                    <p>This is the bee that you just saw.</p>\n                    <img src=\"bees-with-color/bee-B2DF.svg\" width=\"200\">\n                    <p><br>Your bonus pay is unchanged, and remains at $0.46.</p>\n            ","response":0,"trial_type":"html-button-response","trial_index":94,"time_elapsed":307808,"internal_node_id":"0.0-4.0-1.41","subject_id":"5e3c2706dbd7c6000ec882ae","study_id":"6197b3f67c2b5cd3b6d9596a","session_id":"619be78937991423789a94c6","condition":"contingent","relevant_dimensions":["pattern","legs"],"bee_group":{"antennae":"X","wings":"X","pattern":"D","legs":"M"},"bonus":1.040000000000001},{"rt":1203,"stimulus":"bees-with-color/bee-A2SF.svg","response":0,"trial_type":"image-button-response","trial_index":95,"time_elapsed":309016,"internal_node_id":"0.0-4.0-0.42","subject_id":"5e3c2706dbd7c6000ec882ae","study_id":"6197b3f67c2b5cd3b6d9596a","session_id":"619be78937991423789a94c6","condition":"contingent","relevant_dimensions":["pattern","legs"],"bee_group":{"antennae":"X","wings":"X","pattern":"D","legs":"M"},"action":"harvest","summary":"good-harvest","bonus":1.040000000000001},{"rt":529.3000000119209,"stimulus":"\n                    <p><b>Action: <em>harvest</em></b></p>\n                    <p>This is the bee that you just saw.</p>\n                    <img src=\"bees-with-color/bee-A2SF.svg\" width=\"200\">\n                    <p><span class=\"greenText\"><b>Successful harvest!</b></span><br>Your pay has increased by $0.02. Your bonus pay is now $0.48.</p>\n            ","response":0,"trial_type":"html-button-response","trial_index":96,"time_elapsed":309552,"internal_node_id":"0.0-4.0-1.42","subject_id":"5e3c2706dbd7c6000ec882ae","study_id":"6197b3f67c2b5cd3b6d9596a","session_id":"619be78937991423789a94c6","condition":"contingent","relevant_dimensions":["pattern","legs"],"bee_group":{"antennae":"X","wings":"X","pattern":"D","legs":"M"},"bonus":1.040000000000001},{"rt":862.5,"stimulus":"bees-with-color/bee-A1DM.svg","response":1,"trial_type":"image-button-response","trial_index":97,"time_elapsed":310418,"internal_node_id":"0.0-4.0-0.43","subject_id":"5e3c2706dbd7c6000ec882ae","study_id":"6197b3f67c2b5cd3b6d9596a","session_id":"619be78937991423789a94c6","condition":"contingent","relevant_dimensions":["pattern","legs"],"bee_group":{"antennae":"X","wings":"X","pattern":"D","legs":"M"},"action":"avoid","summary":"good-avoid","bonus":1.040000000000001},{"rt":483.10000002384186,"stimulus":"\n                    <p><b>Action: <em>avoid</em></b></p>\n                    <p>This is the bee that you just saw.</p>\n                    <img src=\"bees-with-color/bee-A1DM.svg\" width=\"200\">\n                    <p><br>Your bonus pay is unchanged, and remains at $0.48.</p>\n            ","response":0,"trial_type":"html-button-response","trial_index":98,"time_elapsed":310906,"internal_node_id":"0.0-4.0-1.43","subject_id":"5e3c2706dbd7c6000ec882ae","study_id":"6197b3f67c2b5cd3b6d9596a","session_id":"619be78937991423789a94c6","condition":"contingent","relevant_dimensions":["pattern","legs"],"bee_group":{"antennae":"X","wings":"X","pattern":"D","legs":"M"},"bonus":1.040000000000001},{"rt":555.5,"stimulus":"bees-with-color/bee-A1SM.svg","response":0,"trial_type":"image-button-response","trial_index":99,"time_elapsed":311466,"internal_node_id":"0.0-4.0-0.44","subject_id":"5e3c2706dbd7c6000ec882ae","study_id":"6197b3f67c2b5cd3b6d9596a","session_id":"619be78937991423789a94c6","condition":"contingent","relevant_dimensions":["pattern","legs"],"bee_group":{"antennae":"X","wings":"X","pattern":"D","legs":"M"},"action":"harvest","summary":"good-harvest","bonus":1.040000000000001},{"rt":485.30000001192093,"stimulus":"\n                    <p><b>Action: <em>harvest</em></b></p>\n                    <p>This is the bee that you just saw.</p>\n                    <img src=\"bees-with-color/bee-A1SM.svg\" width=\"200\">\n                    <p><span class=\"greenText\"><b>Successful harvest!</b></span><br>Your pay has increased by $0.02. Your bonus pay is now $0.50.</p>\n            ","response":0,"trial_type":"html-button-response","trial_index":100,"time_elapsed":311957,"internal_node_id":"0.0-4.0-1.44","subject_id":"5e3c2706dbd7c6000ec882ae","study_id":"6197b3f67c2b5cd3b6d9596a","session_id":"619be78937991423789a94c6","condition":"contingent","relevant_dimensions":["pattern","legs"],"bee_group":{"antennae":"X","wings":"X","pattern":"D","legs":"M"},"bonus":1.040000000000001},{"rt":660.0999999642372,"stimulus":"bees-with-color/bee-B2SM.svg","response":0,"trial_type":"image-button-response","trial_index":101,"time_elapsed":312621,"internal_node_id":"0.0-4.0-0.45","subject_id":"5e3c2706dbd7c6000ec882ae","study_id":"6197b3f67c2b5cd3b6d9596a","session_id":"619be78937991423789a94c6","condition":"contingent","relevant_dimensions":["pattern","legs"],"bee_group":{"antennae":"X","wings":"X","pattern":"D","legs":"M"},"action":"harvest","summary":"good-harvest","bonus":1.040000000000001},{"rt":456.80000001192093,"stimulus":"\n                    <p><b>Action: <em>harvest</em></b></p>\n                    <p>This is the bee that you just saw.</p>\n                    <img src=\"bees-with-color/bee-B2SM.svg\" width=\"200\">\n                    <p><span class=\"greenText\"><b>Successful harvest!</b></span><br>Your pay has increased by $0.02. Your bonus pay is now $0.52.</p>\n            ","response":0,"trial_type":"html-button-response","trial_index":102,"time_elapsed":313083,"internal_node_id":"0.0-4.0-1.45","subject_id":"5e3c2706dbd7c6000ec882ae","study_id":"6197b3f67c2b5cd3b6d9596a","session_id":"619be78937991423789a94c6","condition":"contingent","relevant_dimensions":["pattern","legs"],"bee_group":{"antennae":"X","wings":"X","pattern":"D","legs":"M"},"bonus":1.040000000000001},{"rt":699.5,"stimulus":"bees-with-color/bee-A2SM.svg","response":0,"trial_type":"image-button-response","trial_index":103,"time_elapsed":313786,"internal_node_id":"0.0-4.0-0.46","subject_id":"5e3c2706dbd7c6000ec882ae","study_id":"6197b3f67c2b5cd3b6d9596a","session_id":"619be78937991423789a94c6","condition":"contingent","relevant_dimensions":["pattern","legs"],"bee_group":{"antennae":"X","wings":"X","pattern":"D","legs":"M"},"action":"harvest","summary":"good-harvest","bonus":1.040000000000001},{"rt":408.30000001192093,"stimulus":"\n                    <p><b>Action: <em>harvest</em></b></p>\n                    <p>This is the bee that you just saw.</p>\n                    <img src=\"bees-with-color/bee-A2SM.svg\" width=\"200\">\n                    <p><span class=\"greenText\"><b>Successful harvest!</b></span><br>Your pay has increased by $0.02. Your bonus pay is now $0.54.</p>\n            ","response":0,"trial_type":"html-button-response","trial_index":104,"time_elapsed":314199,"internal_node_id":"0.0-4.0-1.46","subject_id":"5e3c2706dbd7c6000ec882ae","study_id":"6197b3f67c2b5cd3b6d9596a","session_id":"619be78937991423789a94c6","condition":"contingent","relevant_dimensions":["pattern","legs"],"bee_group":{"antennae":"X","wings":"X","pattern":"D","legs":"M"},"bonus":1.040000000000001},{"rt":518.1999999880791,"stimulus":"bees-with-color/bee-B1SM.svg","response":0,"trial_type":"image-button-response","trial_index":105,"time_elapsed":314720,"internal_node_id":"0.0-4.0-0.47","subject_id":"5e3c2706dbd7c6000ec882ae","study_id":"6197b3f67c2b5cd3b6d9596a","session_id":"619be78937991423789a94c6","condition":"contingent","relevant_dimensions":["pattern","legs"],"bee_group":{"antennae":"X","wings":"X","pattern":"D","legs":"M"},"action":"harvest","summary":"good-harvest","bonus":1.040000000000001},{"rt":669.5,"stimulus":"\n                    <p><b>Action: <em>harvest</em></b></p>\n                    <p>This is the bee that you just saw.</p>\n                    <img src=\"bees-with-color/bee-B1SM.svg\" width=\"200\">\n                    <p><span class=\"greenText\"><b>Successful harvest!</b></span><br>Your pay has increased by $0.02. Your bonus pay is now $0.56.</p>\n            ","response":0,"trial_type":"html-button-response","trial_index":106,"time_elapsed":315394,"internal_node_id":"0.0-4.0-1.47","subject_id":"5e3c2706dbd7c6000ec882ae","study_id":"6197b3f67c2b5cd3b6d9596a","session_id":"619be78937991423789a94c6","condition":"contingent","relevant_dimensions":["pattern","legs"],"bee_group":{"antennae":"X","wings":"X","pattern":"D","legs":"M"},"bonus":1.040000000000001},{"rt":1068.8999999761581,"stimulus":"bees-with-color/bee-B2DM.svg","response":1,"trial_type":"image-button-response","trial_index":107,"time_elapsed":316466,"internal_node_id":"0.0-4.0-0.48","subject_id":"5e3c2706dbd7c6000ec882ae","study_id":"6197b3f67c2b5cd3b6d9596a","session_id":"619be78937991423789a94c6","condition":"contingent","relevant_dimensions":["pattern","legs"],"bee_group":{"antennae":"X","wings":"X","pattern":"D","legs":"M"},"action":"avoid","summary":"good-avoid","bonus":1.040000000000001},{"rt":509,"stimulus":"\n                    <p><b>Action: <em>avoid</em></b></p>\n                    <p>This is the bee that you just saw.</p>\n                    <img src=\"bees-with-color/bee-B2DM.svg\" width=\"200\">\n                    <p><br>Your bonus pay is unchanged, and remains at $0.56.</p>\n            ","response":0,"trial_type":"html-button-response","trial_index":108,"time_elapsed":316980,"internal_node_id":"0.0-4.0-1.48","subject_id":"5e3c2706dbd7c6000ec882ae","study_id":"6197b3f67c2b5cd3b6d9596a","session_id":"619be78937991423789a94c6","condition":"contingent","relevant_dimensions":["pattern","legs"],"bee_group":{"antennae":"X","wings":"X","pattern":"D","legs":"M"},"bonus":1.040000000000001},{"rt":664,"stimulus":"bees-with-color/bee-A1SF.svg","response":0,"trial_type":"image-button-response","trial_index":109,"time_elapsed":317647,"internal_node_id":"0.0-4.0-0.49","subject_id":"5e3c2706dbd7c6000ec882ae","study_id":"6197b3f67c2b5cd3b6d9596a","session_id":"619be78937991423789a94c6","condition":"contingent","relevant_dimensions":["pattern","legs"],"bee_group":{"antennae":"X","wings":"X","pattern":"D","legs":"M"},"action":"harvest","summary":"good-harvest","bonus":1.040000000000001},{"rt":417.39999997615814,"stimulus":"\n                    <p><b>Action: <em>harvest</em></b></p>\n                    <p>This is the bee that you just saw.</p>\n                    <img src=\"bees-with-color/bee-A1SF.svg\" width=\"200\">\n                    <p><span class=\"greenText\"><b>Successful harvest!</b></span><br>Your pay has increased by $0.02. Your bonus pay is now $0.58.</p>\n            ","response":0,"trial_type":"html-button-response","trial_index":110,"time_elapsed":318069,"internal_node_id":"0.0-4.0-1.49","subject_id":"5e3c2706dbd7c6000ec882ae","study_id":"6197b3f67c2b5cd3b6d9596a","session_id":"619be78937991423789a94c6","condition":"contingent","relevant_dimensions":["pattern","legs"],"bee_group":{"antennae":"X","wings":"X","pattern":"D","legs":"M"},"bonus":1.040000000000001},{"rt":1989.8999999761581,"stimulus":"bees-with-color/bee-A2SF.svg","response":0,"trial_type":"image-button-response","trial_index":111,"time_elapsed":320061,"internal_node_id":"0.0-4.0-0.50","subject_id":"5e3c2706dbd7c6000ec882ae","study_id":"6197b3f67c2b5cd3b6d9596a","session_id":"619be78937991423789a94c6","condition":"contingent","relevant_dimensions":["pattern","legs"],"bee_group":{"antennae":"X","wings":"X","pattern":"D","legs":"M"},"action":"harvest","summary":"good-harvest","bonus":1.040000000000001},{"rt":437.10000002384186,"stimulus":"\n                    <p><b>Action: <em>harvest</em></b></p>\n                    <p>This is the bee that you just saw.</p>\n                    <img src=\"bees-with-color/bee-A2SF.svg\" width=\"200\">\n                    <p><span class=\"greenText\"><b>Successful harvest!</b></span><br>Your pay has increased by $0.02. Your bonus pay is now $0.60.</p>\n            ","response":0,"trial_type":"html-button-response","trial_index":112,"time_elapsed":320503,"internal_node_id":"0.0-4.0-1.50","subject_id":"5e3c2706dbd7c6000ec882ae","study_id":"6197b3f67c2b5cd3b6d9596a","session_id":"619be78937991423789a94c6","condition":"contingent","relevant_dimensions":["pattern","legs"],"bee_group":{"antennae":"X","wings":"X","pattern":"D","legs":"M"},"bonus":1.040000000000001},{"rt":994.5999999642372,"stimulus":"bees-with-color/bee-A1DF.svg","response":1,"trial_type":"image-button-response","trial_index":113,"time_elapsed":321501,"internal_node_id":"0.0-4.0-0.51","subject_id":"5e3c2706dbd7c6000ec882ae","study_id":"6197b3f67c2b5cd3b6d9596a","session_id":"619be78937991423789a94c6","condition":"contingent","relevant_dimensions":["pattern","legs"],"bee_group":{"antennae":"X","wings":"X","pattern":"D","legs":"M"},"action":"avoid","summary":"bad-avoid","bonus":1.040000000000001},{"rt":1027.1000000238419,"stimulus":"\n                    <p><b>Action: <em>avoid</em></b></p>\n                    <p>This is the bee that you just saw.</p>\n                    <img src=\"bees-with-color/bee-A1DF.svg\" width=\"200\">\n                    <p><br>Your bonus pay is unchanged, and remains at $0.60.</p>\n            ","response":0,"trial_type":"html-button-response","trial_index":114,"time_elapsed":322532,"internal_node_id":"0.0-4.0-1.51","subject_id":"5e3c2706dbd7c6000ec882ae","study_id":"6197b3f67c2b5cd3b6d9596a","session_id":"619be78937991423789a94c6","condition":"contingent","relevant_dimensions":["pattern","legs"],"bee_group":{"antennae":"X","wings":"X","pattern":"D","legs":"M"},"bonus":1.040000000000001},{"rt":1276,"stimulus":"bees-with-color/bee-A1DM.svg","response":1,"trial_type":"image-button-response","trial_index":115,"time_elapsed":323810,"internal_node_id":"0.0-4.0-0.52","subject_id":"5e3c2706dbd7c6000ec882ae","study_id":"6197b3f67c2b5cd3b6d9596a","session_id":"619be78937991423789a94c6","condition":"contingent","relevant_dimensions":["pattern","legs"],"bee_group":{"antennae":"X","wings":"X","pattern":"D","legs":"M"},"action":"avoid","summary":"good-avoid","bonus":1.040000000000001},{"rt":629.3000000119209,"stimulus":"\n                    <p><b>Action: <em>avoid</em></b></p>\n                    <p>This is the bee that you just saw.</p>\n                    <img src=\"bees-with-color/bee-A1DM.svg\" width=\"200\">\n                    <p><br>Your bonus pay is unchanged, and remains at $0.60.</p>\n            ","response":0,"trial_type":"html-button-response","trial_index":116,"time_elapsed":324443,"internal_node_id":"0.0-4.0-1.52","subject_id":"5e3c2706dbd7c6000ec882ae","study_id":"6197b3f67c2b5cd3b6d9596a","session_id":"619be78937991423789a94c6","condition":"contingent","relevant_dimensions":["pattern","legs"],"bee_group":{"antennae":"X","wings":"X","pattern":"D","legs":"M"},"bonus":1.040000000000001},{"rt":909.1000000238419,"stimulus":"bees-with-color/bee-B2SF.svg","response":0,"trial_type":"image-button-response","trial_index":117,"time_elapsed":325356,"internal_node_id":"0.0-4.0-0.53","subject_id":"5e3c2706dbd7c6000ec882ae","study_id":"6197b3f67c2b5cd3b6d9596a","session_id":"619be78937991423789a94c6","condition":"contingent","relevant_dimensions":["pattern","legs"],"bee_group":{"antennae":"X","wings":"X","pattern":"D","legs":"M"},"action":"harvest","summary":"good-harvest","bonus":1.040000000000001},{"rt":577,"stimulus":"\n                    <p><b>Action: <em>harvest</em></b></p>\n                    <p>This is the bee that you just saw.</p>\n                    <img src=\"bees-with-color/bee-B2SF.svg\" width=\"200\">\n                    <p><span class=\"greenText\"><b>Successful harvest!</b></span><br>Your pay has increased by $0.02. Your bonus pay is now $0.62.</p>\n            ","response":0,"trial_type":"html-button-response","trial_index":118,"time_elapsed":325938,"internal_node_id":"0.0-4.0-1.53","subject_id":"5e3c2706dbd7c6000ec882ae","study_id":"6197b3f67c2b5cd3b6d9596a","session_id":"619be78937991423789a94c6","condition":"contingent","relevant_dimensions":["pattern","legs"],"bee_group":{"antennae":"X","wings":"X","pattern":"D","legs":"M"},"bonus":1.040000000000001},{"rt":1084.3999999761581,"stimulus":"bees-with-color/bee-B1DF.svg","response":1,"trial_type":"image-button-response","trial_index":119,"time_elapsed":327024,"internal_node_id":"0.0-4.0-0.54","subject_id":"5e3c2706dbd7c6000ec882ae","study_id":"6197b3f67c2b5cd3b6d9596a","session_id":"619be78937991423789a94c6","condition":"contingent","relevant_dimensions":["pattern","legs"],"bee_group":{"antennae":"X","wings":"X","pattern":"D","legs":"M"},"action":"avoid","summary":"bad-avoid","bonus":1.040000000000001},{"rt":500.69999998807907,"stimulus":"\n                    <p><b>Action: <em>avoid</em></b></p>\n                    <p>This is the bee that you just saw.</p>\n                    <img src=\"bees-with-color/bee-B1DF.svg\" width=\"200\">\n                    <p><br>Your bonus pay is unchanged, and remains at $0.62.</p>\n            ","response":0,"trial_type":"html-button-response","trial_index":120,"time_elapsed":327527,"internal_node_id":"0.0-4.0-1.54","subject_id":"5e3c2706dbd7c6000ec882ae","study_id":"6197b3f67c2b5cd3b6d9596a","session_id":"619be78937991423789a94c6","condition":"contingent","relevant_dimensions":["pattern","legs"],"bee_group":{"antennae":"X","wings":"X","pattern":"D","legs":"M"},"bonus":1.040000000000001},{"rt":724.4000000357628,"stimulus":"bees-with-color/bee-B1SM.svg","response":0,"trial_type":"image-button-response","trial_index":121,"time_elapsed":328255,"internal_node_id":"0.0-4.0-0.55","subject_id":"5e3c2706dbd7c6000ec882ae","study_id":"6197b3f67c2b5cd3b6d9596a","session_id":"619be78937991423789a94c6","condition":"contingent","relevant_dimensions":["pattern","legs"],"bee_group":{"antennae":"X","wings":"X","pattern":"D","legs":"M"},"action":"harvest","summary":"good-harvest","bonus":1.040000000000001},{"rt":572.3000000119209,"stimulus":"\n                    <p><b>Action: <em>harvest</em></b></p>\n                    <p>This is the bee that you just saw.</p>\n                    <img src=\"bees-with-color/bee-B1SM.svg\" width=\"200\">\n                    <p><span class=\"greenText\"><b>Successful harvest!</b></span><br>Your pay has increased by $0.02. Your bonus pay is now $0.64.</p>\n            ","response":0,"trial_type":"html-button-response","trial_index":122,"time_elapsed":328832,"internal_node_id":"0.0-4.0-1.55","subject_id":"5e3c2706dbd7c6000ec882ae","study_id":"6197b3f67c2b5cd3b6d9596a","session_id":"619be78937991423789a94c6","condition":"contingent","relevant_dimensions":["pattern","legs"],"bee_group":{"antennae":"X","wings":"X","pattern":"D","legs":"M"},"bonus":1.040000000000001},{"rt":991.8000000119209,"stimulus":"bees-with-color/bee-A2SM.svg","response":0,"trial_type":"image-button-response","trial_index":123,"time_elapsed":329827,"internal_node_id":"0.0-4.0-0.56","subject_id":"5e3c2706dbd7c6000ec882ae","study_id":"6197b3f67c2b5cd3b6d9596a","session_id":"619be78937991423789a94c6","condition":"contingent","relevant_dimensions":["pattern","legs"],"bee_group":{"antennae":"X","wings":"X","pattern":"D","legs":"M"},"action":"harvest","summary":"good-harvest","bonus":1.040000000000001},{"rt":521.6999999880791,"stimulus":"\n                    <p><b>Action: <em>harvest</em></b></p>\n                    <p>This is the bee that you just saw.</p>\n                    <img src=\"bees-with-color/bee-A2SM.svg\" width=\"200\">\n                    <p><span class=\"greenText\"><b>Successful harvest!</b></span><br>Your pay has increased by $0.02. Your bonus pay is now $0.66.</p>\n            ","response":0,"trial_type":"html-button-response","trial_index":124,"time_elapsed":330353,"internal_node_id":"0.0-4.0-1.56","subject_id":"5e3c2706dbd7c6000ec882ae","study_id":"6197b3f67c2b5cd3b6d9596a","session_id":"619be78937991423789a94c6","condition":"contingent","relevant_dimensions":["pattern","legs"],"bee_group":{"antennae":"X","wings":"X","pattern":"D","legs":"M"},"bonus":1.040000000000001},{"rt":949.1999999880791,"stimulus":"bees-with-color/bee-A1SM.svg","response":0,"trial_type":"image-button-response","trial_index":125,"time_elapsed":331304,"internal_node_id":"0.0-4.0-0.57","subject_id":"5e3c2706dbd7c6000ec882ae","study_id":"6197b3f67c2b5cd3b6d9596a","session_id":"619be78937991423789a94c6","condition":"contingent","relevant_dimensions":["pattern","legs"],"bee_group":{"antennae":"X","wings":"X","pattern":"D","legs":"M"},"action":"harvest","summary":"good-harvest","bonus":1.040000000000001},{"rt":668.8000000119209,"stimulus":"\n                    <p><b>Action: <em>harvest</em></b></p>\n                    <p>This is the bee that you just saw.</p>\n                    <img src=\"bees-with-color/bee-A1SM.svg\" width=\"200\">\n                    <p><span class=\"greenText\"><b>Successful harvest!</b></span><br>Your pay has increased by $0.02. Your bonus pay is now $0.68.</p>\n            ","response":0,"trial_type":"html-button-response","trial_index":126,"time_elapsed":331978,"internal_node_id":"0.0-4.0-1.57","subject_id":"5e3c2706dbd7c6000ec882ae","study_id":"6197b3f67c2b5cd3b6d9596a","session_id":"619be78937991423789a94c6","condition":"contingent","relevant_dimensions":["pattern","legs"],"bee_group":{"antennae":"X","wings":"X","pattern":"D","legs":"M"},"bonus":1.040000000000001},{"rt":951.3000000119209,"stimulus":"bees-with-color/bee-B2DF.svg","response":1,"trial_type":"image-button-response","trial_index":127,"time_elapsed":332933,"internal_node_id":"0.0-4.0-0.58","subject_id":"5e3c2706dbd7c6000ec882ae","study_id":"6197b3f67c2b5cd3b6d9596a","session_id":"619be78937991423789a94c6","condition":"contingent","relevant_dimensions":["pattern","legs"],"bee_group":{"antennae":"X","wings":"X","pattern":"D","legs":"M"},"action":"avoid","summary":"bad-avoid","bonus":1.040000000000001},{"rt":826,"stimulus":"\n                    <p><b>Action: <em>avoid</em></b></p>\n                    <p>This is the bee that you just saw.</p>\n                    <img src=\"bees-with-color/bee-B2DF.svg\" width=\"200\">\n                    <p><br>Your bonus pay is unchanged, and remains at $0.68.</p>\n            ","response":0,"trial_type":"html-button-response","trial_index":128,"time_elapsed":333763,"internal_node_id":"0.0-4.0-1.58","subject_id":"5e3c2706dbd7c6000ec882ae","study_id":"6197b3f67c2b5cd3b6d9596a","session_id":"619be78937991423789a94c6","condition":"contingent","relevant_dimensions":["pattern","legs"],"bee_group":{"antennae":"X","wings":"X","pattern":"D","legs":"M"},"bonus":1.040000000000001},{"rt":958.3000000119209,"stimulus":"bees-with-color/bee-A2DM.svg","response":1,"trial_type":"image-button-response","trial_index":129,"time_elapsed":334724,"internal_node_id":"0.0-4.0-0.59","subject_id":"5e3c2706dbd7c6000ec882ae","study_id":"6197b3f67c2b5cd3b6d9596a","session_id":"619be78937991423789a94c6","condition":"contingent","relevant_dimensions":["pattern","legs"],"bee_group":{"antennae":"X","wings":"X","pattern":"D","legs":"M"},"action":"avoid","summary":"good-avoid","bonus":1.040000000000001},{"rt":542.3999999761581,"stimulus":"\n                    <p><b>Action: <em>avoid</em></b></p>\n                    <p>This is the bee that you just saw.</p>\n                    <img src=\"bees-with-color/bee-A2DM.svg\" width=\"200\">\n                    <p><br>Your bonus pay is unchanged, and remains at $0.68.</p>\n            ","response":0,"trial_type":"html-button-response","trial_index":130,"time_elapsed":335274,"internal_node_id":"0.0-4.0-1.59","subject_id":"5e3c2706dbd7c6000ec882ae","study_id":"6197b3f67c2b5cd3b6d9596a","session_id":"619be78937991423789a94c6","condition":"contingent","relevant_dimensions":["pattern","legs"],"bee_group":{"antennae":"X","wings":"X","pattern":"D","legs":"M"},"bonus":1.040000000000001},{"rt":610.5,"stimulus":"bees-with-color/bee-B1SF.svg","response":0,"trial_type":"image-button-response","trial_index":131,"time_elapsed":335888,"internal_node_id":"0.0-4.0-0.60","subject_id":"5e3c2706dbd7c6000ec882ae","study_id":"6197b3f67c2b5cd3b6d9596a","session_id":"619be78937991423789a94c6","condition":"contingent","relevant_dimensions":["pattern","legs"],"bee_group":{"antennae":"X","wings":"X","pattern":"D","legs":"M"},"action":"harvest","summary":"good-harvest","bonus":1.040000000000001},{"rt":605,"stimulus":"\n                    <p><b>Action: <em>harvest</em></b></p>\n                    <p>This is the bee that you just saw.</p>\n                    <img src=\"bees-with-color/bee-B1SF.svg\" width=\"200\">\n                    <p><span class=\"greenText\"><b>Successful harvest!</b></span><br>Your pay has increased by $0.02. Your bonus pay is now $0.70.</p>\n            ","response":0,"trial_type":"html-button-response","trial_index":132,"time_elapsed":336497,"internal_node_id":"0.0-4.0-1.60","subject_id":"5e3c2706dbd7c6000ec882ae","study_id":"6197b3f67c2b5cd3b6d9596a","session_id":"619be78937991423789a94c6","condition":"contingent","relevant_dimensions":["pattern","legs"],"bee_group":{"antennae":"X","wings":"X","pattern":"D","legs":"M"},"bonus":1.040000000000001},{"rt":1368.9000000357628,"stimulus":"bees-with-color/bee-B1DM.svg","response":1,"trial_type":"image-button-response","trial_index":133,"time_elapsed":337869,"internal_node_id":"0.0-4.0-0.61","subject_id":"5e3c2706dbd7c6000ec882ae","study_id":"6197b3f67c2b5cd3b6d9596a","session_id":"619be78937991423789a94c6","condition":"contingent","relevant_dimensions":["pattern","legs"],"bee_group":{"antennae":"X","wings":"X","pattern":"D","legs":"M"},"action":"avoid","summary":"good-avoid","bonus":1.040000000000001},{"rt":588.6000000238419,"stimulus":"\n                    <p><b>Action: <em>avoid</em></b></p>\n                    <p>This is the bee that you just saw.</p>\n                    <img src=\"bees-with-color/bee-B1DM.svg\" width=\"200\">\n                    <p><br>Your bonus pay is unchanged, and remains at $0.70.</p>\n            ","response":0,"trial_type":"html-button-response","trial_index":134,"time_elapsed":338462,"internal_node_id":"0.0-4.0-1.61","subject_id":"5e3c2706dbd7c6000ec882ae","study_id":"6197b3f67c2b5cd3b6d9596a","session_id":"619be78937991423789a94c6","condition":"contingent","relevant_dimensions":["pattern","legs"],"bee_group":{"antennae":"X","wings":"X","pattern":"D","legs":"M"},"bonus":1.040000000000001},{"rt":590.8000000119209,"stimulus":"bees-with-color/bee-B2SM.svg","response":0,"trial_type":"image-button-response","trial_index":135,"time_elapsed":339054,"internal_node_id":"0.0-4.0-0.62","subject_id":"5e3c2706dbd7c6000ec882ae","study_id":"6197b3f67c2b5cd3b6d9596a","session_id":"619be78937991423789a94c6","condition":"contingent","relevant_dimensions":["pattern","legs"],"bee_group":{"antennae":"X","wings":"X","pattern":"D","legs":"M"},"action":"harvest","summary":"good-harvest","bonus":1.040000000000001},{"rt":462.30000001192093,"stimulus":"\n                    <p><b>Action: <em>harvest</em></b></p>\n                    <p>This is the bee that you just saw.</p>\n                    <img src=\"bees-with-color/bee-B2SM.svg\" width=\"200\">\n                    <p><span class=\"greenText\"><b>Successful harvest!</b></span><br>Your pay has increased by $0.02. Your bonus pay is now $0.72.</p>\n            ","response":0,"trial_type":"html-button-response","trial_index":136,"time_elapsed":339521,"internal_node_id":"0.0-4.0-1.62","subject_id":"5e3c2706dbd7c6000ec882ae","study_id":"6197b3f67c2b5cd3b6d9596a","session_id":"619be78937991423789a94c6","condition":"contingent","relevant_dimensions":["pattern","legs"],"bee_group":{"antennae":"X","wings":"X","pattern":"D","legs":"M"},"bonus":1.040000000000001},{"rt":1082,"stimulus":"bees-with-color/bee-A2DF.svg","response":1,"trial_type":"image-button-response","trial_index":137,"time_elapsed":340604,"internal_node_id":"0.0-4.0-0.63","subject_id":"5e3c2706dbd7c6000ec882ae","study_id":"6197b3f67c2b5cd3b6d9596a","session_id":"619be78937991423789a94c6","condition":"contingent","relevant_dimensions":["pattern","legs"],"bee_group":{"antennae":"X","wings":"X","pattern":"D","legs":"M"},"action":"avoid","summary":"bad-avoid","bonus":1.040000000000001},{"rt":555.5,"stimulus":"\n                    <p><b>Action: <em>avoid</em></b></p>\n                    <p>This is the bee that you just saw.</p>\n                    <img src=\"bees-with-color/bee-A2DF.svg\" width=\"200\">\n                    <p><br>Your bonus pay is unchanged, and remains at $0.72.</p>\n            ","response":0,"trial_type":"html-button-response","trial_index":138,"time_elapsed":341164,"internal_node_id":"0.0-4.0-1.63","subject_id":"5e3c2706dbd7c6000ec882ae","study_id":"6197b3f67c2b5cd3b6d9596a","session_id":"619be78937991423789a94c6","condition":"contingent","relevant_dimensions":["pattern","legs"],"bee_group":{"antennae":"X","wings":"X","pattern":"D","legs":"M"},"bonus":1.040000000000001},{"rt":6054.400000035763,"stimulus":"You have completed the first part of this experiment.<br><br>You will now begin a shorter second part, in which you will receive no feedback.<br>The same rules regarding bonus pay apply.<br><br>Press any key to begin.","response":" ","trial_type":"html-keyboard-response","trial_index":139,"time_elapsed":347221,"internal_node_id":"0.0-5.0","subject_id":"5e3c2706dbd7c6000ec882ae","study_id":"6197b3f67c2b5cd3b6d9596a","session_id":"619be78937991423789a94c6","condition":"contingent","relevant_dimensions":["pattern","legs"],"bee_group":{"antennae":"X","wings":"X","pattern":"D","legs":"M"},"bonus":1.040000000000001},{"rt":1996.1000000238419,"stimulus":"bees-with-color/bee-B2SM.svg","response":0,"trial_type":"image-button-response","trial_index":140,"time_elapsed":349242,"internal_node_id":"0.0-6.0-0.0","subject_id":"5e3c2706dbd7c6000ec882ae","study_id":"6197b3f67c2b5cd3b6d9596a","session_id":"619be78937991423789a94c6","condition":"contingent","relevant_dimensions":["pattern","legs"],"bee_group":{"antennae":"X","wings":"X","pattern":"D","legs":"M"},"bonus":1.040000000000001},{"rt":1044.800000011921,"stimulus":"bees-with-color/bee-B1SF.svg","response":0,"trial_type":"image-button-response","trial_index":141,"time_elapsed":350292,"internal_node_id":"0.0-6.0-0.1","subject_id":"5e3c2706dbd7c6000ec882ae","study_id":"6197b3f67c2b5cd3b6d9596a","session_id":"619be78937991423789a94c6","condition":"contingent","relevant_dimensions":["pattern","legs"],"bee_group":{"antennae":"X","wings":"X","pattern":"D","legs":"M"},"bonus":1.040000000000001},{"rt":881.6000000238419,"stimulus":"bees-with-color/bee-A2SF.svg","response":0,"trial_type":"image-button-response","trial_index":142,"time_elapsed":351176,"internal_node_id":"0.0-6.0-0.2","subject_id":"5e3c2706dbd7c6000ec882ae","study_id":"6197b3f67c2b5cd3b6d9596a","session_id":"619be78937991423789a94c6","condition":"contingent","relevant_dimensions":["pattern","legs"],"bee_group":{"antennae":"X","wings":"X","pattern":"D","legs":"M"},"bonus":1.040000000000001},{"rt":746.5,"stimulus":"bees-with-color/bee-A1SF.svg","response":0,"trial_type":"image-button-response","trial_index":143,"time_elapsed":351924,"internal_node_id":"0.0-6.0-0.3","subject_id":"5e3c2706dbd7c6000ec882ae","study_id":"6197b3f67c2b5cd3b6d9596a","session_id":"619be78937991423789a94c6","condition":"contingent","relevant_dimensions":["pattern","legs"],"bee_group":{"antennae":"X","wings":"X","pattern":"D","legs":"M"},"bonus":1.040000000000001},{"rt":723.6999999880791,"stimulus":"bees-with-color/bee-B2DF.svg","response":1,"trial_type":"image-button-response","trial_index":144,"time_elapsed":352652,"internal_node_id":"0.0-6.0-0.4","subject_id":"5e3c2706dbd7c6000ec882ae","study_id":"6197b3f67c2b5cd3b6d9596a","session_id":"619be78937991423789a94c6","condition":"contingent","relevant_dimensions":["pattern","legs"],"bee_group":{"antennae":"X","wings":"X","pattern":"D","legs":"M"},"bonus":1.040000000000001},{"rt":795.7999999523163,"stimulus":"bees-with-color/bee-A2DM.svg","response":1,"trial_type":"image-button-response","trial_index":145,"time_elapsed":353453,"internal_node_id":"0.0-6.0-0.5","subject_id":"5e3c2706dbd7c6000ec882ae","study_id":"6197b3f67c2b5cd3b6d9596a","session_id":"619be78937991423789a94c6","condition":"contingent","relevant_dimensions":["pattern","legs"],"bee_group":{"antennae":"X","wings":"X","pattern":"D","legs":"M"},"bonus":1.040000000000001},{"rt":816.8999999761581,"stimulus":"bees-with-color/bee-B1DF.svg","response":1,"trial_type":"image-button-response","trial_index":146,"time_elapsed":354275,"internal_node_id":"0.0-6.0-0.6","subject_id":"5e3c2706dbd7c6000ec882ae","study_id":"6197b3f67c2b5cd3b6d9596a","session_id":"619be78937991423789a94c6","condition":"contingent","relevant_dimensions":["pattern","legs"],"bee_group":{"antennae":"X","wings":"X","pattern":"D","legs":"M"},"bonus":1.040000000000001},{"rt":751.1999999880791,"stimulus":"bees-with-color/bee-B2DM.svg","response":1,"trial_type":"image-button-response","trial_index":147,"time_elapsed":355029,"internal_node_id":"0.0-6.0-0.7","subject_id":"5e3c2706dbd7c6000ec882ae","study_id":"6197b3f67c2b5cd3b6d9596a","session_id":"619be78937991423789a94c6","condition":"contingent","relevant_dimensions":["pattern","legs"],"bee_group":{"antennae":"X","wings":"X","pattern":"D","legs":"M"},"bonus":1.040000000000001},{"rt":968.6999999880791,"stimulus":"bees-with-color/bee-A1DF.svg","response":1,"trial_type":"image-button-response","trial_index":148,"time_elapsed":356002,"internal_node_id":"0.0-6.0-0.8","subject_id":"5e3c2706dbd7c6000ec882ae","study_id":"6197b3f67c2b5cd3b6d9596a","session_id":"619be78937991423789a94c6","condition":"contingent","relevant_dimensions":["pattern","legs"],"bee_group":{"antennae":"X","wings":"X","pattern":"D","legs":"M"},"bonus":1.040000000000001},{"rt":676.9000000357628,"stimulus":"bees-with-color/bee-A2DF.svg","response":1,"trial_type":"image-button-response","trial_index":149,"time_elapsed":356684,"internal_node_id":"0.0-6.0-0.9","subject_id":"5e3c2706dbd7c6000ec882ae","study_id":"6197b3f67c2b5cd3b6d9596a","session_id":"619be78937991423789a94c6","condition":"contingent","relevant_dimensions":["pattern","legs"],"bee_group":{"antennae":"X","wings":"X","pattern":"D","legs":"M"},"bonus":1.040000000000001},{"rt":620.8000000119209,"stimulus":"bees-with-color/bee-B1DM.svg","response":1,"trial_type":"image-button-response","trial_index":150,"time_elapsed":357309,"internal_node_id":"0.0-6.0-0.10","subject_id":"5e3c2706dbd7c6000ec882ae","study_id":"6197b3f67c2b5cd3b6d9596a","session_id":"619be78937991423789a94c6","condition":"contingent","relevant_dimensions":["pattern","legs"],"bee_group":{"antennae":"X","wings":"X","pattern":"D","legs":"M"},"bonus":1.040000000000001},{"rt":723.6999999880791,"stimulus":"bees-with-color/bee-B2SF.svg","response":0,"trial_type":"image-button-response","trial_index":151,"time_elapsed":358037,"internal_node_id":"0.0-6.0-0.11","subject_id":"5e3c2706dbd7c6000ec882ae","study_id":"6197b3f67c2b5cd3b6d9596a","session_id":"619be78937991423789a94c6","condition":"contingent","relevant_dimensions":["pattern","legs"],"bee_group":{"antennae":"X","wings":"X","pattern":"D","legs":"M"},"bonus":1.040000000000001},{"rt":690.6999999880791,"stimulus":"bees-with-color/bee-A2SM.svg","response":0,"trial_type":"image-button-response","trial_index":152,"time_elapsed":358733,"internal_node_id":"0.0-6.0-0.12","subject_id":"5e3c2706dbd7c6000ec882ae","study_id":"6197b3f67c2b5cd3b6d9596a","session_id":"619be78937991423789a94c6","condition":"contingent","relevant_dimensions":["pattern","legs"],"bee_group":{"antennae":"X","wings":"X","pattern":"D","legs":"M"},"bonus":1.040000000000001},{"rt":819.5,"stimulus":"bees-with-color/bee-A1DM.svg","response":1,"trial_type":"image-button-response","trial_index":153,"time_elapsed":359557,"internal_node_id":"0.0-6.0-0.13","subject_id":"5e3c2706dbd7c6000ec882ae","study_id":"6197b3f67c2b5cd3b6d9596a","session_id":"619be78937991423789a94c6","condition":"contingent","relevant_dimensions":["pattern","legs"],"bee_group":{"antennae":"X","wings":"X","pattern":"D","legs":"M"},"bonus":1.040000000000001},{"rt":782.8000000119209,"stimulus":"bees-with-color/bee-A1SM.svg","response":0,"trial_type":"image-button-response","trial_index":154,"time_elapsed":360345,"internal_node_id":"0.0-6.0-0.14","subject_id":"5e3c2706dbd7c6000ec882ae","study_id":"6197b3f67c2b5cd3b6d9596a","session_id":"619be78937991423789a94c6","condition":"contingent","relevant_dimensions":["pattern","legs"],"bee_group":{"antennae":"X","wings":"X","pattern":"D","legs":"M"},"bonus":1.040000000000001},{"rt":760.1999999880791,"stimulus":"bees-with-color/bee-B1SM.svg","response":0,"trial_type":"image-button-response","trial_index":155,"time_elapsed":361110,"internal_node_id":"0.0-6.0-0.15","subject_id":"5e3c2706dbd7c6000ec882ae","study_id":"6197b3f67c2b5cd3b6d9596a","session_id":"619be78937991423789a94c6","condition":"contingent","relevant_dimensions":["pattern","legs"],"bee_group":{"antennae":"X","wings":"X","pattern":"D","legs":"M"},"bonus":1.040000000000001},{"rt":563.9000000357628,"stimulus":"bees-with-color/bee-B1SF.svg","response":0,"trial_type":"image-button-response","trial_index":156,"time_elapsed":361676,"internal_node_id":"0.0-6.0-0.16","subject_id":"5e3c2706dbd7c6000ec882ae","study_id":"6197b3f67c2b5cd3b6d9596a","session_id":"619be78937991423789a94c6","condition":"contingent","relevant_dimensions":["pattern","legs"],"bee_group":{"antennae":"X","wings":"X","pattern":"D","legs":"M"},"bonus":1.040000000000001},{"rt":704.2000000476837,"stimulus":"bees-with-color/bee-A2DF.svg","response":1,"trial_type":"image-button-response","trial_index":157,"time_elapsed":362384,"internal_node_id":"0.0-6.0-0.17","subject_id":"5e3c2706dbd7c6000ec882ae","study_id":"6197b3f67c2b5cd3b6d9596a","session_id":"619be78937991423789a94c6","condition":"contingent","relevant_dimensions":["pattern","legs"],"bee_group":{"antennae":"X","wings":"X","pattern":"D","legs":"M"},"bonus":1.040000000000001},{"rt":901.1999999880791,"stimulus":"bees-with-color/bee-A1DF.svg","response":1,"trial_type":"image-button-response","trial_index":158,"time_elapsed":363290,"internal_node_id":"0.0-6.0-0.18","subject_id":"5e3c2706dbd7c6000ec882ae","study_id":"6197b3f67c2b5cd3b6d9596a","session_id":"619be78937991423789a94c6","condition":"contingent","relevant_dimensions":["pattern","legs"],"bee_group":{"antennae":"X","wings":"X","pattern":"D","legs":"M"},"bonus":1.040000000000001},{"rt":726.8000000119209,"stimulus":"bees-with-color/bee-B2DM.svg","response":1,"trial_type":"image-button-response","trial_index":159,"time_elapsed":364019,"internal_node_id":"0.0-6.0-0.19","subject_id":"5e3c2706dbd7c6000ec882ae","study_id":"6197b3f67c2b5cd3b6d9596a","session_id":"619be78937991423789a94c6","condition":"contingent","relevant_dimensions":["pattern","legs"],"bee_group":{"antennae":"X","wings":"X","pattern":"D","legs":"M"},"bonus":1.040000000000001},{"rt":750.6000000238419,"stimulus":"bees-with-color/bee-A1SF.svg","response":0,"trial_type":"image-button-response","trial_index":160,"time_elapsed":364774,"internal_node_id":"0.0-6.0-0.20","subject_id":"5e3c2706dbd7c6000ec882ae","study_id":"6197b3f67c2b5cd3b6d9596a","session_id":"619be78937991423789a94c6","condition":"contingent","relevant_dimensions":["pattern","legs"],"bee_group":{"antennae":"X","wings":"X","pattern":"D","legs":"M"},"bonus":1.040000000000001},{"rt":848.1000000238419,"stimulus":"bees-with-color/bee-B2DF.svg","response":1,"trial_type":"image-button-response","trial_index":161,"time_elapsed":365625,"internal_node_id":"0.0-6.0-0.21","subject_id":"5e3c2706dbd7c6000ec882ae","study_id":"6197b3f67c2b5cd3b6d9596a","session_id":"619be78937991423789a94c6","condition":"contingent","relevant_dimensions":["pattern","legs"],"bee_group":{"antennae":"X","wing