[{"success":true,"trial_type":"fullscreen","trial_index":0,"time_elapsed":2118,"internal_node_id":"0.0-0.0","subject_id":"5c573e54e9813700018acc31","study_id":"6197b3f67c2b5cd3b6d9596a","session_id":"619beeebe9a252b640379803","condition":"contingent","relevant_dimensions":["antennae","pattern"],"bee_group":{"antennae":"A","wings":"X","pattern":"S","legs":"X"},"bonus":0.04},{"success":true,"timeout":false,"failed_images":[],"failed_audio":[],"failed_video":[],"trial_type":"preload","trial_index":1,"time_elapsed":3610,"internal_node_id":"0.0-1.0","subject_id":"5c573e54e9813700018acc31","study_id":"6197b3f67c2b5cd3b6d9596a","session_id":"619beeebe9a252b640379803","condition":"contingent","relevant_dimensions":["antennae","pattern"],"bee_group":{"antennae":"A","wings":"X","pattern":"S","legs":"X"},"bonus":0.04},{"rt":2981.300000000745,"stimulus":"Welcome! Press any key to begin.","response":" ","trial_type":"html-keyboard-response","trial_index":2,"time_elapsed":6592,"internal_node_id":"0.0-2.0","subject_id":"5c573e54e9813700018acc31","study_id":"6197b3f67c2b5cd3b6d9596a","session_id":"619beeebe9a252b640379803","condition":"contingent","relevant_dimensions":["antennae","pattern"],"bee_group":{"antennae":"A","wings":"X","pattern":"S","legs":"X"},"bonus":0.04},{"view_history":[{"page_index":0,"viewing_time":11615.199999999255},{"page_index":1,"viewing_time":28238.10000000149},{"page_index":2,"viewing_time":15858.099999997765},{"page_index":3,"viewing_time":28242},{"page_index":4,"viewing_time":9897.400000002235},{"page_index":5,"viewing_time":10563.39999999851},{"page_index":6,"viewing_time":10673.5},{"page_index":7,"viewing_time":7201.10000000149},{"page_index":8,"viewing_time":7169},{"page_index":9,"viewing_time":5288.699999999255},{"page_index":10,"viewing_time":1926.3999999985099},{"page_index":11,"viewing_time":5624.699999999255},{"page_index":12,"viewing_time":11917.60000000149},{"page_index":13,"viewing_time":1092.199999999255},{"page_index":14,"viewing_time":3232.400000002235}],"rt":158540.3999999985,"trial_type":"instructions","trial_index":3,"time_elapsed":165133,"internal_node_id":"0.0-3.0-0.0","subject_id":"5c573e54e9813700018acc31","study_id":"6197b3f67c2b5cd3b6d9596a","session_id":"619beeebe9a252b640379803","condition":"contingent","relevant_dimensions":["antennae","pattern"],"bee_group":{"antennae":"A","wings":"X","pattern":"S","legs":"X"},"bonus":0.04},{"rt":37536.900000002235,"response":{"Q0":["Two or six legs","Stripes or spots on body","Single or double wings","Antennae or no antennae"]},"question_order":[0],"trial_type":"survey-multi-select","trial_index":4,"time_elapsed":202673,"internal_node_id":"0.0-3.0-1.0","subject_id":"5c573e54e9813700018acc31","study_id":"6197b3f67c2b5cd3b6d9596a","session_id":"619beeebe9a252b640379803","condition":"contingent","relevant_dimensions":["antennae","pattern"],"bee_group":{"antennae":"A","wings":"X","pattern":"S","legs":"X"},"correct":true,"bonus":0.04},{"rt":17880.79999999702,"response":{"Q1":"No.","Q2":"Based on the four features of the bee.","Q3":"You do not learn if it was friendly or dangerous, and do not alter your bonus."},"question_order":[0,1,2],"trial_type":"survey-multi-choice","trial_index":5,"time_elapsed":220555,"internal_node_id":"0.0-3.0-2.0","subject_id":"5c573e54e9813700018acc31","study_id":"6197b3f67c2b5cd3b6d9596a","session_id":"619beeebe9a252b640379803","condition":"contingent","relevant_dimensions":["antennae","pattern"],"bee_group":{"antennae":"A","wings":"X","pattern":"S","legs":"X"},"correct":true,"bonus":0.04},{"rt":1286.800000000745,"stimulus":"<p>Congrats, you got everything right<br>When you're ready, click the button below to continue to the experiment.</p>","response":0,"trial_type":"html-button-response","trial_index":6,"time_elapsed":221843,"internal_node_id":"0.0-3.0-3.0","subject_id":"5c573e54e9813700018acc31","study_id":"6197b3f67c2b5cd3b6d9596a","session_id":"619beeebe9a252b640379803","condition":"contingent","relevant_dimensions":["antennae","pattern"],"bee_group":{"antennae":"A","wings":"X","pattern":"S","legs":"X"},"bonus":0.04},{"rt":5521.300000000745,"stimulus":"bees-with-color/bee-A2SM.svg","response":0,"trial_type":"image-button-response","trial_index":7,"time_elapsed":227366,"internal_node_id":"0.0-4.0-0.0","subject_id":"5c573e54e9813700018acc31","study_id":"6197b3f67c2b5cd3b6d9596a","session_id":"619beeebe9a252b640379803","condition":"contingent","relevant_dimensions":["antennae","pattern"],"bee_group":{"antennae":"A","wings":"X","pattern":"S","legs":"X"},"action":"harvest","summary":"bad-harvest","bonus":0.04},{"rt":10903.70000000298,"stimulus":"\n                    <p><b>Action: <em>harvest</em></b></p>\n                    <p>This is the bee that you just saw.</p>\n                    <img src=\"bees-with-color/bee-A2SM.svg\" width=\"200\">\n                    <p><span class=\"redText\">Bad choice, the bee was angry.</span><br><b>You have been stung!</b><br>Your pay has been decreased by $0.10. Your bonus pay is now $0.44.</p>\n            ","response":0,"trial_type":"html-button-response","trial_index":8,"time_elapsed":238271,"internal_node_id":"0.0-4.0-1.0","subject_id":"5c573e54e9813700018acc31","study_id":"6197b3f67c2b5cd3b6d9596a","session_id":"619beeebe9a252b640379803","condition":"contingent","relevant_dimensions":["antennae","pattern"],"bee_group":{"antennae":"A","wings":"X","pattern":"S","legs":"X"},"bonus":0.04},{"rt":4535.099999997765,"stimulus":"bees-with-color/bee-A1DF.svg","response":0,"trial_type":"image-button-response","trial_index":9,"time_elapsed":242808,"internal_node_id":"0.0-4.0-0.1","subject_id":"5c573e54e9813700018acc31","study_id":"6197b3f67c2b5cd3b6d9596a","session_id":"619beeebe9a252b640379803","condition":"contingent","relevant_dimensions":["antennae","pattern"],"bee_group":{"antennae":"A","wings":"X","pattern":"S","legs":"X"},"action":"harvest","summary":"good-harvest","bonus":0.04},{"rt":11390.300000000745,"stimulus":"\n                    <p><b>Action: <em>harvest</em></b></p>\n                    <p>This is the bee that you just saw.</p>\n                    <img src=\"bees-with-color/bee-A1DF.svg\" width=\"200\">\n                    <p><span class=\"greenText\"><b>Successful harvest!</b></span><br>Your pay has increased by $0.02. Your bonus pay is now $0.46.</p>\n            ","response":0,"trial_type":"html-button-response","trial_index":10,"time_elapsed":254199,"internal_node_id":"0.0-4.0-1.1","subject_id":"5c573e54e9813700018acc31","study_id":"6197b3f67c2b5cd3b6d9596a","session_id":"619beeebe9a252b640379803","condition":"contingent","relevant_dimensions":["antennae","pattern"],"bee_group":{"antennae":"A","wings":"X","pattern":"S","legs":"X"},"bonus":0.04},{"rt":4163.10000000149,"stimulus":"bees-with-color/bee-A2DF.svg","response":1,"trial_type":"image-button-response","trial_index":11,"time_elapsed":258364,"internal_node_id":"0.0-4.0-0.2","subject_id":"5c573e54e9813700018acc31","study_id":"6197b3f67c2b5cd3b6d9596a","session_id":"619beeebe9a252b640379803","condition":"contingent","relevant_dimensions":["antennae","pattern"],"bee_group":{"antennae":"A","wings":"X","pattern":"S","legs":"X"},"action":"avoid","summary":"bad-avoid","bonus":0.04},{"rt":4101.39999999851,"stimulus":"\n                    <p><b>Action: <em>avoid</em></b></p>\n                    <p>This is the bee that you just saw.</p>\n                    <img src=\"bees-with-color/bee-A2DF.svg\" width=\"200\">\n                    <p><br>Your bonus pay is unchanged, and remains at $0.46.</p>\n            ","response":0,"trial_type":"html-button-response","trial_index":12,"time_elapsed":262466,"internal_node_id":"0.0-4.0-1.2","subject_id":"5c573e54e9813700018acc31","study_id":"6197b3f67c2b5cd3b6d9596a","session_id":"619beeebe9a252b640379803","condition":"contingent","relevant_dimensions":["antennae","pattern"],"bee_group":{"antennae":"A","wings":"X","pattern":"S","legs":"X"},"bonus":0.04},{"rt":1458.8999999985099,"stimulus":"bees-with-color/bee-A1SF.svg","response":0,"trial_type":"image-button-response","trial_index":13,"time_elapsed":263926,"internal_node_id":"0.0-4.0-0.3","subject_id":"5c573e54e9813700018acc31","study_id":"6197b3f67c2b5cd3b6d9596a","session_id":"619beeebe9a252b640379803","condition":"contingent","relevant_dimensions":["antennae","pattern"],"bee_group":{"antennae":"A","wings":"X","pattern":"S","legs":"X"},"action":"harvest","summary":"bad-harvest","bonus":0.04},{"rt":2171.39999999851,"stimulus":"\n                    <p><b>Action: <em>harvest</em></b></p>\n                    <p>This is the bee that you just saw.</p>\n                    <img src=\"bees-with-color/bee-A1SF.svg\" width=\"200\">\n                    <p><span class=\"redText\">Bad choice, the bee was angry.</span><br><b>You have been stung!</b><br>Your pay has been decreased by $0.10. Your bonus pay is now $0.36.</p>\n            ","response":0,"trial_type":"html-button-response","trial_index":14,"time_elapsed":266099,"internal_node_id":"0.0-4.0-1.3","subject_id":"5c573e54e9813700018acc31","study_id":"6197b3f67c2b5cd3b6d9596a","session_id":"619beeebe9a252b640379803","condition":"contingent","relevant_dimensions":["antennae","pattern"],"bee_group":{"antennae":"A","wings":"X","pattern":"S","legs":"X"},"bonus":0.04},{"rt":2893.5,"stimulus":"bees-with-color/bee-B1DF.svg","response":0,"trial_type":"image-button-response","trial_index":15,"time_elapsed":268993,"internal_node_id":"0.0-4.0-0.4","subject_id":"5c573e54e9813700018acc31","study_id":"6197b3f67c2b5cd3b6d9596a","session_id":"619beeebe9a252b640379803","condition":"contingent","relevant_dimensions":["antennae","pattern"],"bee_group":{"antennae":"A","wings":"X","pattern":"S","legs":"X"},"action":"harvest","summary":"good-harvest","bonus":0.04},{"rt":1406.800000000745,"stimulus":"\n                    <p><b>Action: <em>harvest</em></b></p>\n                    <p>This is the bee that you just saw.</p>\n                    <img src=\"bees-with-color/bee-B1DF.svg\" width=\"200\">\n                    <p><span class=\"greenText\"><b>Successful harvest!</b></span><br>Your pay has increased by $0.02. Your bonus pay is now $0.38.</p>\n            ","response":0,"trial_type":"html-button-response","trial_index":16,"time_elapsed":270401,"internal_node_id":"0.0-4.0-1.4","subject_id":"5c573e54e9813700018acc31","study_id":"6197b3f67c2b5cd3b6d9596a","session_id":"619beeebe9a252b640379803","condition":"contingent","relevant_dimensions":["antennae","pattern"],"bee_group":{"antennae":"A","wings":"X","pattern":"S","legs":"X"},"bonus":0.04},{"rt":3723.300000000745,"stimulus":"bees-with-color/bee-B1SM.svg","response":0,"trial_type":"image-button-response","trial_index":17,"time_elapsed":274126,"internal_node_id":"0.0-4.0-0.5","subject_id":"5c573e54e9813700018acc31","study_id":"6197b3f67c2b5cd3b6d9596a","session_id":"619beeebe9a252b640379803","condition":"contingent","relevant_dimensions":["antennae","pattern"],"bee_group":{"antennae":"A","wings":"X","pattern":"S","legs":"X"},"action":"harvest","summary":"good-harvest","bonus":0.04},{"rt":1154.8999999985099,"stimulus":"\n                    <p><b>Action: <em>harvest</em></b></p>\n                    <p>This is the bee that you just saw.</p>\n                    <img src=\"bees-with-color/bee-B1SM.svg\" width=\"200\">\n                    <p><span class=\"greenText\"><b>Successful harvest!</b></span><br>Your pay has increased by $0.02. Your bonus pay is now $0.40.</p>\n            ","response":0,"trial_type":"html-button-response","trial_index":18,"time_elapsed":275282,"internal_node_id":"0.0-4.0-1.5","subject_id":"5c573e54e9813700018acc31","study_id":"6197b3f67c2b5cd3b6d9596a","session_id":"619beeebe9a252b640379803","condition":"contingent","relevant_dimensions":["antennae","pattern"],"bee_group":{"antennae":"A","wings":"X","pattern":"S","legs":"X"},"bonus":0.04},{"rt":1218.699999999255,"stimulus":"bees-with-color/bee-B2SF.svg","response":1,"trial_type":"image-button-response","trial_index":19,"time_elapsed":276502,"internal_node_id":"0.0-4.0-0.6","subject_id":"5c573e54e9813700018acc31","study_id":"6197b3f67c2b5cd3b6d9596a","session_id":"619beeebe9a252b640379803","condition":"contingent","relevant_dimensions":["antennae","pattern"],"bee_group":{"antennae":"A","wings":"X","pattern":"S","legs":"X"},"action":"avoid","summary":"bad-avoid","bonus":0.04},{"rt":913.3000000007451,"stimulus":"\n                    <p><b>Action: <em>avoid</em></b></p>\n                    <p>This is the bee that you just saw.</p>\n                    <img src=\"bees-with-color/bee-B2SF.svg\" width=\"200\">\n                    <p><br>Your bonus pay is unchanged, and remains at $0.40.</p>\n            ","response":0,"trial_type":"html-button-response","trial_index":20,"time_elapsed":277417,"internal_node_id":"0.0-4.0-1.6","subject_id":"5c573e54e9813700018acc31","study_id":"6197b3f67c2b5cd3b6d9596a","session_id":"619beeebe9a252b640379803","condition":"contingent","relevant_dimensions":["antennae","pattern"],"bee_group":{"antennae":"A","wings":"X","pattern":"S","legs":"X"},"bonus":0.04},{"rt":2275.199999999255,"stimulus":"bees-with-color/bee-B2DM.svg","response":1,"trial_type":"image-button-response","trial_index":21,"time_elapsed":279693,"internal_node_id":"0.0-4.0-0.7","subject_id":"5c573e54e9813700018acc31","study_id":"6197b3f67c2b5cd3b6d9596a","session_id":"619beeebe9a252b640379803","condition":"contingent","relevant_dimensions":["antennae","pattern"],"bee_group":{"antennae":"A","wings":"X","pattern":"S","legs":"X"},"action":"avoid","summary":"bad-avoid","bonus":0.04},{"rt":859.5999999977648,"stimulus":"\n                    <p><b>Action: <em>avoid</em></b></p>\n                    <p>This is the bee that you just saw.</p>\n                    <img src=\"bees-with-color/bee-B2DM.svg\" width=\"200\">\n                    <p><br>Your bonus pay is unchanged, and remains at $0.40.</p>\n            ","response":0,"trial_type":"html-button-response","trial_index":22,"time_elapsed":280553,"internal_node_id":"0.0-4.0-1.7","subject_id":"5c573e54e9813700018acc31","study_id":"6197b3f67c2b5cd3b6d9596a","session_id":"619beeebe9a252b640379803","condition":"contingent","relevant_dimensions":["antennae","pattern"],"bee_group":{"antennae":"A","wings":"X","pattern":"S","legs":"X"},"bonus":0.04},{"rt":1358.5,"stimulus":"bees-with-color/bee-B1DM.svg","response":0,"trial_type":"image-button-response","trial_index":23,"time_elapsed":281913,"internal_node_id":"0.0-4.0-0.8","subject_id":"5c573e54e9813700018acc31","study_id":"6197b3f67c2b5cd3b6d9596a","session_id":"619beeebe9a252b640379803","condition":"contingent","relevant_dimensions":["antennae","pattern"],"bee_group":{"antennae":"A","wings":"X","pattern":"S","legs":"X"},"action":"harvest","summary":"good-harvest","bonus":0.04},{"rt":892.7000000029802,"stimulus":"\n                    <p><b>Action: <em>harvest</em></b></p>\n                    <p>This is the bee that you just saw.</p>\n                    <img src=\"bees-with-color/bee-B1DM.svg\" width=\"200\">\n                    <p><span class=\"greenText\"><b>Successful harvest!</b></span><br>Your pay has increased by $0.02. Your bonus pay is now $0.42.</p>\n            ","response":0,"trial_type":"html-button-response","trial_index":24,"time_elapsed":282807,"internal_node_id":"0.0-4.0-1.8","subject_id":"5c573e54e9813700018acc31","study_id":"6197b3f67c2b5cd3b6d9596a","session_id":"619beeebe9a252b640379803","condition":"contingent","relevant_dimensions":["antennae","pattern"],"bee_group":{"antennae":"A","wings":"X","pattern":"S","legs":"X"},"bonus":0.04},{"rt":1329.5,"stimulus":"bees-with-color/bee-A1SM.svg","response":0,"trial_type":"image-button-response","trial_index":25,"time_elapsed":284137,"internal_node_id":"0.0-4.0-0.9","subject_id":"5c573e54e9813700018acc31","study_id":"6197b3f67c2b5cd3b6d9596a","session_id":"619beeebe9a252b640379803","condition":"contingent","relevant_dimensions":["antennae","pattern"],"bee_group":{"antennae":"A","wings":"X","pattern":"S","legs":"X"},"action":"harvest","summary":"bad-harvest","bonus":0.04},{"rt":1779.300000000745,"stimulus":"\n                    <p><b>Action: <em>harvest</em></b></p>\n                    <p>This is the bee that you just saw.</p>\n                    <img src=\"bees-with-color/bee-A1SM.svg\" width=\"200\">\n                    <p><span class=\"redText\">Bad choice, the bee was angry.</span><br><b>You have been stung!</b><br>Your pay has been decreased by $0.10. Your bonus pay is now $0.32.</p>\n            ","response":0,"trial_type":"html-button-response","trial_index":26,"time_elapsed":285918,"internal_node_id":"0.0-4.0-1.9","subject_id":"5c573e54e9813700018acc31","study_id":"6197b3f67c2b5cd3b6d9596a","session_id":"619beeebe9a252b640379803","condition":"contingent","relevant_dimensions":["antennae","pattern"],"bee_group":{"antennae":"A","wings":"X","pattern":"S","legs":"X"},"bonus":0.04},{"rt":3623.5,"stimulus":"bees-with-color/bee-B2SM.svg","response":1,"trial_type":"image-button-response","trial_index":27,"time_elapsed":289542,"internal_node_id":"0.0-4.0-0.10","subject_id":"5c573e54e9813700018acc31","study_id":"6197b3f67c2b5cd3b6d9596a","session_id":"619beeebe9a252b640379803","condition":"contingent","relevant_dimensions":["antennae","pattern"],"bee_group":{"antennae":"A","wings":"X","pattern":"S","legs":"X"},"action":"avoid","summary":"bad-avoid","bonus":0.04},{"rt":877.3999999985099,"stimulus":"\n                    <p><b>Action: <em>avoid</em></b></p>\n                    <p>This is the bee that you just saw.</p>\n                    <img src=\"bees-with-color/bee-B2SM.svg\" width=\"200\">\n                    <p><br>Your bonus pay is unchanged, and remains at $0.32.</p>\n            ","response":0,"trial_type":"html-button-response","trial_index":28,"time_elapsed":290420,"internal_node_id":"0.0-4.0-1.10","subject_id":"5c573e54e9813700018acc31","study_id":"6197b3f67c2b5cd3b6d9596a","session_id":"619beeebe9a252b640379803","condition":"contingent","relevant_dimensions":["antennae","pattern"],"bee_group":{"antennae":"A","wings":"X","pattern":"S","legs":"X"},"bonus":0.04},{"rt":2353.099999997765,"stimulus":"bees-with-color/bee-A1DM.svg","response":0,"trial_type":"image-button-response","trial_index":29,"time_elapsed":292775,"internal_node_id":"0.0-4.0-0.11","subject_id":"5c573e54e9813700018acc31","study_id":"6197b3f67c2b5cd3b6d9596a","session_id":"619beeebe9a252b640379803","condition":"contingent","relevant_dimensions":["antennae","pattern"],"bee_group":{"antennae":"A","wings":"X","pattern":"S","legs":"X"},"action":"harvest","summary":"good-harvest","bonus":0.04},{"rt":1077.199999999255,"stimulus":"\n                    <p><b>Action: <em>harvest</em></b></p>\n                    <p>This is the bee that you just saw.</p>\n                    <img src=\"bees-with-color/bee-A1DM.svg\" width=\"200\">\n                    <p><span class=\"greenText\"><b>Successful harvest!</b></span><br>Your pay has increased by $0.02. Your bonus pay is now $0.34.</p>\n            ","response":0,"trial_type":"html-button-response","trial_index":30,"time_elapsed":293853,"internal_node_id":"0.0-4.0-1.11","subject_id":"5c573e54e9813700018acc31","study_id":"6197b3f67c2b5cd3b6d9596a","session_id":"619beeebe9a252b640379803","condition":"contingent","relevant_dimensions":["antennae","pattern"],"bee_group":{"antennae":"A","wings":"X","pattern":"S","legs":"X"},"bonus":0.04},{"rt":1654.7999999970198,"stimulus":"bees-with-color/bee-A2SF.svg","response":1,"trial_type":"image-button-response","trial_index":31,"time_elapsed":295509,"internal_node_id":"0.0-4.0-0.12","subject_id":"5c573e54e9813700018acc31","study_id":"6197b3f67c2b5cd3b6d9596a","session_id":"619beeebe9a252b640379803","condition":"contingent","relevant_dimensions":["antennae","pattern"],"bee_group":{"antennae":"A","wings":"X","pattern":"S","legs":"X"},"action":"avoid","summary":"good-avoid","bonus":0.04},{"rt":885.1000000014901,"stimulus":"\n                    <p><b>Action: <em>avoid</em></b></p>\n                    <p>This is the bee that you just saw.</p>\n                    <img src=\"bees-with-color/bee-A2SF.svg\" width=\"200\">\n                    <p><br>Your bonus pay is unchanged, and remains at $0.34.</p>\n            ","response":0,"trial_type":"html-button-response","trial_index":32,"time_elapsed":296395,"internal_node_id":"0.0-4.0-1.12","subject_id":"5c573e54e9813700018acc31","study_id":"6197b3f67c2b5cd3b6d9596a","session_id":"619beeebe9a252b640379803","condition":"contingent","relevant_dimensions":["antennae","pattern"],"bee_group":{"antennae":"A","wings":"X","pattern":"S","legs":"X"},"bonus":0.04},{"rt":2113.599999997765,"stimulus":"bees-with-color/bee-A2DM.svg","response":1,"trial_type":"image-button-response","trial_index":33,"time_elapsed":298510,"internal_node_id":"0.0-4.0-0.13","subject_id":"5c573e54e9813700018acc31","study_id":"6197b3f67c2b5cd3b6d9596a","session_id":"619beeebe9a252b640379803","condition":"contingent","relevant_dimensions":["antennae","pattern"],"bee_group":{"antennae":"A","wings":"X","pattern":"S","legs":"X"},"action":"avoid","summary":"bad-avoid","bonus":0.04},{"rt":855.3000000007451,"stimulus":"\n                    <p><b>Action: <em>avoid</em></b></p>\n                    <p>This is the bee that you just saw.</p>\n                    <img src=\"bees-with-color/bee-A2DM.svg\" width=\"200\">\n                    <p><br>Your bonus pay is unchanged, and remains at $0.34.</p>\n            ","response":0,"trial_type":"html-button-response","trial_index":34,"time_elapsed":299366,"internal_node_id":"0.0-4.0-1.13","subject_id":"5c573e54e9813700018acc31","study_id":"6197b3f67c2b5cd3b6d9596a","session_id":"619beeebe9a252b640379803","condition":"contingent","relevant_dimensions":["antennae","pattern"],"bee_group":{"antennae":"A","wings":"X","pattern":"S","legs":"X"},"bonus":0.04},{"rt":1915.199999999255,"stimulus":"bees-with-color/bee-B1SF.svg","response":0,"trial_type":"image-button-response","trial_index":35,"time_elapsed":301282,"internal_node_id":"0.0-4.0-0.14","subject_id":"5c573e54e9813700018acc31","study_id":"6197b3f67c2b5cd3b6d9596a","session_id":"619beeebe9a252b640379803","condition":"contingent","relevant_dimensions":["antennae","pattern"],"bee_group":{"antennae":"A","wings":"X","pattern":"S","legs":"X"},"action":"harvest","summary":"good-harvest","bonus":0.04},{"rt":857.1000000014901,"stimulus":"\n                    <p><b>Action: <em>harvest</em></b></p>\n                    <p>This is the bee that you just saw.</p>\n                    <img src=\"bees-with-color/bee-B1SF.svg\" width=\"200\">\n                    <p><span class=\"greenText\"><b>Successful harvest!</b></span><br>Your pay has increased by $0.02. Your bonus pay is now $0.36.</p>\n            ","response":0,"trial_type":"html-button-response","trial_index":36,"time_elapsed":302140,"internal_node_id":"0.0-4.0-1.14","subject_id":"5c573e54e9813700018acc31","study_id":"6197b3f67c2b5cd3b6d9596a","session_id":"619beeebe9a252b640379803","condition":"contingent","relevant_dimensions":["antennae","pattern"],"bee_group":{"antennae":"A","wings":"X","pattern":"S","legs":"X"},"bonus":0.04},{"rt":3621.599999997765,"stimulus":"bees-with-color/bee-B2DF.svg","response":0,"trial_type":"image-button-response","trial_index":37,"time_elapsed":305763,"internal_node_id":"0.0-4.0-0.15","subject_id":"5c573e54e9813700018acc31","study_id":"6197b3f67c2b5cd3b6d9596a","session_id":"619beeebe9a252b640379803","condition":"contingent","relevant_dimensions":["antennae","pattern"],"bee_group":{"antennae":"A","wings":"X","pattern":"S","legs":"X"},"action":"harvest","summary":"good-harvest","bonus":0.04},{"rt":837.3999999985099,"stimulus":"\n                    <p><b>Action: <em>harvest</em></b></p>\n                    <p>This is the bee that you just saw.</p>\n                    <img src=\"bees-with-color/bee-B2DF.svg\" width=\"200\">\n                    <p><span class=\"greenText\"><b>Successful harvest!</b></span><br>Your pay has increased by $0.02. Your bonus pay is now $0.38.</p>\n            ","response":0,"trial_type":"html-button-response","trial_index":38,"time_elapsed":306601,"internal_node_id":"0.0-4.0-1.15","subject_id":"5c573e54e9813700018acc31","study_id":"6197b3f67c2b5cd3b6d9596a","session_id":"619beeebe9a252b640379803","condition":"contingent","relevant_dimensions":["antennae","pattern"],"bee_group":{"antennae":"A","wings":"X","pattern":"S","legs":"X"},"bonus":0.04},{"rt":1966.8999999985099,"stimulus":"bees-with-color/bee-B2DF.svg","response":0,"trial_type":"image-button-response","trial_index":39,"time_elapsed":308569,"internal_node_id":"0.0-4.0-0.16","subject_id":"5c573e54e9813700018acc31","study_id":"6197b3f67c2b5cd3b6d9596a","session_id":"619beeebe9a252b640379803","condition":"contingent","relevant_dimensions":["antennae","pattern"],"bee_group":{"antennae":"A","wings":"X","pattern":"S","legs":"X"},"action":"harvest","summary":"good-harvest","bonus":0.04},{"rt":995.3000000007451,"stimulus":"\n                    <p><b>Action: <em>harvest</em></b></p>\n                    <p>This is the bee that you just saw.</p>\n                    <img src=\"bees-with-color/bee-B2DF.svg\" width=\"200\">\n                    <p><span class=\"greenText\"><b>Successful harvest!</b></span><br>Your pay has increased by $0.02. Your bonus pay is now $0.40.</p>\n            ","response":0,"trial_type":"html-button-response","trial_index":40,"time_elapsed":309566,"internal_node_id":"0.0-4.0-1.16","subject_id":"5c573e54e9813700018acc31","study_id":"6197b3f67c2b5cd3b6d9596a","session_id":"619beeebe9a252b640379803","condition":"contingent","relevant_dimensions":["antennae","pattern"],"bee_group":{"antennae":"A","wings":"X","pattern":"S","legs":"X"},"bonus":0.04},{"rt":1589.300000000745,"stimulus":"bees-with-color/bee-A2DF.svg","response":0,"trial_type":"image-button-response","trial_index":41,"time_elapsed":311156,"internal_node_id":"0.0-4.0-0.17","subject_id":"5c573e54e9813700018acc31","study_id":"6197b3f67c2b5cd3b6d9596a","session_id":"619beeebe9a252b640379803","condition":"contingent","relevant_dimensions":["antennae","pattern"],"bee_group":{"antennae":"A","wings":"X","pattern":"S","legs":"X"},"action":"harvest","summary":"good-harvest","bonus":0.04},{"rt":3275.400000002235,"stimulus":"\n                    <p><b>Action: <em>harvest</em></b></p>\n                    <p>This is the bee that you just saw.</p>\n                    <img src=\"bees-with-color/bee-A2DF.svg\" width=\"200\">\n                    <p><span class=\"greenText\"><b>Successful harvest!</b></span><br>Your pay has increased by $0.02. Your bonus pay is now $0.42.</p>\n            ","response":0,"trial_type":"html-button-response","trial_index":42,"time_elapsed":314432,"internal_node_id":"0.0-4.0-1.17","subject_id":"5c573e54e9813700018acc31","study_id":"6197b3f67c2b5cd3b6d9596a","session_id":"619beeebe9a252b640379803","condition":"contingent","relevant_dimensions":["antennae","pattern"],"bee_group":{"antennae":"A","wings":"X","pattern":"S","legs":"X"},"bonus":0.04},{"rt":1837.300000000745,"stimulus":"bees-with-color/bee-A1DF.svg","response":0,"trial_type":"image-button-response","trial_index":43,"time_elapsed":316271,"internal_node_id":"0.0-4.0-0.18","subject_id":"5c573e54e9813700018acc31","study_id":"6197b3f67c2b5cd3b6d9596a","session_id":"619beeebe9a252b640379803","condition":"contingent","relevant_dimensions":["antennae","pattern"],"bee_group":{"antennae":"A","wings":"X","pattern":"S","legs":"X"},"action":"harvest","summary":"good-harvest","bonus":0.04},{"rt":816.9000000022352,"stimulus":"\n                    <p><b>Action: <em>harvest</em></b></p>\n                    <p>This is the bee that you just saw.</p>\n                    <img src=\"bees-with-color/bee-A1DF.svg\" width=\"200\">\n                    <p><span class=\"greenText\"><b>Successful harvest!</b></span><br>Your pay has increased by $0.02. Your bonus pay is now $0.44.</p>\n            ","response":0,"trial_type":"html-button-response","trial_index":44,"time_elapsed":317089,"internal_node_id":"0.0-4.0-1.18","subject_id":"5c573e54e9813700018acc31","study_id":"6197b3f67c2b5cd3b6d9596a","session_id":"619beeebe9a252b640379803","condition":"contingent","relevant_dimensions":["antennae","pattern"],"bee_group":{"antennae":"A","wings":"X","pattern":"S","legs":"X"},"bonus":0.04},{"rt":2009.699999999255,"stimulus":"bees-with-color/bee-B1DF.svg","response":0,"trial_type":"image-button-response","trial_index":45,"time_elapsed":319099,"internal_node_id":"0.0-4.0-0.19","subject_id":"5c573e54e9813700018acc31","study_id":"6197b3f67c2b5cd3b6d9596a","session_id":"619beeebe9a252b640379803","condition":"contingent","relevant_dimensions":["antennae","pattern"],"bee_group":{"antennae":"A","wings":"X","pattern":"S","legs":"X"},"action":"harvest","summary":"good-harvest","bonus":0.04},{"rt":670.8999999985099,"stimulus":"\n                    <p><b>Action: <em>harvest</em></b></p>\n                    <p>This is the bee that you just saw.</p>\n                    <img src=\"bees-with-color/bee-B1DF.svg\" width=\"200\">\n                    <p><span class=\"greenText\"><b>Successful harvest!</b></span><br>Your pay has increased by $0.02. Your bonus pay is now $0.46.</p>\n            ","response":0,"trial_type":"html-button-response","trial_index":46,"time_elapsed":319771,"internal_node_id":"0.0-4.0-1.19","subject_id":"5c573e54e9813700018acc31","study_id":"6197b3f67c2b5cd3b6d9596a","session_id":"619beeebe9a252b640379803","condition":"contingent","relevant_dimensions":["antennae","pattern"],"bee_group":{"antennae":"A","wings":"X","pattern":"S","legs":"X"},"bonus":0.04},{"rt":1088.9000000022352,"stimulus":"bees-with-color/bee-A1DM.svg","response":1,"trial_type":"image-button-response","trial_index":47,"time_elapsed":320861,"internal_node_id":"0.0-4.0-0.20","subject_id":"5c573e54e9813700018acc31","study_id":"6197b3f67c2b5cd3b6d9596a","session_id":"619beeebe9a252b640379803","condition":"contingent","relevant_dimensions":["antennae","pattern"],"bee_group":{"antennae":"A","wings":"X","pattern":"S","legs":"X"},"action":"avoid","summary":"bad-avoid","bonus":0.04},{"rt":1289.199999999255,"stimulus":"\n                    <p><b>Action: <em>avoid</em></b></p>\n                    <p>This is the bee that you just saw.</p>\n                    <img src=\"bees-with-color/bee-A1DM.svg\" width=\"200\">\n                    <p><br>Your bonus pay is unchanged, and remains at $0.46.</p>\n            ","response":0,"trial_type":"html-button-response","trial_index":48,"time_elapsed":322151,"internal_node_id":"0.0-4.0-1.20","subject_id":"5c573e54e9813700018acc31","study_id":"6197b3f67c2b5cd3b6d9596a","session_id":"619beeebe9a252b640379803","condition":"contingent","relevant_dimensions":["antennae","pattern"],"bee_group":{"antennae":"A","wings":"X","pattern":"S","legs":"X"},"bonus":0.04},{"rt":2409.400000002235,"stimulus":"bees-with-color/bee-A1SM.svg","response":0,"trial_type":"image-button-response","trial_index":49,"time_elapsed":324562,"internal_node_id":"0.0-4.0-0.21","subject_id":"5c573e54e9813700018acc31","study_id":"6197b3f67c2b5cd3b6d9596a","session_id":"619beeebe9a252b640379803","condition":"contingent","relevant_dimensions":["antennae","pattern"],"bee_group":{"antennae":"A","wings":"X","pattern":"S","legs":"X"},"action":"harvest","summary":"bad-harvest","bonus":0.04},{"rt":1243.1000000014901,"stimulus":"\n                    <p><b>Action: <em>harvest</em></b></p>\n                    <p>This is the bee that you just saw.</p>\n                    <img src=\"bees-with-color/bee-A1SM.svg\" width=\"200\">\n                    <p><span class=\"redText\">Bad choice, the bee was angry.</span><br><b>You have been stung!</b><br>Your pay has been decreased by $0.10. Your bonus pay is now $0.36.</p>\n            ","response":0,"trial_type":"html-button-response","trial_index":50,"time_elapsed":325806,"internal_node_id":"0.0-4.0-1.21","subject_id":"5c573e54e9813700018acc31","study_id":"6197b3f67c2b5cd3b6d9596a","session_id":"619beeebe9a252b640379803","condition":"contingent","relevant_dimensions":["antennae","pattern"],"bee_group":{"antennae":"A","wings":"X","pattern":"S","legs":"X"},"bonus":0.04},{"rt":1699.199999999255,"stimulus":"bees-with-color/bee-A2SF.svg","response":1,"trial_type":"image-button-response","trial_index":51,"time_elapsed":327506,"internal_node_id":"0.0-4.0-0.22","subject_id":"5c573e54e9813700018acc31","study_id":"6197b3f67c2b5cd3b6d9596a","session_id":"619beeebe9a252b640379803","condition":"contingent","relevant_dimensions":["antennae","pattern"],"bee_group":{"antennae":"A","wings":"X","pattern":"S","legs":"X"},"action":"avoid","summary":"good-avoid","bonus":0.04},{"rt":1039.0999999977648,"stimulus":"\n                    <p><b>Action: <em>avoid</em></b></p>\n                    <p>This is the bee that you just saw.</p>\n                    <img src=\"bees-with-color/bee-A2SF.svg\" width=\"200\">\n                    <p><br>Your bonus pay is unchanged, and remains at $0.36.</p>\n            ","response":0,"trial_type":"html-button-response","trial_index":52,"time_elapsed":328546,"internal_node_id":"0.0-4.0-1.22","subject_id":"5c573e54e9813700018acc31","study_id":"6197b3f67c2b5cd3b6d9596a","session_id":"619beeebe9a252b640379803","condition":"contingent","relevant_dimensions":["antennae","pattern"],"bee_group":{"antennae":"A","wings":"X","pattern":"S","legs":"X"},"bonus":0.04},{"rt":6396.099999997765,"stimulus":"bees-with-color/bee-B2SM.svg","response":1,"trial_type":"image-button-response","trial_index":53,"time_elapsed":334943,"internal_node_id":"0.0-4.0-0.23","subject_id":"5c573e54e9813700018acc31","study_id":"6197b3f67c2b5cd3b6d9596a","session_id":"619beeebe9a252b640379803","condition":"contingent","relevant_dimensions":["antennae","pattern"],"bee_group":{"antennae":"A","wings":"X","pattern":"S","legs":"X"},"action":"avoid","summary":"bad-avoid","bonus":0.04},{"rt":998.9000000022352,"stimulus":"\n                    <p><b>Action: <em>avoid</em></b></p>\n                    <p>This is the bee that you just saw.</p>\n                    <img src=\"bees-with-color/bee-B2SM.svg\" width=\"200\">\n                    <p><br>Your bonus pay is unchanged, and remains at $0.36.</p>\n            ","response":0,"trial_type":"html-button-response","trial_index":54,"time_elapsed":335943,"internal_node_id":"0.0-4.0-1.23","subject_id":"5c573e54e9813700018acc31","study_id":"6197b3f67c2b5cd3b6d9596a","session_id":"619beeebe9a252b640379803","condition":"contingent","relevant_dimensions":["antennae","pattern"],"bee_group":{"antennae":"A","wings":"X","pattern":"S","legs":"X"},"bonus":0.04},{"rt":1337.1000000014901,"stimulus":"bees-with-color/bee-A1SF.svg","response":0,"trial_type":"image-button-response","trial_index":55,"time_elapsed":337282,"internal_node_id":"0.0-4.0-0.24","subject_id":"5c573e54e9813700018acc31","study_id":"6197b3f67c2b5cd3b6d9596a","session_id":"619beeebe9a252b640379803","condition":"contingent","relevant_dimensions":["antennae","pattern"],"bee_group":{"antennae":"A","wings":"X","pattern":"S","legs":"X"},"action":"harvest","summary":"bad-harvest","bonus":0.04},{"rt":792.7000000029802,"stimulus":"\n                    <p><b>Action: <em>harvest</em></b></p>\n                    <p>This is the bee that you just saw.</p>\n                    <img src=\"bees-with-color/bee-A1SF.svg\" width=\"200\">\n                    <p><span class=\"redText\">Bad choice, the bee was angry.</span><br><b>You have been stung!</b><br>Your pay has been decreased by $0.10. Your bonus pay is now $0.26.</p>\n            ","response":0,"trial_type":"html-button-response","trial_index":56,"time_elapsed":338076,"internal_node_id":"0.0-4.0-1.24","subject_id":"5c573e54e9813700018acc31","study_id":"6197b3f67c2b5cd3b6d9596a","session_id":"619beeebe9a252b640379803","condition":"contingent","relevant_dimensions":["antennae","pattern"],"bee_group":{"antennae":"A","wings":"X","pattern":"S","legs":"X"},"bonus":0.04},{"rt":2165.099999997765,"stimulus":"bees-with-color/bee-A2DM.svg","response":1,"trial_type":"image-button-response","trial_index":57,"time_elapsed":340242,"internal_node_id":"0.0-4.0-0.25","subject_id":"5c573e54e9813700018acc31","study_id":"6197b3f67c2b5cd3b6d9596a","session_id":"619beeebe9a252b640379803","condition":"contingent","relevant_dimensions":["antennae","pattern"],"bee_group":{"antennae":"A","wings":"X","pattern":"S","legs":"X"},"action":"avoid","summary":"bad-avoid","bonus":0.04},{"rt":1077.300000000745,"stimulus":"\n                    <p><b>Action: <em>avoid</em></b></p>\n                    <p>This is the bee that you just saw.</p>\n                    <img src=\"bees-with-color/bee-A2DM.svg\" width=\"200\">\n                    <p><br>Your bonus pay is unchanged, and remains at $0.26.</p>\n            ","response":0,"trial_type":"html-button-response","trial_index":58,"time_elapsed":341320,"internal_node_id":"0.0-4.0-1.25","subject_id":"5c573e54e9813700018acc31","study_id":"6197b3f67c2b5cd3b6d9596a","session_id":"619beeebe9a252b640379803","condition":"contingent","relevant_dimensions":["antennae","pattern"],"bee_group":{"antennae":"A","wings":"X","pattern":"S","legs":"X"},"bonus":0.04},{"rt":2279.5,"stimulus":"bees-with-color/bee-B2SF.svg","response":1,"trial_type":"image-button-response","trial_index":59,"time_elapsed":343600,"internal_node_id":"0.0-4.0-0.26","subject_id":"5c573e54e9813700018acc31","study_id":"6197b3f67c2b5cd3b6d9596a","session_id":"619beeebe9a252b640379803","condition":"contingent","relevant_dimensions":["antennae","pattern"],"bee_group":{"antennae":"A","wings":"X","pattern":"S","legs":"X"},"action":"avoid","summary":"bad-avoid","bonus":0.04},{"rt":939.3000000007451,"stimulus":"\n                    <p><b>Action: <em>avoid</em></b></p>\n                    <p>This is the bee that you just saw.</p>\n                    <img src=\"bees-with-color/bee-B2SF.svg\" width=\"200\">\n                    <p><br>Your bonus pay is unchanged, and remains at $0.26.</p>\n            ","response":0,"trial_type":"html-button-response","trial_index":60,"time_elapsed":344540,"internal_node_id":"0.0-4.0-1.26","subject_id":"5c573e54e9813700018acc31","study_id":"6197b3f67c2b5cd3b6d9596a","session_id":"619beeebe9a252b640379803","condition":"contingent","relevant_dimensions":["antennae","pattern"],"bee_group":{"antennae":"A","wings":"X","pattern":"S","legs":"X"},"bonus":0.04},{"rt":1829.3999999985099,"stimulus":"bees-with-color/bee-B1DM.svg","response":0,"trial_type":"image-button-response","trial_index":61,"time_elapsed":346371,"internal_node_id":"0.0-4.0-0.27","subject_id":"5c573e54e9813700018acc31","study_id":"6197b3f67c2b5cd3b6d9596a","session_id":"619beeebe9a252b640379803","condition":"contingent","relevant_dimensions":["antennae","pattern"],"bee_group":{"antennae":"A","wings":"X","pattern":"S","legs":"X"},"action":"harvest","summary":"good-harvest","bonus":0.04},{"rt":1457.5,"stimulus":"\n                    <p><b>Action: <em>harvest</em></b></p>\n                    <p>This is the bee that you just saw.</p>\n                    <img src=\"bees-with-color/bee-B1DM.svg\" width=\"200\">\n                    <p><span class=\"greenText\"><b>Successful harvest!</b></span><br>Your pay has increased by $0.02. Your bonus pay is now $0.28.</p>\n            ","response":0,"trial_type":"html-button-response","trial_index":62,"time_elapsed":347829,"internal_node_id":"0.0-4.0-1.27","subject_id":"5c573e54e9813700018acc31","study_id":"6197b3f67c2b5cd3b6d9596a","session_id":"619beeebe9a252b640379803","condition":"contingent","relevant_dimensions":["antennae","pattern"],"bee_group":{"antennae":"A","wings":"X","pattern":"S","legs":"X"},"bonus":0.04},{"rt":3175.39999999851,"stimulus":"bees-with-color/bee-B2DM.svg","response":1,"trial_type":"image-button-response","trial_index":63,"time_elapsed":351005,"internal_node_id":"0.0-4.0-0.28","subject_id":"5c573e54e9813700018acc31","study_id":"6197b3f67c2b5cd3b6d9596a","session_id":"619beeebe9a252b640379803","condition":"contingent","relevant_dimensions":["antennae","pattern"],"bee_group":{"antennae":"A","wings":"X","pattern":"S","legs":"X"},"action":"avoid","summary":"bad-avoid","bonus":0.04},{"rt":1253.300000000745,"stimulus":"\n                    <p><b>Action: <em>avoid</em></b></p>\n                    <p>This is the bee that you just saw.</p>\n                    <img src=\"bees-with-color/bee-B2DM.svg\" width=\"200\">\n                    <p><br>Your bonus pay is unchanged, and remains at $0.28.</p>\n            ","response":0,"trial_type":"html-button-response","trial_index":64,"time_elapsed":352260,"internal_node_id":"0.0-4.0-1.28","subject_id":"5c573e54e9813700018acc31","study_id":"6197b3f67c2b5cd3b6d9596a","session_id":"619beeebe9a252b640379803","condition":"contingent","relevant_dimensions":["antennae","pattern"],"bee_group":{"antennae":"A","wings":"X","pattern":"S","legs":"X"},"bonus":0.04},{"rt":2733,"stimulus":"bees-with-color/bee-A2SM.svg","response":0,"trial_type":"image-button-response","trial_index":65,"time_elapsed":354994,"internal_node_id":"0.0-4.0-0.29","subject_id":"5c573e54e9813700018acc31","study_id":"6197b3f67c2b5cd3b6d9596a","session_id":"619beeebe9a252b640379803","condition":"contingent","relevant_dimensions":["antennae","pattern"],"bee_group":{"antennae":"A","wings":"X","pattern":"S","legs":"X"},"action":"harvest","summary":"bad-harvest","bonus":0.04},{"rt":833.3000000007451,"stimulus":"\n                    <p><b>Action: <em>harvest</em></b></p>\n                    <p>This is the bee that you just saw.</p>\n                    <img src=\"bees-with-color/bee-A2SM.svg\" width=\"200\">\n                    <p><span class=\"redText\">Bad choice, the bee was angry.</span><br><b>You have been stung!</b><br>Your pay has been decreased by $0.10. Your bonus pay is now $0.18.</p>\n            ","response":0,"trial_type":"html-button-response","trial_index":66,"time_elapsed":355828,"internal_node_id":"0.0-4.0-1.29","subject_id":"5c573e54e9813700018acc31","study_id":"6197b3f67c2b5cd3b6d9596a","session_id":"619beeebe9a252b640379803","condition":"contingent","relevant_dimensions":["antennae","pattern"],"bee_group":{"antennae":"A","wings":"X","pattern":"S","legs":"X"},"bonus":0.04},{"rt":1359.199999999255,"stimulus":"bees-with-color/bee-B1SM.svg","response":0,"trial_type":"image-button-response","trial_index":67,"time_elapsed":357188,"internal_node_id":"0.0-4.0-0.30","subject_id":"5c573e54e9813700018acc31","study_id":"6197b3f67c2b5cd3b6d9596a","session_id":"619beeebe9a252b640379803","condition":"contingent","relevant_dimensions":["antennae","pattern"],"bee_group":{"antennae":"A","wings":"X","pattern":"S","legs":"X"},"action":"harvest","summary":"good-harvest","bonus":0.04},{"rt":941.2999999970198,"stimulus":"\n                    <p><b>Action: <em>harvest</em></b></p>\n                    <p>This is the bee that you just saw.</p>\n                    <img src=\"bees-with-color/bee-B1SM.svg\" width=\"200\">\n                    <p><span class=\"greenText\"><b>Successful harvest!</b></span><br>Your pay has increased by $0.02. Your bonus pay is now $0.20.</p>\n            ","response":0,"trial_type":"html-button-response","trial_index":68,"time_elapsed":358130,"internal_node_id":"0.0-4.0-1.30","subject_id":"5c573e54e9813700018acc31","study_id":"6197b3f67c2b5cd3b6d9596a","session_id":"619beeebe9a252b640379803","condition":"contingent","relevant_dimensions":["antennae","pattern"],"bee_group":{"antennae":"A","wings":"X","pattern":"S","legs":"X"},"bonus":0.04},{"rt":1271.300000000745,"stimulus":"bees-with-color/bee-B1SF.svg","response":0,"trial_type":"image-button-response","trial_index":69,"time_elapsed":359402,"internal_node_id":"0.0-4.0-0.31","subject_id":"5c573e54e9813700018acc31","study_id":"6197b3f67c2b5cd3b6d9596a","session_id":"619beeebe9a252b640379803","condition":"contingent","relevant_dimensions":["antennae","pattern"],"bee_group":{"antennae":"A","wings":"X","pattern":"S","legs":"X"},"action":"harvest","summary":"good-harvest","bonus":0.04},{"rt":1358.8999999985099,"stimulus":"\n                    <p><b>Action: <em>harvest</em></b></p>\n                    <p>This is the bee that you just saw.</p>\n                    <img src=\"bees-with-color/bee-B1SF.svg\" width=\"200\">\n                    <p><span class=\"greenText\"><b>Successful harvest!</b></span><br>Your pay has increased by $0.02. Your bonus pay is now $0.22.</p>\n            ","response":0,"trial_type":"html-button-response","trial_index":70,"time_elapsed":360762,"internal_node_id":"0.0-4.0-1.31","subject_id":"5c573e54e9813700018acc31","study_id":"6197b3f67c2b5cd3b6d9596a","session_id":"619beeebe9a252b640379803","condition":"contingent","relevant_dimensions":["antennae","pattern"],"bee_group":{"antennae":"A","wings":"X","pattern":"S","legs":"X"},"bonus":0.04},{"rt":1915.3999999985099,"stimulus":"bees-with-color/bee-A1DF.svg","response":0,"trial_type":"image-button-response","trial_index":71,"time_elapsed":362678,"internal_node_id":"0.0-4.0-0.32","subject_id":"5c573e54e9813700018acc31","study_id":"6197b3f67c2b5cd3b6d9596a","session_id":"619beeebe9a252b640379803","condition":"contingent","relevant_dimensions":["antennae","pattern"],"bee_group":{"antennae":"A","wings":"X","pattern":"S","legs":"X"},"action":"harvest","summary":"good-harvest","bonus":0.04},{"rt":859.3000000007451,"stimulus":"\n                    <p><b>Action: <em>harvest</em></b></p>\n                    <p>This is the bee that you just saw.</p>\n                    <img src=\"bees-with-color/bee-A1DF.svg\" width=\"200\">\n                    <p><span class=\"greenText\"><b>Successful harvest!</b></span><br>Your pay has increased by $0.02. Your bonus pay is now $0.24.</p>\n            ","response":0,"trial_type":"html-button-response","trial_index":72,"time_elapsed":363538,"internal_node_id":"0.0-4.0-1.32","subject_id":"5c573e54e9813700018acc31","study_id":"6197b3f67c2b5cd3b6d9596a","session_id":"619beeebe9a252b640379803","condition":"contingent","relevant_dimensions":["antennae","pattern"],"bee_group":{"antennae":"A","wings":"X","pattern":"S","legs":"X"},"bonus":0.04},{"rt":1181.300000000745,"stimulus":"bees-with-color/bee-B2DM.svg","response":1,"trial_type":"image-button-response","trial_index":73,"time_elapsed":364720,"internal_node_id":"0.0-4.0-0.33","subject_id":"5c573e54e9813700018acc31","study_id":"6197b3f67c2b5cd3b6d9596a","session_id":"619beeebe9a252b640379803","condition":"contingent","relevant_dimensions":["antennae","pattern"],"bee_group":{"antennae":"A","wings":"X","pattern":"S","legs":"X"},"action":"avoid","summary":"bad-avoid","bonus":0.04},{"rt":977.1999999992549,"stimulus":"\n                    <p><b>Action: <em>avoid</em></b></p>\n                    <p>This is the bee that you just saw.</p>\n                    <img src=\"bees-with-color/bee-B2DM.svg\" width=\"200\">\n                    <p><br>Your bonus pay is unchanged, and remains at $0.24.</p>\n            ","response":0,"trial_type":"html-button-response","trial_index":74,"time_elapsed":365699,"internal_node_id":"0.0-4.0-1.33","subject_id":"5c573e54e9813700018acc31","study_id":"6197b3f67c2b5cd3b6d9596a","session_id":"619beeebe9a252b640379803","condition":"contingent","relevant_dimensions":["antennae","pattern"],"bee_group":{"antennae":"A","wings":"X","pattern":"S","legs":"X"},"bonus":0.04},{"rt":1401.300000000745,"stimulus":"bees-with-color/bee-A2SF.svg","response":1,"trial_type":"image-button-response","trial_index":75,"time_elapsed":367101,"internal_node_id":"0.0-4.0-0.34","subject_id":"5c573e54e9813700018acc31","study_id":"6197b3f67c2b5cd3b6d9596a","session_id":"619beeebe9a252b640379803","condition":"contingent","relevant_dimensions":["antennae","pattern"],"bee_group":{"antennae":"A","wings":"X","pattern":"S","legs":"X"},"action":"avoid","summary":"good-avoid","bonus":0.04},{"rt":831.2999999970198,"stimulus":"\n                    <p><b>Action: <em>avoid</em></b></p>\n                    <p>This is the bee that you just saw.</p>\n                    <img src=\"bees-with-color/bee-A2SF.svg\" width=\"200\">\n                    <p><br>Your bonus pay is unchanged, and remains at $0.24.</p>\n            ","response":0,"trial_type":"html-button-response","trial_index":76,"time_elapsed":367933,"internal_node_id":"0.0-4.0-1.34","subject_id":"5c573e54e9813700018acc31","study_id":"6197b3f67c2b5cd3b6d9596a","session_id":"619beeebe9a252b640379803","condition":"contingent","relevant_dimensions":["antennae","pattern"],"bee_group":{"antennae":"A","wings":"X","pattern":"S","legs":"X"},"bonus":0.04},{"rt":1247,"stimulus":"bees-with-color/bee-B2SM.svg","response":1,"trial_type":"image-button-response","trial_index":77,"time_elapsed":369181,"internal_node_id":"0.0-4.0-0.35","subject_id":"5c573e54e9813700018acc31","study_id":"6197b3f67c2b5cd3b6d9596a","session_id":"619beeebe9a252b640379803","condition":"contingent","relevant_dimensions":["antennae","pattern"],"bee_group":{"antennae":"A","wings":"X","pattern":"S","legs":"X"},"action":"avoid","summary":"bad-avoid","bonus":0.04},{"rt":747.0999999977648,"stimulus":"\n                    <p><b>Action: <em>avoid</em></b></p>\n                    <p>This is the bee that you just saw.</p>\n                    <img src=\"bees-with-color/bee-B2SM.svg\" width=\"200\">\n                    <p><br>Your bonus pay is unchanged, and remains at $0.24.</p>\n            ","response":0,"trial_type":"html-button-response","trial_index":78,"time_elapsed":369929,"internal_node_id":"0.0-4.0-1.35","subject_id":"5c573e54e9813700018acc31","study_id":"6197b3f67c2b5cd3b6d9596a","session_id":"619beeebe9a252b640379803","condition":"contingent","relevant_dimensions":["antennae","pattern"],"bee_group":{"antennae":"A","wings":"X","pattern":"S","legs":"X"},"bonus":0.04},{"rt":1109.199999999255,"stimulus":"bees-with-color/bee-A1DM.svg","response":0,"trial_type":"image-button-response","trial_index":79,"time_elapsed":371039,"internal_node_id":"0.0-4.0-0.36","subject_id":"5c573e54e9813700018acc31","study_id":"6197b3f67c2b5cd3b6d9596a","session_id":"619beeebe9a252b640379803","condition":"contingent","relevant_dimensions":["antennae","pattern"],"bee_group":{"antennae":"A","wings":"X","pattern":"S","legs":"X"},"action":"harvest","summary":"good-harvest","bonus":0.04},{"rt":708.9000000022352,"stimulus":"\n                    <p><b>Action: <em>harvest</em></b></p>\n                    <p>This is the bee that you just saw.</p>\n                    <img src=\"bees-with-color/bee-A1DM.svg\" width=\"200\">\n                    <p><span class=\"greenText\"><b>Successful harvest!</b></span><br>Your pay has increased by $0.02. Your bonus pay is now $0.26.</p>\n            ","response":0,"trial_type":"html-button-response","trial_index":80,"time_elapsed":371749,"internal_node_id":"0.0-4.0-1.36","subject_id":"5c573e54e9813700018acc31","study_id":"6197b3f67c2b5cd3b6d9596a","session_id":"619beeebe9a252b640379803","condition":"contingent","relevant_dimensions":["antennae","pattern"],"bee_group":{"antennae":"A","wings":"X","pattern":"S","legs":"X"},"bonus":0.04},{"rt":1369.699999999255,"stimulus":"bees-with-color/bee-B1DF.svg","response":0,"trial_type":"image-button-response","trial_index":81,"time_elapsed":373120,"internal_node_id":"0.0-4.0-0.37","subject_id":"5c573e54e9813700018acc31","study_id":"6197b3f67c2b5cd3b6d9596a","session_id":"619beeebe9a252b640379803","condition":"contingent","relevant_dimensions":["antennae","pattern"],"bee_group":{"antennae":"A","wings":"X","pattern":"S","legs":"X"},"action":"harvest","summary":"good-harvest","bonus":0.04},{"rt":616.6999999992549,"stimulus":"\n                    <p><b>Action: <em>harvest</em></b></p>\n                    <p>This is the bee that you just saw.</p>\n                    <img src=\"bees-with-color/bee-B1DF.svg\" width=\"200\">\n                    <p><span class=\"greenText\"><b>Successful harvest!</b></span><br>Your pay has increased by $0.02. Your bonus pay is now $0.28.</p>\n            ","response":0,"trial_type":"html-button-response","trial_index":82,"time_elapsed":373738,"internal_node_id":"0.0-4.0-1.37","subject_id":"5c573e54e9813700018acc31","study_id":"6197b3f67c2b5cd3b6d9596a","session_id":"619beeebe9a252b640379803","condition":"contingent","relevant_dimensions":["antennae","pattern"],"bee_group":{"antennae":"A","wings":"X","pattern":"S","legs":"X"},"bonus":0.04},{"rt":773.2000000029802,"stimulus":"bees-with-color/bee-A2DM.svg","response":1,"trial_type":"image-button-response","trial_index":83,"time_elapsed":374512,"internal_node_id":"0.0-4.0-0.38","subject_id":"5c573e54e9813700018acc31","study_id":"6197b3f67c2b5cd3b6d9596a","session_id":"619beeebe9a252b640379803","condition":"contingent","relevant_dimensions":["antennae","pattern"],"bee_group":{"antennae":"A","wings":"X","pattern":"S","legs":"X"},"action":"avoid","summary":"bad-avoid","bonus":0.04},{"rt":1081.199999999255,"stimulus":"\n                    <p><b>Action: <em>avoid</em></b></p>\n                    <p>This is the bee that you just saw.</p>\n                    <img src=\"bees-with-color/bee-A2DM.svg\" width=\"200\">\n                    <p><br>Your bonus pay is unchanged, and remains at $0.28.</p>\n            ","response":0,"trial_type":"html-button-response","trial_index":84,"time_elapsed":375594,"internal_node_id":"0.0-4.0-1.38","subject_id":"5c573e54e9813700018acc31","study_id":"6197b3f67c2b5cd3b6d9596a","session_id":"619beeebe9a252b640379803","condition":"contingent","relevant_dimensions":["antennae","pattern"],"bee_group":{"antennae":"A","wings":"X","pattern":"S","legs":"X"},"bonus":0.04},{"rt":1213.5,"stimulus":"bees-with-color/bee-A2SM.svg","response":1,"trial_type":"image-button-response","trial_index":85,"time_elapsed":376808,"internal_node_id":"0.0-4.0-0.39","subject_id":"5c573e54e9813700018acc31","study_id":"6197b3f67c2b5cd3b6d9596a","session_id":"619beeebe9a252b640379803","condition":"contingent","relevant_dimensions":["antennae","pattern"],"bee_group":{"antennae":"A","wings":"X","pattern":"S","legs":"X"},"action":"avoid","summary":"good-avoid","bonus":0.04},{"rt":817.0999999977648,"stimulus":"\n                    <p><b>Action: <em>avoid</em></b></p>\n                    <p>This is the bee that you just saw.</p>\n                    <img src=\"bees-with-color/bee-A2SM.svg\" width=\"200\">\n                    <p><br>Your bonus pay is unchanged, and remains at $0.28.</p>\n            ","response":0,"trial_type":"html-button-response","trial_index":86,"time_elapsed":377626,"internal_node_id":"0.0-4.0-1.39","subject_id":"5c573e54e9813700018acc31","study_id":"6197b3f67c2b5cd3b6d9596a","session_id":"619beeebe9a252b640379803","condition":"contingent","relevant_dimensions":["antennae","pattern"],"bee_group":{"antennae":"A","wings":"X","pattern":"S","legs":"X"},"bonus":0.04},{"rt":1239.199999999255,"stimulus":"bees-with-color/bee-A1SF.svg","response":0,"trial_type":"image-button-response","trial_index":87,"time_elapsed":378867,"internal_node_id":"0.0-4.0-0.40","subject_id":"5c573e54e9813700018acc31","study_id":"6197b3f67c2b5cd3b6d9596a","session_id":"619beeebe9a252b640379803","condition":"contingent","relevant_dimensions":["antennae","pattern"],"bee_group":{"antennae":"A","wings":"X","pattern":"S","legs":"X"},"action":"harvest","summary":"bad-harvest","bonus":0.04},{"rt":1639,"stimulus":"\n                    <p><b>Action: <em>harvest</em></b></p>\n                    <p>This is the bee that you just saw.</p>\n                    <img src=\"bees-with-color/bee-A1SF.svg\" width=\"200\">\n                    <p><span class=\"redText\">Bad choice, the bee was angry.</span><br><b>You have been stung!</b><br>Your pay has been decreased by $0.10. Your bonus pay is now $0.18.</p>\n            ","response":0,"trial_type":"html-button-response","trial_index":88,"time_elapsed":380507,"internal_node_id":"0.0-4.0-1.40","subject_id":"5c573e54e9813700018acc31","study_id":"6197b3f67c2b5cd3b6d9596a","session_id":"619beeebe9a252b640379803","condition":"contingent","relevant_dimensions":["antennae","pattern"],"bee_group":{"antennae":"A","wings":"X","pattern":"S","legs":"X"},"bonus":0.04},{"rt":6707.699999999255,"stimulus":"bees-with-color/bee-A1SM.svg","response":0,"trial_type":"image-button-response","trial_index":89,"time_elapsed":387216,"internal_node_id":"0.0-4.0-0.41","subject_id":"5c573e54e9813700018acc31","study_id":"6197b3f67c2b5cd3b6d9596a","session_id":"619beeebe9a252b640379803","condition":"contingent","relevant_dimensions":["antennae","pattern"],"bee_group":{"antennae":"A","wings":"X","pattern":"S","legs":"X"},"action":"harvest","summary":"bad-harvest","bonus":0.04},{"rt":1087.300000000745,"stimulus":"\n                    <p><b>Action: <em>harvest</em></b></p>\n                    <p>This is the bee that you just saw.</p>\n                    <img src=\"bees-with-color/bee-A1SM.svg\" width=\"200\">\n                    <p><span class=\"redText\">Bad choice, the bee was angry.</span><br><b>You have been stung!</b><br>Your pay has been decreased by $0.10. Your bonus pay is now $0.08.</p>\n            ","response":0,"trial_type":"html-button-response","trial_index":90,"time_elapsed":388304,"internal_node_id":"0.0-4.0-1.41","subject_id":"5c573e54e9813700018acc31","study_id":"6197b3f67c2b5cd3b6d9596a","session_id":"619beeebe9a252b640379803","condition":"contingent","relevant_dimensions":["antennae","pattern"],"bee_group":{"antennae":"A","wings":"X","pattern":"S","legs":"X"},"bonus":0.04},{"rt":1017.8000000007451,"stimulus":"bees-with-color/bee-B1SF.svg","response":0,"trial_type":"image-button-response","trial_index":91,"time_elapsed":389324,"internal_node_id":"0.0-4.0-0.42","subject_id":"5c573e54e9813700018acc31","study_id":"6197b3f67c2b5cd3b6d9596a","session_id":"619beeebe9a252b640379803","condition":"contingent","relevant_dimensions":["antennae","pattern"],"bee_group":{"antennae":"A","wings":"X","pattern":"S","legs":"X"},"action":"harvest","summary":"good-harvest","bonus":0.04},{"rt":1437.3999999985099,"stimulus":"\n                    <p><b>Action: <em>harvest</em></b></p>\n                    <p>This is the bee that you just saw.</p>\n                    <img src=\"bees-with-color/bee-B1SF.svg\" width=\"200\">\n                    <p><span class=\"greenText\"><b>Successful harvest!</b></span><br>Your pay has increased by $0.02. Your bonus pay is now $0.10.</p>\n            ","response":0,"trial_type":"html-button-response","trial_index":92,"time_elapsed":390762,"internal_node_id":"0.0-4.0-1.42","subject_id":"5c573e54e9813700018acc31","study_id":"6197b3f67c2b5cd3b6d9596a","session_id":"619beeebe9a252b640379803","condition":"contingent","relevant_dimensions":["antennae","pattern"],"bee_group":{"antennae":"A","wings":"X","pattern":"S","legs":"X"},"bonus":0.04},{"rt":4079.800000000745,"stimulus":"bees-with-color/bee-B2DF.svg","response":1,"trial_type":"image-button-response","trial_index":93,"time_elapsed":394843,"internal_node_id":"0.0-4.0-0.43","subject_id":"5c573e54e9813700018acc31","study_id":"6197b3f67c2b5cd3b6d9596a","session_id":"619beeebe9a252b640379803","condition":"contingent","relevant_dimensions":["antennae","pattern"],"bee_group":{"antennae":"A","wings":"X","pattern":"S","legs":"X"},"action":"avoid","summary":"bad-avoid","bonus":0.04},{"rt":1085.1000000014901,"stimulus":"\n                    <p><b>Action: <em>avoid</em></b></p>\n                    <p>This is the bee that you just saw.</p>\n                    <img src=\"bees-with-color/bee-B2DF.svg\" width=\"200\">\n                    <p><br>Your bonus pay is unchanged, and remains at $0.10.</p>\n            ","response":0,"trial_type":"html-button-response","trial_index":94,"time_elapsed":395929,"internal_node_id":"0.0-4.0-1.43","subject_id":"5c573e54e9813700018acc31","study_id":"6197b3f67c2b5cd3b6d9596a","session_id":"619beeebe9a252b640379803","condition":"contingent","relevant_dimensions":["antennae","pattern"],"bee_group":{"antennae":"A","wings":"X","pattern":"S","legs":"X"},"bonus":0.04},{"rt":1753.199999999255,"stimulus":"bees-with-color/bee-A2DF.svg","response":1,"trial_type":"image-button-response","trial_index":95,"time_elapsed":397683,"internal_node_id":"0.0-4.0-0.44","subject_id":"5c573e54e9813700018acc31","study_id":"6197b3f67c2b5cd3b6d9596a","session_id":"619beeebe9a252b640379803","condition":"contingent","relevant_dimensions":["antennae","pattern"],"bee_group":{"antennae":"A","wings":"X","pattern":"S","legs":"X"},"action":"avoid","summary":"bad-avoid","bonus":0.04},{"rt":981.3000000007451,"stimulus":"\n                    <p><b>Action: <em>avoid</em></b></p>\n                    <p>This is the bee that you just saw.</p>\n                    <img src=\"bees-with-color/bee-A2DF.svg\" width=\"200\">\n                    <p><br>Your bonus pay is unchanged, and remains at $0.10.</p>\n            ","response":0,"trial_type":"html-button-response","trial_index":96,"time_elapsed":398665,"internal_node_id":"0.0-4.0-1.44","subject_id":"5c573e54e9813700018acc31","study_id":"6197b3f67c2b5cd3b6d9596a","session_id":"619beeebe9a252b640379803","condition":"contingent","relevant_dimensions":["antennae","pattern"],"bee_group":{"antennae":"A","wings":"X","pattern":"S","legs":"X"},"bonus":0.04},{"rt":1327.3999999985099,"stimulus":"bees-with-color/bee-B1SM.svg","response":0,"trial_type":"image-button-response","trial_index":97,"time_elapsed":399994,"internal_node_id":"0.0-4.0-0.45","subject_id":"5c573e54e9813700018acc31","study_id":"6197b3f67c2b5cd3b6d9596a","session_id":"619beeebe9a252b640379803","condition":"contingent","relevant_dimensions":["antennae","pattern"],"bee_group":{"antennae":"A","wings":"X","pattern":"S","legs":"X"},"action":"harvest","summary":"good-harvest","bonus":0.04},{"rt":1401.1000000014901,"stimulus":"\n                    <p><b>Action: <em>harvest</em></b></p>\n                    <p>This is the bee that you just saw.</p>\n                    <img src=\"bees-with-color/bee-B1SM.svg\" width=\"200\">\n                    <p><span class=\"greenText\"><b>Successful harvest!</b></span><br>Your pay has increased by $0.02. Your bonus pay is now $0.12.</p>\n            ","response":0,"trial_type":"html-button-response","trial_index":98,"time_elapsed":401396,"internal_node_id":"0.0-4.0-1.45","subject_id":"5c573e54e9813700018acc31","study_id":"6197b3f67c2b5cd3b6d9596a","session_id":"619beeebe9a252b640379803","condition":"contingent","relevant_dimensions":["antennae","pattern"],"bee_group":{"antennae":"A","wings":"X","pattern":"S","legs":"X"},"bonus":0.04},{"rt":1275.4000000022352,"stimulus":"bees-with-color/bee-B1DM.svg","response":0,"trial_type":"image-button-response","trial_index":99,"time_elapsed":402672,"internal_node_id":"0.0-4.0-0.46","subject_id":"5c573e54e9813700018acc31","study_id":"6197b3f67c2b5cd3b6d9596a","session_id":"619beeebe9a252b640379803","condition":"contingent","relevant_dimensions":["antennae","pattern"],"bee_group":{"antennae":"A","wings":"X","pattern":"S","legs":"X"},"action":"harvest","summary":"good-harvest","bonus":0.04},{"rt":1173.300000000745,"stimulus":"\n                    <p><b>Action: <em>harvest</em></b></p>\n                    <p>This is the bee that you just saw.</p>\n                    <img src=\"bees-with-color/bee-B1DM.svg\" width=\"200\">\n                    <p><span class=\"greenText\"><b>Successful harvest!</b></span><br>Your pay has increased by $0.02. Your bonus pay is now $0.14.</p>\n            ","response":0,"trial_type":"html-button-response","trial_index":100,"time_elapsed":403846,"internal_node_id":"0.0-4.0-1.46","subject_id":"5c573e54e9813700018acc31","study_id":"6197b3f67c2b5cd3b6d9596a","session_id":"619beeebe9a252b640379803","condition":"contingent","relevant_dimensions":["antennae","pattern"],"bee_group":{"antennae":"A","wings":"X","pattern":"S","legs":"X"},"bonus":0.04},{"rt":1737.699999999255,"stimulus":"bees-with-color/bee-B2SF.svg","response":1,"trial_type":"image-button-response","trial_index":101,"time_elapsed":405584,"internal_node_id":"0.0-4.0-0.47","subject_id":"5c573e54e9813700018acc31","study_id":"6197b3f67c2b5cd3b6d9596a","session_id":"619beeebe9a252b640379803","condition":"contingent","relevant_dimensions":["antennae","pattern"],"bee_group":{"antennae":"A","wings":"X","pattern":"S","legs":"X"},"action":"avoid","summary":"bad-avoid","bonus":0.04},{"rt":1205.1000000014901,"stimulus":"\n                    <p><b>Action: <em>avoid</em></b></p>\n                    <p>This is the bee that you just saw.</p>\n                    <img src=\"bees-with-color/bee-B2SF.svg\" width=\"200\">\n                    <p><br>Your bonus pay is unchanged, and remains at $0.14.</p>\n            ","response":0,"trial_type":"html-button-response","trial_index":102,"time_elapsed":406790,"internal_node_id":"0.0-4.0-1.47","subject_id":"5c573e54e9813700018acc31","study_id":"6197b3f67c2b5cd3b6d9596a","session_id":"619beeebe9a252b640379803","condition":"contingent","relevant_dimensions":["antennae","pattern"],"bee_group":{"antennae":"A","wings":"X","pattern":"S","legs":"X"},"bonus":0.04},{"rt":979.1000000014901,"stimulus":"bees-with-color/bee-B1DF.svg","response":0,"trial_type":"image-button-response","trial_index":103,"time_elapsed":407771,"internal_node_id":"0.0-4.0-0.48","subject_id":"5c573e54e9813700018acc31","study_id":"6197b3f67c2b5cd3b6d9596a","session_id":"619beeebe9a252b640379803","condition":"contingent","relevant_dimensions":["antennae","pattern"],"bee_group":{"antennae":"A","wings":"X","pattern":"S","legs":"X"},"action":"harvest","summary":"good-harvest","bonus":0.04},{"rt":745.1000000014901,"stimulus":"\n                    <p><b>Action: <em>harvest</em></b></p>\n                    <p>This is the bee that you just saw.</p>\n                    <img src=\"bees-with-color/bee-B1DF.svg\" width=\"200\">\n                    <p><span class=\"greenText\"><b>Successful harvest!</b></span><br>Your pay has increased by $0.02. Your bonus pay is now $0.16.</p>\n            ","response":0,"trial_type":"html-button-response","trial_index":104,"time_elapsed":408517,"internal_node_id":"0.0-4.0-1.48","subject_id":"5c573e54e9813700018acc31","study_id":"6197b3f67c2b5cd3b6d9596a","session_id":"619beeebe9a252b640379803","condition":"contingent","relevant_dimensions":["antennae","pattern"],"bee_group":{"antennae":"A","wings":"X","pattern":"S","legs":"X"},"bonus":0.04},{"rt":1909.199999999255,"stimulus":"bees-with-color/bee-B2DM.svg","response":1,"trial_type":"image-button-response","trial_index":105,"time_elapsed":410427,"internal_node_id":"0.0-4.0-0.49","subject_id":"5c573e54e9813700018acc31","study_id":"6197b3f67c2b5cd3b6d9596a","session_id":"619beeebe9a252b640379803","condition":"contingent","relevant_dimensions":["antennae","pattern"],"bee_group":{"antennae":"A","wings":"X","pattern":"S","legs":"X"},"action":"avoid","summary":"bad-avoid","bonus":0.04},{"rt":997.1999999992549,"stimulus":"\n                    <p><b>Action: <em>avoid</em></b></p>\n                    <p>This is the bee that you just saw.</p>\n                    <img src=\"bees-with-color/bee-B2DM.svg\" width=\"200\">\n                    <p><br>Your bonus pay is unchanged, and remains at $0.16.</p>\n            ","response":0,"trial_type":"html-button-response","trial_index":106,"time_elapsed":411425,"internal_node_id":"0.0-4.0-1.49","subject_id":"5c573e54e9813700018acc31","study_id":"6197b3f67c2b5cd3b6d9596a","session_id":"619beeebe9a252b640379803","condition":"contingent","relevant_dimensions":["antennae","pattern"],"bee_group":{"antennae":"A","wings":"X","pattern":"S","legs":"X"},"bonus":0.04},{"rt":1005.1999999992549,"stimulus":"bees-with-color/bee-A1SF.svg","response":0,"trial_type":"image-button-response","trial_index":107,"time_elapsed":412431,"internal_node_id":"0.0-4.0-0.50","subject_id":"5c573e54e9813700018acc31","study_id":"6197b3f67c2b5cd3b6d9596a","session_id":"619beeebe9a252b640379803","condition":"contingent","relevant_dimensions":["antennae","pattern"],"bee_group":{"antennae":"A","wings":"X","pattern":"S","legs":"X"},"action":"harvest","summary":"bad-harvest","bonus":0.04},{"rt":1145.300000000745,"stimulus":"\n                    <p><b>Action: <em>harvest</em></b></p>\n                    <p>This is the bee that you just saw.</p>\n                    <img src=\"bees-with-color/bee-A1SF.svg\" width=\"200\">\n                    <p><span class=\"redText\">Bad choice, the bee was angry.</span><br><b>You have been stung!</b><br>Your pay has been decreased by $0.10. Your bonus pay is now $0.06.</p>\n            ","response":0,"trial_type":"html-button-response","trial_index":108,"time_elapsed":413577,"internal_node_id":"0.0-4.0-1.50","subject_id":"5c573e54e9813700018acc31","study_id":"6197b3f67c2b5cd3b6d9596a","session_id":"619beeebe9a252b640379803","condition":"contingent","relevant_dimensions":["antennae","pattern"],"bee_group":{"antennae":"A","wings":"X","pattern":"S","legs":"X"},"bonus":0.04},{"rt":1657.7999999970198,"stimulus":"bees-with-color/bee-B1DM.svg","response":0,"trial_type":"image-button-response","trial_index":109,"time_elapsed":415236,"internal_node_id":"0.0-4.0-0.51","subject_id":"5c573e54e9813700018acc31","study_id":"6197b3f67c2b5cd3b6d9596a","session_id":"619beeebe9a252b640379803","condition":"contingent","relevant_dimensions":["antennae","pattern"],"bee_group":{"antennae":"A","wings":"X","pattern":"S","legs":"X"},"action":"harvest","summary":"good-harvest","bonus":0.04},{"rt":1102.7000000029802,"stimulus":"\n                    <p><b>Action: <em>harvest</em></b></p>\n                    <p>This is the bee that you just saw.</p>\n                    <img src=\"bees-with-color/bee-B1DM.svg\" width=\"200\">\n                    <p><span class=\"greenText\"><b>Successful harvest!</b></span><br>Your pay has increased by $0.02. Your bonus pay is now $0.08.</p>\n            ","response":0,"trial_type":"html-button-response","trial_index":110,"time_elapsed":416340,"internal_node_id":"0.0-4.0-1.51","subject_id":"5c573e54e9813700018acc31","study_id":"6197b3f67c2b5cd3b6d9596a","session_id":"619beeebe9a252b640379803","condition":"contingent","relevant_dimensions":["antennae","pattern"],"bee_group":{"antennae":"A","wings":"X","pattern":"S","legs":"X"},"bonus":0.04},{"rt":1761.199999999255,"stimulus":"bees-with-color/bee-B1SM.svg","response":0,"trial_type":"image-button-response","trial_index":111,"time_elapsed":418102,"internal_node_id":"0.0-4.0-0.52","subject_id":"5c573e54e9813700018acc31","study_id":"6197b3f67c2b5cd3b6d9596a","session_id":"619beeebe9a252b640379803","condition":"contingent","relevant_dimensions":["antennae","pattern"],"bee_group":{"antennae":"A","wings":"X","pattern":"S","legs":"X"},"action":"harvest","summary":"good-harvest","bonus":0.04},{"rt":1461.1000000014901,"stimulus":"\n                    <p><b>Action: <em>harvest</em></b></p>\n                    <p>This is the bee that you just saw.</p>\n                    <img src=\"bees-with-color/bee-B1SM.svg\" width=\"200\">\n                    <p><span class=\"greenText\"><b>Successful harvest!</b></span><br>Your pay has increased by $0.02. Your bonus pay is now $0.10.</p>\n            ","response":0,"trial_type":"html-button-response","trial_index":112,"time_elapsed":419565,"internal_node_id":"0.0-4.0-1.52","subject_id":"5c573e54e9813700018acc31","study_id":"6197b3f67c2b5cd3b6d9596a","session_id":"619beeebe9a252b640379803","condition":"contingent","relevant_dimensions":["antennae","pattern"],"bee_group":{"antennae":"A","wings":"X","pattern":"S","legs":"X"},"bonus":0.04},{"rt":3151.5,"stimulus":"bees-with-color/bee-A2DF.svg","response":1,"trial_type":"image-button-response","trial_index":113,"time_elapsed":422718,"internal_node_id":"0.0-4.0-0.53","subject_id":"5c573e54e9813700018acc31","study_id":"6197b3f67c2b5cd3b6d9596a","session_id":"619beeebe9a252b640379803","condition":"contingent","relevant_dimensions":["antennae","pattern"],"bee_group":{"antennae":"A","wings":"X","pattern":"S","legs":"X"},"action":"avoid","summary":"bad-avoid","bonus":0.04},{"rt":863.2000000029802,"stimulus":"\n                    <p><b>Action: <em>avoid</em></b></p>\n                    <p>This is the bee that you just saw.</p>\n                    <img src=\"bees-with-color/bee-A2DF.svg\" width=\"200\">\n                    <p><br>Your bonus pay is unchanged, and remains at $0.10.</p>\n            ","response":0,"trial_type":"html-button-response","trial_index":114,"time_elapsed":423582,"internal_node_id":"0.0-4.0-1.53","subject_id":"5c573e54e9813700018acc31","study_id":"6197b3f67c2b5cd3b6d9596a","session_id":"619beeebe9a252b640379803","condition":"contingent","relevant_dimensions":["antennae","pattern"],"bee_group":{"antennae":"A","wings":"X","pattern":"S","legs":"X"},"bonus":0.04},{"rt":1851.199999999255,"stimulus":"bees-with-color/bee-A2SM.svg","response":1,"trial_type":"image-button-response","trial_index":115,"time_elapsed":425434,"internal_node_id":"0.0-4.0-0.54","subject_id":"5c573e54e9813700018acc31","study_id":"6197b3f67c2b5cd3b6d9596a","session_id":"619beeebe9a252b640379803","condition":"contingent","relevant_dimensions":["antennae","pattern"],"bee_group":{"antennae":"A","wings":"X","pattern":"S","legs":"X"},"action":"avoid","summary":"good-avoid","bonus":0.04},{"rt":815.0999999977648,"stimulus":"\n                    <p><b>Action: <em>avoid</em></b></p>\n                    <p>This is the bee that you just saw.</p>\n                    <img src=\"bees-with-color/bee-A2SM.svg\" width=\"200\">\n                    <p><br>Your bonus pay is unchanged, and remains at $0.10.</p>\n            ","response":0,"trial_type":"html-button-response","trial_index":116,"time_elapsed":426250,"internal_node_id":"0.0-4.0-1.54","subject_id":"5c573e54e9813700018acc31","study_id":"6197b3f67c2b5cd3b6d9596a","session_id":"619beeebe9a252b640379803","condition":"contingent","relevant_dimensions":["antennae","pattern"],"bee_group":{"antennae":"A","wings":"X","pattern":"S","legs":"X"},"bonus":0.04},{"rt":1229,"stimulus":"bees-with-color/bee-B2SM.svg","response":1,"trial_type":"image-button-response","trial_index":117,"time_elapsed":427480,"internal_node_id":"0.0-4.0-0.55","subject_id":"5c573e54e9813700018acc31","study_id":"6197b3f67c2b5cd3b6d9596a","session_id":"619beeebe9a252b640379803","condition":"contingent","relevant_dimensions":["antennae","pattern"],"bee_group":{"antennae":"A","wings":"X","pattern":"S","legs":"X"},"action":"avoid","summary":"bad-avoid","bonus":0.04},{"rt":811.2999999970198,"stimulus":"\n                    <p><b>Action: <em>avoid</em></b></p>\n                    <p>This is the bee that you just saw.</p>\n                    <img src=\"bees-with-color/bee-B2SM.svg\" width=\"200\">\n                    <p><br>Your bonus pay is unchanged, and remains at $0.10.</p>\n            ","response":0,"trial_type":"html-button-response","trial_index":118,"time_elapsed":428293,"internal_node_id":"0.0-4.0-1.55","subject_id":"5c573e54e9813700018acc31","study_id":"6197b3f67c2b5cd3b6d9596a","session_id":"619beeebe9a252b640379803","condition":"contingent","relevant_dimensions":["antennae","pattern"],"bee_group":{"antennae":"A","wings":"X","pattern":"S","legs":"X"},"bonus":0.04},{"rt":823,"stimulus":"bees-with-color/bee-A1DF.svg","response":0,"trial_type":"image-button-response","trial_index":119,"time_elapsed":429117,"internal_node_id":"0.0-4.0-0.56","subject_id":"5c573e54e9813700018acc31","study_id":"6197b3f67c2b5cd3b6d9596a","session_id":"619beeebe9a252b640379803","condition":"contingent","relevant_dimensions":["antennae","pattern"],"bee_group":{"antennae":"A","wings":"X","pattern":"S","legs":"X"},"action":"harvest","summary":"good-harvest","bonus":0.04},{"rt":712.7999999970198,"stimulus":"\n                    <p><b>Action: <em>harvest</em></b></p>\n                    <p>This is the bee that you just saw.</p>\n                    <img src=\"bees-with-color/bee-A1DF.svg\" width=\"200\">\n                    <p><span class=\"greenText\"><b>Successful harvest!</b></span><br>Your pay has increased by $0.02. Your bonus pay is now $0.12.</p>\n            ","response":0,"trial_type":"html-button-response","trial_index":120,"time_elapsed":429830,"internal_node_id":"0.0-4.0-1.56","subject_id":"5c573e54e9813700018acc31","study_id":"6197b3f67c2b5cd3b6d9596a","session_id":"619beeebe9a252b640379803","condition":"contingent","relevant_dimensions":["antennae","pattern"],"bee_group":{"antennae":"A","wings":"X","pattern":"S","legs":"X"},"bonus":0.04},{"rt":1145.300000000745,"stimulus":"bees-with-color/bee-A1DM.svg","response":0,"trial_type":"image-button-response","trial_index":121,"time_elapsed":430977,"internal_node_id":"0.0-4.0-0.57","subject_id":"5c573e54e9813700018acc31","study_id":"6197b3f67c2b5cd3b6d9596a","session_id":"619beeebe9a252b640379803","condition":"contingent","relevant_dimensions":["antennae","pattern"],"bee_group":{"antennae":"A","wings":"X","pattern":"S","legs":"X"},"action":"harvest","summary":"good-harvest","bonus":0.04},{"rt":644.8999999985099,"stimulus":"\n                    <p><b>Action: <em>harvest</em></b></p>\n                    <p>This is the bee that you just saw.</p>\n                    <img src=\"bees-with-color/bee-A1DM.svg\" width=\"200\">\n                    <p><span class=\"greenText\"><b>Successful harvest!</b></span><br>Your pay has increased by $0.02. Your bonus pay is now $0.14.</p>\n            ","response":0,"trial_type":"html-button-response","trial_index":122,"time_elapsed":431623,"internal_node_id":"0.0-4.0-1.57","subject_id":"5c573e54e9813700018acc31","study_id":"6197b3f67c2b5cd3b6d9596a","session_id":"619beeebe9a252b640379803","condition":"contingent","relevant_dimensions":["antennae","pattern"],"bee_group":{"antennae":"A","wings":"X","pattern":"S","legs":"X"},"bonus":0.04},{"rt":956.9000000022352,"stimulus":"bees-with-color/bee-B2SF.svg","response":1,"trial_type":"image-button-response","trial_index":123,"time_elapsed":432581,"internal_node_id":"0.0-4.0-0.58","subject_id":"5c573e54e9813700018acc31","study_id":"6197b3f67c2b5cd3b6d9596a","session_id":"619beeebe9a252b640379803","condition":"contingent","relevant_dimensions":["antennae","pattern"],"bee_group":{"antennae":"A","wings":"X","pattern":"S","legs":"X"},"action":"avoid","summary":"bad-avoid","bonus":0.04},{"rt":1029,"stimulus":"\n                    <p><b>Action: <em>avoid</em></b></p>\n                    <p>This is the bee that you just saw.</p>\n                    <img src=\"bees-with-color/bee-B2SF.svg\" width=\"200\">\n                    <p><br>Your bonus pay is unchanged, and remains at $0.14.</p>\n            ","response":0,"trial_type":"html-button-response","trial_index":124,"time_elapsed":433611,"internal_node_id":"0.0-4.0-1.58","subject_id":"5c573e54e9813700018acc31","study_id":"6197b3f67c2b5cd3b6d9596a","session_id":"619beeebe9a252b640379803","condition":"contingent","relevant_dimensions":["antennae","pattern"],"bee_group":{"antennae":"A","wings":"X","pattern":"S","legs":"X"},"bonus":0.04},{"rt":1087.2000000029802,"stimulus":"bees-with-color/bee-B2DF.svg","response":1,"trial_type":"image-button-response","trial_index":125,"time_elapsed":434699,"internal_node_id":"0.0-4.0-0.59","subject_id":"5c573e54e9813700018acc31","study_id":"6197b3f67c2b5cd3b6d9596a","session_id":"619beeebe9a252b640379803","condition":"contingent","relevant_dimensions":["antennae","pattern"],"bee_group":{"antennae":"A","wings":"X","pattern":"S","legs":"X"},"action":"avoid","summary":"bad-avoid","bonus":0.04},{"rt":879.1999999992549,"stimulus":"\n                    <p><b>Action: <em>avoid</em></b></p>\n                    <p>This is the bee that you just saw.</p>\n                    <img src=\"bees-with-color/bee-B2DF.svg\" width=\"200\">\n                    <p><br>Your bonus pay is unchanged, and remains at $0.14.</p>\n            ","response":0,"trial_type":"html-button-response","trial_index":126,"time_elapsed":435579,"internal_node_id":"0.0-4.0-1.59","subject_id":"5c573e54e9813700018acc31","study_id":"6197b3f67c2b5cd3b6d9596a","session_id":"619beeebe9a252b640379803","condition":"contingent","relevant_dimensions":["antennae","pattern"],"bee_group":{"antennae":"A","wings":"X","pattern":"S","legs":"X"},"bonus":0.04},{"rt":911.5,"stimulus":"bees-with-color/bee-B1SF.svg","response":0,"trial_type":"image-button-response","trial_index":127,"time_elapsed":436492,"internal_node_id":"0.0-4.0-0.60","subject_id":"5c573e54e9813700018acc31","study_id":"6197b3f67c2b5cd3b6d9596a","session_id":"619beeebe9a252b640379803","condition":"contingent","relevant_dimensions":["antennae","pattern"],"bee_group":{"antennae":"A","wings":"X","pattern":"S","legs":"X"},"action":"harvest","summary":"good-harvest","bonus":0.04},{"rt":818.6999999992549,"stimulus":"\n                    <p><b>Action: <em>harvest</em></b></p>\n                    <p>This is the bee that you just saw.</p>\n                    <img src=\"bees-with-color/bee-B1SF.svg\" width=\"200\">\n                    <p><span class=\"greenText\"><b>Successful harvest!</b></span><br>Your pay has increased by $0.02. Your bonus pay is now $0.16.</p>\n            ","response":0,"trial_type":"html-button-response","trial_index":128,"time_elapsed":437312,"internal_node_id":"0.0-4.0-1.60","subject_id":"5c573e54e9813700018acc31","study_id":"6197b3f67c2b5cd3b6d9596a","session_id":"619beeebe9a252b640379803","condition":"contingent","relevant_dimensions":["antennae","pattern"],"bee_group":{"antennae":"A","wings":"X","pattern":"S","legs":"X"},"bonus":0.04},{"rt":1011.3000000007451,"stimulus":"bees-with-color/bee-A1SM.svg","response":0,"trial_type":"image-button-response","trial_index":129,"time_elapsed":438324,"internal_node_id":"0.0-4.0-0.61","subject_id":"5c573e54e9813700018acc31","study_id":"6197b3f67c2b5cd3b6d9596a","session_id":"619beeebe9a252b640379803","condition":"contingent","relevant_dimensions":["antennae","pattern"],"bee_group":{"antennae":"A","wings":"X","pattern":"S","legs":"X"},"action":"harvest","summary":"bad-harvest","bonus":0.04},{"rt":1027.300000000745,"stimulus":"\n                    <p><b>Action: <em>harvest</em></b></p>\n                    <p>This is the bee that you just saw.</p>\n                    <img src=\"bees-with-color/bee-A1SM.svg\" width=\"200\">\n                    <p><span class=\"redText\">Bad choice, the bee was angry.</span><br><b>You have been stung!</b><br>Your pay has been decreased by $0.10. Your bonus pay is now $0.06.</p>\n            ","response":0,"trial_type":"html-button-response","trial_index":130,"time_elapsed":439352,"internal_node_id":"0.0-4.0-1.61","subject_id":"5c573e54e9813700018acc31","study_id":"6197b3f67c2b5cd3b6d9596a","session_id":"619beeebe9a252b640379803","condition":"contingent","relevant_dimensions":["antennae","pattern"],"bee_group":{"antennae":"A","wings":"X","pattern":"S","legs":"X"},"bonus":0.04},{"rt":957.5999999977648,"stimulus":"bees-with-color/bee-A2DM.svg","response":1,"trial_type":"image-button-response","trial_index":131,"time_elapsed":440310,"internal_node_id":"0.0-4.0-0.62","subject_id":"5c573e54e9813700018acc31","study_id":"6197b3f67c2b5cd3b6d9596a","session_id":"619beeebe9a252b640379803","condition":"contingent","relevant_dimensions":["antennae","pattern"],"bee_group":{"antennae":"A","wings":"X","pattern":"S","legs":"X"},"action":"avoid","summary":"bad-avoid","bonus":0.04},{"rt":864.8000000007451,"stimulus":"\n                    <p><b>Action: <em>avoid</em></b></p>\n                    <p>This is the bee that you just saw.</p>\n                    <img src=\"bees-with-color/bee-A2DM.svg\" width=\"200\">\n                    <p><br>Your bonus pay is unchanged, and remains at $0.06.</p>\n            ","response":0,"trial_type":"html-button-response","trial_index":132,"time_elapsed":441176,"internal_node_id":"0.0-4.0-1.62","subject_id":"5c573e54e9813700018acc31","study_id":"6197b3f67c2b5cd3b6d9596a","session_id":"619beeebe9a252b640379803","condition":"contingent","relevant_dimensions":["antennae","pattern"],"bee_group":{"antennae":"A","wings":"X","pattern":"S","legs":"X"},"bonus":0.04},{"rt":1047.3999999985099,"stimulus":"bees-with-color/bee-A2SF.svg","response":1,"trial_type":"image-button-response","trial_index":133,"time_elapsed":442224,"internal_node_id":"0.0-4.0-0.63","subject_id":"5c573e54e9813700018acc31","study_id":"6197b3f67c2b5cd3b6d9596a","session_id":"619beeebe9a252b640379803","condition":"contingent","relevant_dimensions":["antennae","pattern"],"bee_group":{"antennae":"A","wings":"X","pattern":"S","legs":"X"},"action":"avoid","summary":"good-avoid","bonus":0.04},{"rt":727.3000000007451,"stimulus":"\n                    <p><b>Action: <em>avoid</em></b></p>\n                    <p>This is the bee that you just saw.</p>\n                    <img src=\"bees-with-color/bee-A2SF.svg\" width=\"200\">\n                    <p><br>Your bonus pay is unchanged, and remains at $0.06.</p>\n            ","response":0,"trial_type":"html-button-response","trial_index":134,"time_elapsed":442952,"internal_node_id":"0.0-4.0-1.63","subject_id":"5c573e54e9813700018acc31","study_id":"6197b3f67c2b5cd3b6d9596a","session_id":"619beeebe9a252b640379803","condition":"contingent","relevant_dimensions":["antennae","pattern"],"bee_group":{"antennae":"A","wings":"X","pattern":"S","legs":"X"},"bonus":0.04},{"rt":8183.099999997765,"stimulus":"You have completed the first part of this experiment.<br><br>You will now begin a shorter second part, in which you will receive no feedback.<br>The same rules regarding bonus pay apply.<br><br>Press any key to begin.","response":" ","trial_type":"html-keyboard-response","trial_index":135,"time_elapsed":451136,"internal_node_id":"0.0-5.0","subject_id":"5c573e54e9813700018acc31","study_id":"6197b3f67c2b5cd3b6d9596a","session_id":"619beeebe9a252b640379803","condition":"contingent","relevant_dimensions":["antennae","pattern"],"bee_group":{"antennae":"A","wings":"X","pattern":"S","legs":"X"},"bonus":0.04},{"rt":2466.7999999970198,"stimulus":"bees-with-color/bee-A2DM.svg","response":1,"trial_type":"image-button-response","trial_index":136,"time_elapsed":453610,"internal_node_id":"0.0-6.0-0.0","subject_id":"5c573e54e9813700018acc31","study_id":"6197b3f67c2b5cd3b6d9596a","session_id":"619beeebe9a252b640379803","condition":"contingent","relevant_dimensions":["antennae","pattern"],"bee_group":{"antennae":"A","wings":"X","pattern":"S","legs":"X"},"bonus":0.04},{"rt":1584.8999999985099,"stimulus":"bees-with-color/bee-A2DF.svg","response":1,"trial_type":"image-button-response","trial_index":137,"time_elapsed":455196,"internal_node_id":"0.0-6.0-0.1","subject_id":"5c573e54e9813700018acc31","study_id":"6197b3f67c2b5cd3b6d9596a","session_id":"619beeebe9a252b640379803","condition":"contingent","relevant_dimensions":["antennae","pattern"],"bee_group":{"antennae":"A","wings":"X","pattern":"S","legs":"X"},"bonus":0.04},{"rt":935,"stimulus":"bees-with-color/bee-A1DF.svg","response":0,"trial_type":"image-button-response","trial_index":138,"time_elapsed":456132,"internal_node_id":"0.0-6.0-0.2","subject_id":"5c573e54e9813700018acc31","study_id":"6197b3f67c2b5cd3b6d9596a","session_id":"619beeebe9a252b640379803","condition":"contingent","relevant_dimensions":["antennae","pattern"],"bee_group":{"antennae":"A","wings":"X","pattern":"S","legs":"X"},"bonus":0.04},{"rt":1698.5999999977648,"stimulus":"bees-with-color/bee-B2DM.svg","response":1,"trial_type":"image-button-response","trial_index":139,"time_elapsed":457832,"internal_node_id":"0.0-6.0-0.3","subject_id":"5c573e54e9813700018acc31","study_id":"6197b3f67c2b5cd3b6d9596a","session_id":"619beeebe9a252b640379803","condition":"contingent","relevant_dimensions":["antennae","pattern"],"bee_group":{"antennae":"A","wings":"X","pattern":"S","legs":"X"},"bonus":0.04},{"rt":2910.89999999851,"stimulus":"bees-with-color/bee-A2SM.svg","response":1,"trial_type":"image-button-response","trial_index":140,"time_elapsed":460745,"internal_node_id":"0.0-6.0-0.4","subject_id":"5c573e54e9813700018acc31","study_id":"6197b3f67c2b5cd3b6d9596a","session_id":"619beeebe9a252b640379803","condition":"contingent","relevant_dimensions":["antennae","pattern"],"bee_group":{"antennae":"A","wings":"X","pattern":"S","legs":"X"},"bonus":0.04},{"rt":717.3000000007451,"stimulus":"bees-with-color/bee-A1DM.svg","response":0,"trial_type":"image-button-response","trial_index":141,"time_elapsed":461463,"internal_node_id":"0.0-6.0-0.5","subject_id":"5c573e54e9813700018acc31","study_id":"6197b3f67c2b5cd3b6d9596a","session_id":"619beeebe9a252b640379803","condition":"contingent","relevant_dimensions":["antennae","pattern"],"bee_group":{"antennae":"A","wings":"X","pattern":"S","legs":"X"},"bonus":0.04},{"rt":1000.8000000007451,"stimulus":"bees-with-color/bee-B1SF.svg","response":0,"trial_type":"image-button-response","trial_index":142,"time_elapsed":462465,"internal_node_id":"0.0-6.0-0.6","subject_id":"5c573e54e9813700018acc31","study_id":"6197b3f67c2b5cd3b6d9596a","session_id":"619beeebe9a252b640379803","condition":"contingent","relevant_dimensions":["antennae","pattern"],"bee_group":{"antennae":"A","wings":"X","pattern":"S","legs":"X"},"bonus":0.04},{"rt":1360.8999999985099,"stimulus":"bees-with-color/bee-A1SM.svg","response":0,"trial_type":"image-button-response","trial_index":143,"time_elapsed":463828,"internal_node_id":"0.0-6.0-0.7","subject_id":"5c573e54e9813700018acc31","study_id":"6197b3f67c2b5cd3b6d9596a","session_id":"619beeebe9a252b640379803","condition":"contingent","relevant_dimensions":["antennae","pattern"],"bee_group":{"antennae":"A","wings":"X","pattern":"S","legs":"X"},"bonus":0.04},{"rt":1125.199999999255,"stimulus":"bees-with-color/bee-B1DF.svg","response":0,"trial_type":"image-button-response","trial_index":144,"time_elapsed":464954,"internal_node_id":"0.0-6.0-0.8","subject_id":"5c573e54e9813700018acc31","study_id":"6197b3f67c2b5cd3b6d9596a","session_id":"619beeebe9a252b640379803","condition":"contingent","relevant_dimensions":["antennae","pattern"],"bee_group":{"antennae":"A","wings":"X","pattern":"S","legs":"X"},"bonus":0.04},{"rt":1130.5,"stimulus":"bees-with-color/bee-B1DM.svg","response":1,"trial_type":"image-button-response","trial_index":145,"time_elapsed":466086,"internal_node_id":"0.0-6.0-0.9","subject_id":"5c573e54e9813700018acc31","study_id":"6197b3f67c2b5cd3b6d9596a","session_id":"619beeebe9a252b640379803","condition":"contingent","relevant_dimensions":["antennae","pattern"],"bee_group":{"antennae":"A","wings":"X","pattern":"S","legs":"X"},"bonus":0.04},{"rt":1740.8999999985099,"stimulus":"bees-with-color/bee-B2SF.svg","response":1,"trial_type":"image-button-response","trial_index":146,"time_elapsed":467828,"internal_node_id":"0.0-6.0-0.10","subject_id":"5c573e54e9813700018acc31","study_id":"6197b3f67c2b5cd3b6d9596a","session_id":"619beeebe9a252b640379803","condition":"contingent","relevant_dimensions":["antennae","pattern"],"bee_group":{"antennae":"A","wings":"X","pattern":"S","legs":"X"},"bonus":0.04},{"rt":1648.8999999985099,"stimulus":"bees-with-color/bee-A2SF.svg","response":1,"trial_type":"image-button-response","trial_index":147,"time_elapsed":469478,"internal_node_id":"0.0-6.0-0.11","subject_id":"5c573e54e9813700018acc31","study_id":"6197b3f67c2b5cd3b6d9596a","session_id":"619beeebe9a252b640379803","condition":"contingent","relevant_dimensions":["antennae","pattern"],"bee_group":{"antennae":"A","wings":"X","pattern":"S","legs":"X"},"bonus":0.04},{"rt":1086.699999999255,"stimulus":"bees-with-color/bee-B2SM.svg","response":1,"trial_type":"image-button-response","trial_index":148,"time_elapsed":470566,"internal_node_id":"0.0-6.0-0.12","subject_id":"5c573e54e9813700018acc31","study_id":"6197b3f67c2b5cd3b6d9596a","session_id":"619beeebe9a252b640379803","condition":"contingent","relevant_dimensions":["antennae","pattern"],"bee_group":{"antennae":"A","wings":"X","pattern":"S","legs":"X"},"bonus":0.04},{"rt":1001.3000000007451,"stimulus":"bees-with-color/bee-B1SM.svg","response":0,"trial_type":"image-button-response","trial_index":149,"time_elapsed":471568,"internal_node_id":"0.0-6.0-0.13","subject_id":"5c573e54e9813700018acc31","study_id":"6197b3f67c2b5cd3b6d9596a","session_id":"619beeebe9a252b640379803","condition":"contingent","relevant_dimensions":["antennae","pattern"],"bee_group":{"antennae":"A","wings":"X","pattern":"S","legs":"X"},"bonus":0.04},{"rt":1844.9000000022352,"stimulus":"bees-with-color/bee-B2DF.svg","response":1,"trial_type":"image-button-response","trial_index":150,"time_elapsed":473415,"internal_node_id":"0.0-6.0-0.14","subject_id":"5c573e54e9813700018acc31","study_id":"6197b3f67c2b5cd3b6d9596a","session_id":"619beeebe9a252b640379803","condition":"contingent","relevant_dimensions":["antennae","pattern"],"bee_group":{"antennae":"A","wings":"X","pattern":"S","legs":"X"},"bonus":0.04},{"rt":934.8000000007451,"stimulus":"bees-with-color/bee-A1SF.svg","response":0,"trial_type":"image-button-response","trial_index":151,"time_elapsed":474351,"internal_node_id":"0.0-6.0-0.15","subject_id":"5c573e54e9813700018acc31","study_id":"6197b3f67c2b5cd3b6d9596a","session_id":"619beeebe9a252b640379803","condition":"contingent","relevant_dimensions":["antennae","pattern"],"bee_group":{"antennae":"A","wings":"X","pattern":"S","legs":"X"},"bonus":0.04},{"rt":1049.5,"stimulus":"bees-with-color/bee-B1SF.svg","response":0,"trial_type":"image-button-response","trial_index":152,"time_elapsed":475401,"internal_node_id":"0.0-6.0-0.16","subject_id":"5c573e54e9813700018acc31","study_id":"6197b3f67c2b5cd3b6d9596a","session_id":"619beeebe9a252b640379803","condition":"contingent","relevant_dimensions":["antennae","pattern"],"bee_group":{"antennae":"A","wings":"X","pattern":"S","legs":"X"},"bonus":0.04},{"rt":710.6000000014901,"stimulus":"bees-with-color/bee-B2SF.svg","response":1,"trial_type":"image-button-response","trial_index":153,"time_elapsed":476113,"internal_node_id":"0.0-6.0-0.17","subject_id":"5c573e54e9813700018acc31","study_id":"6197b3f67c2b5cd3b6d9596a","session_id":"619beeebe9a252b640379803","condition":"contingent","relevant_dimensions":["antennae","pattern"],"bee_group":{"antennae":"A","wings":"X","pattern":"S","legs":"X"},"bonus":0.04},{"rt":2535.2999999970198,"stimulus":"bees-with-color/bee-A1DM.svg","response":1,"trial_type":"image-button-response","trial_index":154,"time_elapsed":478649,"internal_node_id":"0.0-6.0-0.18","subject_id":"5c573e54e9813700018acc31","study_id":"6197b3f67c2b5cd3b6d9596a","session_id":"619beeebe9a252b640379803","condition":"contingent","relevant_dimensions":["antennae","pattern"],"bee_group":{"antennae":"A","wings":"X","pattern":"S","legs":"X"},"bonus":0.04},{"rt":1432.800000000745,"stimulus":"bees-with-color/bee-B1DM.svg","response":0,"trial_type":"image-button-response","trial_index":155,"time_elapsed":480083,"internal_node_id":"0.0-6.0-0.19","subject_id":"5c573e54e9813700018acc31","study_id":"6197b3f67c2b5cd3b6d9596a","session_id":"619beeebe9a252b640379803","condition":"contingent","relevant_dimensions":["antennae","pattern"],"bee_group":{"antennae":"A","wings":"X","pattern":"S","legs":"X"},"bonus":0.04},{"rt":1019.1000000014901,"stimulus":"bees-with-color/bee-B2SM.svg","response":1,"trial_type":"image-button-response","trial_index":156,"time_elapsed":481103,"internal_node_id":"0.0-6.0-0.20","subject_id":"5c573e54e9813700018acc31","study_id":"6197b3f67c2b5cd3b6d9596a","session_id":"619beeebe9a252b640379803","condition":"contingent","relevant_dimensions":["antennae","pattern"],"bee_group":{"antennae":"A","wings":"X","pattern":"S","legs":"X"},"bonus":0.04},{"rt":3143.10000000149,"stimulus":"bees-with-color/bee-B2DF.svg","response":1,"trial_type":"image-button-response","trial_index":157,"time_elapsed":484247,"internal_node_id":"0.0-6.0-0.21","subject_id":"5c573e54e9813700018acc31","study_id":"6197b3f67c2b5cd3b6d9596a","session_id":"619beeebe9a252b640379803","condition":"contingent","relevant_dimensions":["antennae","pattern"],"bee_group":{"antennae":"A","wings":"X","pattern":"S","legs":"X"},"bonus":0.04},{"rt":920.8999999985099,"stimulus":"bees-with-color/bee-A2SM.svg","response":1,"trial_type":"image-button-response","trial_index":158,"time_elapsed":485170,"internal_node_id":"0.0-6.0-0.22","subject_id":"5c573e54e9813700018acc31","study_id":"6197b3f67c2b5cd3b6d9596a","session_id":"619beeebe9a252b640379803","condition":"contingent","relevant_dimensions":["antennae","pattern"],"bee_group":{"antennae":"A","wings":"X","pattern":"S","legs":"X"},"bonus":0.04},{"rt":1121.2000000029802,"stimulus":"bees-with-color/bee-A1SM.svg","response":0,"trial_type":"image-button-response","trial_index":159,"time_elapsed":486292,"internal_node_id":"0.0-6.0-0.23","subject_id":"5c573e54e9813700018acc31","study_id":"6197b3f67c2b5cd3b6d9596a","session_id":"619beeebe9a252b640379803","condition":"contingent","relevant_dimensions":["antennae","pattern"],"bee_group":{"antennae":"A","wings":"X","pattern":"S","legs":"X"},"bonus":0.04},{"rt":4259.39999999851,"stimulus":"bees-with-color/bee-B1SM.svg","response":0,"trial_type":"image-button-response","trial_index":160,"time_elapsed":490552,"internal_node_id":"0.0-6.0-0.24","subject_id":"5c573e54e9813700018acc31","study_id":"6197b3f67c2b5cd3b6d9596a","session_id":"619beeebe9a252b640379803","condition":"contingent","relevant_dimensions":["antennae","pattern"],"bee_group":{"antennae":"A","wings":"X","pattern":"S","legs":"X"},"bonus":0.04},{"rt":942.6999999992549,"stimulus":"bees-with-color/bee-A2SF.svg","response":1,"trial_type":"image-button-response","trial_index":161,"time_elapsed":491496,"internal_node_id":"0.0-6.0-0.25","subject_id":"5c573e54e9813700018acc31","study_id":"6197b3f67c2b5cd3b6d9596a","session_id":"619beeebe9a252b640379803","condition":"contingent","relevant_dimensions":["antennae","pattern"],"bee_group":{"antennae":"A","wings":"X","pattern":"S","legs":"X"},"bonus":0.04},{"rt":1358.8999999985099,"stimulus":"bees-with-color/bee-B2DM.svg","response":1,"trial_type":"image-button-response","trial_index":162,"time_elapsed":492857,"internal_node_id":"0.0-6.0-0.26","subject_id":"5c573e54e9813700018acc31","study_id":"6197b3f67c2b5cd3b6d9596a","session_id":"619beeebe9a252b640379803","condition":"contingent","relevant_dimensions":["antennae","pattern"],"bee_group":{"antennae":"A","wings":"X","pattern":"S","legs":"X"},"bonus":0.04},{"rt":1257.1000000014901,"stimulus":"bees-with-color/bee-A1SF.svg","response":0,"trial_type":"image-button-response","trial_index":163,"time_elapsed":494115,"internal_node_id":"0.0-6.0-0.27","subject_id":"5c573e54e9813700018acc31","study_id":"6197b3f67c2b5cd3b6d9596a","session_id":"619beeebe9a252b640379803","condition":"contingent","relevant_dimensions":["antennae","pattern"],"bee_group":{"antennae":"A","wings":"X","pattern":"S","legs":"X"},"bonus":0.04},{"rt":1137,"stimulus":"bees-with-color/bee-A2DF.svg","response":1,"trial_type":"image-button-response","trial_index":164,"time_elapsed":495253,"internal_node_id":"0.0-6.0-0.28","subject_id":"5c573e54e9813700018acc31","study_id":"6197b3f67c2b5cd3b6d9596a","session_id":"619beeebe9a252b640379803","condition":"contingent","relevant_dimensions":["antennae","pattern"],"bee_group":{"antennae":"A","wings":"X","pattern":"S","legs":"X"},"bonus":0.04},{"rt":1146.300000000745,"stimulus":"bees-with-color/bee-B1DF.svg","response":0,"trial_type":"image-button-response","trial_index":165,"time_elapsed":496401,"internal_node_id":"0.0-6.0-0.29","subject_id":"5c573e54e9813700018acc31","study_id":"6197b3f67c2b5cd3b6d9596a","session_id":"619beeebe9a252b640379803","condition":"contingent","relevant_dimensions":["antennae","pattern"],"bee_group":{"antennae":"A","wings":"X","pattern":"S","legs":"X"},"bonus":0.04},{"rt":1271.1000000014901,"stimulus":"bees-with-color/bee-A1DF.svg","response":0,"trial_type":"image-button-response","trial_index":166,"time_elapsed":497673,"internal_node_id":"0.0-6.0-0.30","subject_id":"5c573e54e9813700018acc31","study_id":"6197b3f67c2b5cd3b6d9596a","session_id":"619beeebe9a252b640379803","condition":"contingent","relevant_dimensions":["antennae","pattern"],"bee_group":{"antennae":"A","wings":"X","pattern":"S","legs":"X"},"bonus":0.04},{"rt":888.8000000007451,"sti