[{"success":true,"trial_type":"fullscreen","trial_index":0,"time_elapsed":2670,"internal_node_id":"0.0-0.0","subject_id":"606e2ea0c4bd646aee2f2d7f","study_id":"60edd13110225f80f9f3709b","session_id":"6196c700ff05bf7e688a3b80","condition":"full-information","relevant_dimensions":["wings","legs"],"bee_group":{"antennae":"X","wings":"1","pattern":"X","legs":"F"},"bonus":1.480000000000001},{"success":true,"timeout":false,"failed_images":[],"failed_audio":[],"failed_video":[],"trial_type":"preload","trial_index":1,"time_elapsed":2677,"internal_node_id":"0.0-1.0","subject_id":"606e2ea0c4bd646aee2f2d7f","study_id":"60edd13110225f80f9f3709b","session_id":"6196c700ff05bf7e688a3b80","condition":"full-information","relevant_dimensions":["wings","legs"],"bee_group":{"antennae":"X","wings":"1","pattern":"X","legs":"F"},"bonus":1.480000000000001},{"rt":1339.3999999985099,"stimulus":"Welcome! Press any key to begin.","response":" ","trial_type":"html-keyboard-response","trial_index":2,"time_elapsed":4018,"internal_node_id":"0.0-2.0","subject_id":"606e2ea0c4bd646aee2f2d7f","study_id":"60edd13110225f80f9f3709b","session_id":"6196c700ff05bf7e688a3b80","condition":"full-information","relevant_dimensions":["wings","legs"],"bee_group":{"antennae":"X","wings":"1","pattern":"X","legs":"F"},"bonus":1.480000000000001},{"view_history":[{"page_index":0,"viewing_time":778.3999999985099},{"page_index":1,"viewing_time":7959.699999999255},{"page_index":2,"viewing_time":2925.900000002235},{"page_index":3,"viewing_time":4107.699999999255},{"page_index":4,"viewing_time":8440.300000000745},{"page_index":5,"viewing_time":3121.39999999851},{"page_index":6,"viewing_time":1024.6000000014901},{"page_index":5,"viewing_time":4284.300000000745},{"page_index":6,"viewing_time":3468.599999997765},{"page_index":7,"viewing_time":4115.5},{"page_index":8,"viewing_time":2680.699999999255},{"page_index":9,"viewing_time":1751.6000000014901},{"page_index":10,"viewing_time":1339.3999999985099},{"page_index":11,"viewing_time":6538.800000000745},{"page_index":12,"viewing_time":8231},{"page_index":13,"viewing_time":883.5},{"page_index":14,"viewing_time":616}],"rt":62267.699999999255,"trial_type":"instructions","trial_index":3,"time_elapsed":66288,"internal_node_id":"0.0-3.0-0.0","subject_id":"606e2ea0c4bd646aee2f2d7f","study_id":"60edd13110225f80f9f3709b","session_id":"6196c700ff05bf7e688a3b80","condition":"full-information","relevant_dimensions":["wings","legs"],"bee_group":{"antennae":"X","wings":"1","pattern":"X","legs":"F"},"bonus":1.480000000000001},{"rt":6361.699999999255,"response":{"Q0":["Two or six legs","Stripes or spots on body","Single or double wings","Antennae or no antennae"]},"question_order":[0],"trial_type":"survey-multi-select","trial_index":4,"time_elapsed":72659,"internal_node_id":"0.0-3.0-1.0","subject_id":"606e2ea0c4bd646aee2f2d7f","study_id":"60edd13110225f80f9f3709b","session_id":"6196c700ff05bf7e688a3b80","condition":"full-information","relevant_dimensions":["wings","legs"],"bee_group":{"antennae":"X","wings":"1","pattern":"X","legs":"F"},"correct":true,"bonus":1.480000000000001},{"rt":22556,"response":{"Q1":"No.","Q2":"Based on the four features of the bee.","Q3":"You do not learn if it was friendly or dangerous, and do not alter your bonus."},"question_order":[0,1,2],"trial_type":"survey-multi-choice","trial_index":5,"time_elapsed":95218,"internal_node_id":"0.0-3.0-2.0","subject_id":"606e2ea0c4bd646aee2f2d7f","study_id":"60edd13110225f80f9f3709b","session_id":"6196c700ff05bf7e688a3b80","condition":"full-information","relevant_dimensions":["wings","legs"],"bee_group":{"antennae":"X","wings":"1","pattern":"X","legs":"F"},"correct":false,"bonus":1.480000000000001},{"rt":5084.5,"stimulus":"<p>You did not answer all comprehension questions correctly.<br>Press <b>continue</b> to review the instructions again.</p>","response":0,"trial_type":"html-button-response","trial_index":6,"time_elapsed":100305,"internal_node_id":"0.0-3.0-3.0","subject_id":"606e2ea0c4bd646aee2f2d7f","study_id":"60edd13110225f80f9f3709b","session_id":"6196c700ff05bf7e688a3b80","condition":"full-information","relevant_dimensions":["wings","legs"],"bee_group":{"antennae":"X","wings":"1","pattern":"X","legs":"F"},"bonus":1.480000000000001},{"view_history":[{"page_index":0,"viewing_time":1842},{"page_index":1,"viewing_time":986.3000000007451},{"page_index":2,"viewing_time":733.7999999970198},{"page_index":3,"viewing_time":853.1000000014901},{"page_index":4,"viewing_time":660.8999999985099},{"page_index":5,"viewing_time":409.80000000074506},{"page_index":6,"viewing_time":1159.300000000745},{"page_index":7,"viewing_time":954.8999999985099},{"page_index":8,"viewing_time":1208.300000000745},{"page_index":9,"viewing_time":958.6000000014901},{"page_index":8,"viewing_time":1153.199999999255},{"page_index":9,"viewing_time":345.6000000014901},{"page_index":10,"viewing_time":401.8999999985099},{"page_index":11,"viewing_time":7641.39999999851},{"page_index":12,"viewing_time":1403.4000000022352},{"page_index":13,"viewing_time":883.3000000007451},{"page_index":14,"viewing_time":662.1999999992549}],"rt":22258.39999999851,"trial_type":"instructions","trial_index":7,"time_elapsed":122566,"internal_node_id":"0.0-3.0-4.0-0.0","subject_id":"606e2ea0c4bd646aee2f2d7f","study_id":"60edd13110225f80f9f3709b","session_id":"6196c700ff05bf7e688a3b80","condition":"full-information","relevant_dimensions":["wings","legs"],"bee_group":{"antennae":"X","wings":"1","pattern":"X","legs":"F"},"bonus":1.480000000000001},{"rt":16972.5,"response":{"Q0":["Two or six legs","Stripes or spots on body","Single or double wings","Antennae or no antennae"]},"question_order":[0],"trial_type":"survey-multi-select","trial_index":8,"time_elapsed":139548,"internal_node_id":"0.0-3.0-4.0-1.0","subject_id":"606e2ea0c4bd646aee2f2d7f","study_id":"60edd13110225f80f9f3709b","session_id":"6196c700ff05bf7e688a3b80","condition":"full-information","relevant_dimensions":["wings","legs"],"bee_group":{"antennae":"X","wings":"1","pattern":"X","legs":"F"},"correct":true,"bonus":1.480000000000001},{"rt":67256.5,"response":{"Q1":"No.","Q2":"Based on the four features of the bee.","Q3":"You learn if it was friendly or dangerous, but do not alter your bonus."},"question_order":[0,1,2],"trial_type":"survey-multi-choice","trial_index":9,"time_elapsed":206808,"internal_node_id":"0.0-3.0-4.0-2.0","subject_id":"606e2ea0c4bd646aee2f2d7f","study_id":"60edd13110225f80f9f3709b","session_id":"6196c700ff05bf7e688a3b80","condition":"full-information","relevant_dimensions":["wings","legs"],"bee_group":{"antennae":"X","wings":"1","pattern":"X","legs":"F"},"correct":true,"bonus":1.480000000000001},{"rt":4334.599999997765,"stimulus":"<p>Congrats, you got everything right<br>When you're ready, click the button below to continue to the experiment.</p>","response":0,"trial_type":"html-button-response","trial_index":10,"time_elapsed":211145,"internal_node_id":"0.0-3.0-4.0-3.0","subject_id":"606e2ea0c4bd646aee2f2d7f","study_id":"60edd13110225f80f9f3709b","session_id":"6196c700ff05bf7e688a3b80","condition":"full-information","relevant_dimensions":["wings","legs"],"bee_group":{"antennae":"X","wings":"1","pattern":"X","legs":"F"},"bonus":1.480000000000001},{"rt":9327.400000002235,"stimulus":"bees-with-color/bee-A1DM.svg","response":0,"trial_type":"image-button-response","trial_index":11,"time_elapsed":220476,"internal_node_id":"0.0-4.0-0.0","subject_id":"606e2ea0c4bd646aee2f2d7f","study_id":"60edd13110225f80f9f3709b","session_id":"6196c700ff05bf7e688a3b80","condition":"full-information","relevant_dimensions":["wings","legs"],"bee_group":{"antennae":"X","wings":"1","pattern":"X","legs":"F"},"action":"harvest","summary":"good-harvest","bonus":1.480000000000001},{"rt":8645,"stimulus":"\n                    <p><b>Action: <em>harvest</em></b></p>\n                    <p>This is the bee that you just saw.</p>\n                    <img src=\"bees-with-color/bee-A1DM.svg\" width=\"200\">\n                    <p><span class=\"greenText\"><b>Successful harvest!</b></span><br>Your pay has increased by $0.02. Your bonus pay is now $0.56.</p>\n            ","response":0,"trial_type":"html-button-response","trial_index":12,"time_elapsed":229125,"internal_node_id":"0.0-4.0-1.0","subject_id":"606e2ea0c4bd646aee2f2d7f","study_id":"60edd13110225f80f9f3709b","session_id":"6196c700ff05bf7e688a3b80","condition":"full-information","relevant_dimensions":["wings","legs"],"bee_group":{"antennae":"X","wings":"1","pattern":"X","legs":"F"},"bonus":1.480000000000001},{"rt":3411.699999999255,"stimulus":"bees-with-color/bee-A1SF.svg","response":0,"trial_type":"image-button-response","trial_index":13,"time_elapsed":232539,"internal_node_id":"0.0-4.0-0.1","subject_id":"606e2ea0c4bd646aee2f2d7f","study_id":"60edd13110225f80f9f3709b","session_id":"6196c700ff05bf7e688a3b80","condition":"full-information","relevant_dimensions":["wings","legs"],"bee_group":{"antennae":"X","wings":"1","pattern":"X","legs":"F"},"action":"harvest","summary":"bad-harvest","bonus":1.480000000000001},{"rt":5915.60000000149,"stimulus":"\n                    <p><b>Action: <em>harvest</em></b></p>\n                    <p>This is the bee that you just saw.</p>\n                    <img src=\"bees-with-color/bee-A1SF.svg\" width=\"200\">\n                    <p><span class=\"redText\">Bad choice, the bee was angry.</span><br><b>You have been stung!</b><br>Your pay has been decreased by $0.10. Your bonus pay is now $0.46.</p>\n            ","response":0,"trial_type":"html-button-response","trial_index":14,"time_elapsed":238457,"internal_node_id":"0.0-4.0-1.1","subject_id":"606e2ea0c4bd646aee2f2d7f","study_id":"60edd13110225f80f9f3709b","session_id":"6196c700ff05bf7e688a3b80","condition":"full-information","relevant_dimensions":["wings","legs"],"bee_group":{"antennae":"X","wings":"1","pattern":"X","legs":"F"},"bonus":1.480000000000001},{"rt":2228.699999999255,"stimulus":"bees-with-color/bee-B1DF.svg","response":1,"trial_type":"image-button-response","trial_index":15,"time_elapsed":240688,"internal_node_id":"0.0-4.0-0.2","subject_id":"606e2ea0c4bd646aee2f2d7f","study_id":"60edd13110225f80f9f3709b","session_id":"6196c700ff05bf7e688a3b80","condition":"full-information","relevant_dimensions":["wings","legs"],"bee_group":{"antennae":"X","wings":"1","pattern":"X","legs":"F"},"action":"avoid","summary":"good-avoid","bonus":1.480000000000001},{"rt":6448.60000000149,"stimulus":"\n                    <p><b>Action: <em>avoid</em></b></p>\n                    <p>This is the bee that you just saw.</p>\n                    <img src=\"bees-with-color/bee-B1DF.svg\" width=\"200\">\n                    <p><span class=\"greenText\">Good choice!</span>  This bee would have stung you.<br>Your bonus pay is unchanged, and remains at $0.46.</p>\n            ","response":0,"trial_type":"html-button-response","trial_index":16,"time_elapsed":247139,"internal_node_id":"0.0-4.0-1.2","subject_id":"606e2ea0c4bd646aee2f2d7f","study_id":"60edd13110225f80f9f3709b","session_id":"6196c700ff05bf7e688a3b80","condition":"full-information","relevant_dimensions":["wings","legs"],"bee_group":{"antennae":"X","wings":"1","pattern":"X","legs":"F"},"bonus":1.480000000000001},{"rt":2229.2999999970198,"stimulus":"bees-with-color/bee-B1SM.svg","response":1,"trial_type":"image-button-response","trial_index":17,"time_elapsed":249371,"internal_node_id":"0.0-4.0-0.3","subject_id":"606e2ea0c4bd646aee2f2d7f","study_id":"60edd13110225f80f9f3709b","session_id":"6196c700ff05bf7e688a3b80","condition":"full-information","relevant_dimensions":["wings","legs"],"bee_group":{"antennae":"X","wings":"1","pattern":"X","legs":"F"},"action":"avoid","summary":"bad-avoid","bonus":1.480000000000001},{"rt":7139.70000000298,"stimulus":"\n                    <p><b>Action: <em>avoid</em></b></p>\n                    <p>This is the bee that you just saw.</p>\n                    <img src=\"bees-with-color/bee-B1SM.svg\" width=\"200\">\n                    <p><span class=\"redText\">Bad choice,</span> the bee was friendly.<br>Your bonus pay is unchanged, and remains at $0.46.</p>\n            ","response":0,"trial_type":"html-button-response","trial_index":18,"time_elapsed":256513,"internal_node_id":"0.0-4.0-1.3","subject_id":"606e2ea0c4bd646aee2f2d7f","study_id":"60edd13110225f80f9f3709b","session_id":"6196c700ff05bf7e688a3b80","condition":"full-information","relevant_dimensions":["wings","legs"],"bee_group":{"antennae":"X","wings":"1","pattern":"X","legs":"F"},"bonus":1.480000000000001},{"rt":2615.89999999851,"stimulus":"bees-with-color/bee-B2DM.svg","response":1,"trial_type":"image-button-response","trial_index":19,"time_elapsed":259131,"internal_node_id":"0.0-4.0-0.4","subject_id":"606e2ea0c4bd646aee2f2d7f","study_id":"60edd13110225f80f9f3709b","session_id":"6196c700ff05bf7e688a3b80","condition":"full-information","relevant_dimensions":["wings","legs"],"bee_group":{"antennae":"X","wings":"1","pattern":"X","legs":"F"},"action":"avoid","summary":"bad-avoid","bonus":1.480000000000001},{"rt":2995.099999997765,"stimulus":"\n                    <p><b>Action: <em>avoid</em></b></p>\n                    <p>This is the bee that you just saw.</p>\n                    <img src=\"bees-with-color/bee-B2DM.svg\" width=\"200\">\n                    <p><span class=\"redText\">Bad choice,</span> the bee was friendly.<br>Your bonus pay is unchanged, and remains at $0.46.</p>\n            ","response":0,"trial_type":"html-button-response","trial_index":20,"time_elapsed":262128,"internal_node_id":"0.0-4.0-1.4","subject_id":"606e2ea0c4bd646aee2f2d7f","study_id":"60edd13110225f80f9f3709b","session_id":"6196c700ff05bf7e688a3b80","condition":"full-information","relevant_dimensions":["wings","legs"],"bee_group":{"antennae":"X","wings":"1","pattern":"X","legs":"F"},"bonus":1.480000000000001},{"rt":6667.300000000745,"stimulus":"bees-with-color/bee-A1SM.svg","response":0,"trial_type":"image-button-response","trial_index":21,"time_elapsed":268798,"internal_node_id":"0.0-4.0-0.5","subject_id":"606e2ea0c4bd646aee2f2d7f","study_id":"60edd13110225f80f9f3709b","session_id":"6196c700ff05bf7e688a3b80","condition":"full-information","relevant_dimensions":["wings","legs"],"bee_group":{"antennae":"X","wings":"1","pattern":"X","legs":"F"},"action":"harvest","summary":"good-harvest","bonus":1.480000000000001},{"rt":1670.199999999255,"stimulus":"\n                    <p><b>Action: <em>harvest</em></b></p>\n                    <p>This is the bee that you just saw.</p>\n                    <img src=\"bees-with-color/bee-A1SM.svg\" width=\"200\">\n                    <p><span class=\"greenText\"><b>Successful harvest!</b></span><br>Your pay has increased by $0.02. Your bonus pay is now $0.48.</p>\n            ","response":0,"trial_type":"html-button-response","trial_index":22,"time_elapsed":270470,"internal_node_id":"0.0-4.0-1.5","subject_id":"606e2ea0c4bd646aee2f2d7f","study_id":"60edd13110225f80f9f3709b","session_id":"6196c700ff05bf7e688a3b80","condition":"full-information","relevant_dimensions":["wings","legs"],"bee_group":{"antennae":"X","wings":"1","pattern":"X","legs":"F"},"bonus":1.480000000000001},{"rt":5829.5,"stimulus":"bees-with-color/bee-A2SF.svg","response":1,"trial_type":"image-button-response","trial_index":23,"time_elapsed":276302,"internal_node_id":"0.0-4.0-0.6","subject_id":"606e2ea0c4bd646aee2f2d7f","study_id":"60edd13110225f80f9f3709b","session_id":"6196c700ff05bf7e688a3b80","condition":"full-information","relevant_dimensions":["wings","legs"],"bee_group":{"antennae":"X","wings":"1","pattern":"X","legs":"F"},"action":"avoid","summary":"bad-avoid","bonus":1.480000000000001},{"rt":5494.20000000298,"stimulus":"\n                    <p><b>Action: <em>avoid</em></b></p>\n                    <p>This is the bee that you just saw.</p>\n                    <img src=\"bees-with-color/bee-A2SF.svg\" width=\"200\">\n                    <p><span class=\"redText\">Bad choice,</span> the bee was friendly.<br>Your bonus pay is unchanged, and remains at $0.48.</p>\n            ","response":0,"trial_type":"html-button-response","trial_index":24,"time_elapsed":281798,"internal_node_id":"0.0-4.0-1.6","subject_id":"606e2ea0c4bd646aee2f2d7f","study_id":"60edd13110225f80f9f3709b","session_id":"6196c700ff05bf7e688a3b80","condition":"full-information","relevant_dimensions":["wings","legs"],"bee_group":{"antennae":"X","wings":"1","pattern":"X","legs":"F"},"bonus":1.480000000000001},{"rt":7284.599999997765,"stimulus":"bees-with-color/bee-B1DM.svg","response":1,"trial_type":"image-button-response","trial_index":25,"time_elapsed":289084,"internal_node_id":"0.0-4.0-0.7","subject_id":"606e2ea0c4bd646aee2f2d7f","study_id":"60edd13110225f80f9f3709b","session_id":"6196c700ff05bf7e688a3b80","condition":"full-information","relevant_dimensions":["wings","legs"],"bee_group":{"antennae":"X","wings":"1","pattern":"X","legs":"F"},"action":"avoid","summary":"bad-avoid","bonus":1.480000000000001},{"rt":4423.60000000149,"stimulus":"\n                    <p><b>Action: <em>avoid</em></b></p>\n                    <p>This is the bee that you just saw.</p>\n                    <img src=\"bees-with-color/bee-B1DM.svg\" width=\"200\">\n                    <p><span class=\"redText\">Bad choice,</span> the bee was friendly.<br>Your bonus pay is unchanged, and remains at $0.48.</p>\n            ","response":0,"trial_type":"html-button-response","trial_index":26,"time_elapsed":293509,"internal_node_id":"0.0-4.0-1.7","subject_id":"606e2ea0c4bd646aee2f2d7f","study_id":"60edd13110225f80f9f3709b","session_id":"6196c700ff05bf7e688a3b80","condition":"full-information","relevant_dimensions":["wings","legs"],"bee_group":{"antennae":"X","wings":"1","pattern":"X","legs":"F"},"bonus":1.480000000000001},{"rt":8751.79999999702,"stimulus":"bees-with-color/bee-B1SF.svg","response":0,"trial_type":"image-button-response","trial_index":27,"time_elapsed":302263,"internal_node_id":"0.0-4.0-0.8","subject_id":"606e2ea0c4bd646aee2f2d7f","study_id":"60edd13110225f80f9f3709b","session_id":"6196c700ff05bf7e688a3b80","condition":"full-information","relevant_dimensions":["wings","legs"],"bee_group":{"antennae":"X","wings":"1","pattern":"X","legs":"F"},"action":"harvest","summary":"bad-harvest","bonus":1.480000000000001},{"rt":9556.300000000745,"stimulus":"\n                    <p><b>Action: <em>harvest</em></b></p>\n                    <p>This is the bee that you just saw.</p>\n                    <img src=\"bees-with-color/bee-B1SF.svg\" width=\"200\">\n                    <p><span class=\"redText\">Bad choice, the bee was angry.</span><br><b>You have been stung!</b><br>Your pay has been decreased by $0.10. Your bonus pay is now $0.38.</p>\n            ","response":0,"trial_type":"html-button-response","trial_index":28,"time_elapsed":311821,"internal_node_id":"0.0-4.0-1.8","subject_id":"606e2ea0c4bd646aee2f2d7f","study_id":"60edd13110225f80f9f3709b","session_id":"6196c700ff05bf7e688a3b80","condition":"full-information","relevant_dimensions":["wings","legs"],"bee_group":{"antennae":"X","wings":"1","pattern":"X","legs":"F"},"bonus":1.480000000000001},{"rt":9202.10000000149,"stimulus":"bees-with-color/bee-B2SM.svg","response":0,"trial_type":"image-button-response","trial_index":29,"time_elapsed":321026,"internal_node_id":"0.0-4.0-0.9","subject_id":"606e2ea0c4bd646aee2f2d7f","study_id":"60edd13110225f80f9f3709b","session_id":"6196c700ff05bf7e688a3b80","condition":"full-information","relevant_dimensions":["wings","legs"],"bee_group":{"antennae":"X","wings":"1","pattern":"X","legs":"F"},"action":"harvest","summary":"good-harvest","bonus":1.480000000000001},{"rt":5559.800000000745,"stimulus":"\n                    <p><b>Action: <em>harvest</em></b></p>\n                    <p>This is the bee that you just saw.</p>\n                    <img src=\"bees-with-color/bee-B2SM.svg\" width=\"200\">\n                    <p><span class=\"greenText\"><b>Successful harvest!</b></span><br>Your pay has increased by $0.02. Your bonus pay is now $0.40.</p>\n            ","response":0,"trial_type":"html-button-response","trial_index":30,"time_elapsed":326587,"internal_node_id":"0.0-4.0-1.9","subject_id":"606e2ea0c4bd646aee2f2d7f","study_id":"60edd13110225f80f9f3709b","session_id":"6196c700ff05bf7e688a3b80","condition":"full-information","relevant_dimensions":["wings","legs"],"bee_group":{"antennae":"X","wings":"1","pattern":"X","legs":"F"},"bonus":1.480000000000001},{"rt":5964.199999999255,"stimulus":"bees-with-color/bee-A2SM.svg","response":0,"trial_type":"image-button-response","trial_index":31,"time_elapsed":332553,"internal_node_id":"0.0-4.0-0.10","subject_id":"606e2ea0c4bd646aee2f2d7f","study_id":"60edd13110225f80f9f3709b","session_id":"6196c700ff05bf7e688a3b80","condition":"full-information","relevant_dimensions":["wings","legs"],"bee_group":{"antennae":"X","wings":"1","pattern":"X","legs":"F"},"action":"harvest","summary":"good-harvest","bonus":1.480000000000001},{"rt":960.6000000014901,"stimulus":"\n                    <p><b>Action: <em>harvest</em></b></p>\n                    <p>This is the bee that you just saw.</p>\n                    <img src=\"bees-with-color/bee-A2SM.svg\" width=\"200\">\n                    <p><span class=\"greenText\"><b>Successful harvest!</b></span><br>Your pay has increased by $0.02. Your bonus pay is now $0.42.</p>\n            ","response":0,"trial_type":"html-button-response","trial_index":32,"time_elapsed":333516,"internal_node_id":"0.0-4.0-1.10","subject_id":"606e2ea0c4bd646aee2f2d7f","study_id":"60edd13110225f80f9f3709b","session_id":"6196c700ff05bf7e688a3b80","condition":"full-information","relevant_dimensions":["wings","legs"],"bee_group":{"antennae":"X","wings":"1","pattern":"X","legs":"F"},"bonus":1.480000000000001},{"rt":8585.89999999851,"stimulus":"bees-with-color/bee-A2DF.svg","response":1,"trial_type":"image-button-response","trial_index":33,"time_elapsed":342103,"internal_node_id":"0.0-4.0-0.11","subject_id":"606e2ea0c4bd646aee2f2d7f","study_id":"60edd13110225f80f9f3709b","session_id":"6196c700ff05bf7e688a3b80","condition":"full-information","relevant_dimensions":["wings","legs"],"bee_group":{"antennae":"X","wings":"1","pattern":"X","legs":"F"},"action":"avoid","summary":"bad-avoid","bonus":1.480000000000001},{"rt":4473.10000000149,"stimulus":"\n                    <p><b>Action: <em>avoid</em></b></p>\n                    <p>This is the bee that you just saw.</p>\n                    <img src=\"bees-with-color/bee-A2DF.svg\" width=\"200\">\n                    <p><span class=\"redText\">Bad choice,</span> the bee was friendly.<br>Your bonus pay is unchanged, and remains at $0.42.</p>\n            ","response":0,"trial_type":"html-button-response","trial_index":34,"time_elapsed":346579,"internal_node_id":"0.0-4.0-1.11","subject_id":"606e2ea0c4bd646aee2f2d7f","study_id":"60edd13110225f80f9f3709b","session_id":"6196c700ff05bf7e688a3b80","condition":"full-information","relevant_dimensions":["wings","legs"],"bee_group":{"antennae":"X","wings":"1","pattern":"X","legs":"F"},"bonus":1.480000000000001},{"rt":7432.300000000745,"stimulus":"bees-with-color/bee-B2DF.svg","response":0,"trial_type":"image-button-response","trial_index":35,"time_elapsed":354013,"internal_node_id":"0.0-4.0-0.12","subject_id":"606e2ea0c4bd646aee2f2d7f","study_id":"60edd13110225f80f9f3709b","session_id":"6196c700ff05bf7e688a3b80","condition":"full-information","relevant_dimensions":["wings","legs"],"bee_group":{"antennae":"X","wings":"1","pattern":"X","legs":"F"},"action":"harvest","summary":"good-harvest","bonus":1.480000000000001},{"rt":850,"stimulus":"\n                    <p><b>Action: <em>harvest</em></b></p>\n                    <p>This is the bee that you just saw.</p>\n                    <img src=\"bees-with-color/bee-B2DF.svg\" width=\"200\">\n                    <p><span class=\"greenText\"><b>Successful harvest!</b></span><br>Your pay has increased by $0.02. Your bonus pay is now $0.44.</p>\n            ","response":0,"trial_type":"html-button-response","trial_index":36,"time_elapsed":354865,"internal_node_id":"0.0-4.0-1.12","subject_id":"606e2ea0c4bd646aee2f2d7f","study_id":"60edd13110225f80f9f3709b","session_id":"6196c700ff05bf7e688a3b80","condition":"full-information","relevant_dimensions":["wings","legs"],"bee_group":{"antennae":"X","wings":"1","pattern":"X","legs":"F"},"bonus":1.480000000000001},{"rt":10276.5,"stimulus":"bees-with-color/bee-A1DF.svg","response":1,"trial_type":"image-button-response","trial_index":37,"time_elapsed":365144,"internal_node_id":"0.0-4.0-0.13","subject_id":"606e2ea0c4bd646aee2f2d7f","study_id":"60edd13110225f80f9f3709b","session_id":"6196c700ff05bf7e688a3b80","condition":"full-information","relevant_dimensions":["wings","legs"],"bee_group":{"antennae":"X","wings":"1","pattern":"X","legs":"F"},"action":"avoid","summary":"good-avoid","bonus":1.480000000000001},{"rt":4124.10000000149,"stimulus":"\n                    <p><b>Action: <em>avoid</em></b></p>\n                    <p>This is the bee that you just saw.</p>\n                    <img src=\"bees-with-color/bee-A1DF.svg\" width=\"200\">\n                    <p><span class=\"greenText\">Good choice!</span>  This bee would have stung you.<br>Your bonus pay is unchanged, and remains at $0.44.</p>\n            ","response":0,"trial_type":"html-button-response","trial_index":38,"time_elapsed":369281,"internal_node_id":"0.0-4.0-1.13","subject_id":"606e2ea0c4bd646aee2f2d7f","study_id":"60edd13110225f80f9f3709b","session_id":"6196c700ff05bf7e688a3b80","condition":"full-information","relevant_dimensions":["wings","legs"],"bee_group":{"antennae":"X","wings":"1","pattern":"X","legs":"F"},"bonus":1.480000000000001},{"rt":14149.20000000298,"stimulus":"bees-with-color/bee-B2SF.svg","response":0,"trial_type":"image-button-response","trial_index":39,"time_elapsed":383479,"internal_node_id":"0.0-4.0-0.14","subject_id":"606e2ea0c4bd646aee2f2d7f","study_id":"60edd13110225f80f9f3709b","session_id":"6196c700ff05bf7e688a3b80","condition":"full-information","relevant_dimensions":["wings","legs"],"bee_group":{"antennae":"X","wings":"1","pattern":"X","legs":"F"},"action":"harvest","summary":"good-harvest","bonus":1.480000000000001},{"rt":915.8999999985099,"stimulus":"\n                    <p><b>Action: <em>harvest</em></b></p>\n                    <p>This is the bee that you just saw.</p>\n                    <img src=\"bees-with-color/bee-B2SF.svg\" width=\"200\">\n                    <p><span class=\"greenText\"><b>Successful harvest!</b></span><br>Your pay has increased by $0.02. Your bonus pay is now $0.46.</p>\n            ","response":0,"trial_type":"html-button-response","trial_index":40,"time_elapsed":384401,"internal_node_id":"0.0-4.0-1.14","subject_id":"606e2ea0c4bd646aee2f2d7f","study_id":"60edd13110225f80f9f3709b","session_id":"6196c700ff05bf7e688a3b80","condition":"full-information","relevant_dimensions":["wings","legs"],"bee_group":{"antennae":"X","wings":"1","pattern":"X","legs":"F"},"bonus":1.480000000000001},{"rt":11212.699999999255,"stimulus":"bees-with-color/bee-A2DM.svg","response":0,"trial_type":"image-button-response","trial_index":41,"time_elapsed":395616,"internal_node_id":"0.0-4.0-0.15","subject_id":"606e2ea0c4bd646aee2f2d7f","study_id":"60edd13110225f80f9f3709b","session_id":"6196c700ff05bf7e688a3b80","condition":"full-information","relevant_dimensions":["wings","legs"],"bee_group":{"antennae":"X","wings":"1","pattern":"X","legs":"F"},"action":"harvest","summary":"good-harvest","bonus":1.480000000000001},{"rt":1464.6000000014901,"stimulus":"\n                    <p><b>Action: <em>harvest</em></b></p>\n                    <p>This is the bee that you just saw.</p>\n                    <img src=\"bees-with-color/bee-A2DM.svg\" width=\"200\">\n                    <p><span class=\"greenText\"><b>Successful harvest!</b></span><br>Your pay has increased by $0.02. Your bonus pay is now $0.48.</p>\n            ","response":0,"trial_type":"html-button-response","trial_index":42,"time_elapsed":397082,"internal_node_id":"0.0-4.0-1.15","subject_id":"606e2ea0c4bd646aee2f2d7f","study_id":"60edd13110225f80f9f3709b","session_id":"6196c700ff05bf7e688a3b80","condition":"full-information","relevant_dimensions":["wings","legs"],"bee_group":{"antennae":"X","wings":"1","pattern":"X","legs":"F"},"bonus":1.480000000000001},{"rt":7700.5,"stimulus":"bees-with-color/bee-B1SF.svg","response":1,"trial_type":"image-button-response","trial_index":43,"time_elapsed":404785,"internal_node_id":"0.0-4.0-0.16","subject_id":"606e2ea0c4bd646aee2f2d7f","study_id":"60edd13110225f80f9f3709b","session_id":"6196c700ff05bf7e688a3b80","condition":"full-information","relevant_dimensions":["wings","legs"],"bee_group":{"antennae":"X","wings":"1","pattern":"X","legs":"F"},"action":"avoid","summary":"good-avoid","bonus":1.480000000000001},{"rt":1433.5,"stimulus":"\n                    <p><b>Action: <em>avoid</em></b></p>\n                    <p>This is the bee that you just saw.</p>\n                    <img src=\"bees-with-color/bee-B1SF.svg\" width=\"200\">\n                    <p><span class=\"greenText\">Good choice!</span>  This bee would have stung you.<br>Your bonus pay is unchanged, and remains at $0.48.</p>\n            ","response":0,"trial_type":"html-button-response","trial_index":44,"time_elapsed":406221,"internal_node_id":"0.0-4.0-1.16","subject_id":"606e2ea0c4bd646aee2f2d7f","study_id":"60edd13110225f80f9f3709b","session_id":"6196c700ff05bf7e688a3b80","condition":"full-information","relevant_dimensions":["wings","legs"],"bee_group":{"antennae":"X","wings":"1","pattern":"X","legs":"F"},"bonus":1.480000000000001},{"rt":11920.300000000745,"stimulus":"bees-with-color/bee-A2SM.svg","response":0,"trial_type":"image-button-response","trial_index":45,"time_elapsed":418143,"internal_node_id":"0.0-4.0-0.17","subject_id":"606e2ea0c4bd646aee2f2d7f","study_id":"60edd13110225f80f9f3709b","session_id":"6196c700ff05bf7e688a3b80","condition":"full-information","relevant_dimensions":["wings","legs"],"bee_group":{"antennae":"X","wings":"1","pattern":"X","legs":"F"},"action":"harvest","summary":"good-harvest","bonus":1.480000000000001},{"rt":637.1999999992549,"stimulus":"\n                    <p><b>Action: <em>harvest</em></b></p>\n                    <p>This is the bee that you just saw.</p>\n                    <img src=\"bees-with-color/bee-A2SM.svg\" width=\"200\">\n                    <p><span class=\"greenText\"><b>Successful harvest!</b></span><br>Your pay has increased by $0.02. Your bonus pay is now $0.50.</p>\n            ","response":0,"trial_type":"html-button-response","trial_index":46,"time_elapsed":418782,"internal_node_id":"0.0-4.0-1.17","subject_id":"606e2ea0c4bd646aee2f2d7f","study_id":"60edd13110225f80f9f3709b","session_id":"6196c700ff05bf7e688a3b80","condition":"full-information","relevant_dimensions":["wings","legs"],"bee_group":{"antennae":"X","wings":"1","pattern":"X","legs":"F"},"bonus":1.480000000000001},{"rt":14803.800000000745,"stimulus":"bees-with-color/bee-B2DF.svg","response":0,"trial_type":"image-button-response","trial_index":47,"time_elapsed":433588,"internal_node_id":"0.0-4.0-0.18","subject_id":"606e2ea0c4bd646aee2f2d7f","study_id":"60edd13110225f80f9f3709b","session_id":"6196c700ff05bf7e688a3b80","condition":"full-information","relevant_dimensions":["wings","legs"],"bee_group":{"antennae":"X","wings":"1","pattern":"X","legs":"F"},"action":"harvest","summary":"good-harvest","bonus":1.480000000000001},{"rt":659.8999999985099,"stimulus":"\n                    <p><b>Action: <em>harvest</em></b></p>\n                    <p>This is the bee that you just saw.</p>\n                    <img src=\"bees-with-color/bee-B2DF.svg\" width=\"200\">\n                    <p><span class=\"greenText\"><b>Successful harvest!</b></span><br>Your pay has increased by $0.02. Your bonus pay is now $0.52.</p>\n            ","response":0,"trial_type":"html-button-response","trial_index":48,"time_elapsed":434249,"internal_node_id":"0.0-4.0-1.18","subject_id":"606e2ea0c4bd646aee2f2d7f","study_id":"60edd13110225f80f9f3709b","session_id":"6196c700ff05bf7e688a3b80","condition":"full-information","relevant_dimensions":["wings","legs"],"bee_group":{"antennae":"X","wings":"1","pattern":"X","legs":"F"},"bonus":1.480000000000001},{"rt":6153.599999997765,"stimulus":"bees-with-color/bee-B1DM.svg","response":0,"trial_type":"image-button-response","trial_index":49,"time_elapsed":440405,"internal_node_id":"0.0-4.0-0.19","subject_id":"606e2ea0c4bd646aee2f2d7f","study_id":"60edd13110225f80f9f3709b","session_id":"6196c700ff05bf7e688a3b80","condition":"full-information","relevant_dimensions":["wings","legs"],"bee_group":{"antennae":"X","wings":"1","pattern":"X","legs":"F"},"action":"harvest","summary":"good-harvest","bonus":1.480000000000001},{"rt":746.3000000007451,"stimulus":"\n                    <p><b>Action: <em>harvest</em></b></p>\n                    <p>This is the bee that you just saw.</p>\n                    <img src=\"bees-with-color/bee-B1DM.svg\" width=\"200\">\n                    <p><span class=\"greenText\"><b>Successful harvest!</b></span><br>Your pay has increased by $0.02. Your bonus pay is now $0.54.</p>\n            ","response":0,"trial_type":"html-button-response","trial_index":50,"time_elapsed":441152,"internal_node_id":"0.0-4.0-1.19","subject_id":"606e2ea0c4bd646aee2f2d7f","study_id":"60edd13110225f80f9f3709b","session_id":"6196c700ff05bf7e688a3b80","condition":"full-information","relevant_dimensions":["wings","legs"],"bee_group":{"antennae":"X","wings":"1","pattern":"X","legs":"F"},"bonus":1.480000000000001},{"rt":4495.5,"stimulus":"bees-with-color/bee-A1SF.svg","response":1,"trial_type":"image-button-response","trial_index":51,"time_elapsed":445650,"internal_node_id":"0.0-4.0-0.20","subject_id":"606e2ea0c4bd646aee2f2d7f","study_id":"60edd13110225f80f9f3709b","session_id":"6196c700ff05bf7e688a3b80","condition":"full-information","relevant_dimensions":["wings","legs"],"bee_group":{"antennae":"X","wings":"1","pattern":"X","legs":"F"},"action":"avoid","summary":"good-avoid","bonus":1.480000000000001},{"rt":1646.5,"stimulus":"\n                    <p><b>Action: <em>avoid</em></b></p>\n                    <p>This is the bee that you just saw.</p>\n                    <img src=\"bees-with-color/bee-A1SF.svg\" width=\"200\">\n                    <p><span class=\"greenText\">Good choice!</span>  This bee would have stung you.<br>Your bonus pay is unchanged, and remains at $0.54.</p>\n            ","response":0,"trial_type":"html-button-response","trial_index":52,"time_elapsed":447298,"internal_node_id":"0.0-4.0-1.20","subject_id":"606e2ea0c4bd646aee2f2d7f","study_id":"60edd13110225f80f9f3709b","session_id":"6196c700ff05bf7e688a3b80","condition":"full-information","relevant_dimensions":["wings","legs"],"bee_group":{"antennae":"X","wings":"1","pattern":"X","legs":"F"},"bonus":1.480000000000001},{"rt":9203.5,"stimulus":"bees-with-color/bee-B2SF.svg","response":0,"trial_type":"image-button-response","trial_index":53,"time_elapsed":456503,"internal_node_id":"0.0-4.0-0.21","subject_id":"606e2ea0c4bd646aee2f2d7f","study_id":"60edd13110225f80f9f3709b","session_id":"6196c700ff05bf7e688a3b80","condition":"full-information","relevant_dimensions":["wings","legs"],"bee_group":{"antennae":"X","wings":"1","pattern":"X","legs":"F"},"action":"harvest","summary":"good-harvest","bonus":1.480000000000001},{"rt":692.5,"stimulus":"\n                    <p><b>Action: <em>harvest</em></b></p>\n                    <p>This is the bee that you just saw.</p>\n                    <img src=\"bees-with-color/bee-B2SF.svg\" width=\"200\">\n                    <p><span class=\"greenText\"><b>Successful harvest!</b></span><br>Your pay has increased by $0.02. Your bonus pay is now $0.56.</p>\n            ","response":0,"trial_type":"html-button-response","trial_index":54,"time_elapsed":457197,"internal_node_id":"0.0-4.0-1.21","subject_id":"606e2ea0c4bd646aee2f2d7f","study_id":"60edd13110225f80f9f3709b","session_id":"6196c700ff05bf7e688a3b80","condition":"full-information","relevant_dimensions":["wings","legs"],"bee_group":{"antennae":"X","wings":"1","pattern":"X","legs":"F"},"bonus":1.480000000000001},{"rt":3959.400000002235,"stimulus":"bees-with-color/bee-A1DM.svg","response":0,"trial_type":"image-button-response","trial_index":55,"time_elapsed":461159,"internal_node_id":"0.0-4.0-0.22","subject_id":"606e2ea0c4bd646aee2f2d7f","study_id":"60edd13110225f80f9f3709b","session_id":"6196c700ff05bf7e688a3b80","condition":"full-information","relevant_dimensions":["wings","legs"],"bee_group":{"antennae":"X","wings":"1","pattern":"X","legs":"F"},"action":"harvest","summary":"good-harvest","bonus":1.480000000000001},{"rt":676.4000000022352,"stimulus":"\n                    <p><b>Action: <em>harvest</em></b></p>\n                    <p>This is the bee that you just saw.</p>\n                    <img src=\"bees-with-color/bee-A1DM.svg\" width=\"200\">\n                    <p><span class=\"greenText\"><b>Successful harvest!</b></span><br>Your pay has increased by $0.02. Your bonus pay is now $0.58.</p>\n            ","response":0,"trial_type":"html-button-response","trial_index":56,"time_elapsed":461837,"internal_node_id":"0.0-4.0-1.22","subject_id":"606e2ea0c4bd646aee2f2d7f","study_id":"60edd13110225f80f9f3709b","session_id":"6196c700ff05bf7e688a3b80","condition":"full-information","relevant_dimensions":["wings","legs"],"bee_group":{"antennae":"X","wings":"1","pattern":"X","legs":"F"},"bonus":1.480000000000001},{"rt":7050.10000000149,"stimulus":"bees-with-color/bee-A2DF.svg","response":0,"trial_type":"image-button-response","trial_index":57,"time_elapsed":468889,"internal_node_id":"0.0-4.0-0.23","subject_id":"606e2ea0c4bd646aee2f2d7f","study_id":"60edd13110225f80f9f3709b","session_id":"6196c700ff05bf7e688a3b80","condition":"full-information","relevant_dimensions":["wings","legs"],"bee_group":{"antennae":"X","wings":"1","pattern":"X","legs":"F"},"action":"harvest","summary":"good-harvest","bonus":1.480000000000001},{"rt":1125.300000000745,"stimulus":"\n                    <p><b>Action: <em>harvest</em></b></p>\n                    <p>This is the bee that you just saw.</p>\n                    <img src=\"bees-with-color/bee-A2DF.svg\" width=\"200\">\n                    <p><span class=\"greenText\"><b>Successful harvest!</b></span><br>Your pay has increased by $0.02. Your bonus pay is now $0.60.</p>\n            ","response":0,"trial_type":"html-button-response","trial_index":58,"time_elapsed":470016,"internal_node_id":"0.0-4.0-1.23","subject_id":"606e2ea0c4bd646aee2f2d7f","study_id":"60edd13110225f80f9f3709b","session_id":"6196c700ff05bf7e688a3b80","condition":"full-information","relevant_dimensions":["wings","legs"],"bee_group":{"antennae":"X","wings":"1","pattern":"X","legs":"F"},"bonus":1.480000000000001},{"rt":8463.5,"stimulus":"bees-with-color/bee-B1SM.svg","response":0,"trial_type":"image-button-response","trial_index":59,"time_elapsed":478482,"internal_node_id":"0.0-4.0-0.24","subject_id":"606e2ea0c4bd646aee2f2d7f","study_id":"60edd13110225f80f9f3709b","session_id":"6196c700ff05bf7e688a3b80","condition":"full-information","relevant_dimensions":["wings","legs"],"bee_group":{"antennae":"X","wings":"1","pattern":"X","legs":"F"},"action":"harvest","summary":"good-harvest","bonus":1.480000000000001},{"rt":558.1999999992549,"stimulus":"\n                    <p><b>Action: <em>harvest</em></b></p>\n                    <p>This is the bee that you just saw.</p>\n                    <img src=\"bees-with-color/bee-B1SM.svg\" width=\"200\">\n                    <p><span class=\"greenText\"><b>Successful harvest!</b></span><br>Your pay has increased by $0.02. Your bonus pay is now $0.62.</p>\n            ","response":0,"trial_type":"html-button-response","trial_index":60,"time_elapsed":479042,"internal_node_id":"0.0-4.0-1.24","subject_id":"606e2ea0c4bd646aee2f2d7f","study_id":"60edd13110225f80f9f3709b","session_id":"6196c700ff05bf7e688a3b80","condition":"full-information","relevant_dimensions":["wings","legs"],"bee_group":{"antennae":"X","wings":"1","pattern":"X","legs":"F"},"bonus":1.480000000000001},{"rt":8746.199999999255,"stimulus":"bees-with-color/bee-B2SM.svg","response":0,"trial_type":"image-button-response","trial_index":61,"time_elapsed":487791,"internal_node_id":"0.0-4.0-0.25","subject_id":"606e2ea0c4bd646aee2f2d7f","study_id":"60edd13110225f80f9f3709b","session_id":"6196c700ff05bf7e688a3b80","condition":"full-information","relevant_dimensions":["wings","legs"],"bee_group":{"antennae":"X","wings":"1","pattern":"X","legs":"F"},"action":"harvest","summary":"good-harvest","bonus":1.480000000000001},{"rt":548.7999999970198,"stimulus":"\n                    <p><b>Action: <em>harvest</em></b></p>\n                    <p>This is the bee that you just saw.</p>\n                    <img src=\"bees-with-color/bee-B2SM.svg\" width=\"200\">\n                    <p><span class=\"greenText\"><b>Successful harvest!</b></span><br>Your pay has increased by $0.02. Your bonus pay is now $0.64.</p>\n            ","response":0,"trial_type":"html-button-response","trial_index":62,"time_elapsed":488341,"internal_node_id":"0.0-4.0-1.25","subject_id":"606e2ea0c4bd646aee2f2d7f","study_id":"60edd13110225f80f9f3709b","session_id":"6196c700ff05bf7e688a3b80","condition":"full-information","relevant_dimensions":["wings","legs"],"bee_group":{"antennae":"X","wings":"1","pattern":"X","legs":"F"},"bonus":1.480000000000001},{"rt":7065.699999999255,"stimulus":"bees-with-color/bee-A2SF.svg","response":0,"trial_type":"image-button-response","trial_index":63,"time_elapsed":495409,"internal_node_id":"0.0-4.0-0.26","subject_id":"606e2ea0c4bd646aee2f2d7f","study_id":"60edd13110225f80f9f3709b","session_id":"6196c700ff05bf7e688a3b80","condition":"full-information","relevant_dimensions":["wings","legs"],"bee_group":{"antennae":"X","wings":"1","pattern":"X","legs":"F"},"action":"harvest","summary":"good-harvest","bonus":1.480000000000001},{"rt":1094.2000000029802,"stimulus":"\n                    <p><b>Action: <em>harvest</em></b></p>\n                    <p>This is the bee that you just saw.</p>\n                    <img src=\"bees-with-color/bee-A2SF.svg\" width=\"200\">\n                    <p><span class=\"greenText\"><b>Successful harvest!</b></span><br>Your pay has increased by $0.02. Your bonus pay is now $0.66.</p>\n            ","response":0,"trial_type":"html-button-response","trial_index":64,"time_elapsed":496505,"internal_node_id":"0.0-4.0-1.26","subject_id":"606e2ea0c4bd646aee2f2d7f","study_id":"60edd13110225f80f9f3709b","session_id":"6196c700ff05bf7e688a3b80","condition":"full-information","relevant_dimensions":["wings","legs"],"bee_group":{"antennae":"X","wings":"1","pattern":"X","legs":"F"},"bonus":1.480000000000001},{"rt":15104.099999997765,"stimulus":"bees-with-color/bee-B2DM.svg","response":0,"trial_type":"image-button-response","trial_index":65,"time_elapsed":511612,"internal_node_id":"0.0-4.0-0.27","subject_id":"606e2ea0c4bd646aee2f2d7f","study_id":"60edd13110225f80f9f3709b","session_id":"6196c700ff05bf7e688a3b80","condition":"full-information","relevant_dimensions":["wings","legs"],"bee_group":{"antennae":"X","wings":"1","pattern":"X","legs":"F"},"action":"harvest","summary":"good-harvest","bonus":1.480000000000001},{"rt":961.3999999985099,"stimulus":"\n                    <p><b>Action: <em>harvest</em></b></p>\n                    <p>This is the bee that you just saw.</p>\n                    <img src=\"bees-with-color/bee-B2DM.svg\" width=\"200\">\n                    <p><span class=\"greenText\"><b>Successful harvest!</b></span><br>Your pay has increased by $0.02. Your bonus pay is now $0.68.</p>\n            ","response":0,"trial_type":"html-button-response","trial_index":66,"time_elapsed":512575,"internal_node_id":"0.0-4.0-1.27","subject_id":"606e2ea0c4bd646aee2f2d7f","study_id":"60edd13110225f80f9f3709b","session_id":"6196c700ff05bf7e688a3b80","condition":"full-information","relevant_dimensions":["wings","legs"],"bee_group":{"antennae":"X","wings":"1","pattern":"X","legs":"F"},"bonus":1.480000000000001},{"rt":14284.300000000745,"stimulus":"bees-with-color/bee-A1SM.svg","response":1,"trial_type":"image-button-response","trial_index":67,"time_elapsed":526862,"internal_node_id":"0.0-4.0-0.28","subject_id":"606e2ea0c4bd646aee2f2d7f","study_id":"60edd13110225f80f9f3709b","session_id":"6196c700ff05bf7e688a3b80","condition":"full-information","relevant_dimensions":["wings","legs"],"bee_group":{"antennae":"X","wings":"1","pattern":"X","legs":"F"},"action":"avoid","summary":"bad-avoid","bonus":1.480000000000001},{"rt":4479.300000000745,"stimulus":"\n                    <p><b>Action: <em>avoid</em></b></p>\n                    <p>This is the bee that you just saw.</p>\n                    <img src=\"bees-with-color/bee-A1SM.svg\" width=\"200\">\n                    <p><span class=\"redText\">Bad choice,</span> the bee was friendly.<br>Your bonus pay is unchanged, and remains at $0.68.</p>\n            ","response":0,"trial_type":"html-button-response","trial_index":68,"time_elapsed":531344,"internal_node_id":"0.0-4.0-1.28","subject_id":"606e2ea0c4bd646aee2f2d7f","study_id":"60edd13110225f80f9f3709b","session_id":"6196c700ff05bf7e688a3b80","condition":"full-information","relevant_dimensions":["wings","legs"],"bee_group":{"antennae":"X","wings":"1","pattern":"X","legs":"F"},"bonus":1.480000000000001},{"rt":13200.60000000149,"stimulus":"bees-with-color/bee-B1DF.svg","response":1,"trial_type":"image-button-response","trial_index":69,"time_elapsed":544547,"internal_node_id":"0.0-4.0-0.29","subject_id":"606e2ea0c4bd646aee2f2d7f","study_id":"60edd13110225f80f9f3709b","session_id":"6196c700ff05bf7e688a3b80","condition":"full-information","relevant_dimensions":["wings","legs"],"bee_group":{"antennae":"X","wings":"1","pattern":"X","legs":"F"},"action":"avoid","summary":"good-avoid","bonus":1.480000000000001},{"rt":875.8999999985099,"stimulus":"\n                    <p><b>Action: <em>avoid</em></b></p>\n                    <p>This is the bee that you just saw.</p>\n                    <img src=\"bees-with-color/bee-B1DF.svg\" width=\"200\">\n                    <p><span class=\"greenText\">Good choice!</span>  This bee would have stung you.<br>Your bonus pay is unchanged, and remains at $0.68.</p>\n            ","response":0,"trial_type":"html-button-response","trial_index":70,"time_elapsed":545424,"internal_node_id":"0.0-4.0-1.29","subject_id":"606e2ea0c4bd646aee2f2d7f","study_id":"60edd13110225f80f9f3709b","session_id":"6196c700ff05bf7e688a3b80","condition":"full-information","relevant_dimensions":["wings","legs"],"bee_group":{"antennae":"X","wings":"1","pattern":"X","legs":"F"},"bonus":1.480000000000001},{"rt":4485.800000000745,"stimulus":"bees-with-color/bee-A2DM.svg","response":0,"trial_type":"image-button-response","trial_index":71,"time_elapsed":549911,"internal_node_id":"0.0-4.0-0.30","subject_id":"606e2ea0c4bd646aee2f2d7f","study_id":"60edd13110225f80f9f3709b","session_id":"6196c700ff05bf7e688a3b80","condition":"full-information","relevant_dimensions":["wings","legs"],"bee_group":{"antennae":"X","wings":"1","pattern":"X","legs":"F"},"action":"harvest","summary":"good-harvest","bonus":1.480000000000001},{"rt":549.6000000014901,"stimulus":"\n                    <p><b>Action: <em>harvest</em></b></p>\n                    <p>This is the bee that you just saw.</p>\n                    <img src=\"bees-with-color/bee-A2DM.svg\" width=\"200\">\n                    <p><span class=\"greenText\"><b>Successful harvest!</b></span><br>Your pay has increased by $0.02. Your bonus pay is now $0.70.</p>\n            ","response":0,"trial_type":"html-button-response","trial_index":72,"time_elapsed":550463,"internal_node_id":"0.0-4.0-1.30","subject_id":"606e2ea0c4bd646aee2f2d7f","study_id":"60edd13110225f80f9f3709b","session_id":"6196c700ff05bf7e688a3b80","condition":"full-information","relevant_dimensions":["wings","legs"],"bee_group":{"antennae":"X","wings":"1","pattern":"X","legs":"F"},"bonus":1.480000000000001},{"rt":18603.29999999702,"stimulus":"bees-with-color/bee-A1DF.svg","response":1,"trial_type":"image-button-response","trial_index":73,"time_elapsed":569068,"internal_node_id":"0.0-4.0-0.31","subject_id":"606e2ea0c4bd646aee2f2d7f","study_id":"60edd13110225f80f9f3709b","session_id":"6196c700ff05bf7e688a3b80","condition":"full-information","relevant_dimensions":["wings","legs"],"bee_group":{"antennae":"X","wings":"1","pattern":"X","legs":"F"},"action":"avoid","summary":"good-avoid","bonus":1.480000000000001},{"rt":1046,"stimulus":"\n                    <p><b>Action: <em>avoid</em></b></p>\n                    <p>This is the bee that you just saw.</p>\n                    <img src=\"bees-with-color/bee-A1DF.svg\" width=\"200\">\n                    <p><span class=\"greenText\">Good choice!</span>  This bee would have stung you.<br>Your bonus pay is unchanged, and remains at $0.70.</p>\n            ","response":0,"trial_type":"html-button-response","trial_index":74,"time_elapsed":570115,"internal_node_id":"0.0-4.0-1.31","subject_id":"606e2ea0c4bd646aee2f2d7f","study_id":"60edd13110225f80f9f3709b","session_id":"6196c700ff05bf7e688a3b80","condition":"full-information","relevant_dimensions":["wings","legs"],"bee_group":{"antennae":"X","wings":"1","pattern":"X","legs":"F"},"bonus":1.480000000000001},{"rt":4046.89999999851,"stimulus":"bees-with-color/bee-B1SM.svg","response":0,"trial_type":"image-button-response","trial_index":75,"time_elapsed":574164,"internal_node_id":"0.0-4.0-0.32","subject_id":"606e2ea0c4bd646aee2f2d7f","study_id":"60edd13110225f80f9f3709b","session_id":"6196c700ff05bf7e688a3b80","condition":"full-information","relevant_dimensions":["wings","legs"],"bee_group":{"antennae":"X","wings":"1","pattern":"X","legs":"F"},"action":"harvest","summary":"good-harvest","bonus":1.480000000000001},{"rt":928.8000000007451,"stimulus":"\n                    <p><b>Action: <em>harvest</em></b></p>\n                    <p>This is the bee that you just saw.</p>\n                    <img src=\"bees-with-color/bee-B1SM.svg\" width=\"200\">\n                    <p><span class=\"greenText\"><b>Successful harvest!</b></span><br>Your pay has increased by $0.02. Your bonus pay is now $0.72.</p>\n            ","response":0,"trial_type":"html-button-response","trial_index":76,"time_elapsed":575095,"internal_node_id":"0.0-4.0-1.32","subject_id":"606e2ea0c4bd646aee2f2d7f","study_id":"60edd13110225f80f9f3709b","session_id":"6196c700ff05bf7e688a3b80","condition":"full-information","relevant_dimensions":["wings","legs"],"bee_group":{"antennae":"X","wings":"1","pattern":"X","legs":"F"},"bonus":1.480000000000001},{"rt":8083.10000000149,"stimulus":"bees-with-color/bee-B1SF.svg","response":1,"trial_type":"image-button-response","trial_index":77,"time_elapsed":583180,"internal_node_id":"0.0-4.0-0.33","subject_id":"606e2ea0c4bd646aee2f2d7f","study_id":"60edd13110225f80f9f3709b","session_id":"6196c700ff05bf7e688a3b80","condition":"full-information","relevant_dimensions":["wings","legs"],"bee_group":{"antennae":"X","wings":"1","pattern":"X","legs":"F"},"action":"avoid","summary":"good-avoid","bonus":1.480000000000001},{"rt":659.8999999985099,"stimulus":"\n                    <p><b>Action: <em>avoid</em></b></p>\n                    <p>This is the bee that you just saw.</p>\n                    <img src=\"bees-with-color/bee-B1SF.svg\" width=\"200\">\n                    <p><span class=\"greenText\">Good choice!</span>  This bee would have stung you.<br>Your bonus pay is unchanged, and remains at $0.72.</p>\n            ","response":0,"trial_type":"html-button-response","trial_index":78,"time_elapsed":583842,"internal_node_id":"0.0-4.0-1.33","subject_id":"606e2ea0c4bd646aee2f2d7f","study_id":"60edd13110225f80f9f3709b","session_id":"6196c700ff05bf7e688a3b80","condition":"full-information","relevant_dimensions":["wings","legs"],"bee_group":{"antennae":"X","wings":"1","pattern":"X","legs":"F"},"bonus":1.480000000000001},{"rt":5148.300000000745,"stimulus":"bees-with-color/bee-B1DF.svg","response":1,"trial_type":"image-button-response","trial_index":79,"time_elapsed":588992,"internal_node_id":"0.0-4.0-0.34","subject_id":"606e2ea0c4bd646aee2f2d7f","study_id":"60edd13110225f80f9f3709b","session_id":"6196c700ff05bf7e688a3b80","condition":"full-information","relevant_dimensions":["wings","legs"],"bee_group":{"antennae":"X","wings":"1","pattern":"X","legs":"F"},"action":"avoid","summary":"good-avoid","bonus":1.480000000000001},{"rt":558,"stimulus":"\n                    <p><b>Action: <em>avoid</em></b></p>\n                    <p>This is the bee that you just saw.</p>\n                    <img src=\"bees-with-color/bee-B1DF.svg\" width=\"200\">\n                    <p><span class=\"greenText\">Good choice!</span>  This bee would have stung you.<br>Your bonus pay is unchanged, and remains at $0.72.</p>\n            ","response":0,"trial_type":"html-button-response","trial_index":80,"time_elapsed":589552,"internal_node_id":"0.0-4.0-1.34","subject_id":"606e2ea0c4bd646aee2f2d7f","study_id":"60edd13110225f80f9f3709b","session_id":"6196c700ff05bf7e688a3b80","condition":"full-information","relevant_dimensions":["wings","legs"],"bee_group":{"antennae":"X","wings":"1","pattern":"X","legs":"F"},"bonus":1.480000000000001},{"rt":5557.10000000149,"stimulus":"bees-with-color/bee-A1DM.svg","response":0,"trial_type":"image-button-response","trial_index":81,"time_elapsed":595111,"internal_node_id":"0.0-4.0-0.35","subject_id":"606e2ea0c4bd646aee2f2d7f","study_id":"60edd13110225f80f9f3709b","session_id":"6196c700ff05bf7e688a3b80","condition":"full-information","relevant_dimensions":["wings","legs"],"bee_group":{"antennae":"X","wings":"1","pattern":"X","legs":"F"},"action":"harvest","summary":"good-harvest","bonus":1.480000000000001},{"rt":786.3999999985099,"stimulus":"\n                    <p><b>Action: <em>harvest</em></b></p>\n                    <p>This is the bee that you just saw.</p>\n                    <img src=\"bees-with-color/bee-A1DM.svg\" width=\"200\">\n                    <p><span class=\"greenText\"><b>Successful harvest!</b></span><br>Your pay has increased by $0.02. Your bonus pay is now $0.74.</p>\n            ","response":0,"trial_type":"html-button-response","trial_index":82,"time_elapsed":595899,"internal_node_id":"0.0-4.0-1.35","subject_id":"606e2ea0c4bd646aee2f2d7f","study_id":"60edd13110225f80f9f3709b","session_id":"6196c700ff05bf7e688a3b80","condition":"full-information","relevant_dimensions":["wings","legs"],"bee_group":{"antennae":"X","wings":"1","pattern":"X","legs":"F"},"bonus":1.480000000000001},{"rt":6131.199999999255,"stimulus":"bees-with-color/bee-A2SM.svg","response":0,"trial_type":"image-button-response","trial_index":83,"time_elapsed":602032,"internal_node_id":"0.0-4.0-0.36","subject_id":"606e2ea0c4bd646aee2f2d7f","study_id":"60edd13110225f80f9f3709b","session_id":"6196c700ff05bf7e688a3b80","condition":"full-information","relevant_dimensions":["wings","legs"],"bee_group":{"antennae":"X","wings":"1","pattern":"X","legs":"F"},"action":"harvest","summary":"good-harvest","bonus":1.480000000000001},{"rt":533.6999999992549,"stimulus":"\n                    <p><b>Action: <em>harvest</em></b></p>\n                    <p>This is the bee that you just saw.</p>\n                    <img src=\"bees-with-color/bee-A2SM.svg\" width=\"200\">\n                    <p><span class=\"greenText\"><b>Successful harvest!</b></span><br>Your pay has increased by $0.02. Your bonus pay is now $0.76.</p>\n            ","response":0,"trial_type":"html-button-response","trial_index":84,"time_elapsed":602568,"internal_node_id":"0.0-4.0-1.36","subject_id":"606e2ea0c4bd646aee2f2d7f","study_id":"60edd13110225f80f9f3709b","session_id":"6196c700ff05bf7e688a3b80","condition":"full-information","relevant_dimensions":["wings","legs"],"bee_group":{"antennae":"X","wings":"1","pattern":"X","legs":"F"},"bonus":1.480000000000001},{"rt":7355.300000000745,"stimulus":"bees-with-color/bee-B1DM.svg","response":0,"trial_type":"image-button-response","trial_index":85,"time_elapsed":609926,"internal_node_id":"0.0-4.0-0.37","subject_id":"606e2ea0c4bd646aee2f2d7f","study_id":"60edd13110225f80f9f3709b","session_id":"6196c700ff05bf7e688a3b80","condition":"full-information","relevant_dimensions":["wings","legs"],"bee_group":{"antennae":"X","wings":"1","pattern":"X","legs":"F"},"action":"harvest","summary":"good-harvest","bonus":1.480000000000001},{"rt":542,"stimulus":"\n                    <p><b>Action: <em>harvest</em></b></p>\n                    <p>This is the bee that you just saw.</p>\n                    <img src=\"bees-with-color/bee-B1DM.svg\" width=\"200\">\n                    <p><span class=\"greenText\"><b>Successful harvest!</b></span><br>Your pay has increased by $0.02. Your bonus pay is now $0.78.</p>\n            ","response":0,"trial_type":"html-button-response","trial_index":86,"time_elapsed":610470,"internal_node_id":"0.0-4.0-1.37","subject_id":"606e2ea0c4bd646aee2f2d7f","study_id":"60edd13110225f80f9f3709b","session_id":"6196c700ff05bf7e688a3b80","condition":"full-information","relevant_dimensions":["wings","legs"],"bee_group":{"antennae":"X","wings":"1","pattern":"X","legs":"F"},"bonus":1.480000000000001},{"rt":10528.699999999255,"stimulus":"bees-with-color/bee-A2DM.svg","response":0,"trial_type":"image-button-response","trial_index":87,"time_elapsed":621001,"internal_node_id":"0.0-4.0-0.38","subject_id":"606e2ea0c4bd646aee2f2d7f","study_id":"60edd13110225f80f9f3709b","session_id":"6196c700ff05bf7e688a3b80","condition":"full-information","relevant_dimensions":["wings","legs"],"bee_group":{"antennae":"X","wings":"1","pattern":"X","legs":"F"},"action":"harvest","summary":"good-harvest","bonus":1.480000000000001},{"rt":1135.5,"stimulus":"\n                    <p><b>Action: <em>harvest</em></b></p>\n                    <p>This is the bee that you just saw.</p>\n                    <img src=\"bees-with-color/bee-A2DM.svg\" width=\"200\">\n                    <p><span class=\"greenText\"><b>Successful harvest!</b></span><br>Your pay has increased by $0.02. Your bonus pay is now $0.80.</p>\n            ","response":0,"trial_type":"html-button-response","trial_index":88,"time_elapsed":622139,"internal_node_id":"0.0-4.0-1.38","subject_id":"606e2ea0c4bd646aee2f2d7f","study_id":"60edd13110225f80f9f3709b","session_id":"6196c700ff05bf7e688a3b80","condition":"full-information","relevant_dimensions":["wings","legs"],"bee_group":{"antennae":"X","wings":"1","pattern":"X","legs":"F"},"bonus":1.480000000000001},{"rt":14214.800000000745,"stimulus":"bees-with-color/bee-B2SF.svg","response":1,"trial_type":"image-button-response","trial_index":89,"time_elapsed":636356,"internal_node_id":"0.0-4.0-0.39","subject_id":"606e2ea0c4bd646aee2f2d7f","study_id":"60edd13110225f80f9f3709b","session_id":"6196c700ff05bf7e688a3b80","condition":"full-information","relevant_dimensions":["wings","legs"],"bee_group":{"antennae":"X","wings":"1","pattern":"X","legs":"F"},"action":"avoid","summary":"bad-avoid","bonus":1.480000000000001},{"rt":4897.800000000745,"stimulus":"\n                    <p><b>Action: <em>avoid</em></b></p>\n                    <p>This is the bee that you just saw.</p>\n                    <img src=\"bees-with-color/bee-B2SF.svg\" width=\"200\">\n                    <p><span class=\"redText\">Bad choice,</span> the bee was friendly.<br>Your bonus pay is unchanged, and remains at $0.80.</p>\n            ","response":0,"trial_type":"html-button-response","trial_index":90,"time_elapsed":641256,"internal_node_id":"0.0-4.0-1.39","subject_id":"606e2ea0c4bd646aee2f2d7f","study_id":"60edd13110225f80f9f3709b","session_id":"6196c700ff05bf7e688a3b80","condition":"full-information","relevant_dimensions":["wings","legs"],"bee_group":{"antennae":"X","wings":"1","pattern":"X","legs":"F"},"bonus":1.480000000000001},{"rt":5294.5,"stimulus":"bees-with-color/bee-A2SF.svg","response":0,"trial_type":"image-button-response","trial_index":91,"time_elapsed":646553,"internal_node_id":"0.0-4.0-0.40","subject_id":"606e2ea0c4bd646aee2f2d7f","study_id":"60edd13110225f80f9f3709b","session_id":"6196c700ff05bf7e688a3b80","condition":"full-information","relevant_dimensions":["wings","legs"],"bee_group":{"antennae":"X","wings":"1","pattern":"X","legs":"F"},"action":"harvest","summary":"good-harvest","bonus":1.480000000000001},{"rt":567.8000000007451,"stimulus":"\n                    <p><b>Action: <em>harvest</em></b></p>\n                    <p>This is the bee that you just saw.</p>\n                    <img src=\"bees-with-color/bee-A2SF.svg\" width=\"200\">\n                    <p><span class=\"greenText\"><b>Successful harvest!</b></span><br>Your pay has increased by $0.02. Your bonus pay is now $0.82.</p>\n            ","response":0,"trial_type":"html-button-response","trial_index":92,"time_elapsed":647124,"internal_node_id":"0.0-4.0-1.40","subject_id":"606e2ea0c4bd646aee2f2d7f","study_id":"60edd13110225f80f9f3709b","session_id":"6196c700ff05bf7e688a3b80","condition":"full-information","relevant_dimensions":["wings","legs"],"bee_group":{"antennae":"X","wings":"1","pattern":"X","legs":"F"},"bonus":1.480000000000001},{"rt":11985.60000000149,"stimulus":"bees-with-color/bee-A1DF.svg","response":1,"trial_type":"image-button-response","trial_index":93,"time_elapsed":659113,"internal_node_id":"0.0-4.0-0.41","subject_id":"606e2ea0c4bd646aee2f2d7f","study_id":"60edd13110225f80f9f3709b","session_id":"6196c700ff05bf7e688a3b80","condition":"full-information","relevant_dimensions":["wings","legs"],"bee_group":{"antennae":"X","wings":"1","pattern":"X","legs":"F"},"action":"avoid","summary":"good-avoid","bonus":1.480000000000001},{"rt":747,"stimulus":"\n                    <p><b>Action: <em>avoid</em></b></p>\n                    <p>This is the bee that you just saw.</p>\n                    <img src=\"bees-with-color/bee-A1DF.svg\" width=\"200\">\n                    <p><span class=\"greenText\">Good choice!</span>  This bee would have stung you.<br>Your bonus pay is unchanged, and remains at $0.82.</p>\n            ","response":0,"trial_type":"html-button-response","trial_index":94,"time_elapsed":659862,"internal_node_id":"0.0-4.0-1.41","subject_id":"606e2ea0c4bd646aee2f2d7f","study_id":"60edd13110225f80f9f3709b","session_id":"6196c700ff05bf7e688a3b80","condition":"full-information","relevant_dimensions":["wings","legs"],"bee_group":{"antennae":"X","wings":"1","pattern":"X","legs":"F"},"bonus":1.480000000000001},{"rt":8286.800000000745,"stimulus":"bees-with-color/bee-B2DM.svg","response":0,"trial_type":"image-button-response","trial_index":95,"time_elapsed":668151,"internal_node_id":"0.0-4.0-0.42","subject_id":"606e2ea0c4bd646aee2f2d7f","study_id":"60edd13110225f80f9f3709b","session_id":"6196c700ff05bf7e688a3b80","condition":"full-information","relevant_dimensions":["wings","legs"],"bee_group":{"antennae":"X","wings":"1","pattern":"X","legs":"F"},"action":"harvest","summary":"good-harvest","bonus":1.480000000000001},{"rt":487.30000000074506,"stimulus":"\n                    <p><b>Action: <em>harvest</em></b></p>\n                    <p>This is the bee that you just saw.</p>\n                    <img src=\"bees-with-color/bee-B2DM.svg\" width=\"200\">\n                    <p><span class=\"greenText\"><b>Successful harvest!</b></span><br>Your pay has increased by $0.02. Your bonus pay is now $0.84.</p>\n            ","response":0,"trial_type":"html-button-response","trial_index":96,"time_elapsed":668640,"internal_node_id":"0.0-4.0-1.42","subject_id":"606e2ea0c4bd646aee2f2d7f","study_id":"60edd13110225f80f9f3709b","session_id":"6196c700ff05bf7e688a3b80","condition":"full-information","relevant_dimensions":["wings","legs"],"bee_group":{"antennae":"X","wings":"1","pattern":"X","legs":"F"},"bonus":1.480000000000001},{"rt":10764.900000002235,"stimulus":"bees-with-color/bee-B2SM.svg","response":0,"trial_type":"image-button-response","trial_index":97,"time_elapsed":679407,"internal_node_id":"0.0-4.0-0.43","subject_id":"606e2ea0c4bd646aee2f2d7f","study_id":"60edd13110225f80f9f3709b","session_id":"6196c700ff05bf7e688a3b80","condition":"full-information","relevant_dimensions":["wings","legs"],"bee_group":{"antennae":"X","wings":"1","pattern":"X","legs":"F"},"action":"harvest","summary":"good-harvest","bonus":1.480000000000001},{"rt":873.5,"stimulus":"\n                    <p><b>Action: <em>harvest</em></b></p>\n                    <p>This is the bee that you just saw.</p>\n                    <img src=\"bees-with-color/bee-B2SM.svg\" width=\"200\">\n                    <p><span class=\"greenText\"><b>Successful harvest!</b></span><br>Your pay has increased by $0.02. Your bonus pay is now $0.86.</p>\n            ","response":0,"trial_type":"html-button-response","trial_index":98,"time_elapsed":680282,"internal_node_id":"0.0-4.0-1.43","subject_id":"606e2ea0c4bd646aee2f2d7f","study_id":"60edd13110225f80f9f3709b","session_id":"6196c700ff05bf7e688a3b80","condition":"full-information","relevant_dimensions":["wings","legs"],"bee_group":{"antennae":"X","wings":"1","pattern":"X","legs":"F"},"bonus":1.480000000000001},{"rt":3796.099999997765,"stimulus":"bees-with-color/bee-B2DF.svg","response":0,"trial_type":"image-button-response","trial_index":99,"time_elapsed":684080,"internal_node_id":"0.0-4.0-0.44","subject_id":"606e2ea0c4bd646aee2f2d7f","study_id":"60edd13110225f80f9f3709b","session_id":"6196c700ff05bf7e688a3b80","condition":"full-information","relevant_dimensions":["wings","legs"],"bee_group":{"antennae":"X","wings":"1","pattern":"X","legs":"F"},"action":"harvest","summary":"good-harvest","bonus":1.480000000000001},{"rt":518.8000000007451,"stimulus":"\n                    <p><b>Action: <em>harvest</em></b></p>\n                    <p>This is the bee that you just saw.</p>\n                    <img src=\"bees-with-color/bee-B2DF.svg\" width=\"200\">\n                    <p><span class=\"greenText\"><b>Successful harvest!</b></span><br>Your pay has increased by $0.02. Your bonus pay is now $0.88.</p>\n            ","response":0,"trial_type":"html-button-response","trial_index":100,"time_elapsed":684600,"internal_node_id":"0.0-4.0-1.44","subject_id":"606e2ea0c4bd646aee2f2d7f","study_id":"60edd13110225f80f9f3709b","session_id":"6196c700ff05bf7e688a3b80","condition":"full-information","relevant_dimensions":["wings","legs"],"bee_group":{"antennae":"X","wings":"1","pattern":"X","legs":"F"},"bonus":1.480000000000001},{"rt":2514.699999999255,"stimulus":"bees-with-color/bee-A2DF.svg","response":0,"trial_type":"image-button-response","trial_index":101,"time_elapsed":687116,"internal_node_id":"0.0-4.0-0.45","subject_id":"606e2ea0c4bd646aee2f2d7f","study_id":"60edd13110225f80f9f3709b","session_id":"6196c700ff05bf7e688a3b80","condition":"full-information","relevant_dimensions":["wings","legs"],"bee_group":{"antennae":"X","wings":"1","pattern":"X","legs":"F"},"action":"harvest","summary":"good-harvest","bonus":1.480000000000001},{"rt":430.8999999985099,"stimulus":"\n                    <p><b>Action: <em>harvest</em></b></p>\n                    <p>This is the bee that you just saw.</p>\n                    <img src=\"bees-with-color/bee-A2DF.svg\" width=\"200\">\n                    <p><span class=\"greenText\"><b>Successful harvest!</b></span><br>Your pay has increased by $0.02. Your bonus pay is now $0.90.</p>\n            ","response":0,"trial_type":"html-button-response","trial_index":102,"time_elapsed":687549,"internal_node_id":"0.0-4.0-1.45","subject_id":"606e2ea0c4bd646aee2f2d7f","study_id":"60edd13110225f80f9f3709b","session_id":"6196c700ff05bf7e688a3b80","condition":"full-information","relevant_dimensions":["wings","legs"],"bee_group":{"antennae":"X","wings":"1","pattern":"X","legs":"F"},"bonus":1.480000000000001},{"rt":3954,"stimulus":"bees-with-color/bee-A1SM.svg","response":0,"trial_type":"image-button-response","trial_index":103,"time_elapsed":691504,"internal_node_id":"0.0-4.0-0.46","subject_id":"606e2ea0c4bd646aee2f2d7f","study_id":"60edd13110225f80f9f3709b","session_id":"6196c700ff05bf7e688a3b80","condition":"full-information","relevant_dimensions":["wings","legs"],"bee_group":{"antennae":"X","wings":"1","pattern":"X","legs":"F"},"action":"harvest","summary":"good-harvest","bonus":1.480000000000001},{"rt":613.5,"stimulus":"\n                    <p><b>Action: <em>harvest</em></b></p>\n                    <p>This is the bee that you just saw.</p>\n                    <img src=\"bees-with-color/bee-A1SM.svg\" width=\"200\">\n                    <p><span class=\"greenText\"><b>Successful harvest!</b></span><br>Your pay has increased by $0.02. Your bonus pay is now $0.92.</p>\n            ","response":0,"trial_type":"html-button-response","trial_index":104,"time_elapsed":692119,"internal_node_id":"0.0-4.0-1.46","subject_id":"606e2ea0c4bd646aee2f2d7f","study_id":"60edd13110225f80f9f3709b","session_id":"6196c700ff05bf7e688a3b80","condition":"full-information","relevant_dimensions":["wings","legs"],"bee_group":{"antennae":"X","wings":"1","pattern":"X","legs":"F"},"bonus":1.480000000000001},{"rt":9817.29999999702,"stimulus":"bees-with-color/bee-A1SF.svg","response":1,"trial_type":"image-button-response","trial_index":105,"time_elapsed":701939,"internal_node_id":"0.0-4.0-0.47","subject_id":"606e2ea0c4bd646aee2f2d7f","study_id":"60edd13110225f80f9f3709b","session_id":"6196c700ff05bf7e688a3b80","condition":"full-information","relevant_dimensions":["wings","legs"],"bee_group":{"antennae":"X","wings":"1","pattern":"X","legs":"F"},"action":"avoid","summary":"good-avoid","bonus":1.480000000000001},{"rt":573.1000000014901,"stimulus":"\n                    <p><b>Action: <em>avoid</em></b></p>\n                    <p>This is the bee that you just saw.</p>\n                    <img src=\"bees-with-color/bee-A1SF.svg\" width=\"200\">\n                    <p><span class=\"greenText\">Good choice!</span>  This bee would have stung you.<br>Your bonus pay is unchanged, and remains at $0.92.</p>\n            ","response":0,"trial_type":"html-button-response","trial_index":106,"time_elapsed":702514,"internal_node_id":"0.0-4.0-1.47","subject_id":"606e2ea0c4bd646aee2f2d7f","study_id":"60edd13110225f80f9f3709b","session_id":"6196c700ff05bf7e688a3b80","condition":"full-information","relevant_dimensions":["wings","legs"],"bee_group":{"antennae":"X","wings":"1","pattern":"X","legs":"F"},"bonus":1.480000000000001},{"rt":9029,"stimulus":"bees-with-color/bee-B1DF.svg","response":1,"trial_type":"image-button-response","trial_index":107,"time_elapsed":711545,"internal_node_id":"0.0-4.0-0.48","subject_id":"606e2ea0c4bd646aee2f2d7f","study_id":"60edd13110225f80f9f3709b","session_id":"6196c700ff05bf7e688a3b80","condition":"full-information","relevant_dimensions":["wings","legs"],"bee_group":{"antennae":"X","wings":"1","pattern":"X","legs":"F"},"action":"avoid","summary":"good-avoid","bonus":1.480000000000001},{"rt":1118.199999999255,"stimulus":"\n                    <p><b>Action: <em>avoid</em></b></p>\n                    <p>This is the bee that you just saw.</p>\n                    <img src=\"bees-with-color/bee-B1DF.svg\" width=\"200\">\n                    <p><span class=\"greenText\">Good choice!</span>  This bee would have stung you.<br>Your bonus pay is unchanged, and remains at $0.92.</p>\n            ","response":0,"trial_type":"html-button-response","trial_index":108,"time_elapsed":712665,"internal_node_id":"0.0-4.0-1.48","subject_id":"606e2ea0c4bd646aee2f2d7f","study_id":"60edd13110225f80f9f3709b","session_id":"6196c700ff05bf7e688a3b80","condition":"full-information","relevant_dimensions":["wings","legs"],"bee_group":{"antennae":"X","wings":"1","pattern":"X","legs":"F"},"bonus":1.480000000000001},{"rt":8838.599999997765,"stimulus":"bees-with-color/bee-A2SF.svg","response":0,"trial_type":"image-button-response","trial_index":109,"time_elapsed":721506,"internal_node_id":"0.0-4.0-0.49","subject_id":"606e2ea0c4bd646aee2f2d7f","study_id":"60edd13110225f80f9f3709b","session_id":"6196c700ff05bf7e688a3b80","condition":"full-information","relevant_dimensions":["wings","legs"],"bee_group":{"antennae":"X","wings":"1","pattern":"X","legs":"F"},"action":"harvest","summary":"good-harvest","bonus":1.480000000000001},{"rt":502.4000000022352,"stimulus":"\n                    <p><b>Action: <em>harvest</em></b></p>\n                    <p>This is the bee that you just saw.</p>\n                    <img src=\"bees-with-color/bee-A2SF.svg\" width=\"200\">\n                    <p><span class=\"greenText\"><b>Successful harvest!</b></span><br>Your pay has increased by $0.02. Your bonus pay is now $0.94.</p>\n            ","response":0,"trial_type":"html-button-response","trial_index":110,"time_elapsed":722010,"internal_node_id":"0.0-4.0-1.49","subject_id":"606e2ea0c4bd646aee2f2d7f","study_id":"60edd13110225f80f9f3709b","session_id":"6196c700ff05bf7e688a3b80","condition":"full-information","relevant_dimensions":["wings","legs"],"bee_group":{"antennae":"X","wings":"1","pattern":"X","legs":"F"},"bonus":1.480000000000001},{"rt":6756.10000000149,"stimulus":"bees-with-color/bee-B2SM.svg","response":0,"trial_type":"image-button-response","trial_index":111,"time_elapsed":728769,"internal_node_id":"0.0-4.0-0.50","subject_id":"606e2ea0c4bd646aee2f2d7f","study_id":"60edd13110225f80f9f3709b","session_id":"6196c700ff05bf7e688a3b80","condition":"full-information","relevant_dimensions":["wings","legs"],"bee_group":{"antennae":"X","wings":"1","pattern":"X","legs":"F"},"action":"harvest","summary":"good-harvest","bonus":1.480000000000001},{"rt":574.3999999985099,"stimulus":"\n                    <p><b>Action: <em>harvest</em></b></p>\n                    <p>This is the bee that you just saw.</p>\n                    <img src=\"bees-with-color/bee-B2SM.svg\" width=\"200\">\n                    <p><span class=\"greenText\"><b>Successful harvest!</b></span><br>Your pay has increased by $0.02. Your bonus pay is now $0.96.</p>\n            ","response":0,"trial_type":"html-button-response","trial_index":112,"time_elapsed":729345,"internal_node_id":"0.0-4.0-1.50","subject_id":"606e2ea0c4bd646aee2f2d7f","study_id":"60edd13110225f80f9f3709b","session_id":"6196c700ff05bf7e688a3b80","condition":"full-information","relevant_dimensions":["wings","legs"],"bee_group":{"antennae":"X","wings":"1","pattern":"X","legs":"F"},"bonus":1.480000000000001},{"rt":4219.800000000745,"stimulus":"bees-with-color/bee-B2DF.svg","response":0,"trial_type":"image-button-response","trial_index":113,"time_elapsed":733567,"internal_node_id":"0.0-4.0-0.51","subject_id":"606e2ea0c4bd646aee2f2d7f","study_id":"60edd13110225f80f9f3709b","session_id":"6196c700ff05bf7e688a3b80","condition":"full-information","relevant_dimensions":["wings","legs"],"bee_group":{"antennae":"X","wings":"1","pattern":"X","legs":"F"},"action":"harvest","summary":"good-harvest","bonus":1.480000000000001},{"rt":644.3000000007451,"stimulus":"\n                    <p><b>Action: <em>harvest</em></b></p>\n                    <p>This is the bee that you just saw.</p>\n                    <img src=\"bees-with-color/bee-B2DF.svg\" width=\"200\">\n                    <p><span class=\"greenText\"><b>Successful harvest!</b></span><br>Your pay has increased by $0.02. Your bonus pay is now $0.98.</p>\n            ","response":0,"trial_type":"html-button-response","trial_index":114,"time_elapsed":734213,"internal_node_id":"0.0-4.0-1.51","subject_id":"606e2ea0c4bd646aee2f2d7f","study_id":"60edd13110225f80f9f3709b","session_id":"6196c700ff05bf7e688a3b80","condition":"full-information","relevant_dimensions":["wings","legs"],"bee_group":{"antennae":"X","wings":"1","pattern":"X","legs":"F"},"bonus":1.480000000000001},{"rt":5303.5,"stimulus":"bees-with-color/bee-B2SF.svg","response":0,"trial_type":"image-button-response","trial_index":115,"time_elapsed":739518,"internal_node_id":"0.0-4.0-0.52","subject_id":"606e2ea0c4bd646aee2f2d7f","study_id":"60edd13110225f80f9f3709b","session_id":"6196c700ff05bf7e688a3b80","condition":"full-information","relevant_dimensions":["wings","legs"],"bee_group":{"antennae":"X","wings":"1","pattern":"X","legs":"F"},"action":"harvest","summary":"good-harvest","bonus":1.480000000000001},{"rt":1059.199999999255,"stimulus":"\n                    <p><b>Action: <em>harvest</em></b></p>\n                    <p>This is the bee that you just saw.</p>\n                    <img src=\"bees-with-color/bee-B2SF.svg\" width=\"200\">\n                    <p><span class=\"greenText\"><b>Successful harvest!</b></span><br>Your pay has increased by $0.02. Your bonus pay is now $1.00.</p>\n            ","response":0,"trial_type":"html-button-response","trial_index":116,"time_elapsed":740579,"internal_node_id":"0.0-4.0-1.52","subject_id":"606e2ea0c4bd646aee2f2d7f","study_id":"60edd13110225f80f9f3709b","session_id":"6196c700ff05bf7e688a3b80","condition":"full-information","relevant_dimensions":["wings","legs"],"bee_group":{"antennae":"X","wings":"1","pattern":"X","legs":"F"},"bonus":1.480000000000001},{"rt":12045.800000000745,"stimulus":"bees-with-color/bee-B2DM.svg","response":0,"trial_type":"image-button-response","trial_index":117,"time_elapsed":752629,"internal_node_id":"0.0-4.0-0.53","subject_id":"606e2ea0c4bd646aee2f2d7f","study_id":"60edd13110225f80f9f3709b","session_id":"6196c700ff05bf7e688a3b80","condition":"full-information","relevant_dimensions":["wings","legs"],"bee_group":{"antennae":"X","wings":"1","pattern":"X","legs":"F"},"action":"harvest","summary":"good-harvest","bonus":1.480000000000001},{"rt":699.4000000022352,"stimulus":"\n                    <p><b>Action: <em>harvest</em></b></p>\n                    <p>This is the bee that you just saw.</p>\n                    <img src=\"bees-with-color/bee-B2DM.svg\" width=\"200\">\n                    <p><span class=\"greenText\"><b>Successful harvest!</b></span><br>Your pay has increased by $0.02. Your bonus pay is now $1.02.</p>\n            ","response":0,"trial_type":"html-button-response","trial_index":118,"time_elapsed":753330,"internal_node_id":"0.0-4.0-1.53","subject_id":"606e2ea0c4bd646aee2f2d7f","study_id":"60edd13110225f80f9f3709b","session_id":"6196c700ff05bf7e688a3b80","condition":"full-information","relevant_dimensions":["wings","legs"],"bee_group":{"antennae":"X","wings":"1","pattern":"X","legs":"F"},"bonus":1.480000000000001},{"rt":5650.5,"stimulus":"bees-with-color/bee-A1SF.svg","response":1,"trial_type":"image-button-response","trial_index":119,"time_elapsed":758983,"internal_node_id":"0.0-4.0-0.54","subject_id":"606e2ea0c4bd646aee2f2d7f","study_id":"60edd13110225f80f9f3709b","session_id":"6196c700ff05bf7e688a3b80","condition":"full-information","relevant_dimensions":["wings","legs"],"bee_group":{"antennae":"X","wings":"1","pattern":"X","legs":"F"},"action":"avoid","summary":"good-avoid","bonus":1.480000000000001},{"rt":1464,"stimulus":"\n                    <p><b>Action: <em>avoid</em></b></p>\n                    <p>This is the bee that you just saw.</p>\n                    <img src=\"bees-with-color/bee-A1SF.svg\" width=\"200\">\n                    <p><span class=\"greenText\">Good choice!</span>  This bee would have stung you.<br>Your bonus pay is unchanged, and remains at $1.02.</p>\n            ","response":0,"trial_type":"html-button-response","trial_index":120,"time_elapsed":760448,"internal_node_id":"0.0-4.0-1.54","subject_id":"606e2ea0c4bd646aee2f2d7f","study_id":"60edd13110225f80f9f3709b","session_id":"6196c700ff05bf7e688a3b80","condition":"full-information","relevant_dimensions":["wings","legs"],"bee_group":{"antennae":"X","wings":"1","pattern":"X","legs":"F"},"bonus":1.480000000000001},{"rt":17938.300000000745,"stimulus":"bees-with-color/bee-A1SM.svg","response":0,"trial_type":"image-button-response","trial_index":121,"time_elapsed":778390,"internal_node_id":"0.0-4.0-0.55","subject_id":"606e2ea0c4bd646aee2f2d7f","study_id":"60edd13110225f80f9f3709b","session_id":"6196c700ff05bf7e688a3b80","condition":"full-information","relevant_dimensions":["wings","legs"],"bee_group":{"antennae":"X","wings":"1","pattern":"X","legs":"F"},"action":"harvest","summary":"good-harvest","bonus":1.480000000000001},{"rt":510.1000000014901,"stimulus":"\n                    <p><b>Action: <em>harvest</em></b></p>\n                    <p>This is the bee that you just saw.</p>\n                    <img src=\"bees-with-color/bee-A1SM.svg\" width=\"200\">\n                    <p><span class=\"greenText\"><b>Successful harvest!</b></span><br>Your pay has increased by $0.02. Your bonus pay is now $1.04.</p>\n            ","response":0,"trial_type":"html-button-response","trial_index":122,"time_elapsed":778902,"internal_node_id":"0.0-4.0-1.55","subject_id":"606e2ea0c4bd646aee2f2d7f","study_id":"60edd13110225f80f9f3709b","session_id":"6196c700ff05bf7e688a3b80","condition":"full-information","relevant_dimensions":["wings","legs"],"bee_group":{"antennae":"X","wings":"1","pattern":"X","legs":"F"},"bonus":1.480000000000001},{"rt":10640,"stimulus":"bees-with-color/bee-B1DM.svg","response":0,"trial_type":"image-button-response","trial_index":123,"time_elapsed":789544,"internal_node_id":"0.0-4.0-0.56","subject_id":"606e2ea0c4bd646aee2f2d7f","study_id":"60edd13110225f80f9f3709b","session_id":"6196c700ff05bf7e688a3b80","condition":"full-information","relevant_dimensions":["wings","legs"],"bee_group":{"antennae":"X","wings":"1","pattern":"X","legs":"F"},"action":"harvest","summary":"good-harvest","bonus":1.480000000000001},{"rt":1471.8999999985099,"stimulus":"\n                    <p><b>Action: <em>harvest</em></b></p>\n                    <p>This is the bee that you just saw.</p>\n                    <img src=\"bees-with-color/bee-B1DM.svg\" width=\"200\">\n                    <p><span class=\"greenText\"><b>Successful harvest!</b></span><br>Your pay has increased by $0.02. Your bonus pay is now $1.06.</p>\n            ","response":0,"trial_type":"html-button-response","trial_index":124,"time_elapsed":791018,"internal_node_id":"0.0-4.0-1.56","subject_id":"606e2ea0c4bd646aee2f2d7f","study_id":"60edd13110225f80f9f3709b","session_id":"6196c700ff05bf7e688a3b80","condition":"full-information","relevant_dimensions":["wings","legs"],"bee_group":{"antennae":"X","wings":"1","pattern":"X","legs":"F"},"bonus":1.480000000000001},{"rt":28168,"stimulus":"bees-with-color/bee-A1DF.svg","response":1,"trial_type":"image-button-response","trial_index":125,"time_elapsed":819188,"internal_node_id":"0.0-4.0-0.57","subject_id":"606e2ea0c4bd646aee2f2d7f","study_id":"60edd13110225f80f9f3709b","session_id":"6196c700ff05bf7e688a3b80","condition":"full-information","relevant_dimensions":["wings","legs"],"bee_group":{"antennae":"X","wings":"1","pattern":"X","legs":"F"},"action":"avoid","summary":"good-avoid","bonus":1.480000000000001},{"rt":1172.3999999985099,"stimulus":"\n                    <p><b>Action: <em>avoid</em></b></p>\n                    <p>This is the bee that you just saw.</p>\n                    <img src=\"bees-with-color/bee-A1DF.svg\" width=\"200\">\n                    <p><span class=\"greenText\">Good choice!</span>  This bee would have stung you.<br>Your bonus pay is unchanged, and remains at $1.06.</p>\n            ","response":0,"trial_type":"html-button-response","trial_index":126,"time_elapsed":820362,"internal_node_id":"0.0-4.0-1.57","subject_id":"606e2ea0c4bd646aee2f2d7f","study_id":"60edd13110225f80f9f3709b","session_id":"6196c700ff05bf7e688a3b80","condition":"full-information","relevant_dimensions":["wings","legs"],"bee_group":{"antennae":"X","wings":"1","pattern":"X","legs":"F"},"bonus":1.480000000000001},{"rt":15832.400000002235,"stimulus":"bees-with-color/bee-A1DM.svg","response":0,"trial_type":"image-button-response","trial_index":127,"time_elapsed":836196,"internal_node_id":"0.0-4.0-0.58","subject_id":"606e2ea0c4bd646aee2f2d7f","study_id":"60edd13110225f80f9f3709b","session_id":"6196c700ff05bf7e688a3b80","condition":"full-information","relevant_dimensions":["wings","legs"],"bee_group":{"antennae":"X","wings":"1","pattern":"X","legs":"F"},"action":"harvest","summary":"good-harvest","bonus":1.480000000000001},{"rt":1607.0999999977648,"stimulus":"\n                    <p><b>Action: <em>harvest</em></b></p>\n                    <p>This is the bee that you just saw.</p>\n                    <img src=\"bees-with-color/bee-A1DM.svg\" width=\"200\">\n                    <p><span class=\"greenText\"><b>Successful harvest!</b></span><br>Your pay has increased by $0.02. Your bonus pay is now $1.08.</p>\n            ","response":0,"trial_type":"html-button-response","trial_index":128,"time_elapsed":837805,"internal_node_id":"0.0-4.0-1.58","subject_id":"606e2ea0c4bd646aee2f2d7f","study_id":"60edd13110225f80f9f3709b","session_id":"6196c700ff05bf7e688a3b80","condition":"full-information","relevant_dimensions":["wings","legs"],"bee_group":{"antennae":"X","wings":"1","pattern":"X","legs":"F"},"bonus":1.480000000000001},{"rt":12796.699999999255,"stimulus":"bees-with-color/bee-A2DF.svg","response":0,"trial_type":"image-button-response","trial_index":129,"time_elapsed":850604,"internal_node_id":"0.0-4.0-0.59","subject_id":"606e2ea0c4bd646aee2f2d7f","study_id":"60edd13110225f80f9f3709b","session_id":"6196c700ff05bf7e688a3b80","condition":"full-information","relevant_dimensions":["wings","legs"],"bee_group":{"antennae":"X","wings":"1","pattern":"X","legs":"F"},"action":"harvest","summary":"good-harvest","bonus":1.480000000000001},{"rt":548.8999999985099,"stimulus":"\n                    <p><b>Action: <em>harvest</em></b></p>\n                    <p>This is the bee that you just saw.</p>\n                    <img src=\"bees-with-color/bee-A2DF.svg\" width=\"200\">\n                    <p><span class=\"greenText\"><b>Successful harvest!</b></span><br>Your pay has increased by $0.02. Your bonus pay is now $1.10.</p>\n            ","response":0,"trial_type":"html-button-response","trial_index":130,"time_elapsed":851154,"internal_node_id":"0.0-4.0-1.59","subject_id":"606e2ea0c4bd646aee2f2d7f","study_id":"60edd13110225f80f9f3709b","session_id":"6196c700ff05bf7e688a3b80","condition":"full-information","relevant_dimensions":["wings","legs"],"bee_group":{"antennae":"X","wings":"1","pattern":"X","legs":"F"},"bonus":1.480000000000001},{"rt":17249.199999999255,"stimulus":"bees-with-color/bee-A2SM.svg","response":1,"trial_type":"image-button-response","trial_index":131,"time_elapsed":868408,"internal_node_id":"0.0-4.0-0.60","subject_id":"606e2ea0c4bd646aee2f2d7f","study_id":"60edd13110225f80f9f3709b","session_id":"6196c700ff05bf7e688a3b80","condition":"full-information","relevant_dimensions":["wings","legs"],"bee_group":{"antennae":"X","wings":"1","pattern":"X","legs":"F"},"action":"avoid","summary":"bad-avoid","bonus":1.480000000000001},{"rt":944,"stimulus":"\n                    <p><b>Action: <em>avoid</em></b></p>\n                    <p>This is the bee that you just saw.</p>\n                    <img src=\"bees-with-color/bee-A2SM.svg\" width=\"200\">\n                    <p><span class=\"redText\">Bad choice,</span> the bee was friendly.<br>Your bonus pay is unchanged, and remains at $1.10.</p>\n            ","response":0,"trial_type":"html-button-response","trial_index":132,"time_elapsed":869376,"internal_node_id":"0.0-4.0-1.60","subject_id":"606e2ea0c4bd646aee2f2d7f","study_id":"60edd13110225f80f9f3709b","session_id":"6196c700ff05bf7e688a3b80","condition":"full-information","relevant_dimensions":["wings","legs"],"bee_group":{"antennae":"X","wings":"1","pattern":"X","legs":"F"},"bonus":1.480000000000001},{"rt":11793.5,"stimulus":"bees-with-color/bee-B1SF.svg","response":1,"trial_type":"image-button-response","trial_index":133,"time_elapsed":881173,"internal_node_id":"0.0-4.0-0.61","subject_id":"606e2ea0c4bd646aee2f2d7f","study_id":"60edd13110225f80f9f3709b","session_id":"6196c700ff05bf7e688a3b80","condition":"full-information","relevant_dimensions":["wings","legs"],"bee_group":{"antennae":"X","wings":"1","pattern":"X","legs":"F"},"action":"avoid","summary":"good-avoid","bonus":1.480000000000001},{"rt":930.0999999977648,"stimulus":"\n                    <p><b>Action: <em>avoid</em></b></p>\n                    <p>This is the bee that you just saw.</p>\n                    <img src=\"bees-with-color/bee-B1SF.svg\" width=\"200\">\n                    <p><span class=\"greenText\">Good choice!</span>  This bee would have stung you.<br>Your bonus pay is unchanged, and remains at $1.10.</p>\n            ","response":0,"trial_type":"html-button-response","trial_index":134,"time_elapsed":882104,"internal_node_id":"0.0-4.0-1.61","subject_id":"606e2ea0c4bd646aee2f2d7f","study_id":"60edd13110225f80f9f3709b","session_id":"6196c700ff05bf7e688a3b80","condition":"full-information","relevant_dimensions":["wings","legs"],"bee_group":{"antennae":"X","wings":"1","pattern":"X","legs":"F"},"bonus":1.480000000000001},{"rt":19056.60000000149,"stimulus":"bees-with-color/bee-A2DM.svg","response":0,"trial_type":"image-button-response","trial_index":135,"time_elapsed":901163,"internal_node_id":"0.0-4.0-0.62","subject_id":"606e2ea0c4bd646aee2f2d7f","study_id":"60edd13110225f80f9f3709b","session_id":"6196c700ff05bf7e688a3b80","condition":"full-information","relevant_dimensions":["wings","legs"],"bee_group":{"antennae":"X","wings":"1","pattern":"X","legs":"F"},"action":"harvest","summary":"good-harvest","bonus":1.480000000000001},{"rt":597.1999999992549,"stimulus":"\n                    <p><b>Action: <em>harvest</em></b></p>\n                    <p>This is the bee that you just saw.</p>\n                    <img src=\"bees-with-color/bee-A2DM.svg\" width=\"200\">\n                    <p><span class=\"greenText\"><b>Successful harvest!</b></span><br>Your pay has increased by $0.02. Your bonus pay is now $1.12.</p>\n            ","response":0,"trial_type":"html-button-response","trial_index":136,"time_elapsed":901763,"internal_node_id":"0.0-4.0-1.62","subject_id":"606e2ea0c4bd646aee2f2d7f","study_id":"60edd13110225f80f9f3709b","session_id":"6196c700ff05bf7e688a3b80","condition":"full-information","relevant_dimensions":["wings","legs"],"bee_group":{"antennae":"X","wings":"1","pattern":"X","legs":"F"},"bonus":1.480000000000001},{"rt":22370.199999999255,"stimulus":"bees-with-color/bee-B1SM.svg","response":1,"trial_type":"image-button-response","trial_index":137,"time_elapsed":924139,"internal_node_id":"0.0-4.0-0.63","subject_id":"606e2ea0c4bd646aee2f2d7f","study_id":"60edd13110225f80f9f3709b","session_id":"6196c700ff05bf7e688a3b80","condition":"full-information","relevant_dimensions":["wings","legs"],"bee_group":{"antennae":"X","wings":"1","pattern":"X","legs":"F"},"action":"avoid","summary":"bad-avoid","bonus":1.480000000000001},{"rt":1049,"stimulus":"\n                    <p><b>Action: <em>avoid</em></b></p>\n                    <p>This is the bee that you just saw.</p>\n                    <img src=\"bees-with-color/bee-B1SM.svg\" width=\"200\">\n                    <p><span class=\"redText\">Bad choice,</span> the bee was friendly.<br>Your bonus pay is unchanged, and remains at $1.12.</p>\n            ","response":0,"trial_type":"html-button-response","trial_index":138,"time_elapsed":925199,"internal_node_id":"0.0-4.0-1.63","subject_id":"606e2ea0c4bd646aee2f2d7f","study_id":"60edd13110225f80f9f3709b","session_id":"6196c700ff05bf7e688a3b80","condition":"full-information","relevant_dimensions":["wings","legs"],"bee_group":{"antennae":"X","wings":"1","pattern":"X","legs":"F"},"bonus":1.480000000000001},{"rt":7073.10000000149,"stimulus":"You have completed the first part of this experiment.<br><br>You will now begin a shorter second part, in which you will receive no feedback.<br>The same rules regarding bonus pay apply.<br><br>Press any key to begin.","response":" ","trial_type":"html-keyboard-response","trial_index":139,"time_elapsed":932278,"internal_node_id":"0.0-5.0","subject_id":"606e2ea0c4bd646aee2f2d7f","study_id":"60edd13110225f80f9f3709b","session_id":"6196c700ff05bf7e688a3b80","condition":"full-information","relevant_dimensions":["wings","legs"],"bee_group":{"antennae":"X","wings":"1","pattern":"X","legs":"F"},"bonus":1.480000000000001},{"rt":13271.5,"stimulus":"bees-with-color/bee-B1DF.svg","response":1,"trial_type":"image-button-response","trial_index":140,"time_elapsed":945554,"internal_node_id":"0.0-6.0-0.0","subject_id":"606e2ea0c4bd646aee2f2d7f","study_id":"60edd13110225f80f9f3709b","session_id":"6196c700ff05bf7e688a3b80","condition":"full-information","relevant_dimensions":["wings","legs"],"bee_group":{"antennae":"X","wings":"1","pattern":"X","legs":"F"},"bonus":1.480000000000001},{"rt":20679.199999999255,"stimulus":"bees-with-color/bee-A1DM.svg","response":0,"trial_type":"image-button-response","trial_index":141,"time_elapsed":966237,"internal_node_id":"0.0-6.0-0.1","subject_id":"606e2ea0c4bd646aee2f2d7f","study_id":"60edd13110225f80f9f3709b","session_id":"6196c700ff05bf7e688a3b80","condition":"full-information","relevant_dimensions":["wings","legs"],"bee_group":{"antennae":"X","wings":"1","pattern":"X","legs":"F"},"bonus":1.480000000000001},{"rt":9320.10000000149,"stimulus":"bees-with-color/bee-A2SM.svg","response":0,"trial_type":"image-button-response","trial_index":142,"time_elapsed":975561,"internal_node_id":"0.0-6.0-0.2","subject_id":"606e2ea0c4bd646aee2f2d7f","study_id":"60edd13110225f80f9f3709b","session_id":"6196c700ff05bf7e688a3b80","condition":"full-information","relevant_dimensions":["wings","legs"],"bee_group":{"antennae":"X","wings":"1","pattern":"X","legs":"F"},"bonus":1.480000000000001},{"rt":17437.199999999255,"stimulus":"bees-with-color/bee-B2DF.svg","response":1,"trial_type":"image-button-response","trial_index":143,"time_elapsed":993001,"internal_node_id":"0.0-6.0-0.3","subject_id":"606e2ea0c4bd646aee2f2d7f","study_id":"60edd13110225f80f9f3709b","session_id":"6196c700ff05bf7e688a3b80","condition":"full-information","relevant_dimensions":["wings","legs"],"bee_group":{"antennae":"X","wings":"1","pattern":"X","legs":"F"},"bonus":1.480000000000001},{"rt":6626.199999999255,"stimulus":"bees-with-color/bee-B2SF.svg","response":0,"trial_type":"image-button-response","trial_index":144,"time_elapsed":999630,"internal_node_id":"0.0-6.0-0.4","subject_id":"606e2ea0c4bd646aee2f2d7f","study_id":"60edd13110225f80f9f3709b","session_id":"6196c700ff05bf7e688a3b80","condition":"full-information","relevant_dimensions":["wings","legs"],"bee_group":{"antennae":"X","wings":"1","pattern":"X","legs":"F"},"bonus":1.480000000000001},{"rt":7840.099999997765,"stimulus":"bees-with-color/bee-B2SM.svg","response":0,"trial_type":"image-button-response","trial_index":145,"time_elapsed":1007472,"internal_node_id":"0.0-6.0-0.5","subject_id":"606e2ea0c4bd646aee2f2d7f","study_id":"60edd13110225f80f9f3709b","session_id":"6196c700ff05bf7e688a3b80","condition":"full-information","relevant_dimensions":["wings","legs"],"bee_group":{"antennae":"X","wings":"1","pattern":"X","legs":"F"},"bonus":1.480000000000001},{"rt":9621.60000000149,"stimulus":"bees-with-color/bee-B1DM.svg","response":0,"trial_type":"image-button-response","trial_index":146,"time_elapsed":1017097,"internal_node_id":"0.0-6.0-0.6","subject_id":"606e2ea0c4bd646aee2f2d7f","study_id":"60edd13110225f80f9f3709b","session_id":"6196c700ff05bf7e688a3b80","condition":"full-information","relevant_dimensions":["wings","legs"],"bee_group":{"antennae":"X","wings":"1","pattern":"X","legs":"F"},"bonus":1.480000000000001},{"rt":3527.7999999970198,"stimulus":"bees-with-color/bee-B1SF.svg","response":1,"trial_type":"image-button-response","trial_index":147,"time_elapsed":1020628,"internal_node_id":"0.0-6.0-0.7","subject_id":"606e2ea0c4bd646aee2f2d7f","study_id":"60edd13110225f80f9f3709b","session_id":"6196c700ff05bf7e688a3b80","condition":"full-information","relevant_dimensions":["wings","legs"],"bee_group":{"antennae":"X","wings":"1","pattern":"X","legs":"F"},"bonus":1.480000000000001},{"rt":8793.10000000149,"stimulus":"bees-with-color/bee-B2DM.svg","response":0,"trial_type":"image-button-response","trial_index":148,"time_elapsed":1029423,"internal_node_id":"0.0-6.0-0.8","subject_id":"606e2ea0c4bd646aee2f2d7f","study_id":"60edd13110225f80f9f3709b","session_id":"6196c700ff05bf7e688a3b80","condition":"full-information","relevant_dimensions":["wings","legs"],"bee_group":{"antennae":"X","wings":"1","pattern":"X","legs":"F"},"bonus":1.480000000000001},{"rt":17845.699999999255,"stimulus":"bees-with-color/bee-A2DF.svg","response":0,"trial_type":"image-button-response","trial_index":149,"time_elapsed":1047272,"internal_node_id":"0.0-6.0-0.9","subject_id":"606e2ea0c4bd646aee2f2d7f","study_id":"60edd13110225f80f9f3709b","session_id":"6196c700ff05bf7e688a3b80","condition":"full-information","relevant_dimensions":["wings","legs"],"bee_group":{"antennae":"X","wings":"1","pattern":"X","legs":"F"},"bonus":1.480000000000001},{"rt":9923.800000000745,"stimulus":"bees-with-color/bee-A1SF.svg","response":1,"trial_type":"image-button-response","trial_index":150,"time_elapsed":1057198,"internal_node_id":"0.0-6.0-0.10","subject_id":"606e2ea0c4bd646aee2f2d7f","study_id":"60edd13110225f80f9f3709b","session_id":"6196c700ff05bf7e688a3b80","condition":"full-information","relevant_dimensions":["wings","legs"],"bee_group":{"antennae":"X","wings":"1","pattern":"X","legs":"F"},"bonus":1.480000000000001},{"rt":2569.60000000149,"stimulus":"bees-with-color/bee-A1SM.svg","response":0,"trial_type":"image-button-response","trial_index":151,"time_elapsed":1059769,"internal_node_id":"0.0-6.0-0.11","subject_id":"606e2ea0c4bd646aee2f2d7f","study_id":"60edd13110225f80f9f3709b","session_id":"6196c700ff05bf7e688a3b80","condition":"full-information","relevant_dimensions":["wings","legs"],"bee_group":{"antennae":"X","wings":"1","pattern":"X","legs":"F"},"bonus":1.480000000000001},{"rt":17248.5,"stimulus":"bees-with-color/bee-A1DF.svg","response":1,"trial_type":"image-button-response","trial_index":152,"time_elapsed":1077019,"internal_node_id":"0.0-6.0-0.12","subject_id":"606e2ea0c4bd646aee2f2d7f","study_id":"60edd13110225f80f9f3709b","session_id":"6196c700ff05bf7e688a3b80","condition":"full-information","relevant_dimensions":["wings","legs"],"bee_group":{"antennae":"X","wings":"1","pattern":"X","legs":"F"},"bonus":1.480000000000001},{"rt":5893,"stimulus":"bees-with-color/bee-B1SM.svg","response":0,"trial_type":"image-button-response","trial_index":153,"time_elapsed":1082914,"internal_node_id":"0.0-6.0-0.13","subject_id":"606e2ea0c4bd646aee2f2d7f","study_id":"60edd13110225f80f9f3709b","session_id":"6196c700ff05bf7e688a3b80","condition":"full-information","relevant_dimensions":["wings","legs"],"bee_group":{"antennae":"X","wings":"1","pattern":"X","legs":"F"},"bonus":1.480000000000001},{"rt":12572.400000002235,"stimulus":"bees-with-color/bee-A2DM.svg","response":1,"trial_type":"image-button-response","trial_index":154,"time_elapsed":1095489,"internal_node_id":"0.0-6.0-0.14","subject_id":"606e2ea0c4bd646aee2f2d7f","study_id":"60edd13110225f80f9f3709b","session_id":"6196c700ff05bf7e688a3b80","condition":"full-information","relevant_dimensions":["wings","legs"],"bee_group":{"antennae":"X","wings":"1","pattern":"X","legs":"F"},"bonus":1.480000000000001},{"rt":13672.599999997765,"stimulus":"bees-with-color/bee-A2SF.svg","response":0,"trial_type":"image-button-response","trial_index":155,"time_elapsed":1109163,"internal_node_id":"0.0-6.0-0.15","subject_id":"606e2ea0c4bd646aee2f2d7f","study_id":"60edd13110225f80f9f3709b","session_id":"6196c700ff05bf7e688a3b80","condition":"full-information","relevant_dimensions":["wings","legs"],"bee_group":{"antennae":"X","wings":"1","pattern":"X","legs":"F"},"bonus":1.480000000000001},{"rt":16722,"stimulus":"bees-with-color/bee-B1SF.svg","response":1,"trial_type":"image-button-response","trial_index":156,"time_elapsed":1125888,"internal_node_id":"0.0-6.0-0.16","subject_id":"606e2ea0c4bd646aee2f2d7f","study_id":"60edd13110225f80f9f3709b","session_id":"6196c700ff05bf7e68