[{"success":true,"trial_type":"fullscreen","trial_index":0,"time_elapsed":23305,"internal_node_id":"0.0-0.0","subject_id":"5fc6bcbc6da34d0f8dd78a3a","study_id":"6197b3f67c2b5cd3b6d9596a","session_id":"619bfbdbc4512f9ddba7162a","condition":"full-information","relevant_dimensions":["antennae","wings"],"bee_group":{"antennae":"B","wings":"2","pattern":"X","legs":"X"},"bonus":1.400000000000001},{"success":true,"timeout":false,"failed_images":[],"failed_audio":[],"failed_video":[],"trial_type":"preload","trial_index":1,"time_elapsed":25038,"internal_node_id":"0.0-1.0","subject_id":"5fc6bcbc6da34d0f8dd78a3a","study_id":"6197b3f67c2b5cd3b6d9596a","session_id":"619bfbdbc4512f9ddba7162a","condition":"full-information","relevant_dimensions":["antennae","wings"],"bee_group":{"antennae":"B","wings":"2","pattern":"X","legs":"X"},"bonus":1.400000000000001},{"rt":2346.39999999851,"stimulus":"Welcome! Press any key to begin.","response":"enter","trial_type":"html-keyboard-response","trial_index":2,"time_elapsed":27385,"internal_node_id":"0.0-2.0","subject_id":"5fc6bcbc6da34d0f8dd78a3a","study_id":"6197b3f67c2b5cd3b6d9596a","session_id":"619bfbdbc4512f9ddba7162a","condition":"full-information","relevant_dimensions":["antennae","wings"],"bee_group":{"antennae":"B","wings":"2","pattern":"X","legs":"X"},"bonus":1.400000000000001},{"view_history":[{"page_index":0,"viewing_time":6480.099999997765},{"page_index":1,"viewing_time":12789.900000002235},{"page_index":2,"viewing_time":13716.199999999255},{"page_index":3,"viewing_time":10303.800000000745},{"page_index":4,"viewing_time":5056.199999999255},{"page_index":5,"viewing_time":4831.800000000745},{"page_index":6,"viewing_time":7910.89999999851},{"page_index":7,"viewing_time":8332.800000000745},{"page_index":8,"viewing_time":3564.699999999255},{"page_index":9,"viewing_time":2499.60000000149},{"page_index":10,"viewing_time":4378.300000000745},{"page_index":11,"viewing_time":8136.5},{"page_index":12,"viewing_time":6925},{"page_index":13,"viewing_time":1097},{"page_index":14,"viewing_time":2158.099999997765}],"rt":98182.30000000075,"trial_type":"instructions","trial_index":3,"time_elapsed":125568,"internal_node_id":"0.0-3.0-0.0","subject_id":"5fc6bcbc6da34d0f8dd78a3a","study_id":"6197b3f67c2b5cd3b6d9596a","session_id":"619bfbdbc4512f9ddba7162a","condition":"full-information","relevant_dimensions":["antennae","wings"],"bee_group":{"antennae":"B","wings":"2","pattern":"X","legs":"X"},"bonus":1.400000000000001},{"rt":8016.699999999255,"response":{"Q0":["Two or six legs","Stripes or spots on body","Single or double wings","Antennae or no antennae"]},"question_order":[0],"trial_type":"survey-multi-select","trial_index":4,"time_elapsed":133588,"internal_node_id":"0.0-3.0-1.0","subject_id":"5fc6bcbc6da34d0f8dd78a3a","study_id":"6197b3f67c2b5cd3b6d9596a","session_id":"619bfbdbc4512f9ddba7162a","condition":"full-information","relevant_dimensions":["antennae","wings"],"bee_group":{"antennae":"B","wings":"2","pattern":"X","legs":"X"},"correct":true,"bonus":1.400000000000001},{"rt":16852.5,"response":{"Q1":"No.","Q2":"Based on the four features of the bee.","Q3":"You learn if it was friendly or dangerous, but do not alter your bonus."},"question_order":[0,1,2],"trial_type":"survey-multi-choice","trial_index":5,"time_elapsed":150444,"internal_node_id":"0.0-3.0-2.0","subject_id":"5fc6bcbc6da34d0f8dd78a3a","study_id":"6197b3f67c2b5cd3b6d9596a","session_id":"619bfbdbc4512f9ddba7162a","condition":"full-information","relevant_dimensions":["antennae","wings"],"bee_group":{"antennae":"B","wings":"2","pattern":"X","legs":"X"},"correct":true,"bonus":1.400000000000001},{"rt":3077.7999999970198,"stimulus":"<p>Congrats, you got everything right<br>When you're ready, click the button below to continue to the experiment.</p>","response":0,"trial_type":"html-button-response","trial_index":6,"time_elapsed":153527,"internal_node_id":"0.0-3.0-3.0","subject_id":"5fc6bcbc6da34d0f8dd78a3a","study_id":"6197b3f67c2b5cd3b6d9596a","session_id":"619bfbdbc4512f9ddba7162a","condition":"full-information","relevant_dimensions":["antennae","wings"],"bee_group":{"antennae":"B","wings":"2","pattern":"X","legs":"X"},"bonus":1.400000000000001},{"rt":13127.10000000149,"stimulus":"bees-with-color/bee-A2DM.svg","response":0,"trial_type":"image-button-response","trial_index":7,"time_elapsed":166656,"internal_node_id":"0.0-4.0-0.0","subject_id":"5fc6bcbc6da34d0f8dd78a3a","study_id":"6197b3f67c2b5cd3b6d9596a","session_id":"619bfbdbc4512f9ddba7162a","condition":"full-information","relevant_dimensions":["antennae","wings"],"bee_group":{"antennae":"B","wings":"2","pattern":"X","legs":"X"},"action":"harvest","summary":"good-harvest","bonus":1.400000000000001},{"rt":9701.099999997765,"stimulus":"\n                    <p><b>Action: <em>harvest</em></b></p>\n                    <p>This is the bee that you just saw.</p>\n                    <img src=\"bees-with-color/bee-A2DM.svg\" width=\"200\">\n                    <p><span class=\"greenText\"><b>Successful harvest!</b></span><br>Your pay has increased by $0.02. Your bonus pay is now $0.56.</p>\n            ","response":0,"trial_type":"html-button-response","trial_index":8,"time_elapsed":176359,"internal_node_id":"0.0-4.0-1.0","subject_id":"5fc6bcbc6da34d0f8dd78a3a","study_id":"6197b3f67c2b5cd3b6d9596a","session_id":"619bfbdbc4512f9ddba7162a","condition":"full-information","relevant_dimensions":["antennae","wings"],"bee_group":{"antennae":"B","wings":"2","pattern":"X","legs":"X"},"bonus":1.400000000000001},{"rt":2942.699999999255,"stimulus":"bees-with-color/bee-B2SF.svg","response":1,"trial_type":"image-button-response","trial_index":9,"time_elapsed":179304,"internal_node_id":"0.0-4.0-0.1","subject_id":"5fc6bcbc6da34d0f8dd78a3a","study_id":"6197b3f67c2b5cd3b6d9596a","session_id":"619bfbdbc4512f9ddba7162a","condition":"full-information","relevant_dimensions":["antennae","wings"],"bee_group":{"antennae":"B","wings":"2","pattern":"X","legs":"X"},"action":"avoid","summary":"good-avoid","bonus":1.400000000000001},{"rt":8516.10000000149,"stimulus":"\n                    <p><b>Action: <em>avoid</em></b></p>\n                    <p>This is the bee that you just saw.</p>\n                    <img src=\"bees-with-color/bee-B2SF.svg\" width=\"200\">\n                    <p><span class=\"greenText\">Good choice!</span>  This bee would have stung you.<br>Your bonus pay is unchanged, and remains at $0.56.</p>\n            ","response":0,"trial_type":"html-button-response","trial_index":10,"time_elapsed":187822,"internal_node_id":"0.0-4.0-1.1","subject_id":"5fc6bcbc6da34d0f8dd78a3a","study_id":"6197b3f67c2b5cd3b6d9596a","session_id":"619bfbdbc4512f9ddba7162a","condition":"full-information","relevant_dimensions":["antennae","wings"],"bee_group":{"antennae":"B","wings":"2","pattern":"X","legs":"X"},"bonus":1.400000000000001},{"rt":3218.5,"stimulus":"bees-with-color/bee-A2DF.svg","response":0,"trial_type":"image-button-response","trial_index":11,"time_elapsed":191042,"internal_node_id":"0.0-4.0-0.2","subject_id":"5fc6bcbc6da34d0f8dd78a3a","study_id":"6197b3f67c2b5cd3b6d9596a","session_id":"619bfbdbc4512f9ddba7162a","condition":"full-information","relevant_dimensions":["antennae","wings"],"bee_group":{"antennae":"B","wings":"2","pattern":"X","legs":"X"},"action":"harvest","summary":"good-harvest","bonus":1.400000000000001},{"rt":30667.900000002235,"stimulus":"\n                    <p><b>Action: <em>harvest</em></b></p>\n                    <p>This is the bee that you just saw.</p>\n                    <img src=\"bees-with-color/bee-A2DF.svg\" width=\"200\">\n                    <p><span class=\"greenText\"><b>Successful harvest!</b></span><br>Your pay has increased by $0.02. Your bonus pay is now $0.58.</p>\n            ","response":0,"trial_type":"html-button-response","trial_index":12,"time_elapsed":221712,"internal_node_id":"0.0-4.0-1.2","subject_id":"5fc6bcbc6da34d0f8dd78a3a","study_id":"6197b3f67c2b5cd3b6d9596a","session_id":"619bfbdbc4512f9ddba7162a","condition":"full-information","relevant_dimensions":["antennae","wings"],"bee_group":{"antennae":"B","wings":"2","pattern":"X","legs":"X"},"bonus":1.400000000000001},{"rt":2250.2000000029802,"stimulus":"bees-with-color/bee-B1DF.svg","response":1,"trial_type":"image-button-response","trial_index":13,"time_elapsed":223964,"internal_node_id":"0.0-4.0-0.3","subject_id":"5fc6bcbc6da34d0f8dd78a3a","study_id":"6197b3f67c2b5cd3b6d9596a","session_id":"619bfbdbc4512f9ddba7162a","condition":"full-information","relevant_dimensions":["antennae","wings"],"bee_group":{"antennae":"B","wings":"2","pattern":"X","legs":"X"},"action":"avoid","summary":"bad-avoid","bonus":1.400000000000001},{"rt":4220.5,"stimulus":"\n                    <p><b>Action: <em>avoid</em></b></p>\n                    <p>This is the bee that you just saw.</p>\n                    <img src=\"bees-with-color/bee-B1DF.svg\" width=\"200\">\n                    <p><span class=\"redText\">Bad choice,</span> the bee was friendly.<br>Your bonus pay is unchanged, and remains at $0.58.</p>\n            ","response":0,"trial_type":"html-button-response","trial_index":14,"time_elapsed":228186,"internal_node_id":"0.0-4.0-1.3","subject_id":"5fc6bcbc6da34d0f8dd78a3a","study_id":"6197b3f67c2b5cd3b6d9596a","session_id":"619bfbdbc4512f9ddba7162a","condition":"full-information","relevant_dimensions":["antennae","wings"],"bee_group":{"antennae":"B","wings":"2","pattern":"X","legs":"X"},"bonus":1.400000000000001},{"rt":3397.39999999851,"stimulus":"bees-with-color/bee-B2DF.svg","response":0,"trial_type":"image-button-response","trial_index":15,"time_elapsed":231585,"internal_node_id":"0.0-4.0-0.4","subject_id":"5fc6bcbc6da34d0f8dd78a3a","study_id":"6197b3f67c2b5cd3b6d9596a","session_id":"619bfbdbc4512f9ddba7162a","condition":"full-information","relevant_dimensions":["antennae","wings"],"bee_group":{"antennae":"B","wings":"2","pattern":"X","legs":"X"},"action":"harvest","summary":"bad-harvest","bonus":1.400000000000001},{"rt":1547.2000000029802,"stimulus":"\n                    <p><b>Action: <em>harvest</em></b></p>\n                    <p>This is the bee that you just saw.</p>\n                    <img src=\"bees-with-color/bee-B2DF.svg\" width=\"200\">\n                    <p><span class=\"redText\">Bad choice, the bee was angry.</span><br><b>You have been stung!</b><br>Your pay has been decreased by $0.10. Your bonus pay is now $0.48.</p>\n            ","response":0,"trial_type":"html-button-response","trial_index":16,"time_elapsed":233134,"internal_node_id":"0.0-4.0-1.4","subject_id":"5fc6bcbc6da34d0f8dd78a3a","study_id":"6197b3f67c2b5cd3b6d9596a","session_id":"619bfbdbc4512f9ddba7162a","condition":"full-information","relevant_dimensions":["antennae","wings"],"bee_group":{"antennae":"B","wings":"2","pattern":"X","legs":"X"},"bonus":1.400000000000001},{"rt":2893.699999999255,"stimulus":"bees-with-color/bee-B1SF.svg","response":0,"trial_type":"image-button-response","trial_index":17,"time_elapsed":236029,"internal_node_id":"0.0-4.0-0.5","subject_id":"5fc6bcbc6da34d0f8dd78a3a","study_id":"6197b3f67c2b5cd3b6d9596a","session_id":"619bfbdbc4512f9ddba7162a","condition":"full-information","relevant_dimensions":["antennae","wings"],"bee_group":{"antennae":"B","wings":"2","pattern":"X","legs":"X"},"action":"harvest","summary":"good-harvest","bonus":1.400000000000001},{"rt":1220.699999999255,"stimulus":"\n                    <p><b>Action: <em>harvest</em></b></p>\n                    <p>This is the bee that you just saw.</p>\n                    <img src=\"bees-with-color/bee-B1SF.svg\" width=\"200\">\n                    <p><span class=\"greenText\"><b>Successful harvest!</b></span><br>Your pay has increased by $0.02. Your bonus pay is now $0.50.</p>\n            ","response":0,"trial_type":"html-button-response","trial_index":18,"time_elapsed":237251,"internal_node_id":"0.0-4.0-1.5","subject_id":"5fc6bcbc6da34d0f8dd78a3a","study_id":"6197b3f67c2b5cd3b6d9596a","session_id":"619bfbdbc4512f9ddba7162a","condition":"full-information","relevant_dimensions":["antennae","wings"],"bee_group":{"antennae":"B","wings":"2","pattern":"X","legs":"X"},"bonus":1.400000000000001},{"rt":5758.60000000149,"stimulus":"bees-with-color/bee-B1SM.svg","response":0,"trial_type":"image-button-response","trial_index":19,"time_elapsed":243011,"internal_node_id":"0.0-4.0-0.6","subject_id":"5fc6bcbc6da34d0f8dd78a3a","study_id":"6197b3f67c2b5cd3b6d9596a","session_id":"619bfbdbc4512f9ddba7162a","condition":"full-information","relevant_dimensions":["antennae","wings"],"bee_group":{"antennae":"B","wings":"2","pattern":"X","legs":"X"},"action":"harvest","summary":"good-harvest","bonus":1.400000000000001},{"rt":989,"stimulus":"\n                    <p><b>Action: <em>harvest</em></b></p>\n                    <p>This is the bee that you just saw.</p>\n                    <img src=\"bees-with-color/bee-B1SM.svg\" width=\"200\">\n                    <p><span class=\"greenText\"><b>Successful harvest!</b></span><br>Your pay has increased by $0.02. Your bonus pay is now $0.52.</p>\n            ","response":0,"trial_type":"html-button-response","trial_index":20,"time_elapsed":244001,"internal_node_id":"0.0-4.0-1.6","subject_id":"5fc6bcbc6da34d0f8dd78a3a","study_id":"6197b3f67c2b5cd3b6d9596a","session_id":"619bfbdbc4512f9ddba7162a","condition":"full-information","relevant_dimensions":["antennae","wings"],"bee_group":{"antennae":"B","wings":"2","pattern":"X","legs":"X"},"bonus":1.400000000000001},{"rt":1500,"stimulus":"bees-with-color/bee-A2SM.svg","response":1,"trial_type":"image-button-response","trial_index":21,"time_elapsed":245503,"internal_node_id":"0.0-4.0-0.7","subject_id":"5fc6bcbc6da34d0f8dd78a3a","study_id":"6197b3f67c2b5cd3b6d9596a","session_id":"619bfbdbc4512f9ddba7162a","condition":"full-information","relevant_dimensions":["antennae","wings"],"bee_group":{"antennae":"B","wings":"2","pattern":"X","legs":"X"},"action":"avoid","summary":"bad-avoid","bonus":1.400000000000001},{"rt":1226.699999999255,"stimulus":"\n                    <p><b>Action: <em>avoid</em></b></p>\n                    <p>This is the bee that you just saw.</p>\n                    <img src=\"bees-with-color/bee-A2SM.svg\" width=\"200\">\n                    <p><span class=\"redText\">Bad choice,</span> the bee was friendly.<br>Your bonus pay is unchanged, and remains at $0.52.</p>\n            ","response":0,"trial_type":"html-button-response","trial_index":22,"time_elapsed":246731,"internal_node_id":"0.0-4.0-1.7","subject_id":"5fc6bcbc6da34d0f8dd78a3a","study_id":"6197b3f67c2b5cd3b6d9596a","session_id":"619bfbdbc4512f9ddba7162a","condition":"full-information","relevant_dimensions":["antennae","wings"],"bee_group":{"antennae":"B","wings":"2","pattern":"X","legs":"X"},"bonus":1.400000000000001},{"rt":9742.10000000149,"stimulus":"bees-with-color/bee-A1DM.svg","response":1,"trial_type":"image-button-response","trial_index":23,"time_elapsed":256475,"internal_node_id":"0.0-4.0-0.8","subject_id":"5fc6bcbc6da34d0f8dd78a3a","study_id":"6197b3f67c2b5cd3b6d9596a","session_id":"619bfbdbc4512f9ddba7162a","condition":"full-information","relevant_dimensions":["antennae","wings"],"bee_group":{"antennae":"B","wings":"2","pattern":"X","legs":"X"},"action":"avoid","summary":"bad-avoid","bonus":1.400000000000001},{"rt":843.7000000029802,"stimulus":"\n                    <p><b>Action: <em>avoid</em></b></p>\n                    <p>This is the bee that you just saw.</p>\n                    <img src=\"bees-with-color/bee-A1DM.svg\" width=\"200\">\n                    <p><span class=\"redText\">Bad choice,</span> the bee was friendly.<br>Your bonus pay is unchanged, and remains at $0.52.</p>\n            ","response":0,"trial_type":"html-button-response","trial_index":24,"time_elapsed":257321,"internal_node_id":"0.0-4.0-1.8","subject_id":"5fc6bcbc6da34d0f8dd78a3a","study_id":"6197b3f67c2b5cd3b6d9596a","session_id":"619bfbdbc4512f9ddba7162a","condition":"full-information","relevant_dimensions":["antennae","wings"],"bee_group":{"antennae":"B","wings":"2","pattern":"X","legs":"X"},"bonus":1.400000000000001},{"rt":6003.60000000149,"stimulus":"bees-with-color/bee-A1SF.svg","response":1,"trial_type":"image-button-response","trial_index":25,"time_elapsed":263326,"internal_node_id":"0.0-4.0-0.9","subject_id":"5fc6bcbc6da34d0f8dd78a3a","study_id":"6197b3f67c2b5cd3b6d9596a","session_id":"619bfbdbc4512f9ddba7162a","condition":"full-information","relevant_dimensions":["antennae","wings"],"bee_group":{"antennae":"B","wings":"2","pattern":"X","legs":"X"},"action":"avoid","summary":"bad-avoid","bonus":1.400000000000001},{"rt":739.5999999977648,"stimulus":"\n                    <p><b>Action: <em>avoid</em></b></p>\n                    <p>This is the bee that you just saw.</p>\n                    <img src=\"bees-with-color/bee-A1SF.svg\" width=\"200\">\n                    <p><span class=\"redText\">Bad choice,</span> the bee was friendly.<br>Your bonus pay is unchanged, and remains at $0.52.</p>\n            ","response":0,"trial_type":"html-button-response","trial_index":26,"time_elapsed":264067,"internal_node_id":"0.0-4.0-1.9","subject_id":"5fc6bcbc6da34d0f8dd78a3a","study_id":"6197b3f67c2b5cd3b6d9596a","session_id":"619bfbdbc4512f9ddba7162a","condition":"full-information","relevant_dimensions":["antennae","wings"],"bee_group":{"antennae":"B","wings":"2","pattern":"X","legs":"X"},"bonus":1.400000000000001},{"rt":2795.800000000745,"stimulus":"bees-with-color/bee-A1DF.svg","response":1,"trial_type":"image-button-response","trial_index":27,"time_elapsed":266864,"internal_node_id":"0.0-4.0-0.10","subject_id":"5fc6bcbc6da34d0f8dd78a3a","study_id":"6197b3f67c2b5cd3b6d9596a","session_id":"619bfbdbc4512f9ddba7162a","condition":"full-information","relevant_dimensions":["antennae","wings"],"bee_group":{"antennae":"B","wings":"2","pattern":"X","legs":"X"},"action":"avoid","summary":"bad-avoid","bonus":1.400000000000001},{"rt":666.3000000007451,"stimulus":"\n                    <p><b>Action: <em>avoid</em></b></p>\n                    <p>This is the bee that you just saw.</p>\n                    <img src=\"bees-with-color/bee-A1DF.svg\" width=\"200\">\n                    <p><span class=\"redText\">Bad choice,</span> the bee was friendly.<br>Your bonus pay is unchanged, and remains at $0.52.</p>\n            ","response":0,"trial_type":"html-button-response","trial_index":28,"time_elapsed":267532,"internal_node_id":"0.0-4.0-1.10","subject_id":"5fc6bcbc6da34d0f8dd78a3a","study_id":"6197b3f67c2b5cd3b6d9596a","session_id":"619bfbdbc4512f9ddba7162a","condition":"full-information","relevant_dimensions":["antennae","wings"],"bee_group":{"antennae":"B","wings":"2","pattern":"X","legs":"X"},"bonus":1.400000000000001},{"rt":3504.699999999255,"stimulus":"bees-with-color/bee-A1SM.svg","response":1,"trial_type":"image-button-response","trial_index":29,"time_elapsed":271038,"internal_node_id":"0.0-4.0-0.11","subject_id":"5fc6bcbc6da34d0f8dd78a3a","study_id":"6197b3f67c2b5cd3b6d9596a","session_id":"619bfbdbc4512f9ddba7162a","condition":"full-information","relevant_dimensions":["antennae","wings"],"bee_group":{"antennae":"B","wings":"2","pattern":"X","legs":"X"},"action":"avoid","summary":"bad-avoid","bonus":1.400000000000001},{"rt":1443.5,"stimulus":"\n                    <p><b>Action: <em>avoid</em></b></p>\n                    <p>This is the bee that you just saw.</p>\n                    <img src=\"bees-with-color/bee-A1SM.svg\" width=\"200\">\n                    <p><span class=\"redText\">Bad choice,</span> the bee was friendly.<br>Your bonus pay is unchanged, and remains at $0.52.</p>\n            ","response":0,"trial_type":"html-button-response","trial_index":30,"time_elapsed":272483,"internal_node_id":"0.0-4.0-1.11","subject_id":"5fc6bcbc6da34d0f8dd78a3a","study_id":"6197b3f67c2b5cd3b6d9596a","session_id":"619bfbdbc4512f9ddba7162a","condition":"full-information","relevant_dimensions":["antennae","wings"],"bee_group":{"antennae":"B","wings":"2","pattern":"X","legs":"X"},"bonus":1.400000000000001},{"rt":1192.2999999970198,"stimulus":"bees-with-color/bee-B2DM.svg","response":1,"trial_type":"image-button-response","trial_index":31,"time_elapsed":273677,"internal_node_id":"0.0-4.0-0.12","subject_id":"5fc6bcbc6da34d0f8dd78a3a","study_id":"6197b3f67c2b5cd3b6d9596a","session_id":"619bfbdbc4512f9ddba7162a","condition":"full-information","relevant_dimensions":["antennae","wings"],"bee_group":{"antennae":"B","wings":"2","pattern":"X","legs":"X"},"action":"avoid","summary":"good-avoid","bonus":1.400000000000001},{"rt":810.8999999985099,"stimulus":"\n                    <p><b>Action: <em>avoid</em></b></p>\n                    <p>This is the bee that you just saw.</p>\n                    <img src=\"bees-with-color/bee-B2DM.svg\" width=\"200\">\n                    <p><span class=\"greenText\">Good choice!</span>  This bee would have stung you.<br>Your bonus pay is unchanged, and remains at $0.52.</p>\n            ","response":0,"trial_type":"html-button-response","trial_index":32,"time_elapsed":274489,"internal_node_id":"0.0-4.0-1.12","subject_id":"5fc6bcbc6da34d0f8dd78a3a","study_id":"6197b3f67c2b5cd3b6d9596a","session_id":"619bfbdbc4512f9ddba7162a","condition":"full-information","relevant_dimensions":["antennae","wings"],"bee_group":{"antennae":"B","wings":"2","pattern":"X","legs":"X"},"bonus":1.400000000000001},{"rt":986.4000000022352,"stimulus":"bees-with-color/bee-B2SM.svg","response":1,"trial_type":"image-button-response","trial_index":33,"time_elapsed":275477,"internal_node_id":"0.0-4.0-0.13","subject_id":"5fc6bcbc6da34d0f8dd78a3a","study_id":"6197b3f67c2b5cd3b6d9596a","session_id":"619bfbdbc4512f9ddba7162a","condition":"full-information","relevant_dimensions":["antennae","wings"],"bee_group":{"antennae":"B","wings":"2","pattern":"X","legs":"X"},"action":"avoid","summary":"good-avoid","bonus":1.400000000000001},{"rt":582.5,"stimulus":"\n                    <p><b>Action: <em>avoid</em></b></p>\n                    <p>This is the bee that you just saw.</p>\n                    <img src=\"bees-with-color/bee-B2SM.svg\" width=\"200\">\n                    <p><span class=\"greenText\">Good choice!</span>  This bee would have stung you.<br>Your bonus pay is unchanged, and remains at $0.52.</p>\n            ","response":0,"trial_type":"html-button-response","trial_index":34,"time_elapsed":276060,"internal_node_id":"0.0-4.0-1.13","subject_id":"5fc6bcbc6da34d0f8dd78a3a","study_id":"6197b3f67c2b5cd3b6d9596a","session_id":"619bfbdbc4512f9ddba7162a","condition":"full-information","relevant_dimensions":["antennae","wings"],"bee_group":{"antennae":"B","wings":"2","pattern":"X","legs":"X"},"bonus":1.400000000000001},{"rt":971.5,"stimulus":"bees-with-color/bee-A2SF.svg","response":1,"trial_type":"image-button-response","trial_index":35,"time_elapsed":277033,"internal_node_id":"0.0-4.0-0.14","subject_id":"5fc6bcbc6da34d0f8dd78a3a","study_id":"6197b3f67c2b5cd3b6d9596a","session_id":"619bfbdbc4512f9ddba7162a","condition":"full-information","relevant_dimensions":["antennae","wings"],"bee_group":{"antennae":"B","wings":"2","pattern":"X","legs":"X"},"action":"avoid","summary":"bad-avoid","bonus":1.400000000000001},{"rt":948.2000000029802,"stimulus":"\n                    <p><b>Action: <em>avoid</em></b></p>\n                    <p>This is the bee that you just saw.</p>\n                    <img src=\"bees-with-color/bee-A2SF.svg\" width=\"200\">\n                    <p><span class=\"redText\">Bad choice,</span> the bee was friendly.<br>Your bonus pay is unchanged, and remains at $0.52.</p>\n            ","response":0,"trial_type":"html-button-response","trial_index":36,"time_elapsed":277982,"internal_node_id":"0.0-4.0-1.14","subject_id":"5fc6bcbc6da34d0f8dd78a3a","study_id":"6197b3f67c2b5cd3b6d9596a","session_id":"619bfbdbc4512f9ddba7162a","condition":"full-information","relevant_dimensions":["antennae","wings"],"bee_group":{"antennae":"B","wings":"2","pattern":"X","legs":"X"},"bonus":1.400000000000001},{"rt":2183.2000000029802,"stimulus":"bees-with-color/bee-B1DM.svg","response":0,"trial_type":"image-button-response","trial_index":37,"time_elapsed":280167,"internal_node_id":"0.0-4.0-0.15","subject_id":"5fc6bcbc6da34d0f8dd78a3a","study_id":"6197b3f67c2b5cd3b6d9596a","session_id":"619bfbdbc4512f9ddba7162a","condition":"full-information","relevant_dimensions":["antennae","wings"],"bee_group":{"antennae":"B","wings":"2","pattern":"X","legs":"X"},"action":"harvest","summary":"good-harvest","bonus":1.400000000000001},{"rt":592.0999999977648,"stimulus":"\n                    <p><b>Action: <em>harvest</em></b></p>\n                    <p>This is the bee that you just saw.</p>\n                    <img src=\"bees-with-color/bee-B1DM.svg\" width=\"200\">\n                    <p><span class=\"greenText\"><b>Successful harvest!</b></span><br>Your pay has increased by $0.02. Your bonus pay is now $0.54.</p>\n            ","response":0,"trial_type":"html-button-response","trial_index":38,"time_elapsed":280760,"internal_node_id":"0.0-4.0-1.15","subject_id":"5fc6bcbc6da34d0f8dd78a3a","study_id":"6197b3f67c2b5cd3b6d9596a","session_id":"619bfbdbc4512f9ddba7162a","condition":"full-information","relevant_dimensions":["antennae","wings"],"bee_group":{"antennae":"B","wings":"2","pattern":"X","legs":"X"},"bonus":1.400000000000001},{"rt":1119.6000000014901,"stimulus":"bees-with-color/bee-A1DF.svg","response":0,"trial_type":"image-button-response","trial_index":39,"time_elapsed":281881,"internal_node_id":"0.0-4.0-0.16","subject_id":"5fc6bcbc6da34d0f8dd78a3a","study_id":"6197b3f67c2b5cd3b6d9596a","session_id":"619bfbdbc4512f9ddba7162a","condition":"full-information","relevant_dimensions":["antennae","wings"],"bee_group":{"antennae":"B","wings":"2","pattern":"X","legs":"X"},"action":"harvest","summary":"good-harvest","bonus":1.400000000000001},{"rt":539.1999999992549,"stimulus":"\n                    <p><b>Action: <em>harvest</em></b></p>\n                    <p>This is the bee that you just saw.</p>\n                    <img src=\"bees-with-color/bee-A1DF.svg\" width=\"200\">\n                    <p><span class=\"greenText\"><b>Successful harvest!</b></span><br>Your pay has increased by $0.02. Your bonus pay is now $0.56.</p>\n            ","response":0,"trial_type":"html-button-response","trial_index":40,"time_elapsed":282422,"internal_node_id":"0.0-4.0-1.16","subject_id":"5fc6bcbc6da34d0f8dd78a3a","study_id":"6197b3f67c2b5cd3b6d9596a","session_id":"619bfbdbc4512f9ddba7162a","condition":"full-information","relevant_dimensions":["antennae","wings"],"bee_group":{"antennae":"B","wings":"2","pattern":"X","legs":"X"},"bonus":1.400000000000001},{"rt":1538.7000000029802,"stimulus":"bees-with-color/bee-A1SF.svg","response":0,"trial_type":"image-button-response","trial_index":41,"time_elapsed":283962,"internal_node_id":"0.0-4.0-0.17","subject_id":"5fc6bcbc6da34d0f8dd78a3a","study_id":"6197b3f67c2b5cd3b6d9596a","session_id":"619bfbdbc4512f9ddba7162a","condition":"full-information","relevant_dimensions":["antennae","wings"],"bee_group":{"antennae":"B","wings":"2","pattern":"X","legs":"X"},"action":"harvest","summary":"good-harvest","bonus":1.400000000000001},{"rt":529.7999999970198,"stimulus":"\n                    <p><b>Action: <em>harvest</em></b></p>\n                    <p>This is the bee that you just saw.</p>\n                    <img src=\"bees-with-color/bee-A1SF.svg\" width=\"200\">\n                    <p><span class=\"greenText\"><b>Successful harvest!</b></span><br>Your pay has increased by $0.02. Your bonus pay is now $0.58.</p>\n            ","response":0,"trial_type":"html-button-response","trial_index":42,"time_elapsed":284493,"internal_node_id":"0.0-4.0-1.17","subject_id":"5fc6bcbc6da34d0f8dd78a3a","study_id":"6197b3f67c2b5cd3b6d9596a","session_id":"619bfbdbc4512f9ddba7162a","condition":"full-information","relevant_dimensions":["antennae","wings"],"bee_group":{"antennae":"B","wings":"2","pattern":"X","legs":"X"},"bonus":1.400000000000001},{"rt":851.5999999977648,"stimulus":"bees-with-color/bee-B2SM.svg","response":1,"trial_type":"image-button-response","trial_index":43,"time_elapsed":285346,"internal_node_id":"0.0-4.0-0.18","subject_id":"5fc6bcbc6da34d0f8dd78a3a","study_id":"6197b3f67c2b5cd3b6d9596a","session_id":"619bfbdbc4512f9ddba7162a","condition":"full-information","relevant_dimensions":["antennae","wings"],"bee_group":{"antennae":"B","wings":"2","pattern":"X","legs":"X"},"action":"avoid","summary":"good-avoid","bonus":1.400000000000001},{"rt":476.80000000074506,"stimulus":"\n                    <p><b>Action: <em>avoid</em></b></p>\n                    <p>This is the bee that you just saw.</p>\n                    <img src=\"bees-with-color/bee-B2SM.svg\" width=\"200\">\n                    <p><span class=\"greenText\">Good choice!</span>  This bee would have stung you.<br>Your bonus pay is unchanged, and remains at $0.58.</p>\n            ","response":0,"trial_type":"html-button-response","trial_index":44,"time_elapsed":285824,"internal_node_id":"0.0-4.0-1.18","subject_id":"5fc6bcbc6da34d0f8dd78a3a","study_id":"6197b3f67c2b5cd3b6d9596a","session_id":"619bfbdbc4512f9ddba7162a","condition":"full-information","relevant_dimensions":["antennae","wings"],"bee_group":{"antennae":"B","wings":"2","pattern":"X","legs":"X"},"bonus":1.400000000000001},{"rt":1044.1000000014901,"stimulus":"bees-with-color/bee-B1DF.svg","response":0,"trial_type":"image-button-response","trial_index":45,"time_elapsed":286869,"internal_node_id":"0.0-4.0-0.19","subject_id":"5fc6bcbc6da34d0f8dd78a3a","study_id":"6197b3f67c2b5cd3b6d9596a","session_id":"619bfbdbc4512f9ddba7162a","condition":"full-information","relevant_dimensions":["antennae","wings"],"bee_group":{"antennae":"B","wings":"2","pattern":"X","legs":"X"},"action":"harvest","summary":"good-harvest","bonus":1.400000000000001},{"rt":484.19999999925494,"stimulus":"\n                    <p><b>Action: <em>harvest</em></b></p>\n                    <p>This is the bee that you just saw.</p>\n                    <img src=\"bees-with-color/bee-B1DF.svg\" width=\"200\">\n                    <p><span class=\"greenText\"><b>Successful harvest!</b></span><br>Your pay has increased by $0.02. Your bonus pay is now $0.60.</p>\n            ","response":0,"trial_type":"html-button-response","trial_index":46,"time_elapsed":287355,"internal_node_id":"0.0-4.0-1.19","subject_id":"5fc6bcbc6da34d0f8dd78a3a","study_id":"6197b3f67c2b5cd3b6d9596a","session_id":"619bfbdbc4512f9ddba7162a","condition":"full-information","relevant_dimensions":["antennae","wings"],"bee_group":{"antennae":"B","wings":"2","pattern":"X","legs":"X"},"bonus":1.400000000000001},{"rt":883.1999999992549,"stimulus":"bees-with-color/bee-A2DM.svg","response":1,"trial_type":"image-button-response","trial_index":47,"time_elapsed":288239,"internal_node_id":"0.0-4.0-0.20","subject_id":"5fc6bcbc6da34d0f8dd78a3a","study_id":"6197b3f67c2b5cd3b6d9596a","session_id":"619bfbdbc4512f9ddba7162a","condition":"full-information","relevant_dimensions":["antennae","wings"],"bee_group":{"antennae":"B","wings":"2","pattern":"X","legs":"X"},"action":"avoid","summary":"bad-avoid","bonus":1.400000000000001},{"rt":450,"stimulus":"\n                    <p><b>Action: <em>avoid</em></b></p>\n                    <p>This is the bee that you just saw.</p>\n                    <img src=\"bees-with-color/bee-A2DM.svg\" width=\"200\">\n                    <p><span class=\"redText\">Bad choice,</span> the bee was friendly.<br>Your bonus pay is unchanged, and remains at $0.60.</p>\n            ","response":0,"trial_type":"html-button-response","trial_index":48,"time_elapsed":288691,"internal_node_id":"0.0-4.0-1.20","subject_id":"5fc6bcbc6da34d0f8dd78a3a","study_id":"6197b3f67c2b5cd3b6d9596a","session_id":"619bfbdbc4512f9ddba7162a","condition":"full-information","relevant_dimensions":["antennae","wings"],"bee_group":{"antennae":"B","wings":"2","pattern":"X","legs":"X"},"bonus":1.400000000000001},{"rt":789.4000000022352,"stimulus":"bees-with-color/bee-A1DM.svg","response":0,"trial_type":"image-button-response","trial_index":49,"time_elapsed":289481,"internal_node_id":"0.0-4.0-0.21","subject_id":"5fc6bcbc6da34d0f8dd78a3a","study_id":"6197b3f67c2b5cd3b6d9596a","session_id":"619bfbdbc4512f9ddba7162a","condition":"full-information","relevant_dimensions":["antennae","wings"],"bee_group":{"antennae":"B","wings":"2","pattern":"X","legs":"X"},"action":"harvest","summary":"good-harvest","bonus":1.400000000000001},{"rt":429.6000000014901,"stimulus":"\n                    <p><b>Action: <em>harvest</em></b></p>\n                    <p>This is the bee that you just saw.</p>\n                    <img src=\"bees-with-color/bee-A1DM.svg\" width=\"200\">\n                    <p><span class=\"greenText\"><b>Successful harvest!</b></span><br>Your pay has increased by $0.02. Your bonus pay is now $0.62.</p>\n            ","response":0,"trial_type":"html-button-response","trial_index":50,"time_elapsed":289912,"internal_node_id":"0.0-4.0-1.21","subject_id":"5fc6bcbc6da34d0f8dd78a3a","study_id":"6197b3f67c2b5cd3b6d9596a","session_id":"619bfbdbc4512f9ddba7162a","condition":"full-information","relevant_dimensions":["antennae","wings"],"bee_group":{"antennae":"B","wings":"2","pattern":"X","legs":"X"},"bonus":1.400000000000001},{"rt":771.3000000007451,"stimulus":"bees-with-color/bee-B2DF.svg","response":1,"trial_type":"image-button-response","trial_index":51,"time_elapsed":290685,"internal_node_id":"0.0-4.0-0.22","subject_id":"5fc6bcbc6da34d0f8dd78a3a","study_id":"6197b3f67c2b5cd3b6d9596a","session_id":"619bfbdbc4512f9ddba7162a","condition":"full-information","relevant_dimensions":["antennae","wings"],"bee_group":{"antennae":"B","wings":"2","pattern":"X","legs":"X"},"action":"avoid","summary":"good-avoid","bonus":1.400000000000001},{"rt":386.19999999925494,"stimulus":"\n                    <p><b>Action: <em>avoid</em></b></p>\n                    <p>This is the bee that you just saw.</p>\n                    <img src=\"bees-with-color/bee-B2DF.svg\" width=\"200\">\n                    <p><span class=\"greenText\">Good choice!</span>  This bee would have stung you.<br>Your bonus pay is unchanged, and remains at $0.62.</p>\n            ","response":0,"trial_type":"html-button-response","trial_index":52,"time_elapsed":291072,"internal_node_id":"0.0-4.0-1.22","subject_id":"5fc6bcbc6da34d0f8dd78a3a","study_id":"6197b3f67c2b5cd3b6d9596a","session_id":"619bfbdbc4512f9ddba7162a","condition":"full-information","relevant_dimensions":["antennae","wings"],"bee_group":{"antennae":"B","wings":"2","pattern":"X","legs":"X"},"bonus":1.400000000000001},{"rt":1168.699999999255,"stimulus":"bees-with-color/bee-A1SM.svg","response":0,"trial_type":"image-button-response","trial_index":53,"time_elapsed":292242,"internal_node_id":"0.0-4.0-0.23","subject_id":"5fc6bcbc6da34d0f8dd78a3a","study_id":"6197b3f67c2b5cd3b6d9596a","session_id":"619bfbdbc4512f9ddba7162a","condition":"full-information","relevant_dimensions":["antennae","wings"],"bee_group":{"antennae":"B","wings":"2","pattern":"X","legs":"X"},"action":"harvest","summary":"good-harvest","bonus":1.400000000000001},{"rt":416.4000000022352,"stimulus":"\n                    <p><b>Action: <em>harvest</em></b></p>\n                    <p>This is the bee that you just saw.</p>\n                    <img src=\"bees-with-color/bee-A1SM.svg\" width=\"200\">\n                    <p><span class=\"greenText\"><b>Successful harvest!</b></span><br>Your pay has increased by $0.02. Your bonus pay is now $0.64.</p>\n            ","response":0,"trial_type":"html-button-response","trial_index":54,"time_elapsed":292660,"internal_node_id":"0.0-4.0-1.23","subject_id":"5fc6bcbc6da34d0f8dd78a3a","study_id":"6197b3f67c2b5cd3b6d9596a","session_id":"619bfbdbc4512f9ddba7162a","condition":"full-information","relevant_dimensions":["antennae","wings"],"bee_group":{"antennae":"B","wings":"2","pattern":"X","legs":"X"},"bonus":1.400000000000001},{"rt":1102.8999999985099,"stimulus":"bees-with-color/bee-A2SM.svg","response":1,"trial_type":"image-button-response","trial_index":55,"time_elapsed":293764,"internal_node_id":"0.0-4.0-0.24","subject_id":"5fc6bcbc6da34d0f8dd78a3a","study_id":"6197b3f67c2b5cd3b6d9596a","session_id":"619bfbdbc4512f9ddba7162a","condition":"full-information","relevant_dimensions":["antennae","wings"],"bee_group":{"antennae":"B","wings":"2","pattern":"X","legs":"X"},"action":"avoid","summary":"bad-avoid","bonus":1.400000000000001},{"rt":421.80000000074506,"stimulus":"\n                    <p><b>Action: <em>avoid</em></b></p>\n                    <p>This is the bee that you just saw.</p>\n                    <img src=\"bees-with-color/bee-A2SM.svg\" width=\"200\">\n                    <p><span class=\"redText\">Bad choice,</span> the bee was friendly.<br>Your bonus pay is unchanged, and remains at $0.64.</p>\n            ","response":0,"trial_type":"html-button-response","trial_index":56,"time_elapsed":294188,"internal_node_id":"0.0-4.0-1.24","subject_id":"5fc6bcbc6da34d0f8dd78a3a","study_id":"6197b3f67c2b5cd3b6d9596a","session_id":"619bfbdbc4512f9ddba7162a","condition":"full-information","relevant_dimensions":["antennae","wings"],"bee_group":{"antennae":"B","wings":"2","pattern":"X","legs":"X"},"bonus":1.400000000000001},{"rt":893.6999999992549,"stimulus":"bees-with-color/bee-B1DM.svg","response":0,"trial_type":"image-button-response","trial_index":57,"time_elapsed":295083,"internal_node_id":"0.0-4.0-0.25","subject_id":"5fc6bcbc6da34d0f8dd78a3a","study_id":"6197b3f67c2b5cd3b6d9596a","session_id":"619bfbdbc4512f9ddba7162a","condition":"full-information","relevant_dimensions":["antennae","wings"],"bee_group":{"antennae":"B","wings":"2","pattern":"X","legs":"X"},"action":"harvest","summary":"good-harvest","bonus":1.400000000000001},{"rt":468.30000000074506,"stimulus":"\n                    <p><b>Action: <em>harvest</em></b></p>\n                    <p>This is the bee that you just saw.</p>\n                    <img src=\"bees-with-color/bee-B1DM.svg\" width=\"200\">\n                    <p><span class=\"greenText\"><b>Successful harvest!</b></span><br>Your pay has increased by $0.02. Your bonus pay is now $0.66.</p>\n            ","response":0,"trial_type":"html-button-response","trial_index":58,"time_elapsed":295552,"internal_node_id":"0.0-4.0-1.25","subject_id":"5fc6bcbc6da34d0f8dd78a3a","study_id":"6197b3f67c2b5cd3b6d9596a","session_id":"619bfbdbc4512f9ddba7162a","condition":"full-information","relevant_dimensions":["antennae","wings"],"bee_group":{"antennae":"B","wings":"2","pattern":"X","legs":"X"},"bonus":1.400000000000001},{"rt":1051.3999999985099,"stimulus":"bees-with-color/bee-B1SM.svg","response":0,"trial_type":"image-button-response","trial_index":59,"time_elapsed":296605,"internal_node_id":"0.0-4.0-0.26","subject_id":"5fc6bcbc6da34d0f8dd78a3a","study_id":"6197b3f67c2b5cd3b6d9596a","session_id":"619bfbdbc4512f9ddba7162a","condition":"full-information","relevant_dimensions":["antennae","wings"],"bee_group":{"antennae":"B","wings":"2","pattern":"X","legs":"X"},"action":"harvest","summary":"good-harvest","bonus":1.400000000000001},{"rt":472.3999999985099,"stimulus":"\n                    <p><b>Action: <em>harvest</em></b></p>\n                    <p>This is the bee that you just saw.</p>\n                    <img src=\"bees-with-color/bee-B1SM.svg\" width=\"200\">\n                    <p><span class=\"greenText\"><b>Successful harvest!</b></span><br>Your pay has increased by $0.02. Your bonus pay is now $0.68.</p>\n            ","response":0,"trial_type":"html-button-response","trial_index":60,"time_elapsed":297079,"internal_node_id":"0.0-4.0-1.26","subject_id":"5fc6bcbc6da34d0f8dd78a3a","study_id":"6197b3f67c2b5cd3b6d9596a","session_id":"619bfbdbc4512f9ddba7162a","condition":"full-information","relevant_dimensions":["antennae","wings"],"bee_group":{"antennae":"B","wings":"2","pattern":"X","legs":"X"},"bonus":1.400000000000001},{"rt":808.6999999992549,"stimulus":"bees-with-color/bee-B1SF.svg","response":0,"trial_type":"image-button-response","trial_index":61,"time_elapsed":297889,"internal_node_id":"0.0-4.0-0.27","subject_id":"5fc6bcbc6da34d0f8dd78a3a","study_id":"6197b3f67c2b5cd3b6d9596a","session_id":"619bfbdbc4512f9ddba7162a","condition":"full-information","relevant_dimensions":["antennae","wings"],"bee_group":{"antennae":"B","wings":"2","pattern":"X","legs":"X"},"action":"harvest","summary":"good-harvest","bonus":1.400000000000001},{"rt":431.5999999977648,"stimulus":"\n                    <p><b>Action: <em>harvest</em></b></p>\n                    <p>This is the bee that you just saw.</p>\n                    <img src=\"bees-with-color/bee-B1SF.svg\" width=\"200\">\n                    <p><span class=\"greenText\"><b>Successful harvest!</b></span><br>Your pay has increased by $0.02. Your bonus pay is now $0.70.</p>\n            ","response":0,"trial_type":"html-button-response","trial_index":62,"time_elapsed":298322,"internal_node_id":"0.0-4.0-1.27","subject_id":"5fc6bcbc6da34d0f8dd78a3a","study_id":"6197b3f67c2b5cd3b6d9596a","session_id":"619bfbdbc4512f9ddba7162a","condition":"full-information","relevant_dimensions":["antennae","wings"],"bee_group":{"antennae":"B","wings":"2","pattern":"X","legs":"X"},"bonus":1.400000000000001},{"rt":820.0999999977648,"stimulus":"bees-with-color/bee-A2SF.svg","response":1,"trial_type":"image-button-response","trial_index":63,"time_elapsed":299143,"internal_node_id":"0.0-4.0-0.28","subject_id":"5fc6bcbc6da34d0f8dd78a3a","study_id":"6197b3f67c2b5cd3b6d9596a","session_id":"619bfbdbc4512f9ddba7162a","condition":"full-information","relevant_dimensions":["antennae","wings"],"bee_group":{"antennae":"B","wings":"2","pattern":"X","legs":"X"},"action":"avoid","summary":"bad-avoid","bonus":1.400000000000001},{"rt":392.0999999977648,"stimulus":"\n                    <p><b>Action: <em>avoid</em></b></p>\n                    <p>This is the bee that you just saw.</p>\n                    <img src=\"bees-with-color/bee-A2SF.svg\" width=\"200\">\n                    <p><span class=\"redText\">Bad choice,</span> the bee was friendly.<br>Your bonus pay is unchanged, and remains at $0.70.</p>\n            ","response":0,"trial_type":"html-button-response","trial_index":64,"time_elapsed":299537,"internal_node_id":"0.0-4.0-1.28","subject_id":"5fc6bcbc6da34d0f8dd78a3a","study_id":"6197b3f67c2b5cd3b6d9596a","session_id":"619bfbdbc4512f9ddba7162a","condition":"full-information","relevant_dimensions":["antennae","wings"],"bee_group":{"antennae":"B","wings":"2","pattern":"X","legs":"X"},"bonus":1.400000000000001},{"rt":1019.6999999992549,"stimulus":"bees-with-color/bee-B2SF.svg","response":1,"trial_type":"image-button-response","trial_index":65,"time_elapsed":300558,"internal_node_id":"0.0-4.0-0.29","subject_id":"5fc6bcbc6da34d0f8dd78a3a","study_id":"6197b3f67c2b5cd3b6d9596a","session_id":"619bfbdbc4512f9ddba7162a","condition":"full-information","relevant_dimensions":["antennae","wings"],"bee_group":{"antennae":"B","wings":"2","pattern":"X","legs":"X"},"action":"avoid","summary":"good-avoid","bonus":1.400000000000001},{"rt":418.1000000014901,"stimulus":"\n                    <p><b>Action: <em>avoid</em></b></p>\n                    <p>This is the bee that you just saw.</p>\n                    <img src=\"bees-with-color/bee-B2SF.svg\" width=\"200\">\n                    <p><span class=\"greenText\">Good choice!</span>  This bee would have stung you.<br>Your bonus pay is unchanged, and remains at $0.70.</p>\n            ","response":0,"trial_type":"html-button-response","trial_index":66,"time_elapsed":300978,"internal_node_id":"0.0-4.0-1.29","subject_id":"5fc6bcbc6da34d0f8dd78a3a","study_id":"6197b3f67c2b5cd3b6d9596a","session_id":"619bfbdbc4512f9ddba7162a","condition":"full-information","relevant_dimensions":["antennae","wings"],"bee_group":{"antennae":"B","wings":"2","pattern":"X","legs":"X"},"bonus":1.400000000000001},{"rt":932.8000000007451,"stimulus":"bees-with-color/bee-B2DM.svg","response":1,"trial_type":"image-button-response","trial_index":67,"time_elapsed":301912,"internal_node_id":"0.0-4.0-0.30","subject_id":"5fc6bcbc6da34d0f8dd78a3a","study_id":"6197b3f67c2b5cd3b6d9596a","session_id":"619bfbdbc4512f9ddba7162a","condition":"full-information","relevant_dimensions":["antennae","wings"],"bee_group":{"antennae":"B","wings":"2","pattern":"X","legs":"X"},"action":"avoid","summary":"good-avoid","bonus":1.400000000000001},{"rt":415.19999999925494,"stimulus":"\n                    <p><b>Action: <em>avoid</em></b></p>\n                    <p>This is the bee that you just saw.</p>\n                    <img src=\"bees-with-color/bee-B2DM.svg\" width=\"200\">\n                    <p><span class=\"greenText\">Good choice!</span>  This bee would have stung you.<br>Your bonus pay is unchanged, and remains at $0.70.</p>\n            ","response":0,"trial_type":"html-button-response","trial_index":68,"time_elapsed":302328,"internal_node_id":"0.0-4.0-1.30","subject_id":"5fc6bcbc6da34d0f8dd78a3a","study_id":"6197b3f67c2b5cd3b6d9596a","session_id":"619bfbdbc4512f9ddba7162a","condition":"full-information","relevant_dimensions":["antennae","wings"],"bee_group":{"antennae":"B","wings":"2","pattern":"X","legs":"X"},"bonus":1.400000000000001},{"rt":737.4000000022352,"stimulus":"bees-with-color/bee-A2DF.svg","response":1,"trial_type":"image-button-response","trial_index":69,"time_elapsed":303067,"internal_node_id":"0.0-4.0-0.31","subject_id":"5fc6bcbc6da34d0f8dd78a3a","study_id":"6197b3f67c2b5cd3b6d9596a","session_id":"619bfbdbc4512f9ddba7162a","condition":"full-information","relevant_dimensions":["antennae","wings"],"bee_group":{"antennae":"B","wings":"2","pattern":"X","legs":"X"},"action":"avoid","summary":"bad-avoid","bonus":1.400000000000001},{"rt":412.9000000022352,"stimulus":"\n                    <p><b>Action: <em>avoid</em></b></p>\n                    <p>This is the bee that you just saw.</p>\n                    <img src=\"bees-with-color/bee-A2DF.svg\" width=\"200\">\n                    <p><span class=\"redText\">Bad choice,</span> the bee was friendly.<br>Your bonus pay is unchanged, and remains at $0.70.</p>\n            ","response":0,"trial_type":"html-button-response","trial_index":70,"time_elapsed":303481,"internal_node_id":"0.0-4.0-1.31","subject_id":"5fc6bcbc6da34d0f8dd78a3a","study_id":"6197b3f67c2b5cd3b6d9596a","session_id":"619bfbdbc4512f9ddba7162a","condition":"full-information","relevant_dimensions":["antennae","wings"],"bee_group":{"antennae":"B","wings":"2","pattern":"X","legs":"X"},"bonus":1.400000000000001},{"rt":766.1999999992549,"stimulus":"bees-with-color/bee-B2SF.svg","response":1,"trial_type":"image-button-response","trial_index":71,"time_elapsed":304249,"internal_node_id":"0.0-4.0-0.32","subject_id":"5fc6bcbc6da34d0f8dd78a3a","study_id":"6197b3f67c2b5cd3b6d9596a","session_id":"619bfbdbc4512f9ddba7162a","condition":"full-information","relevant_dimensions":["antennae","wings"],"bee_group":{"antennae":"B","wings":"2","pattern":"X","legs":"X"},"action":"avoid","summary":"good-avoid","bonus":1.400000000000001},{"rt":431.80000000074506,"stimulus":"\n                    <p><b>Action: <em>avoid</em></b></p>\n                    <p>This is the bee that you just saw.</p>\n                    <img src=\"bees-with-color/bee-B2SF.svg\" width=\"200\">\n                    <p><span class=\"greenText\">Good choice!</span>  This bee would have stung you.<br>Your bonus pay is unchanged, and remains at $0.70.</p>\n            ","response":0,"trial_type":"html-button-response","trial_index":72,"time_elapsed":304682,"internal_node_id":"0.0-4.0-1.32","subject_id":"5fc6bcbc6da34d0f8dd78a3a","study_id":"6197b3f67c2b5cd3b6d9596a","session_id":"619bfbdbc4512f9ddba7162a","condition":"full-information","relevant_dimensions":["antennae","wings"],"bee_group":{"antennae":"B","wings":"2","pattern":"X","legs":"X"},"bonus":1.400000000000001},{"rt":723.6000000014901,"stimulus":"bees-with-color/bee-B1SF.svg","response":0,"trial_type":"image-button-response","trial_index":73,"time_elapsed":305407,"internal_node_id":"0.0-4.0-0.33","subject_id":"5fc6bcbc6da34d0f8dd78a3a","study_id":"6197b3f67c2b5cd3b6d9596a","session_id":"619bfbdbc4512f9ddba7162a","condition":"full-information","relevant_dimensions":["antennae","wings"],"bee_group":{"antennae":"B","wings":"2","pattern":"X","legs":"X"},"action":"harvest","summary":"good-harvest","bonus":1.400000000000001},{"rt":454,"stimulus":"\n                    <p><b>Action: <em>harvest</em></b></p>\n                    <p>This is the bee that you just saw.</p>\n                    <img src=\"bees-with-color/bee-B1SF.svg\" width=\"200\">\n                    <p><span class=\"greenText\"><b>Successful harvest!</b></span><br>Your pay has increased by $0.02. Your bonus pay is now $0.72.</p>\n            ","response":0,"trial_type":"html-button-response","trial_index":74,"time_elapsed":305862,"internal_node_id":"0.0-4.0-1.33","subject_id":"5fc6bcbc6da34d0f8dd78a3a","study_id":"6197b3f67c2b5cd3b6d9596a","session_id":"619bfbdbc4512f9ddba7162a","condition":"full-information","relevant_dimensions":["antennae","wings"],"bee_group":{"antennae":"B","wings":"2","pattern":"X","legs":"X"},"bonus":1.400000000000001},{"rt":868.6000000014901,"stimulus":"bees-with-color/bee-A2DF.svg","response":1,"trial_type":"image-button-response","trial_index":75,"time_elapsed":306732,"internal_node_id":"0.0-4.0-0.34","subject_id":"5fc6bcbc6da34d0f8dd78a3a","study_id":"6197b3f67c2b5cd3b6d9596a","session_id":"619bfbdbc4512f9ddba7162a","condition":"full-information","relevant_dimensions":["antennae","wings"],"bee_group":{"antennae":"B","wings":"2","pattern":"X","legs":"X"},"action":"avoid","summary":"bad-avoid","bonus":1.400000000000001},{"rt":439.19999999925494,"stimulus":"\n                    <p><b>Action: <em>avoid</em></b></p>\n                    <p>This is the bee that you just saw.</p>\n                    <img src=\"bees-with-color/bee-A2DF.svg\" width=\"200\">\n                    <p><span class=\"redText\">Bad choice,</span> the bee was friendly.<br>Your bonus pay is unchanged, and remains at $0.72.</p>\n            ","response":0,"trial_type":"html-button-response","trial_index":76,"time_elapsed":307172,"internal_node_id":"0.0-4.0-1.34","subject_id":"5fc6bcbc6da34d0f8dd78a3a","study_id":"6197b3f67c2b5cd3b6d9596a","session_id":"619bfbdbc4512f9ddba7162a","condition":"full-information","relevant_dimensions":["antennae","wings"],"bee_group":{"antennae":"B","wings":"2","pattern":"X","legs":"X"},"bonus":1.400000000000001},{"rt":1648.800000000745,"stimulus":"bees-with-color/bee-A1DM.svg","response":0,"trial_type":"image-button-response","trial_index":77,"time_elapsed":308823,"internal_node_id":"0.0-4.0-0.35","subject_id":"5fc6bcbc6da34d0f8dd78a3a","study_id":"6197b3f67c2b5cd3b6d9596a","session_id":"619bfbdbc4512f9ddba7162a","condition":"full-information","relevant_dimensions":["antennae","wings"],"bee_group":{"antennae":"B","wings":"2","pattern":"X","legs":"X"},"action":"harvest","summary":"good-harvest","bonus":1.400000000000001},{"rt":615.8999999985099,"stimulus":"\n                    <p><b>Action: <em>harvest</em></b></p>\n                    <p>This is the bee that you just saw.</p>\n                    <img src=\"bees-with-color/bee-A1DM.svg\" width=\"200\">\n                    <p><span class=\"greenText\"><b>Successful harvest!</b></span><br>Your pay has increased by $0.02. Your bonus pay is now $0.74.</p>\n            ","response":0,"trial_type":"html-button-response","trial_index":78,"time_elapsed":309440,"internal_node_id":"0.0-4.0-1.35","subject_id":"5fc6bcbc6da34d0f8dd78a3a","study_id":"6197b3f67c2b5cd3b6d9596a","session_id":"619bfbdbc4512f9ddba7162a","condition":"full-information","relevant_dimensions":["antennae","wings"],"bee_group":{"antennae":"B","wings":"2","pattern":"X","legs":"X"},"bonus":1.400000000000001},{"rt":1562.699999999255,"stimulus":"bees-with-color/bee-A2SF.svg","response":1,"trial_type":"image-button-response","trial_index":79,"time_elapsed":311004,"internal_node_id":"0.0-4.0-0.36","subject_id":"5fc6bcbc6da34d0f8dd78a3a","study_id":"6197b3f67c2b5cd3b6d9596a","session_id":"619bfbdbc4512f9ddba7162a","condition":"full-information","relevant_dimensions":["antennae","wings"],"bee_group":{"antennae":"B","wings":"2","pattern":"X","legs":"X"},"action":"avoid","summary":"bad-avoid","bonus":1.400000000000001},{"rt":692.5,"stimulus":"\n                    <p><b>Action: <em>avoid</em></b></p>\n                    <p>This is the bee that you just saw.</p>\n                    <img src=\"bees-with-color/bee-A2SF.svg\" width=\"200\">\n                    <p><span class=\"redText\">Bad choice,</span> the bee was friendly.<br>Your bonus pay is unchanged, and remains at $0.74.</p>\n            ","response":0,"trial_type":"html-button-response","trial_index":80,"time_elapsed":311698,"internal_node_id":"0.0-4.0-1.36","subject_id":"5fc6bcbc6da34d0f8dd78a3a","study_id":"6197b3f67c2b5cd3b6d9596a","session_id":"619bfbdbc4512f9ddba7162a","condition":"full-information","relevant_dimensions":["antennae","wings"],"bee_group":{"antennae":"B","wings":"2","pattern":"X","legs":"X"},"bonus":1.400000000000001},{"rt":1747.300000000745,"stimulus":"bees-with-color/bee-B1DM.svg","response":0,"trial_type":"image-button-response","trial_index":81,"time_elapsed":313446,"internal_node_id":"0.0-4.0-0.37","subject_id":"5fc6bcbc6da34d0f8dd78a3a","study_id":"6197b3f67c2b5cd3b6d9596a","session_id":"619bfbdbc4512f9ddba7162a","condition":"full-information","relevant_dimensions":["antennae","wings"],"bee_group":{"antennae":"B","wings":"2","pattern":"X","legs":"X"},"action":"harvest","summary":"good-harvest","bonus":1.400000000000001},{"rt":565.2000000029802,"stimulus":"\n                    <p><b>Action: <em>harvest</em></b></p>\n                    <p>This is the bee that you just saw.</p>\n                    <img src=\"bees-with-color/bee-B1DM.svg\" width=\"200\">\n                    <p><span class=\"greenText\"><b>Successful harvest!</b></span><br>Your pay has increased by $0.02. Your bonus pay is now $0.76.</p>\n            ","response":0,"trial_type":"html-button-response","trial_index":82,"time_elapsed":314013,"internal_node_id":"0.0-4.0-1.37","subject_id":"5fc6bcbc6da34d0f8dd78a3a","study_id":"6197b3f67c2b5cd3b6d9596a","session_id":"619bfbdbc4512f9ddba7162a","condition":"full-information","relevant_dimensions":["antennae","wings"],"bee_group":{"antennae":"B","wings":"2","pattern":"X","legs":"X"},"bonus":1.400000000000001},{"rt":1514.300000000745,"stimulus":"bees-with-color/bee-A1SM.svg","response":0,"trial_type":"image-button-response","trial_index":83,"time_elapsed":315528,"internal_node_id":"0.0-4.0-0.38","subject_id":"5fc6bcbc6da34d0f8dd78a3a","study_id":"6197b3f67c2b5cd3b6d9596a","session_id":"619bfbdbc4512f9ddba7162a","condition":"full-information","relevant_dimensions":["antennae","wings"],"bee_group":{"antennae":"B","wings":"2","pattern":"X","legs":"X"},"action":"harvest","summary":"good-harvest","bonus":1.400000000000001},{"rt":461.79999999701977,"stimulus":"\n                    <p><b>Action: <em>harvest</em></b></p>\n                    <p>This is the bee that you just saw.</p>\n                    <img src=\"bees-with-color/bee-A1SM.svg\" width=\"200\">\n                    <p><span class=\"greenText\"><b>Successful harvest!</b></span><br>Your pay has increased by $0.02. Your bonus pay is now $0.78.</p>\n            ","response":0,"trial_type":"html-button-response","trial_index":84,"time_elapsed":315992,"internal_node_id":"0.0-4.0-1.38","subject_id":"5fc6bcbc6da34d0f8dd78a3a","study_id":"6197b3f67c2b5cd3b6d9596a","session_id":"619bfbdbc4512f9ddba7162a","condition":"full-information","relevant_dimensions":["antennae","wings"],"bee_group":{"antennae":"B","wings":"2","pattern":"X","legs":"X"},"bonus":1.400000000000001},{"rt":3598.2000000029802,"stimulus":"bees-with-color/bee-B2SM.svg","response":0,"trial_type":"image-button-response","trial_index":85,"time_elapsed":319591,"internal_node_id":"0.0-4.0-0.39","subject_id":"5fc6bcbc6da34d0f8dd78a3a","study_id":"6197b3f67c2b5cd3b6d9596a","session_id":"619bfbdbc4512f9ddba7162a","condition":"full-information","relevant_dimensions":["antennae","wings"],"bee_group":{"antennae":"B","wings":"2","pattern":"X","legs":"X"},"action":"harvest","summary":"bad-harvest","bonus":1.400000000000001},{"rt":976.3000000007451,"stimulus":"\n                    <p><b>Action: <em>harvest</em></b></p>\n                    <p>This is the bee that you just saw.</p>\n                    <img src=\"bees-with-color/bee-B2SM.svg\" width=\"200\">\n                    <p><span class=\"redText\">Bad choice, the bee was angry.</span><br><b>You have been stung!</b><br>Your pay has been decreased by $0.10. Your bonus pay is now $0.68.</p>\n            ","response":0,"trial_type":"html-button-response","trial_index":86,"time_elapsed":320569,"internal_node_id":"0.0-4.0-1.39","subject_id":"5fc6bcbc6da34d0f8dd78a3a","study_id":"6197b3f67c2b5cd3b6d9596a","session_id":"619bfbdbc4512f9ddba7162a","condition":"full-information","relevant_dimensions":["antennae","wings"],"bee_group":{"antennae":"B","wings":"2","pattern":"X","legs":"X"},"bonus":1.400000000000001},{"rt":1316.5,"stimulus":"bees-with-color/bee-B1DF.svg","response":0,"trial_type":"image-button-response","trial_index":87,"time_elapsed":321887,"internal_node_id":"0.0-4.0-0.40","subject_id":"5fc6bcbc6da34d0f8dd78a3a","study_id":"6197b3f67c2b5cd3b6d9596a","session_id":"619bfbdbc4512f9ddba7162a","condition":"full-information","relevant_dimensions":["antennae","wings"],"bee_group":{"antennae":"B","wings":"2","pattern":"X","legs":"X"},"action":"harvest","summary":"good-harvest","bonus":1.400000000000001},{"rt":459.80000000074506,"stimulus":"\n                    <p><b>Action: <em>harvest</em></b></p>\n                    <p>This is the bee that you just saw.</p>\n                    <img src=\"bees-with-color/bee-B1DF.svg\" width=\"200\">\n                    <p><span class=\"greenText\"><b>Successful harvest!</b></span><br>Your pay has increased by $0.02. Your bonus pay is now $0.70.</p>\n            ","response":0,"trial_type":"html-button-response","trial_index":88,"time_elapsed":322348,"internal_node_id":"0.0-4.0-1.40","subject_id":"5fc6bcbc6da34d0f8dd78a3a","study_id":"6197b3f67c2b5cd3b6d9596a","session_id":"619bfbdbc4512f9ddba7162a","condition":"full-information","relevant_dimensions":["antennae","wings"],"bee_group":{"antennae":"B","wings":"2","pattern":"X","legs":"X"},"bonus":1.400000000000001},{"rt":3327.60000000149,"stimulus":"bees-with-color/bee-A2SM.svg","response":0,"trial_type":"image-button-response","trial_index":89,"time_elapsed":325677,"internal_node_id":"0.0-4.0-0.41","subject_id":"5fc6bcbc6da34d0f8dd78a3a","study_id":"6197b3f67c2b5cd3b6d9596a","session_id":"619bfbdbc4512f9ddba7162a","condition":"full-information","relevant_dimensions":["antennae","wings"],"bee_group":{"antennae":"B","wings":"2","pattern":"X","legs":"X"},"action":"harvest","summary":"good-harvest","bonus":1.400000000000001},{"rt":576.1999999992549,"stimulus":"\n                    <p><b>Action: <em>harvest</em></b></p>\n                    <p>This is the bee that you just saw.</p>\n                    <img src=\"bees-with-color/bee-A2SM.svg\" width=\"200\">\n                    <p><span class=\"greenText\"><b>Successful harvest!</b></span><br>Your pay has increased by $0.02. Your bonus pay is now $0.72.</p>\n            ","response":0,"trial_type":"html-button-response","trial_index":90,"time_elapsed":326254,"internal_node_id":"0.0-4.0-1.41","subject_id":"5fc6bcbc6da34d0f8dd78a3a","study_id":"6197b3f67c2b5cd3b6d9596a","session_id":"619bfbdbc4512f9ddba7162a","condition":"full-information","relevant_dimensions":["antennae","wings"],"bee_group":{"antennae":"B","wings":"2","pattern":"X","legs":"X"},"bonus":1.400000000000001},{"rt":2951.400000002235,"stimulus":"bees-with-color/bee-A1DF.svg","response":0,"trial_type":"image-button-response","trial_index":91,"time_elapsed":329207,"internal_node_id":"0.0-4.0-0.42","subject_id":"5fc6bcbc6da34d0f8dd78a3a","study_id":"6197b3f67c2b5cd3b6d9596a","session_id":"619bfbdbc4512f9ddba7162a","condition":"full-information","relevant_dimensions":["antennae","wings"],"bee_group":{"antennae":"B","wings":"2","pattern":"X","legs":"X"},"action":"harvest","summary":"good-harvest","bonus":1.400000000000001},{"rt":1010.8999999985099,"stimulus":"\n                    <p><b>Action: <em>harvest</em></b></p>\n                    <p>This is the bee that you just saw.</p>\n                    <img src=\"bees-with-color/bee-A1DF.svg\" width=\"200\">\n                    <p><span class=\"greenText\"><b>Successful harvest!</b></span><br>Your pay has increased by $0.02. Your bonus pay is now $0.74.</p>\n            ","response":0,"trial_type":"html-button-response","trial_index":92,"time_elapsed":330219,"internal_node_id":"0.0-4.0-1.42","subject_id":"5fc6bcbc6da34d0f8dd78a3a","study_id":"6197b3f67c2b5cd3b6d9596a","session_id":"619bfbdbc4512f9ddba7162a","condition":"full-information","relevant_dimensions":["antennae","wings"],"bee_group":{"antennae":"B","wings":"2","pattern":"X","legs":"X"},"bonus":1.400000000000001},{"rt":2374.199999999255,"stimulus":"bees-with-color/bee-B2DM.svg","response":1,"trial_type":"image-button-response","trial_index":93,"time_elapsed":332595,"internal_node_id":"0.0-4.0-0.43","subject_id":"5fc6bcbc6da34d0f8dd78a3a","study_id":"6197b3f67c2b5cd3b6d9596a","session_id":"619bfbdbc4512f9ddba7162a","condition":"full-information","relevant_dimensions":["antennae","wings"],"bee_group":{"antennae":"B","wings":"2","pattern":"X","legs":"X"},"action":"avoid","summary":"good-avoid","bonus":1.400000000000001},{"rt":513.3000000007451,"stimulus":"\n                    <p><b>Action: <em>avoid</em></b></p>\n                    <p>This is the bee that you just saw.</p>\n                    <img src=\"bees-with-color/bee-B2DM.svg\" width=\"200\">\n                    <p><span class=\"greenText\">Good choice!</span>  This bee would have stung you.<br>Your bonus pay is unchanged, and remains at $0.74.</p>\n            ","response":0,"trial_type":"html-button-response","trial_index":94,"time_elapsed":333110,"internal_node_id":"0.0-4.0-1.43","subject_id":"5fc6bcbc6da34d0f8dd78a3a","study_id":"6197b3f67c2b5cd3b6d9596a","session_id":"619bfbdbc4512f9ddba7162a","condition":"full-information","relevant_dimensions":["antennae","wings"],"bee_group":{"antennae":"B","wings":"2","pattern":"X","legs":"X"},"bonus":1.400000000000001},{"rt":1140.8999999985099,"stimulus":"bees-with-color/bee-B1SM.svg","response":0,"trial_type":"image-button-response","trial_index":95,"time_elapsed":334252,"internal_node_id":"0.0-4.0-0.44","subject_id":"5fc6bcbc6da34d0f8dd78a3a","study_id":"6197b3f67c2b5cd3b6d9596a","session_id":"619bfbdbc4512f9ddba7162a","condition":"full-information","relevant_dimensions":["antennae","wings"],"bee_group":{"antennae":"B","wings":"2","pattern":"X","legs":"X"},"action":"harvest","summary":"good-harvest","bonus":1.400000000000001},{"rt":475.29999999701977,"stimulus":"\n                    <p><b>Action: <em>harvest</em></b></p>\n                    <p>This is the bee that you just saw.</p>\n                    <img src=\"bees-with-color/bee-B1SM.svg\" width=\"200\">\n                    <p><span class=\"greenText\"><b>Successful harvest!</b></span><br>Your pay has increased by $0.02. Your bonus pay is now $0.76.</p>\n            ","response":0,"trial_type":"html-button-response","trial_index":96,"time_elapsed":334729,"internal_node_id":"0.0-4.0-1.44","subject_id":"5fc6bcbc6da34d0f8dd78a3a","study_id":"6197b3f67c2b5cd3b6d9596a","session_id":"619bfbdbc4512f9ddba7162a","condition":"full-information","relevant_dimensions":["antennae","wings"],"bee_group":{"antennae":"B","wings":"2","pattern":"X","legs":"X"},"bonus":1.400000000000001},{"rt":1659,"stimulus":"bees-with-color/bee-A1SF.svg","response":0,"trial_type":"image-button-response","trial_index":97,"time_elapsed":336390,"internal_node_id":"0.0-4.0-0.45","subject_id":"5fc6bcbc6da34d0f8dd78a3a","study_id":"6197b3f67c2b5cd3b6d9596a","session_id":"619bfbdbc4512f9ddba7162a","condition":"full-information","relevant_dimensions":["antennae","wings"],"bee_group":{"antennae":"B","wings":"2","pattern":"X","legs":"X"},"action":"harvest","summary":"good-harvest","bonus":1.400000000000001},{"rt":528.4000000022352,"stimulus":"\n                    <p><b>Action: <em>harvest</em></b></p>\n                    <p>This is the bee that you just saw.</p>\n                    <img src=\"bees-with-color/bee-A1SF.svg\" width=\"200\">\n                    <p><span class=\"greenText\"><b>Successful harvest!</b></span><br>Your pay has increased by $0.02. Your bonus pay is now $0.78.</p>\n            ","response":0,"trial_type":"html-button-response","trial_index":98,"time_elapsed":336920,"internal_node_id":"0.0-4.0-1.45","subject_id":"5fc6bcbc6da34d0f8dd78a3a","study_id":"6197b3f67c2b5cd3b6d9596a","session_id":"619bfbdbc4512f9ddba7162a","condition":"full-information","relevant_dimensions":["antennae","wings"],"bee_group":{"antennae":"B","wings":"2","pattern":"X","legs":"X"},"bonus":1.400000000000001},{"rt":1900.199999999255,"stimulus":"bees-with-color/bee-A2DM.svg","response":1,"trial_type":"image-button-response","trial_index":99,"time_elapsed":338822,"internal_node_id":"0.0-4.0-0.46","subject_id":"5fc6bcbc6da34d0f8dd78a3a","study_id":"6197b3f67c2b5cd3b6d9596a","session_id":"619bfbdbc4512f9ddba7162a","condition":"full-information","relevant_dimensions":["antennae","wings"],"bee_group":{"antennae":"B","wings":"2","pattern":"X","legs":"X"},"action":"avoid","summary":"bad-avoid","bonus":1.400000000000001},{"rt":4615.099999997765,"stimulus":"\n                    <p><b>Action: <em>avoid</em></b></p>\n                    <p>This is the bee that you just saw.</p>\n                    <img src=\"bees-with-color/bee-A2DM.svg\" width=\"200\">\n                    <p><span class=\"redText\">Bad choice,</span> the bee was friendly.<br>Your bonus pay is unchanged, and remains at $0.78.</p>\n            ","response":0,"trial_type":"html-button-response","trial_index":100,"time_elapsed":343438,"internal_node_id":"0.0-4.0-1.46","subject_id":"5fc6bcbc6da34d0f8dd78a3a","study_id":"6197b3f67c2b5cd3b6d9596a","session_id":"619bfbdbc4512f9ddba7162a","condition":"full-information","relevant_dimensions":["antennae","wings"],"bee_group":{"antennae":"B","wings":"2","pattern":"X","legs":"X"},"bonus":1.400000000000001},{"rt":1434.199999999255,"stimulus":"bees-with-color/bee-B2DF.svg","response":1,"trial_type":"image-button-response","trial_index":101,"time_elapsed":344874,"internal_node_id":"0.0-4.0-0.47","subject_id":"5fc6bcbc6da34d0f8dd78a3a","study_id":"6197b3f67c2b5cd3b6d9596a","session_id":"619bfbdbc4512f9ddba7162a","condition":"full-information","relevant_dimensions":["antennae","wings"],"bee_group":{"antennae":"B","wings":"2","pattern":"X","legs":"X"},"action":"avoid","summary":"good-avoid","bonus":1.400000000000001},{"rt":556.8000000007451,"stimulus":"\n                    <p><b>Action: <em>avoid</em></b></p>\n                    <p>This is the bee that you just saw.</p>\n                    <img src=\"bees-with-color/bee-B2DF.svg\" width=\"200\">\n                    <p><span class=\"greenText\">Good choice!</span>  This bee would have stung you.<br>Your bonus pay is unchanged, and remains at $0.78.</p>\n            ","response":0,"trial_type":"html-button-response","trial_index":102,"time_elapsed":345432,"internal_node_id":"0.0-4.0-1.47","subject_id":"5fc6bcbc6da34d0f8dd78a3a","study_id":"6197b3f67c2b5cd3b6d9596a","session_id":"619bfbdbc4512f9ddba7162a","condition":"full-information","relevant_dimensions":["antennae","wings"],"bee_group":{"antennae":"B","wings":"2","pattern":"X","legs":"X"},"bonus":1.400000000000001},{"rt":1887.8999999985099,"stimulus":"bees-with-color/bee-B2SM.svg","response":1,"trial_type":"image-button-response","trial_index":103,"time_elapsed":347321,"internal_node_id":"0.0-4.0-0.48","subject_id":"5fc6bcbc6da34d0f8dd78a3a","study_id":"6197b3f67c2b5cd3b6d9596a","session_id":"619bfbdbc4512f9ddba7162a","condition":"full-information","relevant_dimensions":["antennae","wings"],"bee_group":{"antennae":"B","wings":"2","pattern":"X","legs":"X"},"action":"avoid","summary":"good-avoid","bonus":1.400000000000001},{"rt":588.6000000014901,"stimulus":"\n                    <p><b>Action: <em>avoid</em></b></p>\n                    <p>This is the bee that you just saw.</p>\n                    <img src=\"bees-with-color/bee-B2SM.svg\" width=\"200\">\n                    <p><span class=\"greenText\">Good choice!</span>  This bee would have stung you.<br>Your bonus pay is unchanged, and remains at $0.78.</p>\n            ","response":0,"trial_type":"html-button-response","trial_index":104,"time_elapsed":347912,"internal_node_id":"0.0-4.0-1.48","subject_id":"5fc6bcbc6da34d0f8dd78a3a","study_id":"6197b3f67c2b5cd3b6d9596a","session_id":"619bfbdbc4512f9ddba7162a","condition":"full-information","relevant_dimensions":["antennae","wings"],"bee_group":{"antennae":"B","wings":"2","pattern":"X","legs":"X"},"bonus":1.400000000000001},{"rt":1891,"stimulus":"bees-with-color/bee-A2SF.svg","response":0,"trial_type":"image-button-response","trial_index":105,"time_elapsed":349805,"internal_node_id":"0.0-4.0-0.49","subject_id":"5fc6bcbc6da34d0f8dd78a3a","study_id":"6197b3f67c2b5cd3b6d9596a","session_id":"619bfbdbc4512f9ddba7162a","condition":"full-information","relevant_dimensions":["antennae","wings"],"bee_group":{"antennae":"B","wings":"2","pattern":"X","legs":"X"},"action":"harvest","summary":"good-harvest","bonus":1.400000000000001},{"rt":696.5,"stimulus":"\n                    <p><b>Action: <em>harvest</em></b></p>\n                    <p>This is the bee that you just saw.</p>\n                    <img src=\"bees-with-color/bee-A2SF.svg\" width=\"200\">\n                    <p><span class=\"greenText\"><b>Successful harvest!</b></span><br>Your pay has increased by $0.02. Your bonus pay is now $0.80.</p>\n            ","response":0,"trial_type":"html-button-response","trial_index":106,"time_elapsed":350503,"internal_node_id":"0.0-4.0-1.49","subject_id":"5fc6bcbc6da34d0f8dd78a3a","study_id":"6197b3f67c2b5cd3b6d9596a","session_id":"619bfbdbc4512f9ddba7162a","condition":"full-information","relevant_dimensions":["antennae","wings"],"bee_group":{"antennae":"B","wings":"2","pattern":"X","legs":"X"},"bonus":1.400000000000001},{"rt":1327.199999999255,"stimulus":"bees-with-color/bee-B1DM.svg","response":0,"trial_type":"image-button-response","trial_index":107,"time_elapsed":351831,"internal_node_id":"0.0-4.0-0.50","subject_id":"5fc6bcbc6da34d0f8dd78a3a","study_id":"6197b3f67c2b5cd3b6d9596a","session_id":"619bfbdbc4512f9ddba7162a","condition":"full-information","relevant_dimensions":["antennae","wings"],"bee_group":{"antennae":"B","wings":"2","pattern":"X","legs":"X"},"action":"harvest","summary":"good-harvest","bonus":1.400000000000001},{"rt":438.5,"stimulus":"\n                    <p><b>Action: <em>harvest</em></b></p>\n                    <p>This is the bee that you just saw.</p>\n                    <img src=\"bees-with-color/bee-B1DM.svg\" width=\"200\">\n                    <p><span class=\"greenText\"><b>Successful harvest!</b></span><br>Your pay has increased by $0.02. Your bonus pay is now $0.82.</p>\n            ","response":0,"trial_type":"html-button-response","trial_index":108,"time_elapsed":352271,"internal_node_id":"0.0-4.0-1.50","subject_id":"5fc6bcbc6da34d0f8dd78a3a","study_id":"6197b3f67c2b5cd3b6d9596a","session_id":"619bfbdbc4512f9ddba7162a","condition":"full-information","relevant_dimensions":["antennae","wings"],"bee_group":{"antennae":"B","wings":"2","pattern":"X","legs":"X"},"bonus":1.400000000000001},{"rt":2252.199999999255,"stimulus":"bees-with-color/bee-B2SF.svg","response":1,"trial_type":"image-button-response","trial_index":109,"time_elapsed":354524,"internal_node_id":"0.0-4.0-0.51","subject_id":"5fc6bcbc6da34d0f8dd78a3a","study_id":"6197b3f67c2b5cd3b6d9596a","session_id":"619bfbdbc4512f9ddba7162a","condition":"full-information","relevant_dimensions":["antennae","wings"],"bee_group":{"antennae":"B","wings":"2","pattern":"X","legs":"X"},"action":"avoid","summary":"good-avoid","bonus":1.400000000000001},{"rt":484.69999999925494,"stimulus":"\n                    <p><b>Action: <em>avoid</em></b></p>\n                    <p>This is the bee that you just saw.</p>\n                    <img src=\"bees-with-color/bee-B2SF.svg\" width=\"200\">\n                    <p><span class=\"greenText\">Good choice!</span>  This bee would have stung you.<br>Your bonus pay is unchanged, and remains at $0.82.</p>\n            ","response":0,"trial_type":"html-button-response","trial_index":110,"time_elapsed":355010,"internal_node_id":"0.0-4.0-1.51","subject_id":"5fc6bcbc6da34d0f8dd78a3a","study_id":"6197b3f67c2b5cd3b6d9596a","session_id":"619bfbdbc4512f9ddba7162a","condition":"full-information","relevant_dimensions":["antennae","wings"],"bee_group":{"antennae":"B","wings":"2","pattern":"X","legs":"X"},"bonus":1.400000000000001},{"rt":1570.0999999977648,"stimulus":"bees-with-color/bee-B1DF.svg","response":0,"trial_type":"image-button-response","trial_index":111,"time_elapsed":356582,"internal_node_id":"0.0-4.0-0.52","subject_id":"5fc6bcbc6da34d0f8dd78a3a","study_id":"6197b3f67c2b5cd3b6d9596a","session_id":"619bfbdbc4512f9ddba7162a","condition":"full-information","relevant_dimensions":["antennae","wings"],"bee_group":{"antennae":"B","wings":"2","pattern":"X","legs":"X"},"action":"harvest","summary":"good-harvest","bonus":1.400000000000001},{"rt":643.0999999977648,"stimulus":"\n                    <p><b>Action: <em>harvest</em></b></p>\n                    <p>This is the bee that you just saw.</p>\n                    <img src=\"bees-with-color/bee-B1DF.svg\" width=\"200\">\n                    <p><span class=\"greenText\"><b>Successful harvest!</b></span><br>Your pay has increased by $0.02. Your bonus pay is now $0.84.</p>\n            ","response":0,"trial_type":"html-button-response","trial_index":112,"time_elapsed":357226,"internal_node_id":"0.0-4.0-1.52","subject_id":"5fc6bcbc6da34d0f8dd78a3a","study_id":"6197b3f67c2b5cd3b6d9596a","session_id":"619bfbdbc4512f9ddba7162a","condition":"full-information","relevant_dimensions":["antennae","wings"],"bee_group":{"antennae":"B","wings":"2","pattern":"X","legs":"X"},"bonus":1.400000000000001},{"rt":2976.39999999851,"stimulus":"bees-with-color/bee-A2DM.svg","response":1,"trial_type":"image-button-response","trial_index":113,"time_elapsed":360204,"internal_node_id":"0.0-4.0-0.53","subject_id":"5fc6bcbc6da34d0f8dd78a3a","study_id":"6197b3f67c2b5cd3b6d9596a","session_id":"619bfbdbc4512f9ddba7162a","condition":"full-information","relevant_dimensions":["antennae","wings"],"bee_group":{"antennae":"B","wings":"2","pattern":"X","legs":"X"},"action":"avoid","summary":"bad-avoid","bonus":1.400000000000001},{"rt":1321.5,"stimulus":"\n                    <p><b>Action: <em>avoid</em></b></p>\n                    <p>This is the bee that you just saw.</p>\n                    <img src=\"bees-with-color/bee-A2DM.svg\" width=\"200\">\n                    <p><span class=\"redText\">Bad choice,</span> the bee was friendly.<br>Your bonus pay is unchanged, and remains at $0.84.</p>\n            ","response":0,"trial_type":"html-button-response","trial_index":114,"time_elapsed":361526,"internal_node_id":"0.0-4.0-1.53","subject_id":"5fc6bcbc6da34d0f8dd78a3a","study_id":"6197b3f67c2b5cd3b6d9596a","session_id":"619bfbdbc4512f9ddba7162a","condition":"full-information","relevant_dimensions":["antennae","wings"],"bee_group":{"antennae":"B","wings":"2","pattern":"X","legs":"X"},"bonus":1.400000000000001},{"rt":2355.699999999255,"stimulus":"bees-with-color/bee-A2SM.svg","response":0,"trial_type":"image-button-response","trial_index":115,"time_elapsed":363884,"internal_node_id":"0.0-4.0-0.54","subject_id":"5fc6bcbc6da34d0f8dd78a3a","study_id":"6197b3f67c2b5cd3b6d9596a","session_id":"619bfbdbc4512f9ddba7162a","condition":"full-information","relevant_dimensions":["antennae","wings"],"bee_group":{"antennae":"B","wings":"2","pattern":"X","legs":"X"},"action":"harvest","summary":"good-harvest","bonus":1.400000000000001},{"rt":535.2999999970198,"stimulus":"\n                    <p><b>Action: <em>harvest</em></b></p>\n                    <p>This is the bee that you just saw.</p>\n                    <img src=\"bees-with-color/bee-A2SM.svg\" width=\"200\">\n                    <p><span class=\"greenText\"><b>Successful harvest!</b></span><br>Your pay has increased by $0.02. Your bonus pay is now $0.86.</p>\n            ","response":0,"trial_type":"html-button-response","trial_index":116,"time_elapsed":364420,"internal_node_id":"0.0-4.0-1.54","subject_id":"5fc6bcbc6da34d0f8dd78a3a","study_id":"6197b3f67c2b5cd3b6d9596a","session_id":"619bfbdbc4512f9ddba7162a","condition":"full-information","relevant_dimensions":["antennae","wings"],"bee_group":{"antennae":"B","wings":"2","pattern":"X","legs":"X"},"bonus":1.400000000000001},{"rt":1518.9000000022352,"stimulus":"bees-with-color/bee-A2DF.svg","response":1,"trial_type":"image-button-response","trial_index":117,"time_elapsed":365940,"internal_node_id":"0.0-4.0-0.55","subject_id":"5fc6bcbc6da34d0f8dd78a3a","study_id":"6197b3f67c2b5cd3b6d9596a","session_id":"619bfbdbc4512f9ddba7162a","condition":"full-information","relevant_dimensions":["antennae","wings"],"bee_group":{"antennae":"B","wings":"2","pattern":"X","legs":"X"},"action":"avoid","summary":"bad-avoid","bonus":1.400000000000001},{"rt":867.1000000014901,"stimulus":"\n                    <p><b>Action: <em>avoid</em></b></p>\n                    <p>This is the bee that you just saw.</p>\n                    <img src=\"bees-with-color/bee-A2DF.svg\" width=\"200\">\n                    <p><span class=\"redText\">Bad choice,</span> the bee was friendly.<br>Your bonus pay is unchanged, and remains at $0.86.</p>\n            ","response":0,"trial_type":"html-button-response","trial_index":118,"time_elapsed":366809,"internal_node_id":"0.0-4.0-1.55","subject_id":"5fc6bcbc6da34d0f8dd78a3a","study_id":"6197b3f67c2b5cd3b6d9596a","session_id":"619bfbdbc4512f9ddba7162a","condition":"full-information","relevant_dimensions":["antennae","wings"],"bee_group":{"antennae":"B","wings":"2","pattern":"X","legs":"X"},"bonus":1.400000000000001},{"rt":1117.8999999985099,"stimulus":"bees-with-color/bee-A1DF.svg","response":0,"trial_type":"image-button-response","trial_index":119,"time_elapsed":367928,"internal_node_id":"0.0-4.0-0.56","subject_id":"5fc6bcbc6da34d0f8dd78a3a","study_id":"6197b3f67c2b5cd3b6d9596a","session_id":"619bfbdbc4512f9ddba7162a","condition":"full-information","relevant_dimensions":["antennae","wings"],"bee_group":{"antennae":"B","wings":"2","pattern":"X","legs":"X"},"action":"harvest","summary":"good-harvest","bonus":1.400000000000001},{"rt":620.5999999977648,"stimulus":"\n                    <p><b>Action: <em>harvest</em></b></p>\n                    <p>This is the bee that you just saw.</p>\n                    <img src=\"bees-with-color/bee-A1DF.svg\" width=\"200\">\n                    <p><span class=\"greenText\"><b>Successful harvest!</b></span><br>Your pay has increased by $0.02. Your bonus pay is now $0.88.</p>\n            ","response":0,"trial_type":"html-button-response","trial_index":120,"time_elapsed":368550,"internal_node_id":"0.0-4.0-1.56","subject_id":"5fc6bcbc6da34d0f8dd78a3a","study_id":"6197b3f67c2b5cd3b6d9596a","session_id":"619bfbdbc4512f9ddba7162a","condition":"full-information","relevant_dimensions":["antennae","wings"],"bee_group":{"antennae":"B","wings":"2","pattern":"X","legs":"X"},"bonus":1.400000000000001},{"rt":1097.300000000745,"stimulus":"bees-with-color/bee-A1SF.svg","response":0,"trial_type":"image-button-response","trial_index":121,"time_elapsed":369649,"internal_node_id":"0.0-4.0-0.57","subject_id":"5fc6bcbc6da34d0f8dd78a3a","study_id":"6197b3f67c2b5cd3b6d9596a","session_id":"619bfbdbc4512f9ddba7162a","condition":"full-information","relevant_dimensions":["antennae","wings"],"bee_group":{"antennae":"B","wings":"2","pattern":"X","legs":"X"},"action":"harvest","summary":"good-harvest","bonus":1.400000000000001},{"rt":564.3000000007451,"stimulus":"\n                    <p><b>Action: <em>harvest</em></b></p>\n                    <p>This is the bee that you just saw.</p>\n                    <img src=\"bees-with-color/bee-A1SF.svg\" width=\"200\">\n                    <p><span class=\"greenText\"><b>Successful harvest!</b></span><br>Your pay has increased by $0.02. Your bonus pay is now $0.90.</p>\n            ","response":0,"trial_type":"html-button-response","trial_index":122,"time_elapsed":370214,"internal_node_id":"0.0-4.0-1.57","subject_id":"5fc6bcbc6da34d0f8dd78a3a","study_id":"6197b3f67c2b5cd3b6d9596a","session_id":"619bfbdbc4512f9ddba7162a","condition":"full-information","relevant_dimensions":["antennae","wings"],"bee_group":{"antennae":"B","wings":"2","pattern":"X","legs":"X"},"bonus":1.400000000000001},{"rt":1009.8999999985099,"stimulus":"bees-with-color/bee-A1DM.svg","response":0,"trial_type":"image-button-response","trial_index":123,"time_elapsed":371225,"internal_node_id":"0.0-4.0-0.58","subject_id":"5fc6bcbc6da34d0f8dd78a3a","study_id":"6197b3f67c2b5cd3b6d9596a","session_id":"619bfbdbc4512f9ddba7162a","condition":"full-information","relevant_dimensions":["antennae","wings"],"bee_group":{"antennae":"B","wings":"2","pattern":"X","legs":"X"},"action":"harvest","summary":"good-harvest","bonus":1.400000000000001},{"rt":455.9000000022352,"stimulus":"\n                    <p><b>Action: <em>harvest</em></b></p>\n                    <p>This is the bee that you just saw.</p>\n                    <img src=\"bees-with-color/bee-A1DM.svg\" width=\"200\">\n                    <p><span class=\"greenText\"><b>Successful harvest!</b></span><br>Your pay has increased by $0.02. Your bonus pay is now $0.92.</p>\n            ","response":0,"trial_type":"html-button-response","trial_index":124,"time_elapsed":371682,"internal_node_id":"0.0-4.0-1.58","subject_id":"5fc6bcbc6da34d0f8dd78a3a","study_id":"6197b3f67c2b5cd3b6d9596a","session_id":"619bfbdbc4512f9ddba7162a","condition":"full-information","relevant_dimensions":["antennae","wings"],"bee_group":{"antennae":"B","wings":"2","pattern":"X","legs":"X"},"bonus":1.400000000000001},{"rt":733.6999999992549,"stimulus":"bees-with-color/bee-A1SM.svg","response":0,"trial_type":"image-button-response","trial_index":125,"time_elapsed":372417,"internal_node_id":"0.0-4.0-0.59","subject_id":"5fc6bcbc6da34d0f8dd78a3a","study_id":"6197b3f67c2b5cd3b6d9596a","session_id":"619bfbdbc4512f9ddba7162a","condition":"full-information","relevant_dimensions":["antennae","wings"],"bee_group":{"antennae":"B","wings":"2","pattern":"X","legs":"X"},"action":"harvest","summary":"good-harvest","bonus":1.400000000000001},{"rt":619.3999999985099,"stimulus":"\n                    <p><b>Action: <em>harvest</em></b></p>\n                    <p>This is the bee that you just saw.</p>\n                    <img src=\"bees-with-color/bee-A1SM.svg\" width=\"200\">\n                    <p><span class=\"greenText\"><b>Successful harvest!</b></span><br>Your pay has increased by $0.02. Your bonus pay is now $0.94.</p>\n            ","response":0,"trial_type":"html-button-response","trial_index":126,"time_elapsed":373038,"internal_node_id":"0.0-4.0-1.59","subject_id":"5fc6bcbc6da34d0f8dd78a3a","study_id":"6197b3f67c2b5cd3b6d9596a","session_id":"619bfbdbc4512f9ddba7162a","condition":"full-information","relevant_dimensions":["antennae","wings"],"bee_group":{"antennae":"B","wings":"2","pattern":"X","legs":"X"},"bonus":1.400000000000001},{"rt":822.8000000007451,"stimulus":"bees-with-color/bee-B1SM.svg","response":0,"trial_type":"image-button-response","trial_index":127,"time_elapsed":373862,"internal_node_id":"0.0-4.0-0.60","subject_id":"5fc6bcbc6da34d0f8dd78a3a","study_id":"6197b3f67c2b5cd3b6d9596a","session_id":"619bfbdbc4512f9ddba7162a","condition":"full-information","relevant_dimensions":["antennae","wings"],"bee_group":{"antennae":"B","wings":"2","pattern":"X","legs":"X"},"action":"harvest","summary":"good-harvest","bonus":1.400000000000001},{"rt":504.8999999985099,"stimulus":"\n                    <p><b>Action: <em>harvest</em></b></p>\n                    <p>This is the bee that you just saw.</p>\n                    <img src=\"bees-with-color/bee-B1SM.svg\" width=\"200\">\n                    <p><span class=\"greenText\"><b>Successful harvest!</b></span><br>Your pay has increased by $0.02. Your bonus pay is now $0.96.</p>\n            ","response":0,"trial_type":"html-button-response","trial_index":128,"time_elapsed":374368,"internal_node_id":"0.0-4.0-1.60","subject_id":"5fc6bcbc6da34d0f8dd78a3a","study_id":"6197b3f67c2b5cd3b6d9596a","session_id":"619bfbdbc4512f9ddba7162a","condition":"full-information","relevant_dimensions":["antennae","wings"],"bee_group":{"antennae":"B","wings":"2","pattern":"X","legs":"X"},"bonus":1.400000000000001},{"rt":1612,"stimulus":"bees-with-color/bee-B2DM.svg","response":1,"trial_type":"image-button-response","trial_index":129,"time_elapsed":375981,"internal_node_id":"0.0-4.0-0.61","subject_id":"5fc6bcbc6da34d0f8dd78a3a","study_id":"6197b3f67c2b5cd3b6d9596a","session_id":"619bfbdbc4512f9ddba7162a","condition":"full-information","relevant_dimensions":["antennae","wings"],"bee_group":{"antennae":"B","wings":"2","pattern":"X","legs":"X"},"action":"avoid","summary":"good-avoid","bonus":1.400000000000001},{"rt":556.6999999992549,"stimulus":"\n                    <p><b>Action: <em>avoid</em></b></p>\n                    <p>This is the bee that you just saw.</p>\n                    <img src=\"bees-with-color/bee-B2DM.svg\" width=\"200\">\n                    <p><span class=\"greenText\">Good choice!</span>  This bee would have stung you.<br>Your bonus pay is unchanged, and remains at $0.96.</p>\n            ","response":0,"trial_type":"html-button-response","trial_index":130,"time_elapsed":376540,"internal_node_id":"0.0-4.0-1.61","subject_id":"5fc6bcbc6da34d0f8dd78a3a","study_id":"6197b3f67c2b5cd3b6d9596a","session_id":"619bfbdbc4512f9ddba7162a","condition":"full-information","relevant_dimensions":["antennae","wings"],"bee_group":{"antennae":"B","wings":"2","pattern":"X","legs":"X"},"bonus":1.400000000000001},{"rt":1299.1000000014901,"stimulus":"bees-with-color/bee-B2DF.svg","response":1,"trial_type":"image-button-response","trial_index":131,"time_elapsed":377840,"internal_node_id":"0.0-4.0-0.62","subject_id":"5fc6bcbc6da34d0f8dd78a3a","study_id":"6197b3f67c2b5cd3b6d9596a","session_id":"619bfbdbc4512f9ddba7162a","condition":"full-information","relevant_dimensions":["antennae","wings"],"bee_group":{"antennae":"B","wings":"2","pattern":"X","legs":"X"},"action":"avoid","summary":"good-avoid","bonus":1.400000000000001},{"rt":458.5,"stimulus":"\n                    <p><b>Action: <em>avoid</em></b></p>\n                    <p>This is the bee that you just saw.</p>\n                    <img src=\"bees-with-color/bee-B2DF.svg\" width=\"200\">\n                    <p><span class=\"greenText\">Good choice!</span>  This bee would have stung you.<br>Your bonus pay is unchanged, and remains at $0.96.</p>\n            ","response":0,"trial_type":"html-button-response","trial_index":132,"time_elapsed":378301,"internal_node_id":"0.0-4.0-1.62","subject_id":"5fc6bcbc6da34d0f8dd78a3a","study_id":"6197b3f67c2b5cd3b6d9596a","session_id":"619bfbdbc4512f9ddba7162a","condition":"full-information","relevant_dimensions":["antennae","wings"],"bee_group":{"antennae":"B","wings":"2","pattern":"X","legs":"X"},"bonus":1.400000000000001},{"rt":1635.2999999970198,"stimulus":"bees-with-color/bee-B1SF.svg","response":0,"trial_type":"image-button-response","trial_index":133,"time_elapsed":379937,"internal_node_id":"0.0-4.0-0.63","subject_id":"5fc6bcbc6da34d0f8dd78a3a","study_id":"6197b3f67c2b5cd3b6d9596a","session_id":"619bfbdbc4512f9ddba7162a","condition":"full-information","relevant_dimensions":["antennae","wings"],"bee_group":{"antennae":"B","wings":"2","pattern":"X","legs":"X"},"action":"harvest","summary":"good-harvest","bonus":1.400000000000001},{"rt":442.5,"stimulus":"\n                    <p><b>Action: <em>harvest</em></b></p>\n                    <p>This is the bee that you just saw.</p>\n                    <img src=\"bees-with-color/bee-B1SF.svg\" width=\"200\">\n                    <p><span class=\"greenText\"><b>Successful harvest!</b></span><br>Your pay has increased by $0.02. Your bonus pay is now $0.98.</p>\n            ","response":0,"trial_type":"html-button-response","trial_index":134,"time_elapsed":380381,"internal_node_id":"0.0-4.0-1.63","subject_id":"5fc6bcbc6da34d0f8dd78a3a","study_id":"6197b3f67c2b5cd3b6d9596a","session_id":"619bfbdbc4512f9ddba7162a","condition":"full-information","relevant_dimensions":["antennae","wings"],"bee_group":{"antennae":"B","wings":"2","pattern":"X","legs":"X"},"bonus":1.400000000000001},{"rt":7075.300000000745,"stimulus":"You have completed the first part of this experiment.<br><br>You will now begin a shorter second part, in which you will receive no feedback.<br>The same rules regarding bonus pay apply.<br><br>Press any key to begin.","response":"enter","trial_type":"html-keyboard-response","trial_index":135,"time_elapsed":387458,"internal_node_id":"0.0-5.0","subject_id":"5fc6bcbc6da34d0f8dd78a3a","study_id":"6197b3f67c2b5cd3b6d9596a","session_id":"619bfbdbc4512f9ddba7162a","condition":"full-information","relevant_dimensions":["antennae","wings"],"bee_group":{"antennae":"B","wings":"2","pattern":"X","legs":"X"},"bonus":1.400000000000001},{"rt":1561.800000000745,"stimulus":"bees-with-color/bee-B1DF.svg","response":0,"trial_type":"image-button-response","trial_index":136,"time_elapsed":389029,"internal_node_id":"0.0-6.0-0.0","subject_id":"5fc6bcbc6da34d0f8dd78a3a","study_id":"6197b3f67c2b5cd3b6d9596a","session_id":"619bfbdbc4512f9ddba7162a","condition":"full-information","relevant_dimensions":["antennae","wings"],"bee_group":{"antennae":"B","wings":"2","pattern":"X","legs":"X"},"bonus":1.400000000000001},{"rt":4723,"stimulus":"bees-with-color/bee-A2DM.svg","response":1,"trial_type":"image-button-response","trial_index":137,"time_elapsed":393753,"internal_node_id":"0.0-6.0-0.1","subject_id":"5fc6bcbc6da34d0f8dd78a3a","study_id":"6197b3f67c2b5cd3b6d9596a","session_id":"619bfbdbc4512f9ddba7162a","condition":"full-information","relevant_dimensions":["antennae","wings"],"bee_group":{"antennae":"B","wings":"2","pattern":"X","legs":"X"},"bonus":1.400000000000001},{"rt":1437.0999999977648,"stimulus":"bees-with-color/bee-A1SM.svg","response":0,"trial_type":"image-button-response","trial_index":138,"time_elapsed":395193,"internal_node_id":"0.0-6.0-0.2","subject_id":"5fc6bcbc6da34d0f8dd78a3a","study_id":"6197b3f67c2b5cd3b6d9596a","session_id":"619bfbdbc4512f9ddba7162a","condition":"full-information","relevant_dimensions":["antennae","wings"],"bee_group":{"antennae":"B","wings":"2","pattern":"X","legs":"X"},"bonus":1.400000000000001},{"rt":1000.0999999977648,"stimulus":"bees-with-color/bee-B1DM.svg","response":0,"trial_type":"image-button-response","trial_index":139,"time_elapsed":396194,"internal_node_id":"0.0-6.0-0.3","subject_id":"5fc6bcbc6da34d0f8dd78a3a","study_id":"6197b3f67c2b5cd3b6d9596a","session_id":"619bfbdbc4512f9ddba7162a","condition":"full-information","relevant_dimensions":["antennae","wings"],"bee_group":{"antennae":"B","wings":"2","pattern":"X","legs":"X"},"bonus":1.400000000000001},{"rt":2553,"stimulus":"bees-with-color/bee-B2SM.svg","response":1,"trial_type":"image-button-response","trial_index":140,"time_elapsed":398749,"internal_node_id":"0.0-6.0-0.4","subject_id":"5fc6bcbc6da34d0f8dd78a3a","study_id":"6197b3f67c2b5cd3b6d9596a","session_id":"619bfbdbc4512f9ddba7162a","condition":"full-information","relevant_dimensions":["antennae","wings"],"bee_group":{"antennae":"B","wings":"2","pattern":"X","legs":"X"},"bonus":1.400000000000001},{"rt":1272.4000000022352,"stimulus":"bees-with-color/bee-B2SF.svg","response":1,"trial_type":"image-button-response","trial_index":141,"time_elapsed":400024,"internal_node_id":"0.0-6.0-0.5","subject_id":"5fc6bcbc6da34d0f8dd78a3a","study_id":"6197b3f67c2b5cd3b6d9596a","session_id":"619bfbdbc4512f9ddba7162a","condition":"full-information","relevant_dimensions":["antennae","wings"],"bee_group":{"antennae":"B","wings":"2","pattern":"X","legs":"X"},"bonus":1.400000000000001},{"rt":1547.2000000029802,"stimulus":"bees-with-color/bee-A1DF.svg","response":0,"trial_type":"image-button-response","trial_index":142,"time_elapsed":401572,"internal_node_id":"0.0-6.0-0.6","subject_id":"5fc6bcbc6da34d0f8dd78a3a","study_id":"6197b3f67c2b5cd3b6d9596a","session_id":"619bfbdbc4512f9ddba7162a","condition":"full-information","relevant_dimensions":["antennae","wings"],"bee_group":{"antennae":"B","wings":"2","pattern":"X","legs":"X"},"bonus":1.400000000000001},{"rt":770.2999999970198,"stimulus":"bees-with-color/bee-A1DM.svg","response":0,"trial_type":"image-button-response","trial_index":143,"time_elapsed":402345,"internal_node_id":"0.0-6.0-0.7","subject_id":"5fc6bcbc6da34d0f8dd78a3a","study_id":"6197b3f67c2b5cd3b6d9596a","session_id":"619bfbdbc4512f9ddba7162a","condition":"full-information","relevant_dimensions":["antennae","wings"],"bee_group":{"antennae":"B","wings":"2","pattern":"X","legs":"X"},"bonus":1.400000000000001},{"rt":947,"stimulus":"bees-with-color/bee-B1SM.svg","response":0,"trial_type":"image-button-response","trial_index":144,"time_elapsed":403293,"internal_node_id":"0.0-6.0-0.8","subject_id":"5fc6bcbc6da34d0f8dd78a3a","study_id":"6197b3f67c2b5cd3b6d9596a","session_id":"619bfbdbc4512f9ddba7162a","condition":"full-information","relevant_dimensions":["antennae","wings"],"bee_group":{"antennae":"B","wings":"2","pattern":"X","legs":"X"},"bonus":1.400000000000001},{"rt":3512.39999999851,"stimulus":"bees-with-color/bee-A2DF.svg","response":1,"trial_type":"image-button-response","trial_index":145,"time_elapsed":406807,"internal_node_id":"0.0-6.0-0.9","subject_id":"5fc6bcbc6da34d0f8dd78a3a","study_id":"6197b3f67c2b5cd3b6d9596a","session_id":"619bfbdbc4512f9ddba7162a","condition":"full-information","relevant_dimensions":["antennae","wings"],"bee_group":{"antennae":"B","wings":"2","pattern":"X","legs":"X"},"bonus":1.400000000000001},{"rt":894.7999999970198,"stimulus":"bees-with-color/bee-B2DF.svg","response":1,"trial_type":"image-button-response","trial_index":146,"time_elapsed":407705,"internal_node_id":"0.0-6.0-0.10","subject_id":"5fc6bcbc6da34d0f8dd78a3a","study_id":"6197b3f67c2b5cd3b6d9596a","session_id":"619bfbdbc4512f9ddba7162a","condition":"full-information","relevant_dimensions":["antennae","wings"],"bee_group":{"antennae":"B","wings":"2","pattern":"X","legs":"X"},"bonus":1.400000000000001},{"rt":956.1999999992549,"stimulus":"bees-with-color/bee-A1SF.svg","response":0,"trial_type":"image-button-response","trial_index":147,"time_elapsed":408662,"internal_node_id":"0.0-6.0-0.11","subject_id":"5fc6bcbc6da34d0f8dd78a3a","study_id":"6197b3f67c2b5cd3b6d9596a","session_id":"619bfbdbc4512f9ddba7162a","condition":"full-information","relevant_dimensions":["antennae","wings"],"bee_group":{"antennae":"B","wings":"2","pattern":"X","legs":"X"},"bonus":1.400000000000001},{"rt":1099.1000000014901,"stimulus":"bees-with-color/bee-B2DM.svg","response":1,"trial_type":"image-button-response","trial_index":148,"time_elapsed":409763,"internal_node_id":"0.0-6.0-0.12","subject_id":"5fc6bcbc6da34d0f8dd78a3a","study_id":"6197b3f67c2b5cd3b6d9596a","session_id":"619bfbdbc4512f9ddba7162a","condition":"full-information","relevant_dimensions":["antennae","wings"],"bee_group":{"antennae":"B","wings":"2","pattern":"X","legs":"X"},"bonus":1.400000000000001},{"rt":1125,"stimulus":"bees-with-color/bee-A2SM.svg","response":0,"trial_type":"image-button-response","trial_index":149,"time_elapsed":410890,"internal_node_id":"0.0-6.0-0.13","subject_id":"5fc6bcbc6da34d0f8dd78a3a","study_id":"6197b3f67c2b5cd3b6d9596a","session_id":"619bfbdbc4512f9ddba7162a","condition":"full-information","relevant_dimensions":["antennae","wings"],"bee_group":{"antennae":"B","wings":"2","pattern":"X","legs":"X"},"bonus":1.400000000000001},{"rt":963.1999999992549,"stimulus":"bees-with-color/bee-B1SF.svg","response":0,"trial_type":"image-button-response","trial_index":150,"time_elapsed":411855,"internal_node_id":"0.0-6.0-0.14","subject_id":"5fc6bcbc6da34d0f8dd78a3a","study_id":"6197b3f67c2b5cd3b6d9596a","session_id":"619bfbdbc4512f9ddba7162a","condition":"full-information","relevant_dimensions":["antennae","wings"],"bee_group":{"antennae":"B","wings":"2","pattern":"X","legs":"X"},"bonus":1.400000000000001},{"rt":2066.60000000149,"stimulus":"bees-with-color/bee-A2SF.svg","response":0,"trial_type":"image-button-response","trial_index":151,"time_elapsed":413924,"internal_node_id":"0.0-6.0-0.15","subject_id":"5fc6bcbc6da34d0f8dd78a3a","study_id":"6197b3f67c2b5cd3b6d9596a","session_id":"619bfbdbc4512f9ddba7162a","condition":"full-information","relevant_dimensions":["antennae","wings"],"bee_group":{"antennae":"B","wings":"2","pattern":"X","legs":"X"},"bonus":1.400000000000001},{"rt":3219.10000000149,"stimulus":"bees-with-color/bee-B1SF.svg","response":0,"trial_type":"image-button-response","trial_index":152,"time_elapsed":417145,"internal_node_id":"0.0-6.0-0.16","subject_id":"5fc6bcbc6da34d0f8dd78a3a","study_id":"6197b3f67c2b5cd3b6d9596a","session_id":"619bfbdbc4512f9ddba7162a","condition":"full-information","relevant_dimensions":["antennae","wings"],"bee_group":{"antennae":"B","wings":"2","pattern":"X","legs":"X"},"bonus":1.400000000000001},{"rt":823.1999999992549,"stimulus":"bees-with-color/bee-A1SM.svg","response":0,"trial_type":"image-button-response","trial_index":153,"time_elapsed":417970,"internal_node_id":"0.0-6.0-0.17","subject_id":"5fc6bcbc6da34d0f8dd78a3a","study_id":"6197b3f67c2b5cd3b6d9596a","session_id":"619bfbdbc4512f9ddba7162a","condition":"full-information","relevant_dimensions":["antennae","wings"],"bee_group":{"antennae":"B","wings":"2","pattern":"X","legs":"X"},"bonus":1.400000000000001},{"rt":1701,"stimulus":"bees-with-color/bee-A2SM.svg","response":0,"trial_type":"image-button-response","trial_index":154,"time_elapsed":419672,"internal_node_id":"0.0-6.0-0.18","subject_id":"5fc6bcbc6da34d0f8dd78a3a","study_id":"6197b3f67c2b5cd3b6d9596a","session_id":"619bfbdbc4512f9ddba7162a","condition":"full-information","relevant_dimensions":["antennae","wings"],"bee_group":{"antennae":"B","wings":"2","pattern":"X","legs":"X"},"bonus":1.400000000000001},{"rt":1523.3999999985099,"stimulus":"bees-with-color/bee-B2SF.svg","response":1,"trial_type":"image-button-response","trial_index":155,"time_elapsed":421197,"internal_node_id":"0.0-6.0-0.19","subject_id":"5fc6bcbc6da34d0f8dd78a3a","study_id":"6197b3f67c2b5cd3b6d9596a","session_id":"619bfbdbc4512f9ddba7162a","condition":"full-information","relevant_dimensions":["antennae","wings"],"bee_group":{"antennae":"B","wings":"2","pattern":"X","legs":"X"},"bonus":1.400000000000001},{"rt":901.3000000007451,"stimulus":"bees-with-color/bee-B1DF.svg","response":0,"trial_type":"image-button-response","trial_index":156,"time_elapsed":422100,"internal_node_id":"0.0-6.0-0.20","subject_id":"5fc6bcbc6da34d0f8dd78a3a","study_id":"6197b3f67c2b5cd3b6d9596a","session_id":"619bfbdbc4512f9ddba7162a","condition":"full-information","relevant_dimensions":["antennae","wings"],"bee_group":{"antennae":"B","wings":"2","pattern":"X","legs":"X"},"bonus":1.400000000000001},{"rt":2243.7000000029802,"stimulus":"bees-with-color/bee-A1SF.svg","response":0,"trial_type":"image-button-response","trial_index":157,"time_elapsed":424346,"internal_node_id":"0.0-6.0-0.21","subject_id":"5fc6bcbc6da34d0f8dd78a3a","study_id":"6197b3f67c2b5cd3b6d9596a","session_id":"619bfbdbc4512f9ddba7162a","condition":"full-information","relevant_dimensions":["a