[{"success":true,"trial_type":"fullscreen","trial_index":0,"time_elapsed":58795,"internal_node_id":"0.0-0.0","subject_id":"6149afac2b138d7bf8fb8948","study_id":"6197b3f67c2b5cd3b6d9596a","session_id":"619be3219d93c7a5c381f473","condition":"full-information","relevant_dimensions":["antennae","legs"],"bee_group":{"antennae":"A","wings":"X","pattern":"X","legs":"F"},"bonus":0.4200000000000007},{"success":true,"timeout":false,"failed_images":[],"failed_audio":[],"failed_video":[],"trial_type":"preload","trial_index":1,"time_elapsed":63652,"internal_node_id":"0.0-1.0","subject_id":"6149afac2b138d7bf8fb8948","study_id":"6197b3f67c2b5cd3b6d9596a","session_id":"619be3219d93c7a5c381f473","condition":"full-information","relevant_dimensions":["antennae","legs"],"bee_group":{"antennae":"A","wings":"X","pattern":"X","legs":"F"},"bonus":0.4200000000000007},{"rt":8967.799999952316,"stimulus":"Welcome! Press any key to begin.","response":"enter","trial_type":"html-keyboard-response","trial_index":2,"time_elapsed":72621,"internal_node_id":"0.0-2.0","subject_id":"6149afac2b138d7bf8fb8948","study_id":"6197b3f67c2b5cd3b6d9596a","session_id":"619be3219d93c7a5c381f473","condition":"full-information","relevant_dimensions":["antennae","legs"],"bee_group":{"antennae":"A","wings":"X","pattern":"X","legs":"F"},"bonus":0.4200000000000007},{"view_history":[{"page_index":0,"viewing_time":16808.299999952316},{"page_index":1,"viewing_time":22279.5},{"page_index":2,"viewing_time":50379.800000071526},{"page_index":3,"viewing_time":26099.899999976158},{"page_index":4,"viewing_time":16056.899999976158},{"page_index":5,"viewing_time":25659.399999976158},{"page_index":6,"viewing_time":20856.5},{"page_index":7,"viewing_time":27863.400000095367},{"page_index":8,"viewing_time":12208.099999904633},{"page_index":9,"viewing_time":15384.100000023842},{"page_index":10,"viewing_time":24268},{"page_index":11,"viewing_time":18203.700000047684},{"page_index":12,"viewing_time":17216},{"page_index":13,"viewing_time":1476.2999999523163},{"page_index":14,"viewing_time":3873.5}],"rt":298633.89999997616,"trial_type":"instructions","trial_index":3,"time_elapsed":371256,"internal_node_id":"0.0-3.0-0.0","subject_id":"6149afac2b138d7bf8fb8948","study_id":"6197b3f67c2b5cd3b6d9596a","session_id":"619be3219d93c7a5c381f473","condition":"full-information","relevant_dimensions":["antennae","legs"],"bee_group":{"antennae":"A","wings":"X","pattern":"X","legs":"F"},"bonus":0.4200000000000007},{"rt":25074,"response":{"Q0":["Two or six legs","Stripes or spots on body","Single or double wings","Antennae or no antennae"]},"question_order":[0],"trial_type":"survey-multi-select","trial_index":4,"time_elapsed":396335,"internal_node_id":"0.0-3.0-1.0","subject_id":"6149afac2b138d7bf8fb8948","study_id":"6197b3f67c2b5cd3b6d9596a","session_id":"619be3219d93c7a5c381f473","condition":"full-information","relevant_dimensions":["antennae","legs"],"bee_group":{"antennae":"A","wings":"X","pattern":"X","legs":"F"},"correct":true,"bonus":0.4200000000000007},{"rt":40557.60000002384,"response":{"Q1":"No.","Q2":"Based on the four features of the bee.","Q3":"You learn if it was friendly or dangerous, but do not alter your bonus."},"question_order":[0,1,2],"trial_type":"survey-multi-choice","trial_index":5,"time_elapsed":436896,"internal_node_id":"0.0-3.0-2.0","subject_id":"6149afac2b138d7bf8fb8948","study_id":"6197b3f67c2b5cd3b6d9596a","session_id":"619be3219d93c7a5c381f473","condition":"full-information","relevant_dimensions":["antennae","legs"],"bee_group":{"antennae":"A","wings":"X","pattern":"X","legs":"F"},"correct":true,"bonus":0.4200000000000007},{"rt":3908.600000023842,"stimulus":"<p>Congrats, you got everything right<br>When you're ready, click the button below to continue to the experiment.</p>","response":0,"trial_type":"html-button-response","trial_index":6,"time_elapsed":440806,"internal_node_id":"0.0-3.0-3.0","subject_id":"6149afac2b138d7bf8fb8948","study_id":"6197b3f67c2b5cd3b6d9596a","session_id":"619be3219d93c7a5c381f473","condition":"full-information","relevant_dimensions":["antennae","legs"],"bee_group":{"antennae":"A","wings":"X","pattern":"X","legs":"F"},"bonus":0.4200000000000007},{"rt":30523.299999952316,"stimulus":"bees-with-color/bee-A1DF.svg","response":1,"trial_type":"image-button-response","trial_index":7,"time_elapsed":471335,"internal_node_id":"0.0-4.0-0.0","subject_id":"6149afac2b138d7bf8fb8948","study_id":"6197b3f67c2b5cd3b6d9596a","session_id":"619be3219d93c7a5c381f473","condition":"full-information","relevant_dimensions":["antennae","legs"],"bee_group":{"antennae":"A","wings":"X","pattern":"X","legs":"F"},"action":"avoid","summary":"good-avoid","bonus":0.4200000000000007},{"rt":24367.799999952316,"stimulus":"\n                    <p><b>Action: <em>avoid</em></b></p>\n                    <p>This is the bee that you just saw.</p>\n                    <img src=\"bees-with-color/bee-A1DF.svg\" width=\"200\">\n                    <p><span class=\"greenText\">Good choice!</span>  This bee would have stung you.<br>Your bonus pay is unchanged, and remains at $0.54.</p>\n            ","response":0,"trial_type":"html-button-response","trial_index":8,"time_elapsed":495706,"internal_node_id":"0.0-4.0-1.0","subject_id":"6149afac2b138d7bf8fb8948","study_id":"6197b3f67c2b5cd3b6d9596a","session_id":"619be3219d93c7a5c381f473","condition":"full-information","relevant_dimensions":["antennae","legs"],"bee_group":{"antennae":"A","wings":"X","pattern":"X","legs":"F"},"bonus":0.4200000000000007},{"rt":24885.5,"stimulus":"bees-with-color/bee-A1SM.svg","response":1,"trial_type":"image-button-response","trial_index":9,"time_elapsed":520595,"internal_node_id":"0.0-4.0-0.1","subject_id":"6149afac2b138d7bf8fb8948","study_id":"6197b3f67c2b5cd3b6d9596a","session_id":"619be3219d93c7a5c381f473","condition":"full-information","relevant_dimensions":["antennae","legs"],"bee_group":{"antennae":"A","wings":"X","pattern":"X","legs":"F"},"action":"avoid","summary":"bad-avoid","bonus":0.4200000000000007},{"rt":16413.799999952316,"stimulus":"\n                    <p><b>Action: <em>avoid</em></b></p>\n                    <p>This is the bee that you just saw.</p>\n                    <img src=\"bees-with-color/bee-A1SM.svg\" width=\"200\">\n                    <p><span class=\"redText\">Bad choice,</span> the bee was friendly.<br>Your bonus pay is unchanged, and remains at $0.54.</p>\n            ","response":0,"trial_type":"html-button-response","trial_index":10,"time_elapsed":537011,"internal_node_id":"0.0-4.0-1.1","subject_id":"6149afac2b138d7bf8fb8948","study_id":"6197b3f67c2b5cd3b6d9596a","session_id":"619be3219d93c7a5c381f473","condition":"full-information","relevant_dimensions":["antennae","legs"],"bee_group":{"antennae":"A","wings":"X","pattern":"X","legs":"F"},"bonus":0.4200000000000007},{"rt":35893.60000002384,"stimulus":"bees-with-color/bee-B2SM.svg","response":1,"trial_type":"image-button-response","trial_index":11,"time_elapsed":572907,"internal_node_id":"0.0-4.0-0.2","subject_id":"6149afac2b138d7bf8fb8948","study_id":"6197b3f67c2b5cd3b6d9596a","session_id":"619be3219d93c7a5c381f473","condition":"full-information","relevant_dimensions":["antennae","legs"],"bee_group":{"antennae":"A","wings":"X","pattern":"X","legs":"F"},"action":"avoid","summary":"bad-avoid","bonus":0.4200000000000007},{"rt":15245.600000023842,"stimulus":"\n                    <p><b>Action: <em>avoid</em></b></p>\n                    <p>This is the bee that you just saw.</p>\n                    <img src=\"bees-with-color/bee-B2SM.svg\" width=\"200\">\n                    <p><span class=\"redText\">Bad choice,</span> the bee was friendly.<br>Your bonus pay is unchanged, and remains at $0.54.</p>\n            ","response":0,"trial_type":"html-button-response","trial_index":12,"time_elapsed":588154,"internal_node_id":"0.0-4.0-1.2","subject_id":"6149afac2b138d7bf8fb8948","study_id":"6197b3f67c2b5cd3b6d9596a","session_id":"619be3219d93c7a5c381f473","condition":"full-information","relevant_dimensions":["antennae","legs"],"bee_group":{"antennae":"A","wings":"X","pattern":"X","legs":"F"},"bonus":0.4200000000000007},{"rt":10189.600000023842,"stimulus":"bees-with-color/bee-B1SF.svg","response":0,"trial_type":"image-button-response","trial_index":13,"time_elapsed":598347,"internal_node_id":"0.0-4.0-0.3","subject_id":"6149afac2b138d7bf8fb8948","study_id":"6197b3f67c2b5cd3b6d9596a","session_id":"619be3219d93c7a5c381f473","condition":"full-information","relevant_dimensions":["antennae","legs"],"bee_group":{"antennae":"A","wings":"X","pattern":"X","legs":"F"},"action":"harvest","summary":"good-harvest","bonus":0.4200000000000007},{"rt":30633.5,"stimulus":"\n                    <p><b>Action: <em>harvest</em></b></p>\n                    <p>This is the bee that you just saw.</p>\n                    <img src=\"bees-with-color/bee-B1SF.svg\" width=\"200\">\n                    <p><span class=\"greenText\"><b>Successful harvest!</b></span><br>Your pay has increased by $0.02. Your bonus pay is now $0.56.</p>\n            ","response":0,"trial_type":"html-button-response","trial_index":14,"time_elapsed":628982,"internal_node_id":"0.0-4.0-1.3","subject_id":"6149afac2b138d7bf8fb8948","study_id":"6197b3f67c2b5cd3b6d9596a","session_id":"619be3219d93c7a5c381f473","condition":"full-information","relevant_dimensions":["antennae","legs"],"bee_group":{"antennae":"A","wings":"X","pattern":"X","legs":"F"},"bonus":0.4200000000000007},{"rt":14886.299999952316,"stimulus":"bees-with-color/bee-B1SM.svg","response":0,"trial_type":"image-button-response","trial_index":15,"time_elapsed":643871,"internal_node_id":"0.0-4.0-0.4","subject_id":"6149afac2b138d7bf8fb8948","study_id":"6197b3f67c2b5cd3b6d9596a","session_id":"619be3219d93c7a5c381f473","condition":"full-information","relevant_dimensions":["antennae","legs"],"bee_group":{"antennae":"A","wings":"X","pattern":"X","legs":"F"},"action":"harvest","summary":"good-harvest","bonus":0.4200000000000007},{"rt":6588.800000071526,"stimulus":"\n                    <p><b>Action: <em>harvest</em></b></p>\n                    <p>This is the bee that you just saw.</p>\n                    <img src=\"bees-with-color/bee-B1SM.svg\" width=\"200\">\n                    <p><span class=\"greenText\"><b>Successful harvest!</b></span><br>Your pay has increased by $0.02. Your bonus pay is now $0.58.</p>\n            ","response":0,"trial_type":"html-button-response","trial_index":16,"time_elapsed":650463,"internal_node_id":"0.0-4.0-1.4","subject_id":"6149afac2b138d7bf8fb8948","study_id":"6197b3f67c2b5cd3b6d9596a","session_id":"619be3219d93c7a5c381f473","condition":"full-information","relevant_dimensions":["antennae","legs"],"bee_group":{"antennae":"A","wings":"X","pattern":"X","legs":"F"},"bonus":0.4200000000000007},{"rt":10325.5,"stimulus":"bees-with-color/bee-A2DM.svg","response":1,"trial_type":"image-button-response","trial_index":17,"time_elapsed":660791,"internal_node_id":"0.0-4.0-0.5","subject_id":"6149afac2b138d7bf8fb8948","study_id":"6197b3f67c2b5cd3b6d9596a","session_id":"619be3219d93c7a5c381f473","condition":"full-information","relevant_dimensions":["antennae","legs"],"bee_group":{"antennae":"A","wings":"X","pattern":"X","legs":"F"},"action":"avoid","summary":"bad-avoid","bonus":0.4200000000000007},{"rt":36997.300000071526,"stimulus":"\n                    <p><b>Action: <em>avoid</em></b></p>\n                    <p>This is the bee that you just saw.</p>\n                    <img src=\"bees-with-color/bee-A2DM.svg\" width=\"200\">\n                    <p><span class=\"redText\">Bad choice,</span> the bee was friendly.<br>Your bonus pay is unchanged, and remains at $0.58.</p>\n            ","response":0,"trial_type":"html-button-response","trial_index":18,"time_elapsed":697791,"internal_node_id":"0.0-4.0-1.5","subject_id":"6149afac2b138d7bf8fb8948","study_id":"6197b3f67c2b5cd3b6d9596a","session_id":"619be3219d93c7a5c381f473","condition":"full-information","relevant_dimensions":["antennae","legs"],"bee_group":{"antennae":"A","wings":"X","pattern":"X","legs":"F"},"bonus":0.4200000000000007},{"rt":3388.899999976158,"stimulus":"bees-with-color/bee-A1SF.svg","response":0,"trial_type":"image-button-response","trial_index":19,"time_elapsed":701182,"internal_node_id":"0.0-4.0-0.6","subject_id":"6149afac2b138d7bf8fb8948","study_id":"6197b3f67c2b5cd3b6d9596a","session_id":"619be3219d93c7a5c381f473","condition":"full-information","relevant_dimensions":["antennae","legs"],"bee_group":{"antennae":"A","wings":"X","pattern":"X","legs":"F"},"action":"harvest","summary":"bad-harvest","bonus":0.4200000000000007},{"rt":23525.399999976158,"stimulus":"\n                    <p><b>Action: <em>harvest</em></b></p>\n                    <p>This is the bee that you just saw.</p>\n                    <img src=\"bees-with-color/bee-A1SF.svg\" width=\"200\">\n                    <p><span class=\"redText\">Bad choice, the bee was angry.</span><br><b>You have been stung!</b><br>Your pay has been decreased by $0.10. Your bonus pay is now $0.48.</p>\n            ","response":0,"trial_type":"html-button-response","trial_index":20,"time_elapsed":724710,"internal_node_id":"0.0-4.0-1.6","subject_id":"6149afac2b138d7bf8fb8948","study_id":"6197b3f67c2b5cd3b6d9596a","session_id":"619be3219d93c7a5c381f473","condition":"full-information","relevant_dimensions":["antennae","legs"],"bee_group":{"antennae":"A","wings":"X","pattern":"X","legs":"F"},"bonus":0.4200000000000007},{"rt":4779,"stimulus":"bees-with-color/bee-B2SF.svg","response":0,"trial_type":"image-button-response","trial_index":21,"time_elapsed":729491,"internal_node_id":"0.0-4.0-0.7","subject_id":"6149afac2b138d7bf8fb8948","study_id":"6197b3f67c2b5cd3b6d9596a","session_id":"619be3219d93c7a5c381f473","condition":"full-information","relevant_dimensions":["antennae","legs"],"bee_group":{"antennae":"A","wings":"X","pattern":"X","legs":"F"},"action":"harvest","summary":"good-harvest","bonus":0.4200000000000007},{"rt":1280.7999999523163,"stimulus":"\n                    <p><b>Action: <em>harvest</em></b></p>\n                    <p>This is the bee that you just saw.</p>\n                    <img src=\"bees-with-color/bee-B2SF.svg\" width=\"200\">\n                    <p><span class=\"greenText\"><b>Successful harvest!</b></span><br>Your pay has increased by $0.02. Your bonus pay is now $0.50.</p>\n            ","response":0,"trial_type":"html-button-response","trial_index":22,"time_elapsed":730774,"internal_node_id":"0.0-4.0-1.7","subject_id":"6149afac2b138d7bf8fb8948","study_id":"6197b3f67c2b5cd3b6d9596a","session_id":"619be3219d93c7a5c381f473","condition":"full-information","relevant_dimensions":["antennae","legs"],"bee_group":{"antennae":"A","wings":"X","pattern":"X","legs":"F"},"bonus":0.4200000000000007},{"rt":9222.300000071526,"stimulus":"bees-with-color/bee-A1DM.svg","response":1,"trial_type":"image-button-response","trial_index":23,"time_elapsed":739999,"internal_node_id":"0.0-4.0-0.8","subject_id":"6149afac2b138d7bf8fb8948","study_id":"6197b3f67c2b5cd3b6d9596a","session_id":"619be3219d93c7a5c381f473","condition":"full-information","relevant_dimensions":["antennae","legs"],"bee_group":{"antennae":"A","wings":"X","pattern":"X","legs":"F"},"action":"avoid","summary":"bad-avoid","bonus":0.4200000000000007},{"rt":11468.800000071526,"stimulus":"\n                    <p><b>Action: <em>avoid</em></b></p>\n                    <p>This is the bee that you just saw.</p>\n                    <img src=\"bees-with-color/bee-A1DM.svg\" width=\"200\">\n                    <p><span class=\"redText\">Bad choice,</span> the bee was friendly.<br>Your bonus pay is unchanged, and remains at $0.50.</p>\n            ","response":0,"trial_type":"html-button-response","trial_index":24,"time_elapsed":751470,"internal_node_id":"0.0-4.0-1.8","subject_id":"6149afac2b138d7bf8fb8948","study_id":"6197b3f67c2b5cd3b6d9596a","session_id":"619be3219d93c7a5c381f473","condition":"full-information","relevant_dimensions":["antennae","legs"],"bee_group":{"antennae":"A","wings":"X","pattern":"X","legs":"F"},"bonus":0.4200000000000007},{"rt":3313.899999976158,"stimulus":"bees-with-color/bee-B2DF.svg","response":1,"trial_type":"image-button-response","trial_index":25,"time_elapsed":754787,"internal_node_id":"0.0-4.0-0.9","subject_id":"6149afac2b138d7bf8fb8948","study_id":"6197b3f67c2b5cd3b6d9596a","session_id":"619be3219d93c7a5c381f473","condition":"full-information","relevant_dimensions":["antennae","legs"],"bee_group":{"antennae":"A","wings":"X","pattern":"X","legs":"F"},"action":"avoid","summary":"bad-avoid","bonus":0.4200000000000007},{"rt":1337.1999999284744,"stimulus":"\n                    <p><b>Action: <em>avoid</em></b></p>\n                    <p>This is the bee that you just saw.</p>\n                    <img src=\"bees-with-color/bee-B2DF.svg\" width=\"200\">\n                    <p><span class=\"redText\">Bad choice,</span> the bee was friendly.<br>Your bonus pay is unchanged, and remains at $0.50.</p>\n            ","response":0,"trial_type":"html-button-response","trial_index":26,"time_elapsed":756126,"internal_node_id":"0.0-4.0-1.9","subject_id":"6149afac2b138d7bf8fb8948","study_id":"6197b3f67c2b5cd3b6d9596a","session_id":"619be3219d93c7a5c381f473","condition":"full-information","relevant_dimensions":["antennae","legs"],"bee_group":{"antennae":"A","wings":"X","pattern":"X","legs":"F"},"bonus":0.4200000000000007},{"rt":8253.5,"stimulus":"bees-with-color/bee-A2DF.svg","response":0,"trial_type":"image-button-response","trial_index":27,"time_elapsed":764382,"internal_node_id":"0.0-4.0-0.10","subject_id":"6149afac2b138d7bf8fb8948","study_id":"6197b3f67c2b5cd3b6d9596a","session_id":"619be3219d93c7a5c381f473","condition":"full-information","relevant_dimensions":["antennae","legs"],"bee_group":{"antennae":"A","wings":"X","pattern":"X","legs":"F"},"action":"harvest","summary":"bad-harvest","bonus":0.4200000000000007},{"rt":3918.399999976158,"stimulus":"\n                    <p><b>Action: <em>harvest</em></b></p>\n                    <p>This is the bee that you just saw.</p>\n                    <img src=\"bees-with-color/bee-A2DF.svg\" width=\"200\">\n                    <p><span class=\"redText\">Bad choice, the bee was angry.</span><br><b>You have been stung!</b><br>Your pay has been decreased by $0.10. Your bonus pay is now $0.40.</p>\n            ","response":0,"trial_type":"html-button-response","trial_index":28,"time_elapsed":768302,"internal_node_id":"0.0-4.0-1.10","subject_id":"6149afac2b138d7bf8fb8948","study_id":"6197b3f67c2b5cd3b6d9596a","session_id":"619be3219d93c7a5c381f473","condition":"full-information","relevant_dimensions":["antennae","legs"],"bee_group":{"antennae":"A","wings":"X","pattern":"X","legs":"F"},"bonus":0.4200000000000007},{"rt":2758.5,"stimulus":"bees-with-color/bee-B2DM.svg","response":0,"trial_type":"image-button-response","trial_index":29,"time_elapsed":771063,"internal_node_id":"0.0-4.0-0.11","subject_id":"6149afac2b138d7bf8fb8948","study_id":"6197b3f67c2b5cd3b6d9596a","session_id":"619be3219d93c7a5c381f473","condition":"full-information","relevant_dimensions":["antennae","legs"],"bee_group":{"antennae":"A","wings":"X","pattern":"X","legs":"F"},"action":"harvest","summary":"good-harvest","bonus":0.4200000000000007},{"rt":926.7000000476837,"stimulus":"\n                    <p><b>Action: <em>harvest</em></b></p>\n                    <p>This is the bee that you just saw.</p>\n                    <img src=\"bees-with-color/bee-B2DM.svg\" width=\"200\">\n                    <p><span class=\"greenText\"><b>Successful harvest!</b></span><br>Your pay has increased by $0.02. Your bonus pay is now $0.42.</p>\n            ","response":0,"trial_type":"html-button-response","trial_index":30,"time_elapsed":771991,"internal_node_id":"0.0-4.0-1.11","subject_id":"6149afac2b138d7bf8fb8948","study_id":"6197b3f67c2b5cd3b6d9596a","session_id":"619be3219d93c7a5c381f473","condition":"full-information","relevant_dimensions":["antennae","legs"],"bee_group":{"antennae":"A","wings":"X","pattern":"X","legs":"F"},"bonus":0.4200000000000007},{"rt":2153.899999976158,"stimulus":"bees-with-color/bee-B1DF.svg","response":1,"trial_type":"image-button-response","trial_index":31,"time_elapsed":774146,"internal_node_id":"0.0-4.0-0.12","subject_id":"6149afac2b138d7bf8fb8948","study_id":"6197b3f67c2b5cd3b6d9596a","session_id":"619be3219d93c7a5c381f473","condition":"full-information","relevant_dimensions":["antennae","legs"],"bee_group":{"antennae":"A","wings":"X","pattern":"X","legs":"F"},"action":"avoid","summary":"bad-avoid","bonus":0.4200000000000007},{"rt":1271.7000000476837,"stimulus":"\n                    <p><b>Action: <em>avoid</em></b></p>\n                    <p>This is the bee that you just saw.</p>\n                    <img src=\"bees-with-color/bee-B1DF.svg\" width=\"200\">\n                    <p><span class=\"redText\">Bad choice,</span> the bee was friendly.<br>Your bonus pay is unchanged, and remains at $0.42.</p>\n            ","response":0,"trial_type":"html-button-response","trial_index":32,"time_elapsed":775420,"internal_node_id":"0.0-4.0-1.12","subject_id":"6149afac2b138d7bf8fb8948","study_id":"6197b3f67c2b5cd3b6d9596a","session_id":"619be3219d93c7a5c381f473","condition":"full-information","relevant_dimensions":["antennae","legs"],"bee_group":{"antennae":"A","wings":"X","pattern":"X","legs":"F"},"bonus":0.4200000000000007},{"rt":7149.100000023842,"stimulus":"bees-with-color/bee-A2SF.svg","response":1,"trial_type":"image-button-response","trial_index":33,"time_elapsed":782571,"internal_node_id":"0.0-4.0-0.13","subject_id":"6149afac2b138d7bf8fb8948","study_id":"6197b3f67c2b5cd3b6d9596a","session_id":"619be3219d93c7a5c381f473","condition":"full-information","relevant_dimensions":["antennae","legs"],"bee_group":{"antennae":"A","wings":"X","pattern":"X","legs":"F"},"action":"avoid","summary":"good-avoid","bonus":0.4200000000000007},{"rt":1235.1000000238419,"stimulus":"\n                    <p><b>Action: <em>avoid</em></b></p>\n                    <p>This is the bee that you just saw.</p>\n                    <img src=\"bees-with-color/bee-A2SF.svg\" width=\"200\">\n                    <p><span class=\"greenText\">Good choice!</span>  This bee would have stung you.<br>Your bonus pay is unchanged, and remains at $0.42.</p>\n            ","response":0,"trial_type":"html-button-response","trial_index":34,"time_elapsed":783807,"internal_node_id":"0.0-4.0-1.13","subject_id":"6149afac2b138d7bf8fb8948","study_id":"6197b3f67c2b5cd3b6d9596a","session_id":"619be3219d93c7a5c381f473","condition":"full-information","relevant_dimensions":["antennae","legs"],"bee_group":{"antennae":"A","wings":"X","pattern":"X","legs":"F"},"bonus":0.4200000000000007},{"rt":2192.899999976158,"stimulus":"bees-with-color/bee-A2SM.svg","response":0,"trial_type":"image-button-response","trial_index":35,"time_elapsed":786003,"internal_node_id":"0.0-4.0-0.14","subject_id":"6149afac2b138d7bf8fb8948","study_id":"6197b3f67c2b5cd3b6d9596a","session_id":"619be3219d93c7a5c381f473","condition":"full-information","relevant_dimensions":["antennae","legs"],"bee_group":{"antennae":"A","wings":"X","pattern":"X","legs":"F"},"action":"harvest","summary":"good-harvest","bonus":0.4200000000000007},{"rt":958.1999999284744,"stimulus":"\n                    <p><b>Action: <em>harvest</em></b></p>\n                    <p>This is the bee that you just saw.</p>\n                    <img src=\"bees-with-color/bee-A2SM.svg\" width=\"200\">\n                    <p><span class=\"greenText\"><b>Successful harvest!</b></span><br>Your pay has increased by $0.02. Your bonus pay is now $0.44.</p>\n            ","response":0,"trial_type":"html-button-response","trial_index":36,"time_elapsed":786962,"internal_node_id":"0.0-4.0-1.14","subject_id":"6149afac2b138d7bf8fb8948","study_id":"6197b3f67c2b5cd3b6d9596a","session_id":"619be3219d93c7a5c381f473","condition":"full-information","relevant_dimensions":["antennae","legs"],"bee_group":{"antennae":"A","wings":"X","pattern":"X","legs":"F"},"bonus":0.4200000000000007},{"rt":3614.8000000715256,"stimulus":"bees-with-color/bee-B1DM.svg","response":0,"trial_type":"image-button-response","trial_index":37,"time_elapsed":790579,"internal_node_id":"0.0-4.0-0.15","subject_id":"6149afac2b138d7bf8fb8948","study_id":"6197b3f67c2b5cd3b6d9596a","session_id":"619be3219d93c7a5c381f473","condition":"full-information","relevant_dimensions":["antennae","legs"],"bee_group":{"antennae":"A","wings":"X","pattern":"X","legs":"F"},"action":"harvest","summary":"good-harvest","bonus":0.4200000000000007},{"rt":982.3000000715256,"stimulus":"\n                    <p><b>Action: <em>harvest</em></b></p>\n                    <p>This is the bee that you just saw.</p>\n                    <img src=\"bees-with-color/bee-B1DM.svg\" width=\"200\">\n                    <p><span class=\"greenText\"><b>Successful harvest!</b></span><br>Your pay has increased by $0.02. Your bonus pay is now $0.46.</p>\n            ","response":0,"trial_type":"html-button-response","trial_index":38,"time_elapsed":791563,"internal_node_id":"0.0-4.0-1.15","subject_id":"6149afac2b138d7bf8fb8948","study_id":"6197b3f67c2b5cd3b6d9596a","session_id":"619be3219d93c7a5c381f473","condition":"full-information","relevant_dimensions":["antennae","legs"],"bee_group":{"antennae":"A","wings":"X","pattern":"X","legs":"F"},"bonus":0.4200000000000007},{"rt":3549.899999976158,"stimulus":"bees-with-color/bee-B1DF.svg","response":1,"trial_type":"image-button-response","trial_index":39,"time_elapsed":795115,"internal_node_id":"0.0-4.0-0.16","subject_id":"6149afac2b138d7bf8fb8948","study_id":"6197b3f67c2b5cd3b6d9596a","session_id":"619be3219d93c7a5c381f473","condition":"full-information","relevant_dimensions":["antennae","legs"],"bee_group":{"antennae":"A","wings":"X","pattern":"X","legs":"F"},"action":"avoid","summary":"bad-avoid","bonus":0.4200000000000007},{"rt":2190.7999999523163,"stimulus":"\n                    <p><b>Action: <em>avoid</em></b></p>\n                    <p>This is the bee that you just saw.</p>\n                    <img src=\"bees-with-color/bee-B1DF.svg\" width=\"200\">\n                    <p><span class=\"redText\">Bad choice,</span> the bee was friendly.<br>Your bonus pay is unchanged, and remains at $0.46.</p>\n            ","response":0,"trial_type":"html-button-response","trial_index":40,"time_elapsed":797307,"internal_node_id":"0.0-4.0-1.16","subject_id":"6149afac2b138d7bf8fb8948","study_id":"6197b3f67c2b5cd3b6d9596a","session_id":"619be3219d93c7a5c381f473","condition":"full-information","relevant_dimensions":["antennae","legs"],"bee_group":{"antennae":"A","wings":"X","pattern":"X","legs":"F"},"bonus":0.4200000000000007},{"rt":2309.100000023842,"stimulus":"bees-with-color/bee-B2SM.svg","response":0,"trial_type":"image-button-response","trial_index":41,"time_elapsed":799619,"internal_node_id":"0.0-4.0-0.17","subject_id":"6149afac2b138d7bf8fb8948","study_id":"6197b3f67c2b5cd3b6d9596a","session_id":"619be3219d93c7a5c381f473","condition":"full-information","relevant_dimensions":["antennae","legs"],"bee_group":{"antennae":"A","wings":"X","pattern":"X","legs":"F"},"action":"harvest","summary":"good-harvest","bonus":0.4200000000000007},{"rt":1014.2999999523163,"stimulus":"\n                    <p><b>Action: <em>harvest</em></b></p>\n                    <p>This is the bee that you just saw.</p>\n                    <img src=\"bees-with-color/bee-B2SM.svg\" width=\"200\">\n                    <p><span class=\"greenText\"><b>Successful harvest!</b></span><br>Your pay has increased by $0.02. Your bonus pay is now $0.48.</p>\n            ","response":0,"trial_type":"html-button-response","trial_index":42,"time_elapsed":800635,"internal_node_id":"0.0-4.0-1.17","subject_id":"6149afac2b138d7bf8fb8948","study_id":"6197b3f67c2b5cd3b6d9596a","session_id":"619be3219d93c7a5c381f473","condition":"full-information","relevant_dimensions":["antennae","legs"],"bee_group":{"antennae":"A","wings":"X","pattern":"X","legs":"F"},"bonus":0.4200000000000007},{"rt":4878.200000047684,"stimulus":"bees-with-color/bee-B2DF.svg","response":1,"trial_type":"image-button-response","trial_index":43,"time_elapsed":805515,"internal_node_id":"0.0-4.0-0.18","subject_id":"6149afac2b138d7bf8fb8948","study_id":"6197b3f67c2b5cd3b6d9596a","session_id":"619be3219d93c7a5c381f473","condition":"full-information","relevant_dimensions":["antennae","legs"],"bee_group":{"antennae":"A","wings":"X","pattern":"X","legs":"F"},"action":"avoid","summary":"bad-avoid","bonus":0.4200000000000007},{"rt":1054.2000000476837,"stimulus":"\n                    <p><b>Action: <em>avoid</em></b></p>\n                    <p>This is the bee that you just saw.</p>\n                    <img src=\"bees-with-color/bee-B2DF.svg\" width=\"200\">\n                    <p><span class=\"redText\">Bad choice,</span> the bee was friendly.<br>Your bonus pay is unchanged, and remains at $0.48.</p>\n            ","response":0,"trial_type":"html-button-response","trial_index":44,"time_elapsed":806571,"internal_node_id":"0.0-4.0-1.18","subject_id":"6149afac2b138d7bf8fb8948","study_id":"6197b3f67c2b5cd3b6d9596a","session_id":"619be3219d93c7a5c381f473","condition":"full-information","relevant_dimensions":["antennae","legs"],"bee_group":{"antennae":"A","wings":"X","pattern":"X","legs":"F"},"bonus":0.4200000000000007},{"rt":1447.6000000238419,"stimulus":"bees-with-color/bee-A2DF.svg","response":0,"trial_type":"image-button-response","trial_index":45,"time_elapsed":808020,"internal_node_id":"0.0-4.0-0.19","subject_id":"6149afac2b138d7bf8fb8948","study_id":"6197b3f67c2b5cd3b6d9596a","session_id":"619be3219d93c7a5c381f473","condition":"full-information","relevant_dimensions":["antennae","legs"],"bee_group":{"antennae":"A","wings":"X","pattern":"X","legs":"F"},"action":"harvest","summary":"bad-harvest","bonus":0.4200000000000007},{"rt":1392.3000000715256,"stimulus":"\n                    <p><b>Action: <em>harvest</em></b></p>\n                    <p>This is the bee that you just saw.</p>\n                    <img src=\"bees-with-color/bee-A2DF.svg\" width=\"200\">\n                    <p><span class=\"redText\">Bad choice, the bee was angry.</span><br><b>You have been stung!</b><br>Your pay has been decreased by $0.10. Your bonus pay is now $0.38.</p>\n            ","response":0,"trial_type":"html-button-response","trial_index":46,"time_elapsed":809414,"internal_node_id":"0.0-4.0-1.19","subject_id":"6149afac2b138d7bf8fb8948","study_id":"6197b3f67c2b5cd3b6d9596a","session_id":"619be3219d93c7a5c381f473","condition":"full-information","relevant_dimensions":["antennae","legs"],"bee_group":{"antennae":"A","wings":"X","pattern":"X","legs":"F"},"bonus":0.4200000000000007},{"rt":3522.600000023842,"stimulus":"bees-with-color/bee-B1SM.svg","response":0,"trial_type":"image-button-response","trial_index":47,"time_elapsed":812938,"internal_node_id":"0.0-4.0-0.20","subject_id":"6149afac2b138d7bf8fb8948","study_id":"6197b3f67c2b5cd3b6d9596a","session_id":"619be3219d93c7a5c381f473","condition":"full-information","relevant_dimensions":["antennae","legs"],"bee_group":{"antennae":"A","wings":"X","pattern":"X","legs":"F"},"action":"harvest","summary":"good-harvest","bonus":0.4200000000000007},{"rt":974.5,"stimulus":"\n                    <p><b>Action: <em>harvest</em></b></p>\n                    <p>This is the bee that you just saw.</p>\n                    <img src=\"bees-with-color/bee-B1SM.svg\" width=\"200\">\n                    <p><span class=\"greenText\"><b>Successful harvest!</b></span><br>Your pay has increased by $0.02. Your bonus pay is now $0.40.</p>\n            ","response":0,"trial_type":"html-button-response","trial_index":48,"time_elapsed":813915,"internal_node_id":"0.0-4.0-1.20","subject_id":"6149afac2b138d7bf8fb8948","study_id":"6197b3f67c2b5cd3b6d9596a","session_id":"619be3219d93c7a5c381f473","condition":"full-information","relevant_dimensions":["antennae","legs"],"bee_group":{"antennae":"A","wings":"X","pattern":"X","legs":"F"},"bonus":0.4200000000000007},{"rt":6686.300000071526,"stimulus":"bees-with-color/bee-A1SM.svg","response":1,"trial_type":"image-button-response","trial_index":49,"time_elapsed":820603,"internal_node_id":"0.0-4.0-0.21","subject_id":"6149afac2b138d7bf8fb8948","study_id":"6197b3f67c2b5cd3b6d9596a","session_id":"619be3219d93c7a5c381f473","condition":"full-information","relevant_dimensions":["antennae","legs"],"bee_group":{"antennae":"A","wings":"X","pattern":"X","legs":"F"},"action":"avoid","summary":"bad-avoid","bonus":0.4200000000000007},{"rt":1093.6999999284744,"stimulus":"\n                    <p><b>Action: <em>avoid</em></b></p>\n                    <p>This is the bee that you just saw.</p>\n                    <img src=\"bees-with-color/bee-A1SM.svg\" width=\"200\">\n                    <p><span class=\"redText\">Bad choice,</span> the bee was friendly.<br>Your bonus pay is unchanged, and remains at $0.40.</p>\n            ","response":0,"trial_type":"html-button-response","trial_index":50,"time_elapsed":821699,"internal_node_id":"0.0-4.0-1.21","subject_id":"6149afac2b138d7bf8fb8948","study_id":"6197b3f67c2b5cd3b6d9596a","session_id":"619be3219d93c7a5c381f473","condition":"full-information","relevant_dimensions":["antennae","legs"],"bee_group":{"antennae":"A","wings":"X","pattern":"X","legs":"F"},"bonus":0.4200000000000007},{"rt":2693.5,"stimulus":"bees-with-color/bee-A1SF.svg","response":1,"trial_type":"image-button-response","trial_index":51,"time_elapsed":824395,"internal_node_id":"0.0-4.0-0.22","subject_id":"6149afac2b138d7bf8fb8948","study_id":"6197b3f67c2b5cd3b6d9596a","session_id":"619be3219d93c7a5c381f473","condition":"full-information","relevant_dimensions":["antennae","legs"],"bee_group":{"antennae":"A","wings":"X","pattern":"X","legs":"F"},"action":"avoid","summary":"good-avoid","bonus":0.4200000000000007},{"rt":1142.1000000238419,"stimulus":"\n                    <p><b>Action: <em>avoid</em></b></p>\n                    <p>This is the bee that you just saw.</p>\n                    <img src=\"bees-with-color/bee-A1SF.svg\" width=\"200\">\n                    <p><span class=\"greenText\">Good choice!</span>  This bee would have stung you.<br>Your bonus pay is unchanged, and remains at $0.40.</p>\n            ","response":0,"trial_type":"html-button-response","trial_index":52,"time_elapsed":825539,"internal_node_id":"0.0-4.0-1.22","subject_id":"6149afac2b138d7bf8fb8948","study_id":"6197b3f67c2b5cd3b6d9596a","session_id":"619be3219d93c7a5c381f473","condition":"full-information","relevant_dimensions":["antennae","legs"],"bee_group":{"antennae":"A","wings":"X","pattern":"X","legs":"F"},"bonus":0.4200000000000007},{"rt":1357.8000000715256,"stimulus":"bees-with-color/bee-B2DM.svg","response":0,"trial_type":"image-button-response","trial_index":53,"time_elapsed":826899,"internal_node_id":"0.0-4.0-0.23","subject_id":"6149afac2b138d7bf8fb8948","study_id":"6197b3f67c2b5cd3b6d9596a","session_id":"619be3219d93c7a5c381f473","condition":"full-information","relevant_dimensions":["antennae","legs"],"bee_group":{"antennae":"A","wings":"X","pattern":"X","legs":"F"},"action":"harvest","summary":"good-harvest","bonus":0.4200000000000007},{"rt":958,"stimulus":"\n                    <p><b>Action: <em>harvest</em></b></p>\n                    <p>This is the bee that you just saw.</p>\n                    <img src=\"bees-with-color/bee-B2DM.svg\" width=\"200\">\n                    <p><span class=\"greenText\"><b>Successful harvest!</b></span><br>Your pay has increased by $0.02. Your bonus pay is now $0.42.</p>\n            ","response":0,"trial_type":"html-button-response","trial_index":54,"time_elapsed":827859,"internal_node_id":"0.0-4.0-1.23","subject_id":"6149afac2b138d7bf8fb8948","study_id":"6197b3f67c2b5cd3b6d9596a","session_id":"619be3219d93c7a5c381f473","condition":"full-information","relevant_dimensions":["antennae","legs"],"bee_group":{"antennae":"A","wings":"X","pattern":"X","legs":"F"},"bonus":0.4200000000000007},{"rt":1390.3000000715256,"stimulus":"bees-with-color/bee-B1DM.svg","response":0,"trial_type":"image-button-response","trial_index":55,"time_elapsed":829251,"internal_node_id":"0.0-4.0-0.24","subject_id":"6149afac2b138d7bf8fb8948","study_id":"6197b3f67c2b5cd3b6d9596a","session_id":"619be3219d93c7a5c381f473","condition":"full-information","relevant_dimensions":["antennae","legs"],"bee_group":{"antennae":"A","wings":"X","pattern":"X","legs":"F"},"action":"harvest","summary":"good-harvest","bonus":0.4200000000000007},{"rt":957.5999999046326,"stimulus":"\n                    <p><b>Action: <em>harvest</em></b></p>\n                    <p>This is the bee that you just saw.</p>\n                    <img src=\"bees-with-color/bee-B1DM.svg\" width=\"200\">\n                    <p><span class=\"greenText\"><b>Successful harvest!</b></span><br>Your pay has increased by $0.02. Your bonus pay is now $0.44.</p>\n            ","response":0,"trial_type":"html-button-response","trial_index":56,"time_elapsed":830210,"internal_node_id":"0.0-4.0-1.24","subject_id":"6149afac2b138d7bf8fb8948","study_id":"6197b3f67c2b5cd3b6d9596a","session_id":"619be3219d93c7a5c381f473","condition":"full-information","relevant_dimensions":["antennae","legs"],"bee_group":{"antennae":"A","wings":"X","pattern":"X","legs":"F"},"bonus":0.4200000000000007},{"rt":2558.100000023842,"stimulus":"bees-with-color/bee-A2SF.svg","response":1,"trial_type":"image-button-response","trial_index":57,"time_elapsed":832771,"internal_node_id":"0.0-4.0-0.25","subject_id":"6149afac2b138d7bf8fb8948","study_id":"6197b3f67c2b5cd3b6d9596a","session_id":"619be3219d93c7a5c381f473","condition":"full-information","relevant_dimensions":["antennae","legs"],"bee_group":{"antennae":"A","wings":"X","pattern":"X","legs":"F"},"action":"avoid","summary":"good-avoid","bonus":0.4200000000000007},{"rt":9886.700000047684,"stimulus":"\n                    <p><b>Action: <em>avoid</em></b></p>\n                    <p>This is the bee that you just saw.</p>\n                    <img src=\"bees-with-color/bee-A2SF.svg\" width=\"200\">\n                    <p><span class=\"greenText\">Good choice!</span>  This bee would have stung you.<br>Your bonus pay is unchanged, and remains at $0.44.</p>\n            ","response":0,"trial_type":"html-button-response","trial_index":58,"time_elapsed":842659,"internal_node_id":"0.0-4.0-1.25","subject_id":"6149afac2b138d7bf8fb8948","study_id":"6197b3f67c2b5cd3b6d9596a","session_id":"619be3219d93c7a5c381f473","condition":"full-information","relevant_dimensions":["antennae","legs"],"bee_group":{"antennae":"A","wings":"X","pattern":"X","legs":"F"},"bonus":0.4200000000000007},{"rt":2837.1999999284744,"stimulus":"bees-with-color/bee-A1DM.svg","response":1,"trial_type":"image-button-response","trial_index":59,"time_elapsed":845498,"internal_node_id":"0.0-4.0-0.26","subject_id":"6149afac2b138d7bf8fb8948","study_id":"6197b3f67c2b5cd3b6d9596a","session_id":"619be3219d93c7a5c381f473","condition":"full-information","relevant_dimensions":["antennae","legs"],"bee_group":{"antennae":"A","wings":"X","pattern":"X","legs":"F"},"action":"avoid","summary":"bad-avoid","bonus":0.4200000000000007},{"rt":3822.8000000715256,"stimulus":"\n                    <p><b>Action: <em>avoid</em></b></p>\n                    <p>This is the bee that you just saw.</p>\n                    <img src=\"bees-with-color/bee-A1DM.svg\" width=\"200\">\n                    <p><span class=\"redText\">Bad choice,</span> the bee was friendly.<br>Your bonus pay is unchanged, and remains at $0.44.</p>\n            ","response":0,"trial_type":"html-button-response","trial_index":60,"time_elapsed":849323,"internal_node_id":"0.0-4.0-1.26","subject_id":"6149afac2b138d7bf8fb8948","study_id":"6197b3f67c2b5cd3b6d9596a","session_id":"619be3219d93c7a5c381f473","condition":"full-information","relevant_dimensions":["antennae","legs"],"bee_group":{"antennae":"A","wings":"X","pattern":"X","legs":"F"},"bonus":0.4200000000000007},{"rt":2429.2000000476837,"stimulus":"bees-with-color/bee-A2SM.svg","response":0,"trial_type":"image-button-response","trial_index":61,"time_elapsed":851755,"internal_node_id":"0.0-4.0-0.27","subject_id":"6149afac2b138d7bf8fb8948","study_id":"6197b3f67c2b5cd3b6d9596a","session_id":"619be3219d93c7a5c381f473","condition":"full-information","relevant_dimensions":["antennae","legs"],"bee_group":{"antennae":"A","wings":"X","pattern":"X","legs":"F"},"action":"harvest","summary":"good-harvest","bonus":0.4200000000000007},{"rt":837.7999999523163,"stimulus":"\n                    <p><b>Action: <em>harvest</em></b></p>\n                    <p>This is the bee that you just saw.</p>\n                    <img src=\"bees-with-color/bee-A2SM.svg\" width=\"200\">\n                    <p><span class=\"greenText\"><b>Successful harvest!</b></span><br>Your pay has increased by $0.02. Your bonus pay is now $0.46.</p>\n            ","response":0,"trial_type":"html-button-response","trial_index":62,"time_elapsed":852594,"internal_node_id":"0.0-4.0-1.27","subject_id":"6149afac2b138d7bf8fb8948","study_id":"6197b3f67c2b5cd3b6d9596a","session_id":"619be3219d93c7a5c381f473","condition":"full-information","relevant_dimensions":["antennae","legs"],"bee_group":{"antennae":"A","wings":"X","pattern":"X","legs":"F"},"bonus":0.4200000000000007},{"rt":2607.100000023842,"stimulus":"bees-with-color/bee-A2DM.svg","response":1,"trial_type":"image-button-response","trial_index":63,"time_elapsed":855202,"internal_node_id":"0.0-4.0-0.28","subject_id":"6149afac2b138d7bf8fb8948","study_id":"6197b3f67c2b5cd3b6d9596a","session_id":"619be3219d93c7a5c381f473","condition":"full-information","relevant_dimensions":["antennae","legs"],"bee_group":{"antennae":"A","wings":"X","pattern":"X","legs":"F"},"action":"avoid","summary":"bad-avoid","bonus":0.4200000000000007},{"rt":2446.5,"stimulus":"\n                    <p><b>Action: <em>avoid</em></b></p>\n                    <p>This is the bee that you just saw.</p>\n                    <img src=\"bees-with-color/bee-A2DM.svg\" width=\"200\">\n                    <p><span class=\"redText\">Bad choice,</span> the bee was friendly.<br>Your bonus pay is unchanged, and remains at $0.46.</p>\n            ","response":0,"trial_type":"html-button-response","trial_index":64,"time_elapsed":857650,"internal_node_id":"0.0-4.0-1.28","subject_id":"6149afac2b138d7bf8fb8948","study_id":"6197b3f67c2b5cd3b6d9596a","session_id":"619be3219d93c7a5c381f473","condition":"full-information","relevant_dimensions":["antennae","legs"],"bee_group":{"antennae":"A","wings":"X","pattern":"X","legs":"F"},"bonus":0.4200000000000007},{"rt":1813.8000000715256,"stimulus":"bees-with-color/bee-B2SF.svg","response":1,"trial_type":"image-button-response","trial_index":65,"time_elapsed":859466,"internal_node_id":"0.0-4.0-0.29","subject_id":"6149afac2b138d7bf8fb8948","study_id":"6197b3f67c2b5cd3b6d9596a","session_id":"619be3219d93c7a5c381f473","condition":"full-information","relevant_dimensions":["antennae","legs"],"bee_group":{"antennae":"A","wings":"X","pattern":"X","legs":"F"},"action":"avoid","summary":"bad-avoid","bonus":0.4200000000000007},{"rt":830.7999999523163,"stimulus":"\n                    <p><b>Action: <em>avoid</em></b></p>\n                    <p>This is the bee that you just saw.</p>\n                    <img src=\"bees-with-color/bee-B2SF.svg\" width=\"200\">\n                    <p><span class=\"redText\">Bad choice,</span> the bee was friendly.<br>Your bonus pay is unchanged, and remains at $0.46.</p>\n            ","response":0,"trial_type":"html-button-response","trial_index":66,"time_elapsed":860299,"internal_node_id":"0.0-4.0-1.29","subject_id":"6149afac2b138d7bf8fb8948","study_id":"6197b3f67c2b5cd3b6d9596a","session_id":"619be3219d93c7a5c381f473","condition":"full-information","relevant_dimensions":["antennae","legs"],"bee_group":{"antennae":"A","wings":"X","pattern":"X","legs":"F"},"bonus":0.4200000000000007},{"rt":1694.2999999523163,"stimulus":"bees-with-color/bee-A1DF.svg","response":1,"trial_type":"image-button-response","trial_index":67,"time_elapsed":861994,"internal_node_id":"0.0-4.0-0.30","subject_id":"6149afac2b138d7bf8fb8948","study_id":"6197b3f67c2b5cd3b6d9596a","session_id":"619be3219d93c7a5c381f473","condition":"full-information","relevant_dimensions":["antennae","legs"],"bee_group":{"antennae":"A","wings":"X","pattern":"X","legs":"F"},"action":"avoid","summary":"good-avoid","bonus":0.4200000000000007},{"rt":1290.8999999761581,"stimulus":"\n                    <p><b>Action: <em>avoid</em></b></p>\n                    <p>This is the bee that you just saw.</p>\n                    <img src=\"bees-with-color/bee-A1DF.svg\" width=\"200\">\n                    <p><span class=\"greenText\">Good choice!</span>  This bee would have stung you.<br>Your bonus pay is unchanged, and remains at $0.46.</p>\n            ","response":0,"trial_type":"html-button-response","trial_index":68,"time_elapsed":863287,"internal_node_id":"0.0-4.0-1.30","subject_id":"6149afac2b138d7bf8fb8948","study_id":"6197b3f67c2b5cd3b6d9596a","session_id":"619be3219d93c7a5c381f473","condition":"full-information","relevant_dimensions":["antennae","legs"],"bee_group":{"antennae":"A","wings":"X","pattern":"X","legs":"F"},"bonus":0.4200000000000007},{"rt":1377.7000000476837,"stimulus":"bees-with-color/bee-B1SF.svg","response":1,"trial_type":"image-button-response","trial_index":69,"time_elapsed":864666,"internal_node_id":"0.0-4.0-0.31","subject_id":"6149afac2b138d7bf8fb8948","study_id":"6197b3f67c2b5cd3b6d9596a","session_id":"619be3219d93c7a5c381f473","condition":"full-information","relevant_dimensions":["antennae","legs"],"bee_group":{"antennae":"A","wings":"X","pattern":"X","legs":"F"},"action":"avoid","summary":"bad-avoid","bonus":0.4200000000000007},{"rt":830.2999999523163,"stimulus":"\n                    <p><b>Action: <em>avoid</em></b></p>\n                    <p>This is the bee that you just saw.</p>\n                    <img src=\"bees-with-color/bee-B1SF.svg\" width=\"200\">\n                    <p><span class=\"redText\">Bad choice,</span> the bee was friendly.<br>Your bonus pay is unchanged, and remains at $0.46.</p>\n            ","response":0,"trial_type":"html-button-response","trial_index":70,"time_elapsed":865498,"internal_node_id":"0.0-4.0-1.31","subject_id":"6149afac2b138d7bf8fb8948","study_id":"6197b3f67c2b5cd3b6d9596a","session_id":"619be3219d93c7a5c381f473","condition":"full-information","relevant_dimensions":["antennae","legs"],"bee_group":{"antennae":"A","wings":"X","pattern":"X","legs":"F"},"bonus":0.4200000000000007},{"rt":3982.600000023842,"stimulus":"bees-with-color/bee-A1DF.svg","response":0,"trial_type":"image-button-response","trial_index":71,"time_elapsed":869482,"internal_node_id":"0.0-4.0-0.32","subject_id":"6149afac2b138d7bf8fb8948","study_id":"6197b3f67c2b5cd3b6d9596a","session_id":"619be3219d93c7a5c381f473","condition":"full-information","relevant_dimensions":["antennae","legs"],"bee_group":{"antennae":"A","wings":"X","pattern":"X","legs":"F"},"action":"harvest","summary":"bad-harvest","bonus":0.4200000000000007},{"rt":1893.6999999284744,"stimulus":"\n                    <p><b>Action: <em>harvest</em></b></p>\n                    <p>This is the bee that you just saw.</p>\n                    <img src=\"bees-with-color/bee-A1DF.svg\" width=\"200\">\n                    <p><span class=\"redText\">Bad choice, the bee was angry.</span><br><b>You have been stung!</b><br>Your pay has been decreased by $0.10. Your bonus pay is now $0.36.</p>\n            ","response":0,"trial_type":"html-button-response","trial_index":72,"time_elapsed":871378,"internal_node_id":"0.0-4.0-1.32","subject_id":"6149afac2b138d7bf8fb8948","study_id":"6197b3f67c2b5cd3b6d9596a","session_id":"619be3219d93c7a5c381f473","condition":"full-information","relevant_dimensions":["antennae","legs"],"bee_group":{"antennae":"A","wings":"X","pattern":"X","legs":"F"},"bonus":0.4200000000000007},{"rt":3303.100000023842,"stimulus":"bees-with-color/bee-A2SF.svg","response":1,"trial_type":"image-button-response","trial_index":73,"time_elapsed":874683,"internal_node_id":"0.0-4.0-0.33","subject_id":"6149afac2b138d7bf8fb8948","study_id":"6197b3f67c2b5cd3b6d9596a","session_id":"619be3219d93c7a5c381f473","condition":"full-information","relevant_dimensions":["antennae","legs"],"bee_group":{"antennae":"A","wings":"X","pattern":"X","legs":"F"},"action":"avoid","summary":"good-avoid","bonus":0.4200000000000007},{"rt":974,"stimulus":"\n                    <p><b>Action: <em>avoid</em></b></p>\n                    <p>This is the bee that you just saw.</p>\n                    <img src=\"bees-with-color/bee-A2SF.svg\" width=\"200\">\n                    <p><span class=\"greenText\">Good choice!</span>  This bee would have stung you.<br>Your bonus pay is unchanged, and remains at $0.36.</p>\n            ","response":0,"trial_type":"html-button-response","trial_index":74,"time_elapsed":875659,"internal_node_id":"0.0-4.0-1.33","subject_id":"6149afac2b138d7bf8fb8948","study_id":"6197b3f67c2b5cd3b6d9596a","session_id":"619be3219d93c7a5c381f473","condition":"full-information","relevant_dimensions":["antennae","legs"],"bee_group":{"antennae":"A","wings":"X","pattern":"X","legs":"F"},"bonus":0.4200000000000007},{"rt":1990,"stimulus":"bees-with-color/bee-A1DM.svg","response":0,"trial_type":"image-button-response","trial_index":75,"time_elapsed":877650,"internal_node_id":"0.0-4.0-0.34","subject_id":"6149afac2b138d7bf8fb8948","study_id":"6197b3f67c2b5cd3b6d9596a","session_id":"619be3219d93c7a5c381f473","condition":"full-information","relevant_dimensions":["antennae","legs"],"bee_group":{"antennae":"A","wings":"X","pattern":"X","legs":"F"},"action":"harvest","summary":"good-harvest","bonus":0.4200000000000007},{"rt":838.2000000476837,"stimulus":"\n                    <p><b>Action: <em>harvest</em></b></p>\n                    <p>This is the bee that you just saw.</p>\n                    <img src=\"bees-with-color/bee-A1DM.svg\" width=\"200\">\n                    <p><span class=\"greenText\"><b>Successful harvest!</b></span><br>Your pay has increased by $0.02. Your bonus pay is now $0.38.</p>\n            ","response":0,"trial_type":"html-button-response","trial_index":76,"time_elapsed":878491,"internal_node_id":"0.0-4.0-1.34","subject_id":"6149afac2b138d7bf8fb8948","study_id":"6197b3f67c2b5cd3b6d9596a","session_id":"619be3219d93c7a5c381f473","condition":"full-information","relevant_dimensions":["antennae","legs"],"bee_group":{"antennae":"A","wings":"X","pattern":"X","legs":"F"},"bonus":0.4200000000000007},{"rt":2450.4000000953674,"stimulus":"bees-with-color/bee-B2SM.svg","response":0,"trial_type":"image-button-response","trial_index":77,"time_elapsed":880943,"internal_node_id":"0.0-4.0-0.35","subject_id":"6149afac2b138d7bf8fb8948","study_id":"6197b3f67c2b5cd3b6d9596a","session_id":"619be3219d93c7a5c381f473","condition":"full-information","relevant_dimensions":["antennae","legs"],"bee_group":{"antennae":"A","wings":"X","pattern":"X","legs":"F"},"action":"harvest","summary":"good-harvest","bonus":0.4200000000000007},{"rt":1342.5,"stimulus":"\n                    <p><b>Action: <em>harvest</em></b></p>\n                    <p>This is the bee that you just saw.</p>\n                    <img src=\"bees-with-color/bee-B2SM.svg\" width=\"200\">\n                    <p><span class=\"greenText\"><b>Successful harvest!</b></span><br>Your pay has increased by $0.02. Your bonus pay is now $0.40.</p>\n            ","response":0,"trial_type":"html-button-response","trial_index":78,"time_elapsed":882287,"internal_node_id":"0.0-4.0-1.35","subject_id":"6149afac2b138d7bf8fb8948","study_id":"6197b3f67c2b5cd3b6d9596a","session_id":"619be3219d93c7a5c381f473","condition":"full-information","relevant_dimensions":["antennae","legs"],"bee_group":{"antennae":"A","wings":"X","pattern":"X","legs":"F"},"bonus":0.4200000000000007},{"rt":6561.799999952316,"stimulus":"bees-with-color/bee-B2DF.svg","response":1,"trial_type":"image-button-response","trial_index":79,"time_elapsed":888851,"internal_node_id":"0.0-4.0-0.36","subject_id":"6149afac2b138d7bf8fb8948","study_id":"6197b3f67c2b5cd3b6d9596a","session_id":"619be3219d93c7a5c381f473","condition":"full-information","relevant_dimensions":["antennae","legs"],"bee_group":{"antennae":"A","wings":"X","pattern":"X","legs":"F"},"action":"avoid","summary":"bad-avoid","bonus":0.4200000000000007},{"rt":853.3999999761581,"stimulus":"\n                    <p><b>Action: <em>avoid</em></b></p>\n                    <p>This is the bee that you just saw.</p>\n                    <img src=\"bees-with-color/bee-B2DF.svg\" width=\"200\">\n                    <p><span class=\"redText\">Bad choice,</span> the bee was friendly.<br>Your bonus pay is unchanged, and remains at $0.40.</p>\n            ","response":0,"trial_type":"html-button-response","trial_index":80,"time_elapsed":889706,"internal_node_id":"0.0-4.0-1.36","subject_id":"6149afac2b138d7bf8fb8948","study_id":"6197b3f67c2b5cd3b6d9596a","session_id":"619be3219d93c7a5c381f473","condition":"full-information","relevant_dimensions":["antennae","legs"],"bee_group":{"antennae":"A","wings":"X","pattern":"X","legs":"F"},"bonus":0.4200000000000007},{"rt":1961.8000000715256,"stimulus":"bees-with-color/bee-B2DM.svg","response":0,"trial_type":"image-button-response","trial_index":81,"time_elapsed":891671,"internal_node_id":"0.0-4.0-0.37","subject_id":"6149afac2b138d7bf8fb8948","study_id":"6197b3f67c2b5cd3b6d9596a","session_id":"619be3219d93c7a5c381f473","condition":"full-information","relevant_dimensions":["antennae","legs"],"bee_group":{"antennae":"A","wings":"X","pattern":"X","legs":"F"},"action":"harvest","summary":"good-harvest","bonus":0.4200000000000007},{"rt":950.3999999761581,"stimulus":"\n                    <p><b>Action: <em>harvest</em></b></p>\n                    <p>This is the bee that you just saw.</p>\n                    <img src=\"bees-with-color/bee-B2DM.svg\" width=\"200\">\n                    <p><span class=\"greenText\"><b>Successful harvest!</b></span><br>Your pay has increased by $0.02. Your bonus pay is now $0.42.</p>\n            ","response":0,"trial_type":"html-button-response","trial_index":82,"time_elapsed":892623,"internal_node_id":"0.0-4.0-1.37","subject_id":"6149afac2b138d7bf8fb8948","study_id":"6197b3f67c2b5cd3b6d9596a","session_id":"619be3219d93c7a5c381f473","condition":"full-information","relevant_dimensions":["antennae","legs"],"bee_group":{"antennae":"A","wings":"X","pattern":"X","legs":"F"},"bonus":0.4200000000000007},{"rt":14925.899999976158,"stimulus":"bees-with-color/bee-A1SM.svg","response":0,"trial_type":"image-button-response","trial_index":83,"time_elapsed":907551,"internal_node_id":"0.0-4.0-0.38","subject_id":"6149afac2b138d7bf8fb8948","study_id":"6197b3f67c2b5cd3b6d9596a","session_id":"619be3219d93c7a5c381f473","condition":"full-information","relevant_dimensions":["antennae","legs"],"bee_group":{"antennae":"A","wings":"X","pattern":"X","legs":"F"},"action":"harvest","summary":"good-harvest","bonus":0.4200000000000007},{"rt":951.3999999761581,"stimulus":"\n                    <p><b>Action: <em>harvest</em></b></p>\n                    <p>This is the bee that you just saw.</p>\n                    <img src=\"bees-with-color/bee-A1SM.svg\" width=\"200\">\n                    <p><span class=\"greenText\"><b>Successful harvest!</b></span><br>Your pay has increased by $0.02. Your bonus pay is now $0.44.</p>\n            ","response":0,"trial_type":"html-button-response","trial_index":84,"time_elapsed":908504,"internal_node_id":"0.0-4.0-1.38","subject_id":"6149afac2b138d7bf8fb8948","study_id":"6197b3f67c2b5cd3b6d9596a","session_id":"619be3219d93c7a5c381f473","condition":"full-information","relevant_dimensions":["antennae","legs"],"bee_group":{"antennae":"A","wings":"X","pattern":"X","legs":"F"},"bonus":0.4200000000000007},{"rt":2428.2000000476837,"stimulus":"bees-with-color/bee-A2SM.svg","response":0,"trial_type":"image-button-response","trial_index":85,"time_elapsed":910935,"internal_node_id":"0.0-4.0-0.39","subject_id":"6149afac2b138d7bf8fb8948","study_id":"6197b3f67c2b5cd3b6d9596a","session_id":"619be3219d93c7a5c381f473","condition":"full-information","relevant_dimensions":["antennae","legs"],"bee_group":{"antennae":"A","wings":"X","pattern":"X","legs":"F"},"action":"harvest","summary":"good-harvest","bonus":0.4200000000000007},{"rt":1245.8999999761581,"stimulus":"\n                    <p><b>Action: <em>harvest</em></b></p>\n                    <p>This is the bee that you just saw.</p>\n                    <img src=\"bees-with-color/bee-A2SM.svg\" width=\"200\">\n                    <p><span class=\"greenText\"><b>Successful harvest!</b></span><br>Your pay has increased by $0.02. Your bonus pay is now $0.46.</p>\n            ","response":0,"trial_type":"html-button-response","trial_index":86,"time_elapsed":912183,"internal_node_id":"0.0-4.0-1.39","subject_id":"6149afac2b138d7bf8fb8948","study_id":"6197b3f67c2b5cd3b6d9596a","session_id":"619be3219d93c7a5c381f473","condition":"full-information","relevant_dimensions":["antennae","legs"],"bee_group":{"antennae":"A","wings":"X","pattern":"X","legs":"F"},"bonus":0.4200000000000007},{"rt":4902.100000023842,"stimulus":"bees-with-color/bee-A2DF.svg","response":1,"trial_type":"image-button-response","trial_index":87,"time_elapsed":917086,"internal_node_id":"0.0-4.0-0.40","subject_id":"6149afac2b138d7bf8fb8948","study_id":"6197b3f67c2b5cd3b6d9596a","session_id":"619be3219d93c7a5c381f473","condition":"full-information","relevant_dimensions":["antennae","legs"],"bee_group":{"antennae":"A","wings":"X","pattern":"X","legs":"F"},"action":"avoid","summary":"good-avoid","bonus":0.4200000000000007},{"rt":14253.600000023842,"stimulus":"\n                    <p><b>Action: <em>avoid</em></b></p>\n                    <p>This is the bee that you just saw.</p>\n                    <img src=\"bees-with-color/bee-A2DF.svg\" width=\"200\">\n                    <p><span class=\"greenText\">Good choice!</span>  This bee would have stung you.<br>Your bonus pay is unchanged, and remains at $0.46.</p>\n            ","response":0,"trial_type":"html-button-response","trial_index":88,"time_elapsed":931342,"internal_node_id":"0.0-4.0-1.40","subject_id":"6149afac2b138d7bf8fb8948","study_id":"6197b3f67c2b5cd3b6d9596a","session_id":"619be3219d93c7a5c381f473","condition":"full-information","relevant_dimensions":["antennae","legs"],"bee_group":{"antennae":"A","wings":"X","pattern":"X","legs":"F"},"bonus":0.4200000000000007},{"rt":2534.399999976158,"stimulus":"bees-with-color/bee-B1SM.svg","response":0,"trial_type":"image-button-response","trial_index":89,"time_elapsed":933878,"internal_node_id":"0.0-4.0-0.41","subject_id":"6149afac2b138d7bf8fb8948","study_id":"6197b3f67c2b5cd3b6d9596a","session_id":"619be3219d93c7a5c381f473","condition":"full-information","relevant_dimensions":["antennae","legs"],"bee_group":{"antennae":"A","wings":"X","pattern":"X","legs":"F"},"action":"harvest","summary":"good-harvest","bonus":0.4200000000000007},{"rt":855.2000000476837,"stimulus":"\n                    <p><b>Action: <em>harvest</em></b></p>\n                    <p>This is the bee that you just saw.</p>\n                    <img src=\"bees-with-color/bee-B1SM.svg\" width=\"200\">\n                    <p><span class=\"greenText\"><b>Successful harvest!</b></span><br>Your pay has increased by $0.02. Your bonus pay is now $0.48.</p>\n            ","response":0,"trial_type":"html-button-response","trial_index":90,"time_elapsed":934735,"internal_node_id":"0.0-4.0-1.41","subject_id":"6149afac2b138d7bf8fb8948","study_id":"6197b3f67c2b5cd3b6d9596a","session_id":"619be3219d93c7a5c381f473","condition":"full-information","relevant_dimensions":["antennae","legs"],"bee_group":{"antennae":"A","wings":"X","pattern":"X","legs":"F"},"bonus":0.4200000000000007},{"rt":4346,"stimulus":"bees-with-color/bee-B1DM.svg","response":1,"trial_type":"image-button-response","trial_index":91,"time_elapsed":939082,"internal_node_id":"0.0-4.0-0.42","subject_id":"6149afac2b138d7bf8fb8948","study_id":"6197b3f67c2b5cd3b6d9596a","session_id":"619be3219d93c7a5c381f473","condition":"full-information","relevant_dimensions":["antennae","legs"],"bee_group":{"antennae":"A","wings":"X","pattern":"X","legs":"F"},"action":"avoid","summary":"bad-avoid","bonus":0.4200000000000007},{"rt":994.2000000476837,"stimulus":"\n                    <p><b>Action: <em>avoid</em></b></p>\n                    <p>This is the bee that you just saw.</p>\n                    <img src=\"bees-with-color/bee-B1DM.svg\" width=\"200\">\n                    <p><span class=\"redText\">Bad choice,</span> the bee was friendly.<br>Your bonus pay is unchanged, and remains at $0.48.</p>\n            ","response":0,"trial_type":"html-button-response","trial_index":92,"time_elapsed":940078,"internal_node_id":"0.0-4.0-1.42","subject_id":"6149afac2b138d7bf8fb8948","study_id":"6197b3f67c2b5cd3b6d9596a","session_id":"619be3219d93c7a5c381f473","condition":"full-information","relevant_dimensions":["antennae","legs"],"bee_group":{"antennae":"A","wings":"X","pattern":"X","legs":"F"},"bonus":0.4200000000000007},{"rt":1254.7999999523163,"stimulus":"bees-with-color/bee-A2DM.svg","response":0,"trial_type":"image-button-response","trial_index":93,"time_elapsed":941335,"internal_node_id":"0.0-4.0-0.43","subject_id":"6149afac2b138d7bf8fb8948","study_id":"6197b3f67c2b5cd3b6d9596a","session_id":"619be3219d93c7a5c381f473","condition":"full-information","relevant_dimensions":["antennae","legs"],"bee_group":{"antennae":"A","wings":"X","pattern":"X","legs":"F"},"action":"harvest","summary":"good-harvest","bonus":0.4200000000000007},{"rt":773.6000000238419,"stimulus":"\n                    <p><b>Action: <em>harvest</em></b></p>\n                    <p>This is the bee that you just saw.</p>\n                    <img src=\"bees-with-color/bee-A2DM.svg\" width=\"200\">\n                    <p><span class=\"greenText\"><b>Successful harvest!</b></span><br>Your pay has increased by $0.02. Your bonus pay is now $0.50.</p>\n            ","response":0,"trial_type":"html-button-response","trial_index":94,"time_elapsed":942110,"internal_node_id":"0.0-4.0-1.43","subject_id":"6149afac2b138d7bf8fb8948","study_id":"6197b3f67c2b5cd3b6d9596a","session_id":"619be3219d93c7a5c381f473","condition":"full-information","relevant_dimensions":["antennae","legs"],"bee_group":{"antennae":"A","wings":"X","pattern":"X","legs":"F"},"bonus":0.4200000000000007},{"rt":1487.2000000476837,"stimulus":"bees-with-color/bee-B1SF.svg","response":1,"trial_type":"image-button-response","trial_index":95,"time_elapsed":943598,"internal_node_id":"0.0-4.0-0.44","subject_id":"6149afac2b138d7bf8fb8948","study_id":"6197b3f67c2b5cd3b6d9596a","session_id":"619be3219d93c7a5c381f473","condition":"full-information","relevant_dimensions":["antennae","legs"],"bee_group":{"antennae":"A","wings":"X","pattern":"X","legs":"F"},"action":"avoid","summary":"bad-avoid","bonus":0.4200000000000007},{"rt":1174.6000000238419,"stimulus":"\n                    <p><b>Action: <em>avoid</em></b></p>\n                    <p>This is the bee that you just saw.</p>\n                    <img src=\"bees-with-color/bee-B1SF.svg\" width=\"200\">\n                    <p><span class=\"redText\">Bad choice,</span> the bee was friendly.<br>Your bonus pay is unchanged, and remains at $0.50.</p>\n            ","response":0,"trial_type":"html-button-response","trial_index":96,"time_elapsed":944775,"internal_node_id":"0.0-4.0-1.44","subject_id":"6149afac2b138d7bf8fb8948","study_id":"6197b3f67c2b5cd3b6d9596a","session_id":"619be3219d93c7a5c381f473","condition":"full-information","relevant_dimensions":["antennae","legs"],"bee_group":{"antennae":"A","wings":"X","pattern":"X","legs":"F"},"bonus":0.4200000000000007},{"rt":2302.2999999523163,"stimulus":"bees-with-color/bee-B1DF.svg","response":0,"trial_type":"image-button-response","trial_index":97,"time_elapsed":947078,"internal_node_id":"0.0-4.0-0.45","subject_id":"6149afac2b138d7bf8fb8948","study_id":"6197b3f67c2b5cd3b6d9596a","session_id":"619be3219d93c7a5c381f473","condition":"full-information","relevant_dimensions":["antennae","legs"],"bee_group":{"antennae":"A","wings":"X","pattern":"X","legs":"F"},"action":"harvest","summary":"good-harvest","bonus":0.4200000000000007},{"rt":20806.600000023842,"stimulus":"\n                    <p><b>Action: <em>harvest</em></b></p>\n                    <p>This is the bee that you just saw.</p>\n                    <img src=\"bees-with-color/bee-B1DF.svg\" width=\"200\">\n                    <p><span class=\"greenText\"><b>Successful harvest!</b></span><br>Your pay has increased by $0.02. Your bonus pay is now $0.52.</p>\n            ","response":0,"trial_type":"html-button-response","trial_index":98,"time_elapsed":967887,"internal_node_id":"0.0-4.0-1.45","subject_id":"6149afac2b138d7bf8fb8948","study_id":"6197b3f67c2b5cd3b6d9596a","session_id":"619be3219d93c7a5c381f473","condition":"full-information","relevant_dimensions":["antennae","legs"],"bee_group":{"antennae":"A","wings":"X","pattern":"X","legs":"F"},"bonus":0.4200000000000007},{"rt":2897.7999999523163,"stimulus":"bees-with-color/bee-B2SF.svg","response":1,"trial_type":"image-button-response","trial_index":99,"time_elapsed":970786,"internal_node_id":"0.0-4.0-0.46","subject_id":"6149afac2b138d7bf8fb8948","study_id":"6197b3f67c2b5cd3b6d9596a","session_id":"619be3219d93c7a5c381f473","condition":"full-information","relevant_dimensions":["antennae","legs"],"bee_group":{"antennae":"A","wings":"X","pattern":"X","legs":"F"},"action":"avoid","summary":"bad-avoid","bonus":0.4200000000000007},{"rt":818.2999999523163,"stimulus":"\n                    <p><b>Action: <em>avoid</em></b></p>\n                    <p>This is the bee that you just saw.</p>\n                    <img src=\"bees-with-color/bee-B2SF.svg\" width=\"200\">\n                    <p><span class=\"redText\">Bad choice,</span> the bee was friendly.<br>Your bonus pay is unchanged, and remains at $0.52.</p>\n            ","response":0,"trial_type":"html-button-response","trial_index":100,"time_elapsed":971606,"internal_node_id":"0.0-4.0-1.46","subject_id":"6149afac2b138d7bf8fb8948","study_id":"6197b3f67c2b5cd3b6d9596a","session_id":"619be3219d93c7a5c381f473","condition":"full-information","relevant_dimensions":["antennae","legs"],"bee_group":{"antennae":"A","wings":"X","pattern":"X","legs":"F"},"bonus":0.4200000000000007},{"rt":1454.8999999761581,"stimulus":"bees-with-color/bee-A1SF.svg","response":0,"trial_type":"image-button-response","trial_index":101,"time_elapsed":973063,"internal_node_id":"0.0-4.0-0.47","subject_id":"6149afac2b138d7bf8fb8948","study_id":"6197b3f67c2b5cd3b6d9596a","session_id":"619be3219d93c7a5c381f473","condition":"full-information","relevant_dimensions":["antennae","legs"],"bee_group":{"antennae":"A","wings":"X","pattern":"X","legs":"F"},"action":"harvest","summary":"bad-harvest","bonus":0.4200000000000007},{"rt":1701.8999999761581,"stimulus":"\n                    <p><b>Action: <em>harvest</em></b></p>\n                    <p>This is the bee that you just saw.</p>\n                    <img src=\"bees-with-color/bee-A1SF.svg\" width=\"200\">\n                    <p><span class=\"redText\">Bad choice, the bee was angry.</span><br><b>You have been stung!</b><br>Your pay has been decreased by $0.10. Your bonus pay is now $0.42.</p>\n            ","response":0,"trial_type":"html-button-response","trial_index":102,"time_elapsed":974767,"internal_node_id":"0.0-4.0-1.47","subject_id":"6149afac2b138d7bf8fb8948","study_id":"6197b3f67c2b5cd3b6d9596a","session_id":"619be3219d93c7a5c381f473","condition":"full-information","relevant_dimensions":["antennae","legs"],"bee_group":{"antennae":"A","wings":"X","pattern":"X","legs":"F"},"bonus":0.4200000000000007},{"rt":1709.5,"stimulus":"bees-with-color/bee-A2DM.svg","response":0,"trial_type":"image-button-response","trial_index":103,"time_elapsed":976478,"internal_node_id":"0.0-4.0-0.48","subject_id":"6149afac2b138d7bf8fb8948","study_id":"6197b3f67c2b5cd3b6d9596a","session_id":"619be3219d93c7a5c381f473","condition":"full-information","relevant_dimensions":["antennae","legs"],"bee_group":{"antennae":"A","wings":"X","pattern":"X","legs":"F"},"action":"harvest","summary":"good-harvest","bonus":0.4200000000000007},{"rt":855.2000000476837,"stimulus":"\n                    <p><b>Action: <em>harvest</em></b></p>\n                    <p>This is the bee that you just saw.</p>\n                    <img src=\"bees-with-color/bee-A2DM.svg\" width=\"200\">\n                    <p><span class=\"greenText\"><b>Successful harvest!</b></span><br>Your pay has increased by $0.02. Your bonus pay is now $0.44.</p>\n            ","response":0,"trial_type":"html-button-response","trial_index":104,"time_elapsed":977335,"internal_node_id":"0.0-4.0-1.48","subject_id":"6149afac2b138d7bf8fb8948","study_id":"6197b3f67c2b5cd3b6d9596a","session_id":"619be3219d93c7a5c381f473","condition":"full-information","relevant_dimensions":["antennae","legs"],"bee_group":{"antennae":"A","wings":"X","pattern":"X","legs":"F"},"bonus":0.4200000000000007},{"rt":2398.4000000953674,"stimulus":"bees-with-color/bee-A1SF.svg","response":1,"trial_type":"image-button-response","trial_index":105,"time_elapsed":979735,"internal_node_id":"0.0-4.0-0.49","subject_id":"6149afac2b138d7bf8fb8948","study_id":"6197b3f67c2b5cd3b6d9596a","session_id":"619be3219d93c7a5c381f473","condition":"full-information","relevant_dimensions":["antennae","legs"],"bee_group":{"antennae":"A","wings":"X","pattern":"X","legs":"F"},"action":"avoid","summary":"good-avoid","bonus":0.4200000000000007},{"rt":797.3999999761581,"stimulus":"\n                    <p><b>Action: <em>avoid</em></b></p>\n                    <p>This is the bee that you just saw.</p>\n                    <img src=\"bees-with-color/bee-A1SF.svg\" width=\"200\">\n                    <p><span class=\"greenText\">Good choice!</span>  This bee would have stung you.<br>Your bonus pay is unchanged, and remains at $0.44.</p>\n            ","response":0,"trial_type":"html-button-response","trial_index":106,"time_elapsed":980534,"internal_node_id":"0.0-4.0-1.49","subject_id":"6149afac2b138d7bf8fb8948","study_id":"6197b3f67c2b5cd3b6d9596a","session_id":"619be3219d93c7a5c381f473","condition":"full-information","relevant_dimensions":["antennae","legs"],"bee_group":{"antennae":"A","wings":"X","pattern":"X","legs":"F"},"bonus":0.4200000000000007},{"rt":2253.6999999284744,"stimulus":"bees-with-color/bee-A1DM.svg","response":0,"trial_type":"image-button-response","trial_index":107,"time_elapsed":982790,"internal_node_id":"0.0-4.0-0.50","subject_id":"6149afac2b138d7bf8fb8948","study_id":"6197b3f67c2b5cd3b6d9596a","session_id":"619be3219d93c7a5c381f473","condition":"full-information","relevant_dimensions":["antennae","legs"],"bee_group":{"antennae":"A","wings":"X","pattern":"X","legs":"F"},"action":"harvest","summary":"good-harvest","bonus":0.4200000000000007},{"rt":741.3000000715256,"stimulus":"\n                    <p><b>Action: <em>harvest</em></b></p>\n                    <p>This is the bee that you just saw.</p>\n                    <img src=\"bees-with-color/bee-A1DM.svg\" width=\"200\">\n                    <p><span class=\"greenText\"><b>Successful harvest!</b></span><br>Your pay has increased by $0.02. Your bonus pay is now $0.46.</p>\n            ","response":0,"trial_type":"html-button-response","trial_index":108,"time_elapsed":983534,"internal_node_id":"0.0-4.0-1.50","subject_id":"6149afac2b138d7bf8fb8948","study_id":"6197b3f67c2b5cd3b6d9596a","session_id":"619be3219d93c7a5c381f473","condition":"full-information","relevant_dimensions":["antennae","legs"],"bee_group":{"antennae":"A","wings":"X","pattern":"X","legs":"F"},"bonus":0.4200000000000007},{"rt":2510.8000000715256,"stimulus":"bees-with-color/bee-B2DM.svg","response":0,"trial_type":"image-button-response","trial_index":109,"time_elapsed":986046,"internal_node_id":"0.0-4.0-0.51","subject_id":"6149afac2b138d7bf8fb8948","study_id":"6197b3f67c2b5cd3b6d9596a","session_id":"619be3219d93c7a5c381f473","condition":"full-information","relevant_dimensions":["antennae","legs"],"bee_group":{"antennae":"A","wings":"X","pattern":"X","legs":"F"},"action":"harvest","summary":"good-harvest","bonus":0.4200000000000007},{"rt":1182.1000000238419,"stimulus":"\n                    <p><b>Action: <em>harvest</em></b></p>\n                    <p>This is the bee that you just saw.</p>\n                    <img src=\"bees-with-color/bee-B2DM.svg\" width=\"200\">\n                    <p><span class=\"greenText\"><b>Successful harvest!</b></span><br>Your pay has increased by $0.02. Your bonus pay is now $0.48.</p>\n            ","response":0,"trial_type":"html-button-response","trial_index":110,"time_elapsed":987230,"internal_node_id":"0.0-4.0-1.51","subject_id":"6149afac2b138d7bf8fb8948","study_id":"6197b3f67c2b5cd3b6d9596a","session_id":"619be3219d93c7a5c381f473","condition":"full-information","relevant_dimensions":["antennae","legs"],"bee_group":{"antennae":"A","wings":"X","pattern":"X","legs":"F"},"bonus":0.4200000000000007},{"rt":3334.3000000715256,"stimulus":"bees-with-color/bee-B2SM.svg","response":0,"trial_type":"image-button-response","trial_index":111,"time_elapsed":990567,"internal_node_id":"0.0-4.0-0.52","subject_id":"6149afac2b138d7bf8fb8948","study_id":"6197b3f67c2b5cd3b6d9596a","session_id":"619be3219d93c7a5c381f473","condition":"full-information","relevant_dimensions":["antennae","legs"],"bee_group":{"antennae":"A","wings":"X","pattern":"X","legs":"F"},"action":"harvest","summary":"good-harvest","bonus":0.4200000000000007},{"rt":759.1000000238419,"stimulus":"\n                    <p><b>Action: <em>harvest</em></b></p>\n                    <p>This is the bee that you just saw.</p>\n                    <img src=\"bees-with-color/bee-B2SM.svg\" width=\"200\">\n                    <p><span class=\"greenText\"><b>Successful harvest!</b></span><br>Your pay has increased by $0.02. Your bonus pay is now $0.50.</p>\n            ","response":0,"trial_type":"html-button-response","trial_index":112,"time_elapsed":991328,"internal_node_id":"0.0-4.0-1.52","subject_id":"6149afac2b138d7bf8fb8948","study_id":"6197b3f67c2b5cd3b6d9596a","session_id":"619be3219d93c7a5c381f473","condition":"full-information","relevant_dimensions":["antennae","legs"],"bee_group":{"antennae":"A","wings":"X","pattern":"X","legs":"F"},"bonus":0.4200000000000007},{"rt":1413,"stimulus":"bees-with-color/bee-B1DF.svg","response":1,"trial_type":"image-button-response","trial_index":113,"time_elapsed":992743,"internal_node_id":"0.0-4.0-0.53","subject_id":"6149afac2b138d7bf8fb8948","study_id":"6197b3f67c2b5cd3b6d9596a","session_id":"619be3219d93c7a5c381f473","condition":"full-information","relevant_dimensions":["antennae","legs"],"bee_group":{"antennae":"A","wings":"X","pattern":"X","legs":"F"},"action":"avoid","summary":"bad-avoid","bonus":0.4200000000000007},{"rt":958,"stimulus":"\n                    <p><b>Action: <em>avoid</em></b></p>\n                    <p>This is the bee that you just saw.</p>\n                    <img src=\"bees-with-color/bee-B1DF.svg\" width=\"200\">\n                    <p><span class=\"redText\">Bad choice,</span> the bee was friendly.<br>Your bonus pay is unchanged, and remains at $0.50.</p>\n            ","response":0,"trial_type":"html-button-response","trial_index":114,"time_elapsed":993703,"internal_node_id":"0.0-4.0-1.53","subject_id":"6149afac2b138d7bf8fb8948","study_id":"6197b3f67c2b5cd3b6d9596a","session_id":"619be3219d93c7a5c381f473","condition":"full-information","relevant_dimensions":["antennae","legs"],"bee_group":{"antennae":"A","wings":"X","pattern":"X","legs":"F"},"bonus":0.4200000000000007},{"rt":1318.3000000715256,"stimulus":"bees-with-color/bee-A2DF.svg","response":0,"trial_type":"image-button-response","trial_index":115,"time_elapsed":995023,"internal_node_id":"0.0-4.0-0.54","subject_id":"6149afac2b138d7bf8fb8948","study_id":"6197b3f67c2b5cd3b6d9596a","session_id":"619be3219d93c7a5c381f473","condition":"full-information","relevant_dimensions":["antennae","legs"],"bee_group":{"antennae":"A","wings":"X","pattern":"X","legs":"F"},"action":"harvest","summary":"bad-harvest","bonus":0.4200000000000007},{"rt":2289.100000023842,"stimulus":"\n                    <p><b>Action: <em>harvest</em></b></p>\n                    <p>This is the bee that you just saw.</p>\n                    <img src=\"bees-with-color/bee-A2DF.svg\" width=\"200\">\n                    <p><span class=\"redText\">Bad choice, the bee was angry.</span><br><b>You have been stung!</b><br>Your pay has been decreased by $0.10. Your bonus pay is now $0.40.</p>\n            ","response":0,"trial_type":"html-button-response","trial_index":116,"time_elapsed":997315,"internal_node_id":"0.0-4.0-1.54","subject_id":"6149afac2b138d7bf8fb8948","study_id":"6197b3f67c2b5cd3b6d9596a","session_id":"619be3219d93c7a5c381f473","condition":"full-information","relevant_dimensions":["antennae","legs"],"bee_group":{"antennae":"A","wings":"X","pattern":"X","legs":"F"},"bonus":0.4200000000000007},{"rt":2173.5999999046326,"stimulus":"bees-with-color/bee-A1SM.svg","response":0,"trial_type":"image-button-response","trial_index":117,"time_elapsed":999490,"internal_node_id":"0.0-4.0-0.55","subject_id":"6149afac2b138d7bf8fb8948","study_id":"6197b3f67c2b5cd3b6d9596a","session_id":"619be3219d93c7a5c381f473","condition":"full-information","relevant_dimensions":["antennae","legs"],"bee_group":{"antennae":"A","wings":"X","pattern":"X","legs":"F"},"action":"harvest","summary":"good-harvest","bonus":0.4200000000000007},{"rt":800.7999999523163,"stimulus":"\n                    <p><b>Action: <em>harvest</em></b></p>\n                    <p>This is the bee that you just saw.</p>\n                    <img src=\"bees-with-color/bee-A1SM.svg\" width=\"200\">\n                    <p><span class=\"greenText\"><b>Successful harvest!</b></span><br>Your pay has increased by $0.02. Your bonus pay is now $0.42.</p>\n            ","response":0,"trial_type":"html-button-response","trial_index":118,"time_elapsed":1000294,"internal_node_id":"0.0-4.0-1.55","subject_id":"6149afac2b138d7bf8fb8948","study_id":"6197b3f67c2b5cd3b6d9596a","session_id":"619be3219d93c7a5c381f473","condition":"full-information","relevant_dimensions":["antennae","legs"],"bee_group":{"antennae":"A","wings":"X","pattern":"X","legs":"F"},"bonus":0.4200000000000007},{"rt":2822.3000000715256,"stimulus":"bees-with-color/bee-B1SF.svg","response":0,"trial_type":"image-button-response","trial_index":119,"time_elapsed":1003119,"internal_node_id":"0.0-4.0-0.56","subject_id":"6149afac2b138d7bf8fb8948","study_id":"6197b3f67c2b5cd3b6d9596a","session_id":"619be3219d93c7a5c381f473","condition":"full-information","relevant_dimensions":["antennae","legs"],"bee_group":{"antennae":"A","wings":"X","pattern":"X","legs":"F"},"action":"harvest","summary":"good-harvest","bonus":0.4200000000000007},{"rt":734.3999999761581,"stimulus":"\n                    <p><b>Action: <em>harvest</em></b></p>\n                    <p>This is the bee that you just saw.</p>\n                    <img src=\"bees-with-color/bee-B1SF.svg\" width=\"200\">\n                    <p><span class=\"greenText\"><b>Successful harvest!</b></span><br>Your pay has increased by $0.02. Your bonus pay is now $0.44.</p>\n            ","response":0,"trial_type":"html-button-response","trial_index":120,"time_elapsed":1003855,"internal_node_id":"0.0-4.0-1.56","subject_id":"6149afac2b138d7bf8fb8948","study_id":"6197b3f67c2b5cd3b6d9596a","session_id":"619be3219d93c7a5c381f473","condition":"full-information","relevant_dimensions":["antennae","legs"],"bee_group":{"antennae":"A","wings":"X","pattern":"X","legs":"F"},"bonus":0.4200000000000007},{"rt":1518.8999999761581,"stimulus":"bees-with-color/bee-B2SF.svg","response":1,"trial_type":"image-button-response","trial_index":121,"time_elapsed":1005375,"internal_node_id":"0.0-4.0-0.57","subject_id":"6149afac2b138d7bf8fb8948","study_id":"6197b3f67c2b5cd3b6d9596a","session_id":"619be3219d93c7a5c381f473","condition":"full-information","relevant_dimensions":["antennae","legs"],"bee_group":{"antennae":"A","wings":"X","pattern":"X","legs":"F"},"action":"avoid","summary":"bad-avoid","bonus":0.4200000000000007},{"rt":1046.1000000238419,"stimulus":"\n                    <p><b>Action: <em>avoid</em></b></p>\n                    <p>This is the bee that you just saw.</p>\n                    <img src=\"bees-with-color/bee-B2SF.svg\" width=\"200\">\n                    <p><span class=\"redText\">Bad choice,</span> the bee was friendly.<br>Your bonus pay is unchanged, and remains at $0.44.</p>\n            ","response":0,"trial_type":"html-button-response","trial_index":122,"time_elapsed":1006423,"internal_node_id":"0.0-4.0-1.57","subject_id":"6149afac2b138d7bf8fb8948","study_id":"6197b3f67c2b5cd3b6d9596a","session_id":"619be3219d93c7a5c381f473","condition":"full-information","relevant_dimensions":["antennae","legs"],"bee_group":{"antennae":"A","wings":"X","pattern":"X","legs":"F"},"bonus":0.4200000000000007},{"rt":3301,"stimulus":"bees-with-color/bee-B1DM.svg","response":1,"trial_type":"image-button-response","trial_index":123,"time_elapsed":1009726,"internal_node_id":"0.0-4.0-0.58","subject_id":"6149afac2b138d7bf8fb8948","study_id":"6197b3f67c2b5cd3b6d9596a","session_id":"619be3219d93c7a5c381f473","condition":"full-information","relevant_dimensions":["antennae","legs"],"bee_group":{"antennae":"A","wings":"X","pattern":"X","legs":"F"},"action":"avoid","summary":"bad-avoid","bonus":0.4200000000000007},{"rt":811.3000000715256,"stimulus":"\n                    <p><b>Action: <em>avoid</em></b></p>\n                    <p>This is the bee that you just saw.</p>\n                    <img src=\"bees-with-color/bee-B1DM.svg\" width=\"200\">\n                    <p><span class=\"redText\">Bad choice,</span> the bee was friendly.<br>Your bonus pay is unchanged, and remains at $0.44.</p>\n            ","response":0,"trial_type":"html-button-response","trial_index":124,"time_elapsed":1010539,"internal_node_id":"0.0-4.0-1.58","subject_id":"6149afac2b138d7bf8fb8948","study_id":"6197b3f67c2b5cd3b6d9596a","session_id":"619be3219d93c7a5c381f473","condition":"full-information","relevant_dimensions":["antennae","legs"],"bee_group":{"antennae":"A","wings":"X","pattern":"X","legs":"F"},"bonus":0.4200000000000007},{"rt":2970.1999999284744,"stimulus":"bees-with-color/bee-B2DF.svg","response":1,"trial_type":"image-button-response","trial_index":125,"time_elapsed":1013511,"internal_node_id":"0.0-4.0-0.59","subject_id":"6149afac2b138d7bf8fb8948","study_id":"6197b3f67c2b5cd3b6d9596a","session_id":"619be3219d93c7a5c381f473","condition":"full-information","relevant_dimensions":["antennae","legs"],"bee_group":{"antennae":"A","wings":"X","pattern":"X","legs":"F"},"action":"avoid","summary":"bad-avoid","bonus":0.4200000000000007},{"rt":1454.2000000476837,"stimulus":"\n                    <p><b>Action: <em>avoid</em></b></p>\n                    <p>This is the bee that you just saw.</p>\n                    <img src=\"bees-with-color/bee-B2DF.svg\" width=\"200\">\n                    <p><span class=\"redText\">Bad choice,</span> the bee was friendly.<br>Your bonus pay is unchanged, and remains at $0.44.</p>\n            ","response":0,"trial_type":"html-button-response","trial_index":126,"time_elapsed":1014966,"internal_node_id":"0.0-4.0-1.59","subject_id":"6149afac2b138d7bf8fb8948","study_id":"6197b3f67c2b5cd3b6d9596a","session_id":"619be3219d93c7a5c381f473","condition":"full-information","relevant_dimensions":["antennae","legs"],"bee_group":{"antennae":"A","wings":"X","pattern":"X","legs":"F"},"bonus":0.4200000000000007},{"rt":3062.399999976158,"stimulus":"bees-with-color/bee-A2SM.svg","response":0,"trial_type":"image-button-response","trial_index":127,"time_elapsed":1018031,"internal_node_id":"0.0-4.0-0.60","subject_id":"6149afac2b138d7bf8fb8948","study_id":"6197b3f67c2b5cd3b6d9596a","session_id":"619be3219d93c7a5c381f473","condition":"full-information","relevant_dimensions":["antennae","legs"],"bee_group":{"antennae":"A","wings":"X","pattern":"X","legs":"F"},"action":"harvest","summary":"good-harvest","bonus":0.4200000000000007},{"rt":758.5,"stimulus":"\n                    <p><b>Action: <em>harvest</em></b></p>\n                    <p>This is the bee that you just saw.</p>\n                    <img src=\"bees-with-color/bee-A2SM.svg\" width=\"200\">\n                    <p><span class=\"greenText\"><b>Successful harvest!</b></span><br>Your pay has increased by $0.02. Your bonus pay is now $0.46.</p>\n            ","response":0,"trial_type":"html-button-response","trial_index":128,"time_elapsed":1018791,"internal_node_id":"0.0-4.0-1.60","subject_id":"6149afac2b138d7bf8fb8948","study_id":"6197b3f67c2b5cd3b6d9596a","session_id":"619be3219d93c7a5c381f473","condition":"full-information","relevant_dimensions":["antennae","legs"],"bee_group":{"antennae":"A","wings":"X","pattern":"X","legs":"F"},"bonus":0.4200000000000007},{"rt":1861.9000000953674,"stimulus":"bees-with-color/bee-A2SF.svg","response":0,"trial_type":"image-button-response","trial_index":129,"time_elapsed":1020655,"internal_node_id":"0.0-4.0-0.61","subject_id":"6149afac2b138d7bf8fb8948","study_id":"6197b3f67c2b5cd3b6d9596a","session_id":"619be3219d93c7a5c381f473","condition":"full-information","relevant_dimensions":["antennae","legs"],"bee_group":{"antennae":"A","wings":"X","pattern":"X","legs":"F"},"action":"harvest","summary":"bad-harvest","bonus":0.4200000000000007},{"rt":1166.2000000476837,"stimulus":"\n                    <p><b>Action: <em>harvest</em></b></p>\n                    <p>This is the bee that you just saw.</p>\n                    <img src=\"bees-with-color/bee-A2SF.svg\" width=\"200\">\n                    <p><span class=\"redText\">Bad choice, the bee was angry.</span><br><b>You have been stung!</b><br>Your pay has been decreased by $0.10. Your bonus pay is now $0.36.</p>\n            ","response":0,"trial_type":"html-button-response","trial_index":130,"time_elapsed":1021823,"internal_node_id":"0.0-4.0-1.61","subject_id":"6149afac2b138d7bf8fb8948","study_id":"6197b3f67c2b5cd3b6d9596a","session_id":"619be3219d93c7a5c381f473","condition":"full-information","relevant_dimensions":["antennae","legs"],"bee_group":{"antennae":"A","wings":"X","pattern":"X","legs":"F"},"bonus":0.4200000000000007},{"rt":5038.200000047684,"stimulus":"bees-with-color/bee-B1SM.svg","response":1,"trial_type":"image-button-response","trial_index":131,"time_elapsed":1026862,"internal_node_id":"0.0-4.0-0.62","subject_id":"6149afac2b138d7bf8fb8948","study_id":"6197b3f67c2b5cd3b6d9596a","session_id":"619be3219d93c7a5c381f473","condition":"full-information","relevant_dimensions":["antennae","legs"],"bee_group":{"antennae":"A","wings":"X","pattern":"X","legs":"F"},"action":"avoid","summary":"bad-avoid","bonus":0.4200000000000007},{"rt":1155,"stimulus":"\n                    <p><b>Action: <em>avoid</em></b></p>\n                    <p>This is the bee that you just saw.</p>\n                    <img src=\"bees-with-color/bee-B1SM.svg\" width=\"200\">\n                    <p><span class=\"redText\">Bad choice,</span> the bee was friendly.<br>Your bonus pay is unchanged, and remains at $0.36.</p>\n            ","response":0,"trial_type":"html-button-response","trial_index":132,"time_elapsed":1028019,"internal_node_id":"0.0-4.0-1.62","subject_id":"6149afac2b138d7bf8fb8948","study_id":"6197b3f67c2b5cd3b6d9596a","session_id":"619be3219d93c7a5c381f473","condition":"full-information","relevant_dimensions":["antennae","legs"],"bee_group":{"antennae":"A","wings":"X","pattern":"X","legs":"F"},"bonus":0.4200000000000007},{"rt":2917.100000023842,"stimulus":"bees-with-color/bee-A1DF.svg","response":1,"trial_type":"image-button-response","trial_index":133,"time_elapsed":1030938,"internal_node_id":"0.0-4.0-0.63","subject_id":"6149afac2b138d7bf8fb8948","study_id":"6197b3f67c2b5cd3b6d9596a","session_id":"619be3219d93c7a5c381f473","condition":"full-information","relevant_dimensions":["antennae","legs"],"bee_group":{"antennae":"A","wings":"X","pattern":"X","legs":"F"},"action":"avoid","summary":"good-avoid","bonus":0.4200000000000007},{"rt":1538.1999999284744,"stimulus":"\n                    <p><b>Action: <em>avoid</em></b></p>\n                    <p>This is the bee that you just saw.</p>\n                    <img src=\"bees-with-color/bee-A1DF.svg\" width=\"200\">\n                    <p><span class=\"greenText\">Good choice!</span>  This bee would have stung you.<br>Your bonus pay is unchanged, and remains at $0.36.</p>\n            ","response":0,"trial_type":"html-button-response","trial_index":134,"time_elapsed":1032478,"internal_node_id":"0.0-4.0-1.63","subject_id":"6149afac2b138d7bf8fb8948","study_id":"6197b3f67c2b5cd3b6d9596a","session_id":"619be3219d93c7a5c381f473","condition":"full-information","relevant_dimensions":["antennae","legs"],"bee_group":{"antennae":"A","wings":"X","pattern":"X","legs":"F"},"bonus":0.4200000000000007},{"rt":15237.800000071526,"stimulus":"You have completed the first part of this experiment.<br><br>You will now begin a shorter second part, in which you will receive no feedback.<br>The same rules regarding bonus pay apply.<br><br>Press any key to begin.","response":"enter","trial_type":"html-keyboard-response","trial_index":135,"time_elapsed":1047718,"internal_node_id":"0.0-5.0","subject_id":"6149afac2b138d7bf8fb8948","study_id":"6197b3f67c2b5cd3b6d9596a","session_id":"619be3219d93c7a5c381f473","condition":"full-information","relevant_dimensions":["antennae","legs"],"bee_group":{"antennae":"A","wings":"X","pattern":"X","legs":"F"},"bonus":0.4200000000000007},{"rt":9568.600000023842,"stimulus":"bees-with-color/bee-A2SM.svg","response":0,"trial_type":"image-button-response","trial_index":136,"time_elapsed":1057299,"internal_node_id":"0.0-6.0-0.0","subject_id":"6149afac2b138d7bf8fb8948","study_id":"6197b3f67c2b5cd3b6d9596a","session_id":"619be3219d93c7a5c381f473","condition":"full-information","relevant_dimensions":["antennae","legs"],"bee_group":{"antennae":"A","wings":"X","pattern":"X","legs":"F"},"bonus":0.4200000000000007},{"rt":9196.800000071526,"stimulus":"bees-with-color/bee-A2SF.svg","response":1,"trial_type":"image-button-response","trial_index":137,"time_elapsed":1066498,"internal_node_id":"0.0-6.0-0.1","subject_id":"6149afac2b138d7bf8fb8948","study_id":"6197b3f67c2b5cd3b6d9596a","session_id":"619be3219d93c7a5c381f473","condition":"full-information","relevant_dimensions":["antennae","legs"],"bee_group":{"antennae":"A","wings":"X","pattern":"X","legs":"F"},"bonus":0.4200000000000007},{"rt":3988.7999999523163,"stimulus":"bees-with-color/bee-A1SM.svg","response":0,"trial_type":"image-button-response","trial_index":138,"time_elapsed":1070491,"internal_node_id":"0.0-6.0-0.2","subject_id":"6149afac2b138d7bf8fb8948","study_id":"6197b3f67c2b5cd3b6d9596a","session_id":"619be3219d93c7a5c381f473","condition":"full-information","relevant_dimensions":["antennae","legs"],"bee_group":{"antennae":"A","wings":"X","pattern":"X","legs":"F"},"bonus":0.4200000000000007},{"rt":1540.8999999761581,"stimulus":"bees-with-color/bee-B1SM.svg","response":1,"trial_type":"image-button-response","trial_index":139,"time_elapsed":1072035,"internal_node_id":"0.0-6.0-0.3","subject_id":"6149afac2b138d7bf8fb8948","study_id":"6197b3f67c2b5cd3b6d9596a","session_id":"619be3219d93c7a5c381f473","condition":"full-information","relevant_dimensions":["antennae","legs"],"bee_group":{"antennae":"A","wings":"X","pattern":"X","legs":"F"},"bonus":0.4200000000000007},{"rt":1829.8000000715256,"stimulus":"bees-with-color/bee-B1DM.svg","response":1,"trial_type":"image-button-response","trial_index":140,"time_elapsed":1073867,"internal_node_id":"0.0-6.0-0.4","subject_id":"6149afac2b138d7bf8fb8948","study_id":"6197b3f67c2b5cd3b6d9596a","session_id":"619be3219d93c7a5c381f473","condition":"full-information","relevant_dimensions":["antennae","legs"],"bee_group":{"antennae":"A","wings":"X","pattern":"X","legs":"F"},"bonus":0.4200000000000007},{"rt":1717.3999999761581,"stimulus":"bees-with-color/bee-A2DF.svg","response":1,"trial_type":"image-button-response","trial_index":141,"time_elapsed":1075587,"internal_node_id":"0.0-6.0-0.5","subject_id":"6149afac2b138d7bf8fb8948","study_id":"6197b3f67c2b5cd3b6d9596a","session_id":"619be3219d93c7a5c381f473","condition":"full-information","relevant_dimensions":["antennae","legs"],"bee_group":{"antennae":"A","wings":"X","pattern":"X","legs":"F"},"bonus":0.4200000000000007},{"rt":684.5999999046326,"stimulus":"bees-with-color/bee-B2SF.svg","response":1,"trial_type":"image-button-response","trial_index":142,"time_elapsed":1076274,"internal_node_id":"0.0-6.0-0.6","subject_id":"6149afac2b138d7bf8fb8948","study_id":"6197b3f67c2b5cd3b6d9596a","session_id":"619be3219d93c7a5c381f473","condition":"full-information","relevant_dimensions":["antennae","legs"],"bee_group":{"antennae":"A","wings":"X","pattern":"X","legs":"F"},"bonus":0.4200000000000007},{"rt":757.3000000715256,"stimulus":"bees-with-color/bee-B1DF.svg","response":1,"trial_type":"image-button-response","trial_index":143,"time_elapsed":1077035,"internal_node_id":"0.0-6.0-0.7","subject_id":"6149afac2b138d7bf8fb8948","study_id":"6197b3f67c2b5cd3b6d9596a","session_id":"619be3219d93c7a5c381f473","condition":"full-information","relevant_dimensions":["antennae","legs"],"bee_group":{"antennae":"A","wings":"X","pattern":"X","legs":"F"},"bonus":0.4200000000000007},{"rt":1637.5,"stimulus":"bees-with-color/bee-A2DM.svg","response":0,"trial_type":"image-button-response","trial_index":144,"time_elapsed":1078674,"internal_node_id":"0.0-6.0-0.8","subject_id":"6149afac2b138d7bf8fb8948","study_id":"6197b3f67c2b5cd3b6d9596a","session_id":"619be3219d93c7a5c381f473","condition":"full-information","relevant_dimensions":["antennae","legs"],"bee_group":{"antennae":"A","wings":"X","pattern":"X","legs":"F"},"bonus":0.4200000000000007},{"rt":1706.1000000238419,"stimulus":"bees-with-color/bee-A1SF.svg","response":1,"trial_type":"image-button-response","trial_index":145,"time_elapsed":1080383,"internal_node_id":"0.0-6.0-0.9","subject_id":"6149afac2b138d7bf8fb8948","study_id":"6197b3f67c2b5cd3b6d9596a","session_id":"619be3219d93c7a5c381f473","condition":"full-information","relevant_dimensions":["antennae","legs"],"bee_group":{"antennae":"A","wings":"X","pattern":"X","legs":"F"},"bonus":0.4200000000000007},{"rt":193.09999990463257,"stimulus":"bees-with-color/bee-B2DM.svg","response":1,"trial_type":"image-button-response","trial_index":146,"time_elapsed":1080578,"internal_node_id":"0.0-6.0-0.10","subject_id":"6149afac2b138d7bf8fb8948","study_id":"6197b3f67c2b5cd3b6d9596a","session_id":"619be3219d93c7a5c381f473","condition":"full-information","relevant_dimensions":["antennae","legs"],"bee_group":{"antennae":"A","wings":"X","pattern":"X","legs":"F"},"bonus":0.4200000000000007},{"rt":174.79999995231628,"stimulus":"bees-with-color/bee-A1DF.svg","response":1,"trial_type":"image-button-response","trial_index":147,"time_elapsed":1080755,"internal_node_id":"0.0-6.0-0.11","subject_id":"6149afac2b138d7bf8fb8948","study_id":"6197b3f67c2b5cd3b6d9596a","session_id":"619be3219d93c7a5c381f473","condition":"full-information","relevant_dimensions":["antennae","legs"],"bee_group":{"antennae":"A","wings":"X","pattern":"X","legs":"F"},"bonus":0.4200000000000007},{"rt":181.69999992847443,"stimulus":"bees-with-color/bee-B2DF.svg","response":1,"trial_type":"image-button-response","trial_index":148,"time_elapsed":1080939,"internal_node_id":"0.0-6.0-0.12","subject_id":"6149afac2b138d7bf8fb8948","study_id":"6197b3f67c2b5cd3b6d9596a","session_id":"619be3219d93c7a5c381f473","condition":"full-information","relevant_dimensions":["antennae","legs"],"bee_group":{"antennae":"A","wings":"X","pattern":"X","legs":"F"},"bonus":0.4200000000000007},{"rt":157.70000004768372,"stimulus":"bees-with-color/bee-A1DM.svg","response":1,"trial_type":"image-button-response","trial_index":149,"time_elapsed":1081098,"internal_node_id":"0.0-6.0-0.13","subject_id":"6149afac2b138d7bf8fb8948","study_id":"6197b3f67c2b5cd3b6d9596a","session_id":"619be3219d93c7a5c381f473","condition":"full-information","relevant_dimensions":["antennae","legs"],"bee_group":{"antennae":"A","wings":"X","pattern":"X","legs":"F"},"bonus":0.4200000000000007},{"rt":181.80000007152557,"stimulus":"bees-with-color/bee-B1SF.svg","response":1,"trial_type":"image-button-response","trial_index":150,"time_elapsed":1081282,"internal_node_id":"0.0-6.0-0.14","subject_id":"6149afac2b138d7bf8fb8948","study_id":"6197b3f67c2b5cd3b6d9596a","session_id":"619be3219d93c7a5c381f473","condition":"full-information","relevant_dimensions":["antennae","legs"],"bee_group":{"antennae":"A","wings":"X","pattern":"X","legs":"F"},"bonus":0.4200000000000007},{"rt":150.20000004768372,"stimulus":"bees-with-color/bee-B2SM.svg","response":1,"trial_type":"image-button-response","trial_index":151,"time_elapsed":1081435,"internal_node_id":"0.0-6.0-0.15","subject_id":"6149afac2b138d7bf8fb8948","study_id":"6197b3f67c2b5cd3b6d9596a","session_id":"619be3219d93c7a5c381f473","condition":"full-information","relevant_dimensions":["antennae","legs"],"bee_group":{"antennae":"A","wings":"X","pattern":"X","legs":"F"},"bonus":0.4200000000000007},{"rt":3661.899999976158,"stimulus":"bees-with-color/bee-B2DM.svg","response":1,"trial_type":"image-button-response","trial_index":152,"time_elapsed":1085098,"internal_node_id":"0.0-6.0-0.16","subject_id":"6149afac2b138d7bf8fb8948","study_id":"6197b3f67c2b5cd3b6d9596a","session_id":"619be3219d93c7a5c381f473","condition":"full-information","relevant_dimensions":["antennae","legs"],"bee_group":{"antennae":"A","wings":"X","pattern":"X","legs":"F"},"bonus":0.4200000000000007},{"rt":173.79999995231628,"stimulus":"bees-with-color/bee-A2SM.svg","response":1,"trial_type":"image-button-response","trial_index":153,"time_elapsed":1085275,"internal_node_id":"0.0-6.0-0.17","subject_id":"6149afac2b138d7bf8fb8948","study_id":"6197b3f67c2b5cd3b6d9596a","session_id":"619be3219d93c7a5c381f473","condition":"full-information","relevant_dimensions":["antennae","legs"],"bee_group":{"antennae":"A","wings":"X","pattern":"X","legs":"F"},"bonus":0.4200000000000007},{"rt":165.29999995231628,"stimulus":"bees-with-color/bee-A1SF.svg","response":1,"trial_type":"image-button-response","trial_index":154,"time_elapsed":1085443,"internal_node_id":"0.0-6.0-0.18","subject_id":"6149afac2b138d7bf8fb8948","study_id":"6197b3f67c2b5cd3b6d9596a","session_id":"619be3219d93c7a5c381f473","condition":"full-information","relevant_dimensions":["antennae","legs"],"bee_group":{"antennae":"A","wings":"X","pattern":"X","legs":"F"},"bonus":0.4200000000000007},{"rt":165.19999992847443,"stimulus":"bees-with-color/bee-A2DM.svg","response":1,"trial_type":"image-button-response","trial_index":155,"time_elapsed":1085610,"internal_node_id":"0.0-6.0-0.19","subject_id":"6149afac2b138d7bf8fb8948","study_id":"6197b3f67c2b5cd3b6d9596a","session_id":"619be3219d93c7a5c381f473","condition":"full-information","relevant_dimensions":["antennae","legs"],"bee_group":{"antennae":"A","wings":"X","pattern":"X","legs":"F"},"bonus":0.4200000000000007},{"rt":166.39999997615814,"stimulus":"bees-with-color/bee-B1DF.svg","response":1,"trial_type":"image-button-response","trial_index":156,"time_elapsed":1085778,"internal_node_id":"0.0-6.0-0.20","subject_id":"6149afac2b138d7bf8fb8948","study_id":"6197b3f67c2b5cd3b6d9596a","session_id":"619be3219d93c7a5c381f473","condition":"full-information","relevant_dimensions":["antennae","legs"],"bee_group":{"antennae":"A","wings":"X","pattern":"X","legs":"F"},"bonus":0.4200000000000007},{"rt":174.30000007152557,"stimulus":"bees-with-color/bee-A2DF.svg","response":1,"trial_type":"image-button-response","trial_index":157,"tim