[{"success":true,"trial_type":"fullscreen","trial_index":0,"time_elapsed":9243,"internal_node_id":"0.0-0.0","subject_id":"60f9baa99f49184f083a9ce8","study_id":"6197b3f67c2b5cd3b6d9596a","session_id":"619bfbde6a16640042075a08","condition":"full-information","relevant_dimensions":["wings","pattern"],"bee_group":{"antennae":"X","wings":"1","pattern":"S","legs":"X"},"bonus":1.700000000000001},{"success":true,"timeout":false,"failed_images":[],"failed_audio":[],"failed_video":[],"trial_type":"preload","trial_index":1,"time_elapsed":16045,"internal_node_id":"0.0-1.0","subject_id":"60f9baa99f49184f083a9ce8","study_id":"6197b3f67c2b5cd3b6d9596a","session_id":"619bfbde6a16640042075a08","condition":"full-information","relevant_dimensions":["wings","pattern"],"bee_group":{"antennae":"X","wings":"1","pattern":"S","legs":"X"},"bonus":1.700000000000001},{"rt":1941,"stimulus":"Welcome! Press any key to begin.","response":" ","trial_type":"html-keyboard-response","trial_index":2,"time_elapsed":17986,"internal_node_id":"0.0-2.0","subject_id":"60f9baa99f49184f083a9ce8","study_id":"6197b3f67c2b5cd3b6d9596a","session_id":"619bfbde6a16640042075a08","condition":"full-information","relevant_dimensions":["wings","pattern"],"bee_group":{"antennae":"X","wings":"1","pattern":"S","legs":"X"},"bonus":1.700000000000001},{"view_history":[{"page_index":0,"viewing_time":62027},{"page_index":1,"viewing_time":15000},{"page_index":2,"viewing_time":14245},{"page_index":3,"viewing_time":22913},{"page_index":4,"viewing_time":9351},{"page_index":5,"viewing_time":19352},{"page_index":6,"viewing_time":9353},{"page_index":7,"viewing_time":17181},{"page_index":8,"viewing_time":12832},{"page_index":9,"viewing_time":4942},{"page_index":10,"viewing_time":4924},{"page_index":11,"viewing_time":10998},{"page_index":12,"viewing_time":27202},{"page_index":13,"viewing_time":2109},{"page_index":14,"viewing_time":2489}],"rt":234918,"trial_type":"instructions","trial_index":3,"time_elapsed":252904,"internal_node_id":"0.0-3.0-0.0","subject_id":"60f9baa99f49184f083a9ce8","study_id":"6197b3f67c2b5cd3b6d9596a","session_id":"619bfbde6a16640042075a08","condition":"full-information","relevant_dimensions":["wings","pattern"],"bee_group":{"antennae":"X","wings":"1","pattern":"S","legs":"X"},"bonus":1.700000000000001},{"rt":17867,"response":{"Q0":["Two or six legs","Stripes or spots on body","Single or double wings","Antennae or no antennae"]},"question_order":[0],"trial_type":"survey-multi-select","trial_index":4,"time_elapsed":270787,"internal_node_id":"0.0-3.0-1.0","subject_id":"60f9baa99f49184f083a9ce8","study_id":"6197b3f67c2b5cd3b6d9596a","session_id":"619bfbde6a16640042075a08","condition":"full-information","relevant_dimensions":["wings","pattern"],"bee_group":{"antennae":"X","wings":"1","pattern":"S","legs":"X"},"correct":true,"bonus":1.700000000000001},{"rt":27797,"response":{"Q1":"No.","Q2":"Based on the four features of the bee.","Q3":"You learn if it was friendly or dangerous, but do not alter your bonus."},"question_order":[0,1,2],"trial_type":"survey-multi-choice","trial_index":5,"time_elapsed":298584,"internal_node_id":"0.0-3.0-2.0","subject_id":"60f9baa99f49184f083a9ce8","study_id":"6197b3f67c2b5cd3b6d9596a","session_id":"619bfbde6a16640042075a08","condition":"full-information","relevant_dimensions":["wings","pattern"],"bee_group":{"antennae":"X","wings":"1","pattern":"S","legs":"X"},"correct":true,"bonus":1.700000000000001},{"rt":4968,"stimulus":"<p>Congrats, you got everything right<br>When you're ready, click the button below to continue to the experiment.</p>","response":0,"trial_type":"html-button-response","trial_index":6,"time_elapsed":303557,"internal_node_id":"0.0-3.0-3.0","subject_id":"60f9baa99f49184f083a9ce8","study_id":"6197b3f67c2b5cd3b6d9596a","session_id":"619bfbde6a16640042075a08","condition":"full-information","relevant_dimensions":["wings","pattern"],"bee_group":{"antennae":"X","wings":"1","pattern":"S","legs":"X"},"bonus":1.700000000000001},{"rt":8091,"stimulus":"bees-with-color/bee-A1DM.svg","response":1,"trial_type":"image-button-response","trial_index":7,"time_elapsed":311653,"internal_node_id":"0.0-4.0-0.0","subject_id":"60f9baa99f49184f083a9ce8","study_id":"6197b3f67c2b5cd3b6d9596a","session_id":"619bfbde6a16640042075a08","condition":"full-information","relevant_dimensions":["wings","pattern"],"bee_group":{"antennae":"X","wings":"1","pattern":"S","legs":"X"},"action":"avoid","summary":"bad-avoid","bonus":1.700000000000001},{"rt":13413,"stimulus":"\n                    <p><b>Action: <em>avoid</em></b></p>\n                    <p>This is the bee that you just saw.</p>\n                    <img src=\"bees-with-color/bee-A1DM.svg\" width=\"200\">\n                    <p><span class=\"redText\">Bad choice,</span> the bee was friendly.<br>Your bonus pay is unchanged, and remains at $0.54.</p>\n            ","response":0,"trial_type":"html-button-response","trial_index":8,"time_elapsed":325082,"internal_node_id":"0.0-4.0-1.0","subject_id":"60f9baa99f49184f083a9ce8","study_id":"6197b3f67c2b5cd3b6d9596a","session_id":"619bfbde6a16640042075a08","condition":"full-information","relevant_dimensions":["wings","pattern"],"bee_group":{"antennae":"X","wings":"1","pattern":"S","legs":"X"},"bonus":1.700000000000001},{"rt":13036,"stimulus":"bees-with-color/bee-A2SF.svg","response":1,"trial_type":"image-button-response","trial_index":9,"time_elapsed":338134,"internal_node_id":"0.0-4.0-0.1","subject_id":"60f9baa99f49184f083a9ce8","study_id":"6197b3f67c2b5cd3b6d9596a","session_id":"619bfbde6a16640042075a08","condition":"full-information","relevant_dimensions":["wings","pattern"],"bee_group":{"antennae":"X","wings":"1","pattern":"S","legs":"X"},"action":"avoid","summary":"bad-avoid","bonus":1.700000000000001},{"rt":33713,"stimulus":"\n                    <p><b>Action: <em>avoid</em></b></p>\n                    <p>This is the bee that you just saw.</p>\n                    <img src=\"bees-with-color/bee-A2SF.svg\" width=\"200\">\n                    <p><span class=\"redText\">Bad choice,</span> the bee was friendly.<br>Your bonus pay is unchanged, and remains at $0.54.</p>\n            ","response":0,"trial_type":"html-button-response","trial_index":10,"time_elapsed":371847,"internal_node_id":"0.0-4.0-1.1","subject_id":"60f9baa99f49184f083a9ce8","study_id":"6197b3f67c2b5cd3b6d9596a","session_id":"619bfbde6a16640042075a08","condition":"full-information","relevant_dimensions":["wings","pattern"],"bee_group":{"antennae":"X","wings":"1","pattern":"S","legs":"X"},"bonus":1.700000000000001},{"rt":9189,"stimulus":"bees-with-color/bee-A1SF.svg","response":1,"trial_type":"image-button-response","trial_index":11,"time_elapsed":381036,"internal_node_id":"0.0-4.0-0.2","subject_id":"60f9baa99f49184f083a9ce8","study_id":"6197b3f67c2b5cd3b6d9596a","session_id":"619bfbde6a16640042075a08","condition":"full-information","relevant_dimensions":["wings","pattern"],"bee_group":{"antennae":"X","wings":"1","pattern":"S","legs":"X"},"action":"avoid","summary":"good-avoid","bonus":1.700000000000001},{"rt":9061,"stimulus":"\n                    <p><b>Action: <em>avoid</em></b></p>\n                    <p>This is the bee that you just saw.</p>\n                    <img src=\"bees-with-color/bee-A1SF.svg\" width=\"200\">\n                    <p><span class=\"greenText\">Good choice!</span>  This bee would have stung you.<br>Your bonus pay is unchanged, and remains at $0.54.</p>\n            ","response":0,"trial_type":"html-button-response","trial_index":12,"time_elapsed":390097,"internal_node_id":"0.0-4.0-1.2","subject_id":"60f9baa99f49184f083a9ce8","study_id":"6197b3f67c2b5cd3b6d9596a","session_id":"619bfbde6a16640042075a08","condition":"full-information","relevant_dimensions":["wings","pattern"],"bee_group":{"antennae":"X","wings":"1","pattern":"S","legs":"X"},"bonus":1.700000000000001},{"rt":9668,"stimulus":"bees-with-color/bee-B1SF.svg","response":1,"trial_type":"image-button-response","trial_index":13,"time_elapsed":399765,"internal_node_id":"0.0-4.0-0.3","subject_id":"60f9baa99f49184f083a9ce8","study_id":"6197b3f67c2b5cd3b6d9596a","session_id":"619bfbde6a16640042075a08","condition":"full-information","relevant_dimensions":["wings","pattern"],"bee_group":{"antennae":"X","wings":"1","pattern":"S","legs":"X"},"action":"avoid","summary":"good-avoid","bonus":1.700000000000001},{"rt":6081,"stimulus":"\n                    <p><b>Action: <em>avoid</em></b></p>\n                    <p>This is the bee that you just saw.</p>\n                    <img src=\"bees-with-color/bee-B1SF.svg\" width=\"200\">\n                    <p><span class=\"greenText\">Good choice!</span>  This bee would have stung you.<br>Your bonus pay is unchanged, and remains at $0.54.</p>\n            ","response":0,"trial_type":"html-button-response","trial_index":14,"time_elapsed":405851,"internal_node_id":"0.0-4.0-1.3","subject_id":"60f9baa99f49184f083a9ce8","study_id":"6197b3f67c2b5cd3b6d9596a","session_id":"619bfbde6a16640042075a08","condition":"full-information","relevant_dimensions":["wings","pattern"],"bee_group":{"antennae":"X","wings":"1","pattern":"S","legs":"X"},"bonus":1.700000000000001},{"rt":3765,"stimulus":"bees-with-color/bee-B2SM.svg","response":1,"trial_type":"image-button-response","trial_index":15,"time_elapsed":409616,"internal_node_id":"0.0-4.0-0.4","subject_id":"60f9baa99f49184f083a9ce8","study_id":"6197b3f67c2b5cd3b6d9596a","session_id":"619bfbde6a16640042075a08","condition":"full-information","relevant_dimensions":["wings","pattern"],"bee_group":{"antennae":"X","wings":"1","pattern":"S","legs":"X"},"action":"avoid","summary":"bad-avoid","bonus":1.700000000000001},{"rt":67381,"stimulus":"\n                    <p><b>Action: <em>avoid</em></b></p>\n                    <p>This is the bee that you just saw.</p>\n                    <img src=\"bees-with-color/bee-B2SM.svg\" width=\"200\">\n                    <p><span class=\"redText\">Bad choice,</span> the bee was friendly.<br>Your bonus pay is unchanged, and remains at $0.54.</p>\n            ","response":0,"trial_type":"html-button-response","trial_index":16,"time_elapsed":476997,"internal_node_id":"0.0-4.0-1.4","subject_id":"60f9baa99f49184f083a9ce8","study_id":"6197b3f67c2b5cd3b6d9596a","session_id":"619bfbde6a16640042075a08","condition":"full-information","relevant_dimensions":["wings","pattern"],"bee_group":{"antennae":"X","wings":"1","pattern":"S","legs":"X"},"bonus":1.700000000000001},{"rt":1666,"stimulus":"bees-with-color/bee-B2DF.svg","response":1,"trial_type":"image-button-response","trial_index":17,"time_elapsed":478663,"internal_node_id":"0.0-4.0-0.5","subject_id":"60f9baa99f49184f083a9ce8","study_id":"6197b3f67c2b5cd3b6d9596a","session_id":"619bfbde6a16640042075a08","condition":"full-information","relevant_dimensions":["wings","pattern"],"bee_group":{"antennae":"X","wings":"1","pattern":"S","legs":"X"},"action":"avoid","summary":"bad-avoid","bonus":1.700000000000001},{"rt":16382,"stimulus":"\n                    <p><b>Action: <em>avoid</em></b></p>\n                    <p>This is the bee that you just saw.</p>\n                    <img src=\"bees-with-color/bee-B2DF.svg\" width=\"200\">\n                    <p><span class=\"redText\">Bad choice,</span> the bee was friendly.<br>Your bonus pay is unchanged, and remains at $0.54.</p>\n            ","response":0,"trial_type":"html-button-response","trial_index":18,"time_elapsed":495060,"internal_node_id":"0.0-4.0-1.5","subject_id":"60f9baa99f49184f083a9ce8","study_id":"6197b3f67c2b5cd3b6d9596a","session_id":"619bfbde6a16640042075a08","condition":"full-information","relevant_dimensions":["wings","pattern"],"bee_group":{"antennae":"X","wings":"1","pattern":"S","legs":"X"},"bonus":1.700000000000001},{"rt":2420,"stimulus":"bees-with-color/bee-B2SF.svg","response":1,"trial_type":"image-button-response","trial_index":19,"time_elapsed":497480,"internal_node_id":"0.0-4.0-0.6","subject_id":"60f9baa99f49184f083a9ce8","study_id":"6197b3f67c2b5cd3b6d9596a","session_id":"619bfbde6a16640042075a08","condition":"full-information","relevant_dimensions":["wings","pattern"],"bee_group":{"antennae":"X","wings":"1","pattern":"S","legs":"X"},"action":"avoid","summary":"bad-avoid","bonus":1.700000000000001},{"rt":15596,"stimulus":"\n                    <p><b>Action: <em>avoid</em></b></p>\n                    <p>This is the bee that you just saw.</p>\n                    <img src=\"bees-with-color/bee-B2SF.svg\" width=\"200\">\n                    <p><span class=\"redText\">Bad choice,</span> the bee was friendly.<br>Your bonus pay is unchanged, and remains at $0.54.</p>\n            ","response":0,"trial_type":"html-button-response","trial_index":20,"time_elapsed":513076,"internal_node_id":"0.0-4.0-1.6","subject_id":"60f9baa99f49184f083a9ce8","study_id":"6197b3f67c2b5cd3b6d9596a","session_id":"619bfbde6a16640042075a08","condition":"full-information","relevant_dimensions":["wings","pattern"],"bee_group":{"antennae":"X","wings":"1","pattern":"S","legs":"X"},"bonus":1.700000000000001},{"rt":5000,"stimulus":"bees-with-color/bee-B1DM.svg","response":1,"trial_type":"image-button-response","trial_index":21,"time_elapsed":518076,"internal_node_id":"0.0-4.0-0.7","subject_id":"60f9baa99f49184f083a9ce8","study_id":"6197b3f67c2b5cd3b6d9596a","session_id":"619bfbde6a16640042075a08","condition":"full-information","relevant_dimensions":["wings","pattern"],"bee_group":{"antennae":"X","wings":"1","pattern":"S","legs":"X"},"action":"avoid","summary":"bad-avoid","bonus":1.700000000000001},{"rt":14223,"stimulus":"\n                    <p><b>Action: <em>avoid</em></b></p>\n                    <p>This is the bee that you just saw.</p>\n                    <img src=\"bees-with-color/bee-B1DM.svg\" width=\"200\">\n                    <p><span class=\"redText\">Bad choice,</span> the bee was friendly.<br>Your bonus pay is unchanged, and remains at $0.54.</p>\n            ","response":0,"trial_type":"html-button-response","trial_index":22,"time_elapsed":532299,"internal_node_id":"0.0-4.0-1.7","subject_id":"60f9baa99f49184f083a9ce8","study_id":"6197b3f67c2b5cd3b6d9596a","session_id":"619bfbde6a16640042075a08","condition":"full-information","relevant_dimensions":["wings","pattern"],"bee_group":{"antennae":"X","wings":"1","pattern":"S","legs":"X"},"bonus":1.700000000000001},{"rt":3104,"stimulus":"bees-with-color/bee-B1DF.svg","response":1,"trial_type":"image-button-response","trial_index":23,"time_elapsed":535408,"internal_node_id":"0.0-4.0-0.8","subject_id":"60f9baa99f49184f083a9ce8","study_id":"6197b3f67c2b5cd3b6d9596a","session_id":"619bfbde6a16640042075a08","condition":"full-information","relevant_dimensions":["wings","pattern"],"bee_group":{"antennae":"X","wings":"1","pattern":"S","legs":"X"},"action":"avoid","summary":"bad-avoid","bonus":1.700000000000001},{"rt":10516,"stimulus":"\n                    <p><b>Action: <em>avoid</em></b></p>\n                    <p>This is the bee that you just saw.</p>\n                    <img src=\"bees-with-color/bee-B1DF.svg\" width=\"200\">\n                    <p><span class=\"redText\">Bad choice,</span> the bee was friendly.<br>Your bonus pay is unchanged, and remains at $0.54.</p>\n            ","response":0,"trial_type":"html-button-response","trial_index":24,"time_elapsed":545924,"internal_node_id":"0.0-4.0-1.8","subject_id":"60f9baa99f49184f083a9ce8","study_id":"6197b3f67c2b5cd3b6d9596a","session_id":"619bfbde6a16640042075a08","condition":"full-information","relevant_dimensions":["wings","pattern"],"bee_group":{"antennae":"X","wings":"1","pattern":"S","legs":"X"},"bonus":1.700000000000001},{"rt":3537,"stimulus":"bees-with-color/bee-A2DM.svg","response":0,"trial_type":"image-button-response","trial_index":25,"time_elapsed":549477,"internal_node_id":"0.0-4.0-0.9","subject_id":"60f9baa99f49184f083a9ce8","study_id":"6197b3f67c2b5cd3b6d9596a","session_id":"619bfbde6a16640042075a08","condition":"full-information","relevant_dimensions":["wings","pattern"],"bee_group":{"antennae":"X","wings":"1","pattern":"S","legs":"X"},"action":"harvest","summary":"good-harvest","bonus":1.700000000000001},{"rt":18696,"stimulus":"\n                    <p><b>Action: <em>harvest</em></b></p>\n                    <p>This is the bee that you just saw.</p>\n                    <img src=\"bees-with-color/bee-A2DM.svg\" width=\"200\">\n                    <p><span class=\"greenText\"><b>Successful harvest!</b></span><br>Your pay has increased by $0.02. Your bonus pay is now $0.56.</p>\n            ","response":0,"trial_type":"html-button-response","trial_index":26,"time_elapsed":568173,"internal_node_id":"0.0-4.0-1.9","subject_id":"60f9baa99f49184f083a9ce8","study_id":"6197b3f67c2b5cd3b6d9596a","session_id":"619bfbde6a16640042075a08","condition":"full-information","relevant_dimensions":["wings","pattern"],"bee_group":{"antennae":"X","wings":"1","pattern":"S","legs":"X"},"bonus":1.700000000000001},{"rt":7667,"stimulus":"bees-with-color/bee-A2SM.svg","response":1,"trial_type":"image-button-response","trial_index":27,"time_elapsed":575840,"internal_node_id":"0.0-4.0-0.10","subject_id":"60f9baa99f49184f083a9ce8","study_id":"6197b3f67c2b5cd3b6d9596a","session_id":"619bfbde6a16640042075a08","condition":"full-information","relevant_dimensions":["wings","pattern"],"bee_group":{"antennae":"X","wings":"1","pattern":"S","legs":"X"},"action":"avoid","summary":"bad-avoid","bonus":1.700000000000001},{"rt":7380,"stimulus":"\n                    <p><b>Action: <em>avoid</em></b></p>\n                    <p>This is the bee that you just saw.</p>\n                    <img src=\"bees-with-color/bee-A2SM.svg\" width=\"200\">\n                    <p><span class=\"redText\">Bad choice,</span> the bee was friendly.<br>Your bonus pay is unchanged, and remains at $0.56.</p>\n            ","response":0,"trial_type":"html-button-response","trial_index":28,"time_elapsed":583220,"internal_node_id":"0.0-4.0-1.10","subject_id":"60f9baa99f49184f083a9ce8","study_id":"6197b3f67c2b5cd3b6d9596a","session_id":"619bfbde6a16640042075a08","condition":"full-information","relevant_dimensions":["wings","pattern"],"bee_group":{"antennae":"X","wings":"1","pattern":"S","legs":"X"},"bonus":1.700000000000001},{"rt":8939,"stimulus":"bees-with-color/bee-A1SM.svg","response":1,"trial_type":"image-button-response","trial_index":29,"time_elapsed":592159,"internal_node_id":"0.0-4.0-0.11","subject_id":"60f9baa99f49184f083a9ce8","study_id":"6197b3f67c2b5cd3b6d9596a","session_id":"619bfbde6a16640042075a08","condition":"full-information","relevant_dimensions":["wings","pattern"],"bee_group":{"antennae":"X","wings":"1","pattern":"S","legs":"X"},"action":"avoid","summary":"good-avoid","bonus":1.700000000000001},{"rt":15697,"stimulus":"\n                    <p><b>Action: <em>avoid</em></b></p>\n                    <p>This is the bee that you just saw.</p>\n                    <img src=\"bees-with-color/bee-A1SM.svg\" width=\"200\">\n                    <p><span class=\"greenText\">Good choice!</span>  This bee would have stung you.<br>Your bonus pay is unchanged, and remains at $0.56.</p>\n            ","response":0,"trial_type":"html-button-response","trial_index":30,"time_elapsed":607856,"internal_node_id":"0.0-4.0-1.11","subject_id":"60f9baa99f49184f083a9ce8","study_id":"6197b3f67c2b5cd3b6d9596a","session_id":"619bfbde6a16640042075a08","condition":"full-information","relevant_dimensions":["wings","pattern"],"bee_group":{"antennae":"X","wings":"1","pattern":"S","legs":"X"},"bonus":1.700000000000001},{"rt":6085,"stimulus":"bees-with-color/bee-B1SM.svg","response":1,"trial_type":"image-button-response","trial_index":31,"time_elapsed":613941,"internal_node_id":"0.0-4.0-0.12","subject_id":"60f9baa99f49184f083a9ce8","study_id":"6197b3f67c2b5cd3b6d9596a","session_id":"619bfbde6a16640042075a08","condition":"full-information","relevant_dimensions":["wings","pattern"],"bee_group":{"antennae":"X","wings":"1","pattern":"S","legs":"X"},"action":"avoid","summary":"good-avoid","bonus":1.700000000000001},{"rt":7530,"stimulus":"\n                    <p><b>Action: <em>avoid</em></b></p>\n                    <p>This is the bee that you just saw.</p>\n                    <img src=\"bees-with-color/bee-B1SM.svg\" width=\"200\">\n                    <p><span class=\"greenText\">Good choice!</span>  This bee would have stung you.<br>Your bonus pay is unchanged, and remains at $0.56.</p>\n            ","response":0,"trial_type":"html-button-response","trial_index":32,"time_elapsed":621471,"internal_node_id":"0.0-4.0-1.12","subject_id":"60f9baa99f49184f083a9ce8","study_id":"6197b3f67c2b5cd3b6d9596a","session_id":"619bfbde6a16640042075a08","condition":"full-information","relevant_dimensions":["wings","pattern"],"bee_group":{"antennae":"X","wings":"1","pattern":"S","legs":"X"},"bonus":1.700000000000001},{"rt":10654,"stimulus":"bees-with-color/bee-B2DM.svg","response":0,"trial_type":"image-button-response","trial_index":33,"time_elapsed":632125,"internal_node_id":"0.0-4.0-0.13","subject_id":"60f9baa99f49184f083a9ce8","study_id":"6197b3f67c2b5cd3b6d9596a","session_id":"619bfbde6a16640042075a08","condition":"full-information","relevant_dimensions":["wings","pattern"],"bee_group":{"antennae":"X","wings":"1","pattern":"S","legs":"X"},"action":"harvest","summary":"good-harvest","bonus":1.700000000000001},{"rt":8097,"stimulus":"\n                    <p><b>Action: <em>harvest</em></b></p>\n                    <p>This is the bee that you just saw.</p>\n                    <img src=\"bees-with-color/bee-B2DM.svg\" width=\"200\">\n                    <p><span class=\"greenText\"><b>Successful harvest!</b></span><br>Your pay has increased by $0.02. Your bonus pay is now $0.58.</p>\n            ","response":0,"trial_type":"html-button-response","trial_index":34,"time_elapsed":640222,"internal_node_id":"0.0-4.0-1.13","subject_id":"60f9baa99f49184f083a9ce8","study_id":"6197b3f67c2b5cd3b6d9596a","session_id":"619bfbde6a16640042075a08","condition":"full-information","relevant_dimensions":["wings","pattern"],"bee_group":{"antennae":"X","wings":"1","pattern":"S","legs":"X"},"bonus":1.700000000000001},{"rt":6915,"stimulus":"bees-with-color/bee-A1DF.svg","response":1,"trial_type":"image-button-response","trial_index":35,"time_elapsed":647137,"internal_node_id":"0.0-4.0-0.14","subject_id":"60f9baa99f49184f083a9ce8","study_id":"6197b3f67c2b5cd3b6d9596a","session_id":"619bfbde6a16640042075a08","condition":"full-information","relevant_dimensions":["wings","pattern"],"bee_group":{"antennae":"X","wings":"1","pattern":"S","legs":"X"},"action":"avoid","summary":"bad-avoid","bonus":1.700000000000001},{"rt":28170,"stimulus":"\n                    <p><b>Action: <em>avoid</em></b></p>\n                    <p>This is the bee that you just saw.</p>\n                    <img src=\"bees-with-color/bee-A1DF.svg\" width=\"200\">\n                    <p><span class=\"redText\">Bad choice,</span> the bee was friendly.<br>Your bonus pay is unchanged, and remains at $0.58.</p>\n            ","response":0,"trial_type":"html-button-response","trial_index":36,"time_elapsed":675307,"internal_node_id":"0.0-4.0-1.14","subject_id":"60f9baa99f49184f083a9ce8","study_id":"6197b3f67c2b5cd3b6d9596a","session_id":"619bfbde6a16640042075a08","condition":"full-information","relevant_dimensions":["wings","pattern"],"bee_group":{"antennae":"X","wings":"1","pattern":"S","legs":"X"},"bonus":1.700000000000001},{"rt":8413,"stimulus":"bees-with-color/bee-A2DF.svg","response":0,"trial_type":"image-button-response","trial_index":37,"time_elapsed":683720,"internal_node_id":"0.0-4.0-0.15","subject_id":"60f9baa99f49184f083a9ce8","study_id":"6197b3f67c2b5cd3b6d9596a","session_id":"619bfbde6a16640042075a08","condition":"full-information","relevant_dimensions":["wings","pattern"],"bee_group":{"antennae":"X","wings":"1","pattern":"S","legs":"X"},"action":"harvest","summary":"good-harvest","bonus":1.700000000000001},{"rt":6268,"stimulus":"\n                    <p><b>Action: <em>harvest</em></b></p>\n                    <p>This is the bee that you just saw.</p>\n                    <img src=\"bees-with-color/bee-A2DF.svg\" width=\"200\">\n                    <p><span class=\"greenText\"><b>Successful harvest!</b></span><br>Your pay has increased by $0.02. Your bonus pay is now $0.60.</p>\n            ","response":0,"trial_type":"html-button-response","trial_index":38,"time_elapsed":689988,"internal_node_id":"0.0-4.0-1.15","subject_id":"60f9baa99f49184f083a9ce8","study_id":"6197b3f67c2b5cd3b6d9596a","session_id":"619bfbde6a16640042075a08","condition":"full-information","relevant_dimensions":["wings","pattern"],"bee_group":{"antennae":"X","wings":"1","pattern":"S","legs":"X"},"bonus":1.700000000000001},{"rt":6830,"stimulus":"bees-with-color/bee-A1DM.svg","response":0,"trial_type":"image-button-response","trial_index":39,"time_elapsed":696818,"internal_node_id":"0.0-4.0-0.16","subject_id":"60f9baa99f49184f083a9ce8","study_id":"6197b3f67c2b5cd3b6d9596a","session_id":"619bfbde6a16640042075a08","condition":"full-information","relevant_dimensions":["wings","pattern"],"bee_group":{"antennae":"X","wings":"1","pattern":"S","legs":"X"},"action":"harvest","summary":"good-harvest","bonus":1.700000000000001},{"rt":1837,"stimulus":"\n                    <p><b>Action: <em>harvest</em></b></p>\n                    <p>This is the bee that you just saw.</p>\n                    <img src=\"bees-with-color/bee-A1DM.svg\" width=\"200\">\n                    <p><span class=\"greenText\"><b>Successful harvest!</b></span><br>Your pay has increased by $0.02. Your bonus pay is now $0.62.</p>\n            ","response":0,"trial_type":"html-button-response","trial_index":40,"time_elapsed":698671,"internal_node_id":"0.0-4.0-1.16","subject_id":"60f9baa99f49184f083a9ce8","study_id":"6197b3f67c2b5cd3b6d9596a","session_id":"619bfbde6a16640042075a08","condition":"full-information","relevant_dimensions":["wings","pattern"],"bee_group":{"antennae":"X","wings":"1","pattern":"S","legs":"X"},"bonus":1.700000000000001},{"rt":7014,"stimulus":"bees-with-color/bee-A1SF.svg","response":0,"trial_type":"image-button-response","trial_index":41,"time_elapsed":705685,"internal_node_id":"0.0-4.0-0.17","subject_id":"60f9baa99f49184f083a9ce8","study_id":"6197b3f67c2b5cd3b6d9596a","session_id":"619bfbde6a16640042075a08","condition":"full-information","relevant_dimensions":["wings","pattern"],"bee_group":{"antennae":"X","wings":"1","pattern":"S","legs":"X"},"action":"harvest","summary":"bad-harvest","bonus":1.700000000000001},{"rt":25361,"stimulus":"\n                    <p><b>Action: <em>harvest</em></b></p>\n                    <p>This is the bee that you just saw.</p>\n                    <img src=\"bees-with-color/bee-A1SF.svg\" width=\"200\">\n                    <p><span class=\"redText\">Bad choice, the bee was angry.</span><br><b>You have been stung!</b><br>Your pay has been decreased by $0.10. Your bonus pay is now $0.52.</p>\n            ","response":0,"trial_type":"html-button-response","trial_index":42,"time_elapsed":731067,"internal_node_id":"0.0-4.0-1.17","subject_id":"60f9baa99f49184f083a9ce8","study_id":"6197b3f67c2b5cd3b6d9596a","session_id":"619bfbde6a16640042075a08","condition":"full-information","relevant_dimensions":["wings","pattern"],"bee_group":{"antennae":"X","wings":"1","pattern":"S","legs":"X"},"bonus":1.700000000000001},{"rt":14668,"stimulus":"bees-with-color/bee-B1SM.svg","response":1,"trial_type":"image-button-response","trial_index":43,"time_elapsed":745735,"internal_node_id":"0.0-4.0-0.18","subject_id":"60f9baa99f49184f083a9ce8","study_id":"6197b3f67c2b5cd3b6d9596a","session_id":"619bfbde6a16640042075a08","condition":"full-information","relevant_dimensions":["wings","pattern"],"bee_group":{"antennae":"X","wings":"1","pattern":"S","legs":"X"},"action":"avoid","summary":"good-avoid","bonus":1.700000000000001},{"rt":1615,"stimulus":"\n                    <p><b>Action: <em>avoid</em></b></p>\n                    <p>This is the bee that you just saw.</p>\n                    <img src=\"bees-with-color/bee-B1SM.svg\" width=\"200\">\n                    <p><span class=\"greenText\">Good choice!</span>  This bee would have stung you.<br>Your bonus pay is unchanged, and remains at $0.52.</p>\n            ","response":0,"trial_type":"html-button-response","trial_index":44,"time_elapsed":747350,"internal_node_id":"0.0-4.0-1.18","subject_id":"60f9baa99f49184f083a9ce8","study_id":"6197b3f67c2b5cd3b6d9596a","session_id":"619bfbde6a16640042075a08","condition":"full-information","relevant_dimensions":["wings","pattern"],"bee_group":{"antennae":"X","wings":"1","pattern":"S","legs":"X"},"bonus":1.700000000000001},{"rt":12281,"stimulus":"bees-with-color/bee-A2DF.svg","response":0,"trial_type":"image-button-response","trial_index":45,"time_elapsed":759631,"internal_node_id":"0.0-4.0-0.19","subject_id":"60f9baa99f49184f083a9ce8","study_id":"6197b3f67c2b5cd3b6d9596a","session_id":"619bfbde6a16640042075a08","condition":"full-information","relevant_dimensions":["wings","pattern"],"bee_group":{"antennae":"X","wings":"1","pattern":"S","legs":"X"},"action":"harvest","summary":"good-harvest","bonus":1.700000000000001},{"rt":8972,"stimulus":"\n                    <p><b>Action: <em>harvest</em></b></p>\n                    <p>This is the bee that you just saw.</p>\n                    <img src=\"bees-with-color/bee-A2DF.svg\" width=\"200\">\n                    <p><span class=\"greenText\"><b>Successful harvest!</b></span><br>Your pay has increased by $0.02. Your bonus pay is now $0.54.</p>\n            ","response":0,"trial_type":"html-button-response","trial_index":46,"time_elapsed":768619,"internal_node_id":"0.0-4.0-1.19","subject_id":"60f9baa99f49184f083a9ce8","study_id":"6197b3f67c2b5cd3b6d9596a","session_id":"619bfbde6a16640042075a08","condition":"full-information","relevant_dimensions":["wings","pattern"],"bee_group":{"antennae":"X","wings":"1","pattern":"S","legs":"X"},"bonus":1.700000000000001},{"rt":5712,"stimulus":"bees-with-color/bee-A1DF.svg","response":0,"trial_type":"image-button-response","trial_index":47,"time_elapsed":774347,"internal_node_id":"0.0-4.0-0.20","subject_id":"60f9baa99f49184f083a9ce8","study_id":"6197b3f67c2b5cd3b6d9596a","session_id":"619bfbde6a16640042075a08","condition":"full-information","relevant_dimensions":["wings","pattern"],"bee_group":{"antennae":"X","wings":"1","pattern":"S","legs":"X"},"action":"harvest","summary":"good-harvest","bonus":1.700000000000001},{"rt":1769,"stimulus":"\n                    <p><b>Action: <em>harvest</em></b></p>\n                    <p>This is the bee that you just saw.</p>\n                    <img src=\"bees-with-color/bee-A1DF.svg\" width=\"200\">\n                    <p><span class=\"greenText\"><b>Successful harvest!</b></span><br>Your pay has increased by $0.02. Your bonus pay is now $0.56.</p>\n            ","response":0,"trial_type":"html-button-response","trial_index":48,"time_elapsed":776116,"internal_node_id":"0.0-4.0-1.20","subject_id":"60f9baa99f49184f083a9ce8","study_id":"6197b3f67c2b5cd3b6d9596a","session_id":"619bfbde6a16640042075a08","condition":"full-information","relevant_dimensions":["wings","pattern"],"bee_group":{"antennae":"X","wings":"1","pattern":"S","legs":"X"},"bonus":1.700000000000001},{"rt":8069,"stimulus":"bees-with-color/bee-B1DF.svg","response":0,"trial_type":"image-button-response","trial_index":49,"time_elapsed":784185,"internal_node_id":"0.0-4.0-0.21","subject_id":"60f9baa99f49184f083a9ce8","study_id":"6197b3f67c2b5cd3b6d9596a","session_id":"619bfbde6a16640042075a08","condition":"full-information","relevant_dimensions":["wings","pattern"],"bee_group":{"antennae":"X","wings":"1","pattern":"S","legs":"X"},"action":"harvest","summary":"good-harvest","bonus":1.700000000000001},{"rt":6530,"stimulus":"\n                    <p><b>Action: <em>harvest</em></b></p>\n                    <p>This is the bee that you just saw.</p>\n                    <img src=\"bees-with-color/bee-B1DF.svg\" width=\"200\">\n                    <p><span class=\"greenText\"><b>Successful harvest!</b></span><br>Your pay has increased by $0.02. Your bonus pay is now $0.58.</p>\n            ","response":0,"trial_type":"html-button-response","trial_index":50,"time_elapsed":790715,"internal_node_id":"0.0-4.0-1.21","subject_id":"60f9baa99f49184f083a9ce8","study_id":"6197b3f67c2b5cd3b6d9596a","session_id":"619bfbde6a16640042075a08","condition":"full-information","relevant_dimensions":["wings","pattern"],"bee_group":{"antennae":"X","wings":"1","pattern":"S","legs":"X"},"bonus":1.700000000000001},{"rt":6956,"stimulus":"bees-with-color/bee-A2SF.svg","response":0,"trial_type":"image-button-response","trial_index":51,"time_elapsed":797687,"internal_node_id":"0.0-4.0-0.22","subject_id":"60f9baa99f49184f083a9ce8","study_id":"6197b3f67c2b5cd3b6d9596a","session_id":"619bfbde6a16640042075a08","condition":"full-information","relevant_dimensions":["wings","pattern"],"bee_group":{"antennae":"X","wings":"1","pattern":"S","legs":"X"},"action":"harvest","summary":"good-harvest","bonus":1.700000000000001},{"rt":5276,"stimulus":"\n                    <p><b>Action: <em>harvest</em></b></p>\n                    <p>This is the bee that you just saw.</p>\n                    <img src=\"bees-with-color/bee-A2SF.svg\" width=\"200\">\n                    <p><span class=\"greenText\"><b>Successful harvest!</b></span><br>Your pay has increased by $0.02. Your bonus pay is now $0.60.</p>\n            ","response":0,"trial_type":"html-button-response","trial_index":52,"time_elapsed":802968,"internal_node_id":"0.0-4.0-1.22","subject_id":"60f9baa99f49184f083a9ce8","study_id":"6197b3f67c2b5cd3b6d9596a","session_id":"619bfbde6a16640042075a08","condition":"full-information","relevant_dimensions":["wings","pattern"],"bee_group":{"antennae":"X","wings":"1","pattern":"S","legs":"X"},"bonus":1.700000000000001},{"rt":8633,"stimulus":"bees-with-color/bee-A2SM.svg","response":0,"trial_type":"image-button-response","trial_index":53,"time_elapsed":811616,"internal_node_id":"0.0-4.0-0.23","subject_id":"60f9baa99f49184f083a9ce8","study_id":"6197b3f67c2b5cd3b6d9596a","session_id":"619bfbde6a16640042075a08","condition":"full-information","relevant_dimensions":["wings","pattern"],"bee_group":{"antennae":"X","wings":"1","pattern":"S","legs":"X"},"action":"harvest","summary":"good-harvest","bonus":1.700000000000001},{"rt":735,"stimulus":"\n                    <p><b>Action: <em>harvest</em></b></p>\n                    <p>This is the bee that you just saw.</p>\n                    <img src=\"bees-with-color/bee-A2SM.svg\" width=\"200\">\n                    <p><span class=\"greenText\"><b>Successful harvest!</b></span><br>Your pay has increased by $0.02. Your bonus pay is now $0.62.</p>\n            ","response":0,"trial_type":"html-button-response","trial_index":54,"time_elapsed":812351,"internal_node_id":"0.0-4.0-1.23","subject_id":"60f9baa99f49184f083a9ce8","study_id":"6197b3f67c2b5cd3b6d9596a","session_id":"619bfbde6a16640042075a08","condition":"full-information","relevant_dimensions":["wings","pattern"],"bee_group":{"antennae":"X","wings":"1","pattern":"S","legs":"X"},"bonus":1.700000000000001},{"rt":7766,"stimulus":"bees-with-color/bee-B2DM.svg","response":0,"trial_type":"image-button-response","trial_index":55,"time_elapsed":820122,"internal_node_id":"0.0-4.0-0.24","subject_id":"60f9baa99f49184f083a9ce8","study_id":"6197b3f67c2b5cd3b6d9596a","session_id":"619bfbde6a16640042075a08","condition":"full-information","relevant_dimensions":["wings","pattern"],"bee_group":{"antennae":"X","wings":"1","pattern":"S","legs":"X"},"action":"harvest","summary":"good-harvest","bonus":1.700000000000001},{"rt":828,"stimulus":"\n                    <p><b>Action: <em>harvest</em></b></p>\n                    <p>This is the bee that you just saw.</p>\n                    <img src=\"bees-with-color/bee-B2DM.svg\" width=\"200\">\n                    <p><span class=\"greenText\"><b>Successful harvest!</b></span><br>Your pay has increased by $0.02. Your bonus pay is now $0.64.</p>\n            ","response":0,"trial_type":"html-button-response","trial_index":56,"time_elapsed":820950,"internal_node_id":"0.0-4.0-1.24","subject_id":"60f9baa99f49184f083a9ce8","study_id":"6197b3f67c2b5cd3b6d9596a","session_id":"619bfbde6a16640042075a08","condition":"full-information","relevant_dimensions":["wings","pattern"],"bee_group":{"antennae":"X","wings":"1","pattern":"S","legs":"X"},"bonus":1.700000000000001},{"rt":5365,"stimulus":"bees-with-color/bee-B2SM.svg","response":0,"trial_type":"image-button-response","trial_index":57,"time_elapsed":826315,"internal_node_id":"0.0-4.0-0.25","subject_id":"60f9baa99f49184f083a9ce8","study_id":"6197b3f67c2b5cd3b6d9596a","session_id":"619bfbde6a16640042075a08","condition":"full-information","relevant_dimensions":["wings","pattern"],"bee_group":{"antennae":"X","wings":"1","pattern":"S","legs":"X"},"action":"harvest","summary":"good-harvest","bonus":1.700000000000001},{"rt":681,"stimulus":"\n                    <p><b>Action: <em>harvest</em></b></p>\n                    <p>This is the bee that you just saw.</p>\n                    <img src=\"bees-with-color/bee-B2SM.svg\" width=\"200\">\n                    <p><span class=\"greenText\"><b>Successful harvest!</b></span><br>Your pay has increased by $0.02. Your bonus pay is now $0.66.</p>\n            ","response":0,"trial_type":"html-button-response","trial_index":58,"time_elapsed":826996,"internal_node_id":"0.0-4.0-1.25","subject_id":"60f9baa99f49184f083a9ce8","study_id":"6197b3f67c2b5cd3b6d9596a","session_id":"619bfbde6a16640042075a08","condition":"full-information","relevant_dimensions":["wings","pattern"],"bee_group":{"antennae":"X","wings":"1","pattern":"S","legs":"X"},"bonus":1.700000000000001},{"rt":6295,"stimulus":"bees-with-color/bee-B1DM.svg","response":0,"trial_type":"image-button-response","trial_index":59,"time_elapsed":833291,"internal_node_id":"0.0-4.0-0.26","subject_id":"60f9baa99f49184f083a9ce8","study_id":"6197b3f67c2b5cd3b6d9596a","session_id":"619bfbde6a16640042075a08","condition":"full-information","relevant_dimensions":["wings","pattern"],"bee_group":{"antennae":"X","wings":"1","pattern":"S","legs":"X"},"action":"harvest","summary":"good-harvest","bonus":1.700000000000001},{"rt":1072,"stimulus":"\n                    <p><b>Action: <em>harvest</em></b></p>\n                    <p>This is the bee that you just saw.</p>\n                    <img src=\"bees-with-color/bee-B1DM.svg\" width=\"200\">\n                    <p><span class=\"greenText\"><b>Successful harvest!</b></span><br>Your pay has increased by $0.02. Your bonus pay is now $0.68.</p>\n            ","response":0,"trial_type":"html-button-response","trial_index":60,"time_elapsed":834368,"internal_node_id":"0.0-4.0-1.26","subject_id":"60f9baa99f49184f083a9ce8","study_id":"6197b3f67c2b5cd3b6d9596a","session_id":"619bfbde6a16640042075a08","condition":"full-information","relevant_dimensions":["wings","pattern"],"bee_group":{"antennae":"X","wings":"1","pattern":"S","legs":"X"},"bonus":1.700000000000001},{"rt":5677,"stimulus":"bees-with-color/bee-B1SF.svg","response":1,"trial_type":"image-button-response","trial_index":61,"time_elapsed":840045,"internal_node_id":"0.0-4.0-0.27","subject_id":"60f9baa99f49184f083a9ce8","study_id":"6197b3f67c2b5cd3b6d9596a","session_id":"619bfbde6a16640042075a08","condition":"full-information","relevant_dimensions":["wings","pattern"],"bee_group":{"antennae":"X","wings":"1","pattern":"S","legs":"X"},"action":"avoid","summary":"good-avoid","bonus":1.700000000000001},{"rt":868,"stimulus":"\n                    <p><b>Action: <em>avoid</em></b></p>\n                    <p>This is the bee that you just saw.</p>\n                    <img src=\"bees-with-color/bee-B1SF.svg\" width=\"200\">\n                    <p><span class=\"greenText\">Good choice!</span>  This bee would have stung you.<br>Your bonus pay is unchanged, and remains at $0.68.</p>\n            ","response":0,"trial_type":"html-button-response","trial_index":62,"time_elapsed":840929,"internal_node_id":"0.0-4.0-1.27","subject_id":"60f9baa99f49184f083a9ce8","study_id":"6197b3f67c2b5cd3b6d9596a","session_id":"619bfbde6a16640042075a08","condition":"full-information","relevant_dimensions":["wings","pattern"],"bee_group":{"antennae":"X","wings":"1","pattern":"S","legs":"X"},"bonus":1.700000000000001},{"rt":8351,"stimulus":"bees-with-color/bee-A2DM.svg","response":0,"trial_type":"image-button-response","trial_index":63,"time_elapsed":849280,"internal_node_id":"0.0-4.0-0.28","subject_id":"60f9baa99f49184f083a9ce8","study_id":"6197b3f67c2b5cd3b6d9596a","session_id":"619bfbde6a16640042075a08","condition":"full-information","relevant_dimensions":["wings","pattern"],"bee_group":{"antennae":"X","wings":"1","pattern":"S","legs":"X"},"action":"harvest","summary":"good-harvest","bonus":1.700000000000001},{"rt":768,"stimulus":"\n                    <p><b>Action: <em>harvest</em></b></p>\n                    <p>This is the bee that you just saw.</p>\n                    <img src=\"bees-with-color/bee-A2DM.svg\" width=\"200\">\n                    <p><span class=\"greenText\"><b>Successful harvest!</b></span><br>Your pay has increased by $0.02. Your bonus pay is now $0.70.</p>\n            ","response":0,"trial_type":"html-button-response","trial_index":64,"time_elapsed":850079,"internal_node_id":"0.0-4.0-1.28","subject_id":"60f9baa99f49184f083a9ce8","study_id":"6197b3f67c2b5cd3b6d9596a","session_id":"619bfbde6a16640042075a08","condition":"full-information","relevant_dimensions":["wings","pattern"],"bee_group":{"antennae":"X","wings":"1","pattern":"S","legs":"X"},"bonus":1.700000000000001},{"rt":9369,"stimulus":"bees-with-color/bee-A1SM.svg","response":1,"trial_type":"image-button-response","trial_index":65,"time_elapsed":859463,"internal_node_id":"0.0-4.0-0.29","subject_id":"60f9baa99f49184f083a9ce8","study_id":"6197b3f67c2b5cd3b6d9596a","session_id":"619bfbde6a16640042075a08","condition":"full-information","relevant_dimensions":["wings","pattern"],"bee_group":{"antennae":"X","wings":"1","pattern":"S","legs":"X"},"action":"avoid","summary":"good-avoid","bonus":1.700000000000001},{"rt":846,"stimulus":"\n                    <p><b>Action: <em>avoid</em></b></p>\n                    <p>This is the bee that you just saw.</p>\n                    <img src=\"bees-with-color/bee-A1SM.svg\" width=\"200\">\n                    <p><span class=\"greenText\">Good choice!</span>  This bee would have stung you.<br>Your bonus pay is unchanged, and remains at $0.70.</p>\n            ","response":0,"trial_type":"html-button-response","trial_index":66,"time_elapsed":860314,"internal_node_id":"0.0-4.0-1.29","subject_id":"60f9baa99f49184f083a9ce8","study_id":"6197b3f67c2b5cd3b6d9596a","session_id":"619bfbde6a16640042075a08","condition":"full-information","relevant_dimensions":["wings","pattern"],"bee_group":{"antennae":"X","wings":"1","pattern":"S","legs":"X"},"bonus":1.700000000000001},{"rt":9888,"stimulus":"bees-with-color/bee-B2SF.svg","response":0,"trial_type":"image-button-response","trial_index":67,"time_elapsed":870202,"internal_node_id":"0.0-4.0-0.30","subject_id":"60f9baa99f49184f083a9ce8","study_id":"6197b3f67c2b5cd3b6d9596a","session_id":"619bfbde6a16640042075a08","condition":"full-information","relevant_dimensions":["wings","pattern"],"bee_group":{"antennae":"X","wings":"1","pattern":"S","legs":"X"},"action":"harvest","summary":"good-harvest","bonus":1.700000000000001},{"rt":1730,"stimulus":"\n                    <p><b>Action: <em>harvest</em></b></p>\n                    <p>This is the bee that you just saw.</p>\n                    <img src=\"bees-with-color/bee-B2SF.svg\" width=\"200\">\n                    <p><span class=\"greenText\"><b>Successful harvest!</b></span><br>Your pay has increased by $0.02. Your bonus pay is now $0.72.</p>\n            ","response":0,"trial_type":"html-button-response","trial_index":68,"time_elapsed":871932,"internal_node_id":"0.0-4.0-1.30","subject_id":"60f9baa99f49184f083a9ce8","study_id":"6197b3f67c2b5cd3b6d9596a","session_id":"619bfbde6a16640042075a08","condition":"full-information","relevant_dimensions":["wings","pattern"],"bee_group":{"antennae":"X","wings":"1","pattern":"S","legs":"X"},"bonus":1.700000000000001},{"rt":6762,"stimulus":"bees-with-color/bee-B2DF.svg","response":0,"trial_type":"image-button-response","trial_index":69,"time_elapsed":878694,"internal_node_id":"0.0-4.0-0.31","subject_id":"60f9baa99f49184f083a9ce8","study_id":"6197b3f67c2b5cd3b6d9596a","session_id":"619bfbde6a16640042075a08","condition":"full-information","relevant_dimensions":["wings","pattern"],"bee_group":{"antennae":"X","wings":"1","pattern":"S","legs":"X"},"action":"harvest","summary":"good-harvest","bonus":1.700000000000001},{"rt":904,"stimulus":"\n                    <p><b>Action: <em>harvest</em></b></p>\n                    <p>This is the bee that you just saw.</p>\n                    <img src=\"bees-with-color/bee-B2DF.svg\" width=\"200\">\n                    <p><span class=\"greenText\"><b>Successful harvest!</b></span><br>Your pay has increased by $0.02. Your bonus pay is now $0.74.</p>\n            ","response":0,"trial_type":"html-button-response","trial_index":70,"time_elapsed":879613,"internal_node_id":"0.0-4.0-1.31","subject_id":"60f9baa99f49184f083a9ce8","study_id":"6197b3f67c2b5cd3b6d9596a","session_id":"619bfbde6a16640042075a08","condition":"full-information","relevant_dimensions":["wings","pattern"],"bee_group":{"antennae":"X","wings":"1","pattern":"S","legs":"X"},"bonus":1.700000000000001},{"rt":16915,"stimulus":"bees-with-color/bee-B2SF.svg","response":0,"trial_type":"image-button-response","trial_index":71,"time_elapsed":896528,"internal_node_id":"0.0-4.0-0.32","subject_id":"60f9baa99f49184f083a9ce8","study_id":"6197b3f67c2b5cd3b6d9596a","session_id":"619bfbde6a16640042075a08","condition":"full-information","relevant_dimensions":["wings","pattern"],"bee_group":{"antennae":"X","wings":"1","pattern":"S","legs":"X"},"action":"harvest","summary":"good-harvest","bonus":1.700000000000001},{"rt":1734,"stimulus":"\n                    <p><b>Action: <em>harvest</em></b></p>\n                    <p>This is the bee that you just saw.</p>\n                    <img src=\"bees-with-color/bee-B2SF.svg\" width=\"200\">\n                    <p><span class=\"greenText\"><b>Successful harvest!</b></span><br>Your pay has increased by $0.02. Your bonus pay is now $0.76.</p>\n            ","response":0,"trial_type":"html-button-response","trial_index":72,"time_elapsed":898262,"internal_node_id":"0.0-4.0-1.32","subject_id":"60f9baa99f49184f083a9ce8","study_id":"6197b3f67c2b5cd3b6d9596a","session_id":"619bfbde6a16640042075a08","condition":"full-information","relevant_dimensions":["wings","pattern"],"bee_group":{"antennae":"X","wings":"1","pattern":"S","legs":"X"},"bonus":1.700000000000001},{"rt":6256,"stimulus":"bees-with-color/bee-B1DF.svg","response":0,"trial_type":"image-button-response","trial_index":73,"time_elapsed":904518,"internal_node_id":"0.0-4.0-0.33","subject_id":"60f9baa99f49184f083a9ce8","study_id":"6197b3f67c2b5cd3b6d9596a","session_id":"619bfbde6a16640042075a08","condition":"full-information","relevant_dimensions":["wings","pattern"],"bee_group":{"antennae":"X","wings":"1","pattern":"S","legs":"X"},"action":"harvest","summary":"good-harvest","bonus":1.700000000000001},{"rt":648,"stimulus":"\n                    <p><b>Action: <em>harvest</em></b></p>\n                    <p>This is the bee that you just saw.</p>\n                    <img src=\"bees-with-color/bee-B1DF.svg\" width=\"200\">\n                    <p><span class=\"greenText\"><b>Successful harvest!</b></span><br>Your pay has increased by $0.02. Your bonus pay is now $0.78.</p>\n            ","response":0,"trial_type":"html-button-response","trial_index":74,"time_elapsed":905166,"internal_node_id":"0.0-4.0-1.33","subject_id":"60f9baa99f49184f083a9ce8","study_id":"6197b3f67c2b5cd3b6d9596a","session_id":"619bfbde6a16640042075a08","condition":"full-information","relevant_dimensions":["wings","pattern"],"bee_group":{"antennae":"X","wings":"1","pattern":"S","legs":"X"},"bonus":1.700000000000001},{"rt":6579,"stimulus":"bees-with-color/bee-B1DM.svg","response":0,"trial_type":"image-button-response","trial_index":75,"time_elapsed":911760,"internal_node_id":"0.0-4.0-0.34","subject_id":"60f9baa99f49184f083a9ce8","study_id":"6197b3f67c2b5cd3b6d9596a","session_id":"619bfbde6a16640042075a08","condition":"full-information","relevant_dimensions":["wings","pattern"],"bee_group":{"antennae":"X","wings":"1","pattern":"S","legs":"X"},"action":"harvest","summary":"good-harvest","bonus":1.700000000000001},{"rt":914,"stimulus":"\n                    <p><b>Action: <em>harvest</em></b></p>\n                    <p>This is the bee that you just saw.</p>\n                    <img src=\"bees-with-color/bee-B1DM.svg\" width=\"200\">\n                    <p><span class=\"greenText\"><b>Successful harvest!</b></span><br>Your pay has increased by $0.02. Your bonus pay is now $0.80.</p>\n            ","response":0,"trial_type":"html-button-response","trial_index":76,"time_elapsed":912679,"internal_node_id":"0.0-4.0-1.34","subject_id":"60f9baa99f49184f083a9ce8","study_id":"6197b3f67c2b5cd3b6d9596a","session_id":"619bfbde6a16640042075a08","condition":"full-information","relevant_dimensions":["wings","pattern"],"bee_group":{"antennae":"X","wings":"1","pattern":"S","legs":"X"},"bonus":1.700000000000001},{"rt":8343,"stimulus":"bees-with-color/bee-B2SM.svg","response":0,"trial_type":"image-button-response","trial_index":77,"time_elapsed":921022,"internal_node_id":"0.0-4.0-0.35","subject_id":"60f9baa99f49184f083a9ce8","study_id":"6197b3f67c2b5cd3b6d9596a","session_id":"619bfbde6a16640042075a08","condition":"full-information","relevant_dimensions":["wings","pattern"],"bee_group":{"antennae":"X","wings":"1","pattern":"S","legs":"X"},"action":"harvest","summary":"good-harvest","bonus":1.700000000000001},{"rt":757,"stimulus":"\n                    <p><b>Action: <em>harvest</em></b></p>\n                    <p>This is the bee that you just saw.</p>\n                    <img src=\"bees-with-color/bee-B2SM.svg\" width=\"200\">\n                    <p><span class=\"greenText\"><b>Successful harvest!</b></span><br>Your pay has increased by $0.02. Your bonus pay is now $0.82.</p>\n            ","response":0,"trial_type":"html-button-response","trial_index":78,"time_elapsed":921779,"internal_node_id":"0.0-4.0-1.35","subject_id":"60f9baa99f49184f083a9ce8","study_id":"6197b3f67c2b5cd3b6d9596a","session_id":"619bfbde6a16640042075a08","condition":"full-information","relevant_dimensions":["wings","pattern"],"bee_group":{"antennae":"X","wings":"1","pattern":"S","legs":"X"},"bonus":1.700000000000001},{"rt":13882,"stimulus":"bees-with-color/bee-B1SF.svg","response":1,"trial_type":"image-button-response","trial_index":79,"time_elapsed":935661,"internal_node_id":"0.0-4.0-0.36","subject_id":"60f9baa99f49184f083a9ce8","study_id":"6197b3f67c2b5cd3b6d9596a","session_id":"619bfbde6a16640042075a08","condition":"full-information","relevant_dimensions":["wings","pattern"],"bee_group":{"antennae":"X","wings":"1","pattern":"S","legs":"X"},"action":"avoid","summary":"good-avoid","bonus":1.700000000000001},{"rt":870,"stimulus":"\n                    <p><b>Action: <em>avoid</em></b></p>\n                    <p>This is the bee that you just saw.</p>\n                    <img src=\"bees-with-color/bee-B1SF.svg\" width=\"200\">\n                    <p><span class=\"greenText\">Good choice!</span>  This bee would have stung you.<br>Your bonus pay is unchanged, and remains at $0.82.</p>\n            ","response":0,"trial_type":"html-button-response","trial_index":80,"time_elapsed":936547,"internal_node_id":"0.0-4.0-1.36","subject_id":"60f9baa99f49184f083a9ce8","study_id":"6197b3f67c2b5cd3b6d9596a","session_id":"619bfbde6a16640042075a08","condition":"full-information","relevant_dimensions":["wings","pattern"],"bee_group":{"antennae":"X","wings":"1","pattern":"S","legs":"X"},"bonus":1.700000000000001},{"rt":6795,"stimulus":"bees-with-color/bee-B2DM.svg","response":0,"trial_type":"image-button-response","trial_index":81,"time_elapsed":943358,"internal_node_id":"0.0-4.0-0.37","subject_id":"60f9baa99f49184f083a9ce8","study_id":"6197b3f67c2b5cd3b6d9596a","session_id":"619bfbde6a16640042075a08","condition":"full-information","relevant_dimensions":["wings","pattern"],"bee_group":{"antennae":"X","wings":"1","pattern":"S","legs":"X"},"action":"harvest","summary":"good-harvest","bonus":1.700000000000001},{"rt":868,"stimulus":"\n                    <p><b>Action: <em>harvest</em></b></p>\n                    <p>This is the bee that you just saw.</p>\n                    <img src=\"bees-with-color/bee-B2DM.svg\" width=\"200\">\n                    <p><span class=\"greenText\"><b>Successful harvest!</b></span><br>Your pay has increased by $0.02. Your bonus pay is now $0.84.</p>\n            ","response":0,"trial_type":"html-button-response","trial_index":82,"time_elapsed":944226,"internal_node_id":"0.0-4.0-1.37","subject_id":"60f9baa99f49184f083a9ce8","study_id":"6197b3f67c2b5cd3b6d9596a","session_id":"619bfbde6a16640042075a08","condition":"full-information","relevant_dimensions":["wings","pattern"],"bee_group":{"antennae":"X","wings":"1","pattern":"S","legs":"X"},"bonus":1.700000000000001},{"rt":7462,"stimulus":"bees-with-color/bee-A2SF.svg","response":0,"trial_type":"image-button-response","trial_index":83,"time_elapsed":951688,"internal_node_id":"0.0-4.0-0.38","subject_id":"60f9baa99f49184f083a9ce8","study_id":"6197b3f67c2b5cd3b6d9596a","session_id":"619bfbde6a16640042075a08","condition":"full-information","relevant_dimensions":["wings","pattern"],"bee_group":{"antennae":"X","wings":"1","pattern":"S","legs":"X"},"action":"harvest","summary":"good-harvest","bonus":1.700000000000001},{"rt":773,"stimulus":"\n                    <p><b>Action: <em>harvest</em></b></p>\n                    <p>This is the bee that you just saw.</p>\n                    <img src=\"bees-with-color/bee-A2SF.svg\" width=\"200\">\n                    <p><span class=\"greenText\"><b>Successful harvest!</b></span><br>Your pay has increased by $0.02. Your bonus pay is now $0.86.</p>\n            ","response":0,"trial_type":"html-button-response","trial_index":84,"time_elapsed":952461,"internal_node_id":"0.0-4.0-1.38","subject_id":"60f9baa99f49184f083a9ce8","study_id":"6197b3f67c2b5cd3b6d9596a","session_id":"619bfbde6a16640042075a08","condition":"full-information","relevant_dimensions":["wings","pattern"],"bee_group":{"antennae":"X","wings":"1","pattern":"S","legs":"X"},"bonus":1.700000000000001},{"rt":10663,"stimulus":"bees-with-color/bee-A1SM.svg","response":1,"trial_type":"image-button-response","trial_index":85,"time_elapsed":963124,"internal_node_id":"0.0-4.0-0.39","subject_id":"60f9baa99f49184f083a9ce8","study_id":"6197b3f67c2b5cd3b6d9596a","session_id":"619bfbde6a16640042075a08","condition":"full-information","relevant_dimensions":["wings","pattern"],"bee_group":{"antennae":"X","wings":"1","pattern":"S","legs":"X"},"action":"avoid","summary":"good-avoid","bonus":1.700000000000001},{"rt":754,"stimulus":"\n                    <p><b>Action: <em>avoid</em></b></p>\n                    <p>This is the bee that you just saw.</p>\n                    <img src=\"bees-with-color/bee-A1SM.svg\" width=\"200\">\n                    <p><span class=\"greenText\">Good choice!</span>  This bee would have stung you.<br>Your bonus pay is unchanged, and remains at $0.86.</p>\n            ","response":0,"trial_type":"html-button-response","trial_index":86,"time_elapsed":963878,"internal_node_id":"0.0-4.0-1.39","subject_id":"60f9baa99f49184f083a9ce8","study_id":"6197b3f67c2b5cd3b6d9596a","session_id":"619bfbde6a16640042075a08","condition":"full-information","relevant_dimensions":["wings","pattern"],"bee_group":{"antennae":"X","wings":"1","pattern":"S","legs":"X"},"bonus":1.700000000000001},{"rt":5999,"stimulus":"bees-with-color/bee-A2DF.svg","response":0,"trial_type":"image-button-response","trial_index":87,"time_elapsed":969892,"internal_node_id":"0.0-4.0-0.40","subject_id":"60f9baa99f49184f083a9ce8","study_id":"6197b3f67c2b5cd3b6d9596a","session_id":"619bfbde6a16640042075a08","condition":"full-information","relevant_dimensions":["wings","pattern"],"bee_group":{"antennae":"X","wings":"1","pattern":"S","legs":"X"},"action":"harvest","summary":"good-harvest","bonus":1.700000000000001},{"rt":846,"stimulus":"\n                    <p><b>Action: <em>harvest</em></b></p>\n                    <p>This is the bee that you just saw.</p>\n                    <img src=\"bees-with-color/bee-A2DF.svg\" width=\"200\">\n                    <p><span class=\"greenText\"><b>Successful harvest!</b></span><br>Your pay has increased by $0.02. Your bonus pay is now $0.88.</p>\n            ","response":0,"trial_type":"html-button-response","trial_index":88,"time_elapsed":970738,"internal_node_id":"0.0-4.0-1.40","subject_id":"60f9baa99f49184f083a9ce8","study_id":"6197b3f67c2b5cd3b6d9596a","session_id":"619bfbde6a16640042075a08","condition":"full-information","relevant_dimensions":["wings","pattern"],"bee_group":{"antennae":"X","wings":"1","pattern":"S","legs":"X"},"bonus":1.700000000000001},{"rt":11918,"stimulus":"bees-with-color/bee-B1SM.svg","response":1,"trial_type":"image-button-response","trial_index":89,"time_elapsed":982671,"internal_node_id":"0.0-4.0-0.41","subject_id":"60f9baa99f49184f083a9ce8","study_id":"6197b3f67c2b5cd3b6d9596a","session_id":"619bfbde6a16640042075a08","condition":"full-information","relevant_dimensions":["wings","pattern"],"bee_group":{"antennae":"X","wings":"1","pattern":"S","legs":"X"},"action":"avoid","summary":"good-avoid","bonus":1.700000000000001},{"rt":1035,"stimulus":"\n                    <p><b>Action: <em>avoid</em></b></p>\n                    <p>This is the bee that you just saw.</p>\n                    <img src=\"bees-with-color/bee-B1SM.svg\" width=\"200\">\n                    <p><span class=\"greenText\">Good choice!</span>  This bee would have stung you.<br>Your bonus pay is unchanged, and remains at $0.88.</p>\n            ","response":0,"trial_type":"html-button-response","trial_index":90,"time_elapsed":983706,"internal_node_id":"0.0-4.0-1.41","subject_id":"60f9baa99f49184f083a9ce8","study_id":"6197b3f67c2b5cd3b6d9596a","session_id":"619bfbde6a16640042075a08","condition":"full-information","relevant_dimensions":["wings","pattern"],"bee_group":{"antennae":"X","wings":"1","pattern":"S","legs":"X"},"bonus":1.700000000000001},{"rt":5966,"stimulus":"bees-with-color/bee-A1DM.svg","response":0,"trial_type":"image-button-response","trial_index":91,"time_elapsed":989672,"internal_node_id":"0.0-4.0-0.42","subject_id":"60f9baa99f49184f083a9ce8","study_id":"6197b3f67c2b5cd3b6d9596a","session_id":"619bfbde6a16640042075a08","condition":"full-information","relevant_dimensions":["wings","pattern"],"bee_group":{"antennae":"X","wings":"1","pattern":"S","legs":"X"},"action":"harvest","summary":"good-harvest","bonus":1.700000000000001},{"rt":831,"stimulus":"\n                    <p><b>Action: <em>harvest</em></b></p>\n                    <p>This is the bee that you just saw.</p>\n                    <img src=\"bees-with-color/bee-A1DM.svg\" width=\"200\">\n                    <p><span class=\"greenText\"><b>Successful harvest!</b></span><br>Your pay has increased by $0.02. Your bonus pay is now $0.90.</p>\n            ","response":0,"trial_type":"html-button-response","trial_index":92,"time_elapsed":990508,"internal_node_id":"0.0-4.0-1.42","subject_id":"60f9baa99f49184f083a9ce8","study_id":"6197b3f67c2b5cd3b6d9596a","session_id":"619bfbde6a16640042075a08","condition":"full-information","relevant_dimensions":["wings","pattern"],"bee_group":{"antennae":"X","wings":"1","pattern":"S","legs":"X"},"bonus":1.700000000000001},{"rt":6332,"stimulus":"bees-with-color/bee-A2SM.svg","response":0,"trial_type":"image-button-response","trial_index":93,"time_elapsed":996840,"internal_node_id":"0.0-4.0-0.43","subject_id":"60f9baa99f49184f083a9ce8","study_id":"6197b3f67c2b5cd3b6d9596a","session_id":"619bfbde6a16640042075a08","condition":"full-information","relevant_dimensions":["wings","pattern"],"bee_group":{"antennae":"X","wings":"1","pattern":"S","legs":"X"},"action":"harvest","summary":"good-harvest","bonus":1.700000000000001},{"rt":783,"stimulus":"\n                    <p><b>Action: <em>harvest</em></b></p>\n                    <p>This is the bee that you just saw.</p>\n                    <img src=\"bees-with-color/bee-A2SM.svg\" width=\"200\">\n                    <p><span class=\"greenText\"><b>Successful harvest!</b></span><br>Your pay has increased by $0.02. Your bonus pay is now $0.92.</p>\n            ","response":0,"trial_type":"html-button-response","trial_index":94,"time_elapsed":997639,"internal_node_id":"0.0-4.0-1.43","subject_id":"60f9baa99f49184f083a9ce8","study_id":"6197b3f67c2b5cd3b6d9596a","session_id":"619bfbde6a16640042075a08","condition":"full-information","relevant_dimensions":["wings","pattern"],"bee_group":{"antennae":"X","wings":"1","pattern":"S","legs":"X"},"bonus":1.700000000000001},{"rt":7236,"stimulus":"bees-with-color/bee-A1SF.svg","response":1,"trial_type":"image-button-response","trial_index":95,"time_elapsed":1004891,"internal_node_id":"0.0-4.0-0.44","subject_id":"60f9baa99f49184f083a9ce8","study_id":"6197b3f67c2b5cd3b6d9596a","session_id":"619bfbde6a16640042075a08","condition":"full-information","relevant_dimensions":["wings","pattern"],"bee_group":{"antennae":"X","wings":"1","pattern":"S","legs":"X"},"action":"avoid","summary":"good-avoid","bonus":1.700000000000001},{"rt":1145,"stimulus":"\n                    <p><b>Action: <em>avoid</em></b></p>\n                    <p>This is the bee that you just saw.</p>\n                    <img src=\"bees-with-color/bee-A1SF.svg\" width=\"200\">\n                    <p><span class=\"greenText\">Good choice!</span>  This bee would have stung you.<br>Your bonus pay is unchanged, and remains at $0.92.</p>\n            ","response":0,"trial_type":"html-button-response","trial_index":96,"time_elapsed":1006036,"internal_node_id":"0.0-4.0-1.44","subject_id":"60f9baa99f49184f083a9ce8","study_id":"6197b3f67c2b5cd3b6d9596a","session_id":"619bfbde6a16640042075a08","condition":"full-information","relevant_dimensions":["wings","pattern"],"bee_group":{"antennae":"X","wings":"1","pattern":"S","legs":"X"},"bonus":1.700000000000001},{"rt":4801,"stimulus":"bees-with-color/bee-A1DF.svg","response":0,"trial_type":"image-button-response","trial_index":97,"time_elapsed":1010837,"internal_node_id":"0.0-4.0-0.45","subject_id":"60f9baa99f49184f083a9ce8","study_id":"6197b3f67c2b5cd3b6d9596a","session_id":"619bfbde6a16640042075a08","condition":"full-information","relevant_dimensions":["wings","pattern"],"bee_group":{"antennae":"X","wings":"1","pattern":"S","legs":"X"},"action":"harvest","summary":"good-harvest","bonus":1.700000000000001},{"rt":637,"stimulus":"\n                    <p><b>Action: <em>harvest</em></b></p>\n                    <p>This is the bee that you just saw.</p>\n                    <img src=\"bees-with-color/bee-A1DF.svg\" width=\"200\">\n                    <p><span class=\"greenText\"><b>Successful harvest!</b></span><br>Your pay has increased by $0.02. Your bonus pay is now $0.94.</p>\n            ","response":0,"trial_type":"html-button-response","trial_index":98,"time_elapsed":1011495,"internal_node_id":"0.0-4.0-1.45","subject_id":"60f9baa99f49184f083a9ce8","study_id":"6197b3f67c2b5cd3b6d9596a","session_id":"619bfbde6a16640042075a08","condition":"full-information","relevant_dimensions":["wings","pattern"],"bee_group":{"antennae":"X","wings":"1","pattern":"S","legs":"X"},"bonus":1.700000000000001},{"rt":4710,"stimulus":"bees-with-color/bee-A2DM.svg","response":0,"trial_type":"image-button-response","trial_index":99,"time_elapsed":1016205,"internal_node_id":"0.0-4.0-0.46","subject_id":"60f9baa99f49184f083a9ce8","study_id":"6197b3f67c2b5cd3b6d9596a","session_id":"619bfbde6a16640042075a08","condition":"full-information","relevant_dimensions":["wings","pattern"],"bee_group":{"antennae":"X","wings":"1","pattern":"S","legs":"X"},"action":"harvest","summary":"good-harvest","bonus":1.700000000000001},{"rt":726,"stimulus":"\n                    <p><b>Action: <em>harvest</em></b></p>\n                    <p>This is the bee that you just saw.</p>\n                    <img src=\"bees-with-color/bee-A2DM.svg\" width=\"200\">\n                    <p><span class=\"greenText\"><b>Successful harvest!</b></span><br>Your pay has increased by $0.02. Your bonus pay is now $0.96.</p>\n            ","response":0,"trial_type":"html-button-response","trial_index":100,"time_elapsed":1016931,"internal_node_id":"0.0-4.0-1.46","subject_id":"60f9baa99f49184f083a9ce8","study_id":"6197b3f67c2b5cd3b6d9596a","session_id":"619bfbde6a16640042075a08","condition":"full-information","relevant_dimensions":["wings","pattern"],"bee_group":{"antennae":"X","wings":"1","pattern":"S","legs":"X"},"bonus":1.700000000000001},{"rt":5788,"stimulus":"bees-with-color/bee-B2DF.svg","response":0,"trial_type":"image-button-response","trial_index":101,"time_elapsed":1022739,"internal_node_id":"0.0-4.0-0.47","subject_id":"60f9baa99f49184f083a9ce8","study_id":"6197b3f67c2b5cd3b6d9596a","session_id":"619bfbde6a16640042075a08","condition":"full-information","relevant_dimensions":["wings","pattern"],"bee_group":{"antennae":"X","wings":"1","pattern":"S","legs":"X"},"action":"harvest","summary":"good-harvest","bonus":1.700000000000001},{"rt":649,"stimulus":"\n                    <p><b>Action: <em>harvest</em></b></p>\n                    <p>This is the bee that you just saw.</p>\n                    <img src=\"bees-with-color/bee-B2DF.svg\" width=\"200\">\n                    <p><span class=\"greenText\"><b>Successful harvest!</b></span><br>Your pay has increased by $0.02. Your bonus pay is now $0.98.</p>\n            ","response":0,"trial_type":"html-button-response","trial_index":102,"time_elapsed":1023388,"internal_node_id":"0.0-4.0-1.47","subject_id":"60f9baa99f49184f083a9ce8","study_id":"6197b3f67c2b5cd3b6d9596a","session_id":"619bfbde6a16640042075a08","condition":"full-information","relevant_dimensions":["wings","pattern"],"bee_group":{"antennae":"X","wings":"1","pattern":"S","legs":"X"},"bonus":1.700000000000001},{"rt":5838,"stimulus":"bees-with-color/bee-B2SM.svg","response":0,"trial_type":"image-button-response","trial_index":103,"time_elapsed":1029226,"internal_node_id":"0.0-4.0-0.48","subject_id":"60f9baa99f49184f083a9ce8","study_id":"6197b3f67c2b5cd3b6d9596a","session_id":"619bfbde6a16640042075a08","condition":"full-information","relevant_dimensions":["wings","pattern"],"bee_group":{"antennae":"X","wings":"1","pattern":"S","legs":"X"},"action":"harvest","summary":"good-harvest","bonus":1.700000000000001},{"rt":611,"stimulus":"\n                    <p><b>Action: <em>harvest</em></b></p>\n                    <p>This is the bee that you just saw.</p>\n                    <img src=\"bees-with-color/bee-B2SM.svg\" width=\"200\">\n                    <p><span class=\"greenText\"><b>Successful harvest!</b></span><br>Your pay has increased by $0.02. Your bonus pay is now $1.00.</p>\n            ","response":0,"trial_type":"html-button-response","trial_index":104,"time_elapsed":1029837,"internal_node_id":"0.0-4.0-1.48","subject_id":"60f9baa99f49184f083a9ce8","study_id":"6197b3f67c2b5cd3b6d9596a","session_id":"619bfbde6a16640042075a08","condition":"full-information","relevant_dimensions":["wings","pattern"],"bee_group":{"antennae":"X","wings":"1","pattern":"S","legs":"X"},"bonus":1.700000000000001},{"rt":9644,"stimulus":"bees-with-color/bee-B1DM.svg","response":0,"trial_type":"image-button-response","trial_index":105,"time_elapsed":1039486,"internal_node_id":"0.0-4.0-0.49","subject_id":"60f9baa99f49184f083a9ce8","study_id":"6197b3f67c2b5cd3b6d9596a","session_id":"619bfbde6a16640042075a08","condition":"full-information","relevant_dimensions":["wings","pattern"],"bee_group":{"antennae":"X","wings":"1","pattern":"S","legs":"X"},"action":"harvest","summary":"good-harvest","bonus":1.700000000000001},{"rt":770,"stimulus":"\n                    <p><b>Action: <em>harvest</em></b></p>\n                    <p>This is the bee that you just saw.</p>\n                    <img src=\"bees-with-color/bee-B1DM.svg\" width=\"200\">\n                    <p><span class=\"greenText\"><b>Successful harvest!</b></span><br>Your pay has increased by $0.02. Your bonus pay is now $1.02.</p>\n            ","response":0,"trial_type":"html-button-response","trial_index":106,"time_elapsed":1040256,"internal_node_id":"0.0-4.0-1.49","subject_id":"60f9baa99f49184f083a9ce8","study_id":"6197b3f67c2b5cd3b6d9596a","session_id":"619bfbde6a16640042075a08","condition":"full-information","relevant_dimensions":["wings","pattern"],"bee_group":{"antennae":"X","wings":"1","pattern":"S","legs":"X"},"bonus":1.700000000000001},{"rt":4047,"stimulus":"bees-with-color/bee-A1SF.svg","response":1,"trial_type":"image-button-response","trial_index":107,"time_elapsed":1044303,"internal_node_id":"0.0-4.0-0.50","subject_id":"60f9baa99f49184f083a9ce8","study_id":"6197b3f67c2b5cd3b6d9596a","session_id":"619bfbde6a16640042075a08","condition":"full-information","relevant_dimensions":["wings","pattern"],"bee_group":{"antennae":"X","wings":"1","pattern":"S","legs":"X"},"action":"avoid","summary":"good-avoid","bonus":1.700000000000001},{"rt":1019,"stimulus":"\n                    <p><b>Action: <em>avoid</em></b></p>\n                    <p>This is the bee that you just saw.</p>\n                    <img src=\"bees-with-color/bee-A1SF.svg\" width=\"200\">\n                    <p><span class=\"greenText\">Good choice!</span>  This bee would have stung you.<br>Your bonus pay is unchanged, and remains at $1.02.</p>\n            ","response":0,"trial_type":"html-button-response","trial_index":108,"time_elapsed":1045322,"internal_node_id":"0.0-4.0-1.50","subject_id":"60f9baa99f49184f083a9ce8","study_id":"6197b3f67c2b5cd3b6d9596a","session_id":"619bfbde6a16640042075a08","condition":"full-information","relevant_dimensions":["wings","pattern"],"bee_group":{"antennae":"X","wings":"1","pattern":"S","legs":"X"},"bonus":1.700000000000001},{"rt":4815,"stimulus":"bees-with-color/bee-A1DF.svg","response":0,"trial_type":"image-button-response","trial_index":109,"time_elapsed":1050137,"internal_node_id":"0.0-4.0-0.51","subject_id":"60f9baa99f49184f083a9ce8","study_id":"6197b3f67c2b5cd3b6d9596a","session_id":"619bfbde6a16640042075a08","condition":"full-information","relevant_dimensions":["wings","pattern"],"bee_group":{"antennae":"X","wings":"1","pattern":"S","legs":"X"},"action":"harvest","summary":"good-harvest","bonus":1.700000000000001},{"rt":1065,"stimulus":"\n                    <p><b>Action: <em>harvest</em></b></p>\n                    <p>This is the bee that you just saw.</p>\n                    <img src=\"bees-with-color/bee-A1DF.svg\" width=\"200\">\n                    <p><span class=\"greenText\"><b>Successful harvest!</b></span><br>Your pay has increased by $0.02. Your bonus pay is now $1.04.</p>\n            ","response":0,"trial_type":"html-button-response","trial_index":110,"time_elapsed":1051207,"internal_node_id":"0.0-4.0-1.51","subject_id":"60f9baa99f49184f083a9ce8","study_id":"6197b3f67c2b5cd3b6d9596a","session_id":"619bfbde6a16640042075a08","condition":"full-information","relevant_dimensions":["wings","pattern"],"bee_group":{"antennae":"X","wings":"1","pattern":"S","legs":"X"},"bonus":1.700000000000001},{"rt":4648,"stimulus":"bees-with-color/bee-B1SF.svg","response":1,"trial_type":"image-button-response","trial_index":111,"time_elapsed":1055871,"internal_node_id":"0.0-4.0-0.52","subject_id":"60f9baa99f49184f083a9ce8","study_id":"6197b3f67c2b5cd3b6d9596a","session_id":"619bfbde6a16640042075a08","condition":"full-information","relevant_dimensions":["wings","pattern"],"bee_group":{"antennae":"X","wings":"1","pattern":"S","legs":"X"},"action":"avoid","summary":"good-avoid","bonus":1.700000000000001},{"rt":898,"stimulus":"\n                    <p><b>Action: <em>avoid</em></b></p>\n                    <p>This is the bee that you just saw.</p>\n                    <img src=\"bees-with-color/bee-B1SF.svg\" width=\"200\">\n                    <p><span class=\"greenText\">Good choice!</span>  This bee would have stung you.<br>Your bonus pay is unchanged, and remains at $1.04.</p>\n            ","response":0,"trial_type":"html-button-response","trial_index":112,"time_elapsed":1056769,"internal_node_id":"0.0-4.0-1.52","subject_id":"60f9baa99f49184f083a9ce8","study_id":"6197b3f67c2b5cd3b6d9596a","session_id":"619bfbde6a16640042075a08","condition":"full-information","relevant_dimensions":["wings","pattern"],"bee_group":{"antennae":"X","wings":"1","pattern":"S","legs":"X"},"bonus":1.700000000000001},{"rt":5505,"stimulus":"bees-with-color/bee-A2SF.svg","response":0,"trial_type":"image-button-response","trial_index":113,"time_elapsed":1062274,"internal_node_id":"0.0-4.0-0.53","subject_id":"60f9baa99f49184f083a9ce8","study_id":"6197b3f67c2b5cd3b6d9596a","session_id":"619bfbde6a16640042075a08","condition":"full-information","relevant_dimensions":["wings","pattern"],"bee_group":{"antennae":"X","wings":"1","pattern":"S","legs":"X"},"action":"harvest","summary":"good-harvest","bonus":1.700000000000001},{"rt":1015,"stimulus":"\n                    <p><b>Action: <em>harvest</em></b></p>\n                    <p>This is the bee that you just saw.</p>\n                    <img src=\"bees-with-color/bee-A2SF.svg\" width=\"200\">\n                    <p><span class=\"greenText\"><b>Successful harvest!</b></span><br>Your pay has increased by $0.02. Your bonus pay is now $1.06.</p>\n            ","response":0,"trial_type":"html-button-response","trial_index":114,"time_elapsed":1063289,"internal_node_id":"0.0-4.0-1.53","subject_id":"60f9baa99f49184f083a9ce8","study_id":"6197b3f67c2b5cd3b6d9596a","session_id":"619bfbde6a16640042075a08","condition":"full-information","relevant_dimensions":["wings","pattern"],"bee_group":{"antennae":"X","wings":"1","pattern":"S","legs":"X"},"bonus":1.700000000000001},{"rt":4131,"stimulus":"bees-with-color/bee-B2DM.svg","response":0,"trial_type":"image-button-response","trial_index":115,"time_elapsed":1067435,"internal_node_id":"0.0-4.0-0.54","subject_id":"60f9baa99f49184f083a9ce8","study_id":"6197b3f67c2b5cd3b6d9596a","session_id":"619bfbde6a16640042075a08","condition":"full-information","relevant_dimensions":["wings","pattern"],"bee_group":{"antennae":"X","wings":"1","pattern":"S","legs":"X"},"action":"harvest","summary":"good-harvest","bonus":1.700000000000001},{"rt":630,"stimulus":"\n                    <p><b>Action: <em>harvest</em></b></p>\n                    <p>This is the bee that you just saw.</p>\n                    <img src=\"bees-with-color/bee-B2DM.svg\" width=\"200\">\n                    <p><span class=\"greenText\"><b>Successful harvest!</b></span><br>Your pay has increased by $0.02. Your bonus pay is now $1.08.</p>\n            ","response":0,"trial_type":"html-button-response","trial_index":116,"time_elapsed":1068065,"internal_node_id":"0.0-4.0-1.54","subject_id":"60f9baa99f49184f083a9ce8","study_id":"6197b3f67c2b5cd3b6d9596a","session_id":"619bfbde6a16640042075a08","condition":"full-information","relevant_dimensions":["wings","pattern"],"bee_group":{"antennae":"X","wings":"1","pattern":"S","legs":"X"},"bonus":1.700000000000001},{"rt":5235,"stimulus":"bees-with-color/bee-A2SM.svg","response":0,"trial_type":"image-button-response","trial_index":117,"time_elapsed":1073305,"internal_node_id":"0.0-4.0-0.55","subject_id":"60f9baa99f49184f083a9ce8","study_id":"6197b3f67c2b5cd3b6d9596a","session_id":"619bfbde6a16640042075a08","condition":"full-information","relevant_dimensions":["wings","pattern"],"bee_group":{"antennae":"X","wings":"1","pattern":"S","legs":"X"},"action":"harvest","summary":"good-harvest","bonus":1.700000000000001},{"rt":699,"stimulus":"\n                    <p><b>Action: <em>harvest</em></b></p>\n                    <p>This is the bee that you just saw.</p>\n                    <img src=\"bees-with-color/bee-A2SM.svg\" width=\"200\">\n                    <p><span class=\"greenText\"><b>Successful harvest!</b></span><br>Your pay has increased by $0.02. Your bonus pay is now $1.10.</p>\n            ","response":0,"trial_type":"html-button-response","trial_index":118,"time_elapsed":1074004,"internal_node_id":"0.0-4.0-1.55","subject_id":"60f9baa99f49184f083a9ce8","study_id":"6197b3f67c2b5cd3b6d9596a","session_id":"619bfbde6a16640042075a08","condition":"full-information","relevant_dimensions":["wings","pattern"],"bee_group":{"antennae":"X","wings":"1","pattern":"S","legs":"X"},"bonus":1.700000000000001},{"rt":7418,"stimulus":"bees-with-color/bee-A1SM.svg","response":1,"trial_type":"image-button-response","trial_index":119,"time_elapsed":1081422,"internal_node_id":"0.0-4.0-0.56","subject_id":"60f9baa99f49184f083a9ce8","study_id":"6197b3f67c2b5cd3b6d9596a","session_id":"619bfbde6a16640042075a08","condition":"full-information","relevant_dimensions":["wings","pattern"],"bee_group":{"antennae":"X","wings":"1","pattern":"S","legs":"X"},"action":"avoid","summary":"good-avoid","bonus":1.700000000000001},{"rt":717,"stimulus":"\n                    <p><b>Action: <em>avoid</em></b></p>\n                    <p>This is the bee that you just saw.</p>\n                    <img src=\"bees-with-color/bee-A1SM.svg\" width=\"200\">\n                    <p><span class=\"greenText\">Good choice!</span>  This bee would have stung you.<br>Your bonus pay is unchanged, and remains at $1.10.</p>\n            ","response":0,"trial_type":"html-button-response","trial_index":120,"time_elapsed":1082171,"internal_node_id":"0.0-4.0-1.56","subject_id":"60f9baa99f49184f083a9ce8","study_id":"6197b3f67c2b5cd3b6d9596a","session_id":"619bfbde6a16640042075a08","condition":"full-information","relevant_dimensions":["wings","pattern"],"bee_group":{"antennae":"X","wings":"1","pattern":"S","legs":"X"},"bonus":1.700000000000001},{"rt":3551,"stimulus":"bees-with-color/bee-A1DM.svg","response":0,"trial_type":"image-button-response","trial_index":121,"time_elapsed":1085722,"internal_node_id":"0.0-4.0-0.57","subject_id":"60f9baa99f49184f083a9ce8","study_id":"6197b3f67c2b5cd3b6d9596a","session_id":"619bfbde6a16640042075a08","condition":"full-information","relevant_dimensions":["wings","pattern"],"bee_group":{"antennae":"X","wings":"1","pattern":"S","legs":"X"},"action":"harvest","summary":"good-harvest","bonus":1.700000000000001},{"rt":813,"stimulus":"\n                    <p><b>Action: <em>harvest</em></b></p>\n                    <p>This is the bee that you just saw.</p>\n                    <img src=\"bees-with-color/bee-A1DM.svg\" width=\"200\">\n                    <p><span class=\"greenText\"><b>Successful harvest!</b></span><br>Your pay has increased by $0.02. Your bonus pay is now $1.12.</p>\n            ","response":0,"trial_type":"html-button-response","trial_index":122,"time_elapsed":1086535,"internal_node_id":"0.0-4.0-1.57","subject_id":"60f9baa99f49184f083a9ce8","study_id":"6197b3f67c2b5cd3b6d9596a","session_id":"619bfbde6a16640042075a08","condition":"full-information","relevant_dimensions":["wings","pattern"],"bee_group":{"antennae":"X","wings":"1","pattern":"S","legs":"X"},"bonus":1.700000000000001},{"rt":5100,"stimulus":"bees-with-color/bee-B1SM.svg","response":1,"trial_type":"image-button-response","trial_index":123,"time_elapsed":1091635,"internal_node_id":"0.0-4.0-0.58","subject_id":"60f9baa99f49184f083a9ce8","study_id":"6197b3f67c2b5cd3b6d9596a","session_id":"619bfbde6a16640042075a08","condition":"full-information","relevant_dimensions":["wings","pattern"],"bee_group":{"antennae":"X","wings":"1","pattern":"S","legs":"X"},"action":"avoid","summary":"good-avoid","bonus":1.700000000000001},{"rt":705,"stimulus":"\n                    <p><b>Action: <em>avoid</em></b></p>\n                    <p>This is the bee that you just saw.</p>\n                    <img src=\"bees-with-color/bee-B1SM.svg\" width=\"200\">\n                    <p><span class=\"greenText\">Good choice!</span>  This bee would have stung you.<br>Your bonus pay is unchanged, and remains at $1.12.</p>\n            ","response":0,"trial_type":"html-button-response","trial_index":124,"time_elapsed":1092340,"internal_node_id":"0.0-4.0-1.58","subject_id":"60f9baa99f49184f083a9ce8","study_id":"6197b3f67c2b5cd3b6d9596a","session_id":"619bfbde6a16640042075a08","condition":"full-information","relevant_dimensions":["wings","pattern"],"bee_group":{"antennae":"X","wings":"1","pattern":"S","legs":"X"},"bonus":1.700000000000001},{"rt":5481,"stimulus":"bees-with-color/bee-A2DF.svg","response":0,"trial_type":"image-button-response","trial_index":125,"time_elapsed":1097837,"internal_node_id":"0.0-4.0-0.59","subject_id":"60f9baa99f49184f083a9ce8","study_id":"6197b3f67c2b5cd3b6d9596a","session_id":"619bfbde6a16640042075a08","condition":"full-information","relevant_dimensions":["wings","pattern"],"bee_group":{"antennae":"X","wings":"1","pattern":"S","legs":"X"},"action":"harvest","summary":"good-harvest","bonus":1.700000000000001},{"rt":684,"stimulus":"\n                    <p><b>Action: <em>harvest</em></b></p>\n                    <p>This is the bee that you just saw.</p>\n                    <img src=\"bees-with-color/bee-A2DF.svg\" width=\"200\">\n                    <p><span class=\"greenText\"><b>Successful harvest!</b></span><br>Your pay has increased by $0.02. Your bonus pay is now $1.14.</p>\n            ","response":0,"trial_type":"html-button-response","trial_index":126,"time_elapsed":1098521,"internal_node_id":"0.0-4.0-1.59","subject_id":"60f9baa99f49184f083a9ce8","study_id":"6197b3f67c2b5cd3b6d9596a","session_id":"619bfbde6a16640042075a08","condition":"full-information","relevant_dimensions":["wings","pattern"],"bee_group":{"antennae":"X","wings":"1","pattern":"S","legs":"X"},"bonus":1.700000000000001},{"rt":3881,"stimulus":"bees-with-color/bee-B2DF.svg","response":0,"trial_type":"image-button-response","trial_index":127,"time_elapsed":1102418,"internal_node_id":"0.0-4.0-0.60","subject_id":"60f9baa99f49184f083a9ce8","study_id":"6197b3f67c2b5cd3b6d9596a","session_id":"619bfbde6a16640042075a08","condition":"full-information","relevant_dimensions":["wings","pattern"],"bee_group":{"antennae":"X","wings":"1","pattern":"S","legs":"X"},"action":"harvest","summary":"good-harvest","bonus":1.700000000000001},{"rt":553,"stimulus":"\n                    <p><b>Action: <em>harvest</em></b></p>\n                    <p>This is the bee that you just saw.</p>\n                    <img src=\"bees-with-color/bee-B2DF.svg\" width=\"200\">\n                    <p><span class=\"greenText\"><b>Successful harvest!</b></span><br>Your pay has increased by $0.02. Your bonus pay is now $1.16.</p>\n            ","response":0,"trial_type":"html-button-response","trial_index":128,"time_elapsed":1102986,"internal_node_id":"0.0-4.0-1.60","subject_id":"60f9baa99f49184f083a9ce8","study_id":"6197b3f67c2b5cd3b6d9596a","session_id":"619bfbde6a16640042075a08","condition":"full-information","relevant_dimensions":["wings","pattern"],"bee_group":{"antennae":"X","wings":"1","pattern":"S","legs":"X"},"bonus":1.700000000000001},{"rt":5099,"stimulus":"bees-with-color/bee-B2SF.svg","response":0,"trial_type":"image-button-response","trial_index":129,"time_elapsed":1108085,"internal_node_id":"0.0-4.0-0.61","subject_id":"60f9baa99f49184f083a9ce8","study_id":"6197b3f67c2b5cd3b6d9596a","session_id":"619bfbde6a16640042075a08","condition":"full-information","relevant_dimensions":["wings","pattern"],"bee_group":{"antennae":"X","wings":"1","pattern":"S","legs":"X"},"action":"harvest","summary":"good-harvest","bonus":1.700000000000001},{"rt":656,"stimulus":"\n                    <p><b>Action: <em>harvest</em></b></p>\n                    <p>This is the bee that you just saw.</p>\n                    <img src=\"bees-with-color/bee-B2SF.svg\" width=\"200\">\n                    <p><span class=\"greenText\"><b>Successful harvest!</b></span><br>Your pay has increased by $0.02. Your bonus pay is now $1.18.</p>\n            ","response":0,"trial_type":"html-button-response","trial_index":130,"time_elapsed":1108756,"internal_node_id":"0.0-4.0-1.61","subject_id":"60f9baa99f49184f083a9ce8","study_id":"6197b3f67c2b5cd3b6d9596a","session_id":"619bfbde6a16640042075a08","condition":"full-information","relevant_dimensions":["wings","pattern"],"bee_group":{"antennae":"X","wings":"1","pattern":"S","legs":"X"},"bonus":1.700000000000001},{"rt":5012,"stimulus":"bees-with-color/bee-A2DM.svg","response":0,"trial_type":"image-button-response","trial_index":131,"time_elapsed":1113768,"internal_node_id":"0.0-4.0-0.62","subject_id":"60f9baa99f49184f083a9ce8","study_id":"6197b3f67c2b5cd3b6d9596a","session_id":"619bfbde6a16640042075a08","condition":"full-information","relevant_dimensions":["wings","pattern"],"bee_group":{"antennae":"X","wings":"1","pattern":"S","legs":"X"},"action":"harvest","summary":"good-harvest","bonus":1.700000000000001},{"rt":802,"stimulus":"\n                    <p><b>Action: <em>harvest</em></b></p>\n                    <p>This is the bee that you just saw.</p>\n                    <img src=\"bees-with-color/bee-A2DM.svg\" width=\"200\">\n                    <p><span class=\"greenText\"><b>Successful harvest!</b></span><br>Your pay has increased by $0.02. Your bonus pay is now $1.20.</p>\n            ","response":0,"trial_type":"html-button-response","trial_index":132,"time_elapsed":1114570,"internal_node_id":"0.0-4.0-1.62","subject_id":"60f9baa99f49184f083a9ce8","study_id":"6197b3f67c2b5cd3b6d9596a","session_id":"619bfbde6a16640042075a08","condition":"full-information","relevant_dimensions":["wings","pattern"],"bee_group":{"antennae":"X","wings":"1","pattern":"S","legs":"X"},"bonus":1.700000000000001},{"rt":5166,"stimulus":"bees-with-color/bee-B1DF.svg","response":0,"trial_type":"image-button-response","trial_index":133,"time_elapsed":1119736,"internal_node_id":"0.0-4.0-0.63","subject_id":"60f9baa99f49184f083a9ce8","study_id":"6197b3f67c2b5cd3b6d9596a","session_id":"619bfbde6a16640042075a08","condition":"full-information","relevant_dimensions":["wings","pattern"],"bee_group":{"antennae":"X","wings":"1","pattern":"S","legs":"X"},"action":"harvest","summary":"good-harvest","bonus":1.700000000000001},{"rt":1000,"stimulus":"\n                    <p><b>Action: <em>harvest</em></b></p>\n                    <p>This is the bee that you just saw.</p>\n                    <img src=\"bees-with-color/bee-B1DF.svg\" width=\"200\">\n                    <p><span class=\"greenText\"><b>Successful harvest!</b></span><br>Your pay has increased by $0.02. Your bonus pay is now $1.22.</p>\n            ","response":0,"trial_type":"html-button-response","trial_index":134,"time_elapsed":1120736,"internal_node_id":"0.0-4.0-1.63","subject_id":"60f9baa99f49184f083a9ce8","study_id":"6197b3f67c2b5cd3b6d9596a","session_id":"619bfbde6a16640042075a08","condition":"full-information","relevant_dimensions":["wings","pattern"],"bee_group":{"antennae":"X","wings":"1","pattern":"S","legs":"X"},"bonus":1.700000000000001},{"rt":8408,"stimulus":"You have completed the first part of this experiment.<br><br>You will now begin a shorter second part, in which you will receive no feedback.<br>The same rules regarding bonus pay apply.<br><br>Press any key to begin.","response":" ","trial_type":"html-keyboard-response","trial_index":135,"time_elapsed":1129144,"internal_node_id":"0.0-5.0","subject_id":"60f9baa99f49184f083a9ce8","study_id":"6197b3f67c2b5cd3b6d9596a","session_id":"619bfbde6a16640042075a08","condition":"full-information","relevant_dimensions":["wings","pattern"],"bee_group":{"antennae":"X","wings":"1","pattern":"S","legs":"X"},"bonus":1.700000000000001},{"rt":6978,"stimulus":"bees-with-color/bee-B1DM.svg","response":0,"trial_type":"image-button-response","trial_index":136,"time_elapsed":1136153,"internal_node_id":"0.0-6.0-0.0","subject_id":"60f9baa99f49184f083a9ce8","study_id":"6197b3f67c2b5cd3b6d9596a","session_id":"619bfbde6a16640042075a08","condition":"full-information","relevant_dimensions":["wings","pattern"],"bee_group":{"antennae":"X","wings":"1","pattern":"S","legs":"X"},"bonus":1.700000000000001},{"rt":4407,"stimulus":"bees-with-color/bee-B2DF.svg","response":0,"trial_type":"image-button-response","trial_index":137,"time_elapsed":1140576,"internal_node_id":"0.0-6.0-0.1","subject_id":"60f9baa99f49184f083a9ce8","study_id":"6197b3f67c2b5cd3b6d9596a","session_id":"619bfbde6a16640042075a08","condition":"full-information","relevant_dimensions":["wings","pattern"],"bee_group":{"antennae":"X","wings":"1","pattern":"S","legs":"X"},"bonus":1.700000000000001},{"rt":6454,"stimulus":"bees-with-color/bee-A1SM.svg","response":1,"trial_type":"image-button-response","trial_index":138,"time_elapsed":1147035,"internal_node_id":"0.0-6.0-0.2","subject_id":"60f9baa99f49184f083a9ce8","study_id":"6197b3f67c2b5cd3b6d9596a","session_id":"619bfbde6a16640042075a08","condition":"full-information","relevant_dimensions":["wings","pattern"],"bee_group":{"antennae":"X","wings":"1","pattern":"S","legs":"X"},"bonus":1.700000000000001},{"rt":4318,"stimulus":"bees-with-color/bee-A2DM.svg","response":0,"trial_type":"image-button-response","trial_index":139,"time_elapsed":1151368,"internal_node_id":"0.0-6.0-0.3","subject_id":"60f9baa99f49184f083a9ce8","study_id":"6197b3f67c2b5cd3b6d9596a","session_id":"619bfbde6a16640042075a08","condition":"full-information","relevant_dimensions":["wings","pattern"],"bee_group":{"antennae":"X","wings":"1","pattern":"S","legs":"X"},"bonus":1.700000000000001},{"rt":7351,"stimulus":"bees-with-color/bee-B2SF.svg","response":0,"trial_type":"image-button-response","trial_index":140,"time_elapsed":1158735,"internal_node_id":"0.0-6.0-0.4","subject_id":"60f9baa99f49184f083a9ce8","study_id":"6197b3f67c2b5cd3b6d9596a","session_id":"619bfbde6a16640042075a08","condition":"full-information","relevant_dimensions":["wings","pattern"],"bee_group":{"antennae":"X","wings":"1","pattern":"S","legs":"X"},"bonus":1.700000000000001},{"rt":2967,"stimulus":"bees-with-color/bee-A2SF.svg","response":0,"trial_type":"image-button-response","trial_index":141,"time_elapsed":1161702,"internal_node_id":"0.0-6.0-0.5","subject_id":"60f9baa99f49184f083a9ce8","study_id":"6197b3f67c2b5cd3b6d9596a","session_id":"619bfbde6a16640042075a08","condition":"full-information","relevant_dimensions":["wings","pattern"],"bee_group":{"antennae":"X","wings":"1","pattern":"S","legs":"X"},"bonus":1.700000000000001},{"rt":3164,"stimulus":"bees-with-color/bee-B1DF.svg","response":0,"trial_type":"image-button-response","trial_index":142,"time_elapsed":1164866,"internal_node_id":"0.0-6.0-0.6","subject_id":"60f9baa99f49184f083a9ce8","study_id":"6197b3f67c2b5cd3b6d9596a","session_id":"619bfbde6a16640042075a08","condition":"full-information","relevant_dimensions":["wings","pattern"],"bee_group":{"antennae":"X","wings":"1","pattern":"S","legs":"X"},"bonus":1.700000000000001},{"rt":6903,"stimulus":"bees-with-color/bee-B1SM.svg","response":1,"trial_type":"image-button-response","trial_index":143,"time_elapsed":1171784,"internal_node_id":"0.0-6.0-0.7","subject_id":"60f9baa99f49184f083a9ce8","study_id":"6197b3f67c2b5cd3b6d9596a","session_id":"619bfbde6a16640042075a08","condition":"full-information","relevant_dimensions":["wings","pattern"],"bee_group":{"antennae":"X","wings":"1","pattern":"S","legs":"X"},"bonus":1.700000000000001},{"rt":3399,"stimulus":"bees-with-color/bee-A2DF.svg","response":0,"trial_type":"image-button-response","trial_index":144,"time_elapsed":1175183,"internal_node_id":"0.0-6.0-0.8","subject_id":"60f9baa99f49184f083a9ce8","study_id":"6197b3f67c2b5cd3b6d9596a","session_id":"619bfbde6a16640042075a08","condition":"full-information","relevant_dimensions":["wings","pattern"],"bee_group":{"antennae":"X","wings":"1","pattern":"S","legs":"X"},"bonus":1.700000000000001},{"rt":2016,"stimulus":"bees-with-color/bee-B2DM.svg","response":0,"trial_type":"image-button-response","trial_index":145,"time_elapsed":1177199,"internal_node_id":"0.0-6.0-0.9","subject_id":"60f9baa99f49184f083a9ce8","study_id":"6197b3f67c2b5cd3b6d9596a","session_id":"619bfbde6a16640042075a08","condition":"full-information","relevant_dimensions":["wings","pattern"],"bee_group":{"antennae":"X","wings":"1","pattern":"S","legs":"X"},"bonus":1.700000000000001},{"rt":6537,"stimulus":"bees-with-color/bee-B2SM.svg","response":0,"trial_type":"image-button-response","trial_index":146,"time_elapsed":1183751,"internal_node_id":"0.0-6.0-0.10","subject_id":"60f9baa99f49184f083a9ce8","study_id":"6197b3f67c2b5cd3b6d9596a","session_id":"619bfbde6a16640042075a08","condition":"full-information","relevant_dimensions":["wings","pattern"],"bee_group":{"antennae":"X","wings":"1","pattern":"S","legs":"X"},"bonus":1.700000000000001},{"rt":3483,"stimulus":"bees-with-color/bee-A1SF.svg","response":1,"trial_type":"image-button-response","trial_index":147,"time_elapsed":1187234,"internal_node_id":"0.0-6.0-0.11","subject_id":"60f9baa99f49184f083a9ce8","study_id":"6197b3f67c2b5cd3b6d9596a","session_id":"619bfbde6a16640042075a08","condition":"full-information","relevant_dimensions":["wings","pattern"],"bee_group":{"antennae":"X","wings":"1","pattern":"S","legs":"X"},"bonus":1.700000000000001},{"rt":2582,"stimulus":"bees-with-color/bee-A1DF.svg","response":0,"trial_type":"image-button-response","trial_index":148,"time_elapsed":1189816,"internal_node_id":"0.0-6.0-0.12","subject_id":"60f9baa99f49184f083a9ce8","study_id":"6197b3f67c2b5cd3b6d9596a","session_id":"619bfbde6a16640042075a08","condition":"full-information","relevant_dimensions":["wings","pattern"],"bee_group":{"antennae":"X","wings":"1","pattern":"S","legs":"X"},"bonus":1.700000000000001},{"rt":3051,"stimulus":"bees-with-color/bee-B1SF.svg","response":1,"trial_type":"image-button-response","trial_index":149,"time_elapsed":1192883,"internal_node_id":"0.0-6.0-0.13","subject_id":"60f9baa99f49184f083a9ce8","study_id":"6197b3f67c2b5cd3b6d9596a","session_id":"619bfbde6a16640042075a08","condition":"full-information","relevant_dimensions":["wings","pattern"],"bee_group":{"antennae":"X","wings":"1","pattern":"S","legs":"X"},"bonus":1.700000000000001},{"rt":1463,"stimulus":"bees-with-color/bee-A1DM.svg","response":0,"trial_type":"image-button-response","trial_index":150,"time_elapsed":1194346,"internal_node_id":"0.0-6.0-0.14","subject_id":"60f9baa99f49184f083a9ce8","study_id":"6197b3f67c2b5cd3b6d9596a","session_id":"619bfbde6a16640042075a08","condition":"full-information","relevant_dimensions":["wings","pattern"],"bee_group":{"antennae":"X","wings":"1","pattern":"S","legs":"X"},"bonus":1.700000000000001},{"rt":3857,"stimulus":"bees-with-color/bee-A2SM.svg","response":0,"trial_type":"image-button-response","trial_index":151,"time_elapsed":1198219,"internal_node_id":"0.0-6.0-0.15","subject_id":"60f9baa99f49184f083a9ce8","study_id":"6197b3f67c2b5cd3b6d9596a","session_id":"619bfbde6a16640042075a08","condition":"full-information","relevant_dimensions":["wings","pattern"],"bee_group":{"antennae":"X","wings":"1","pattern":"S","legs":"X"},"bonus":1.700000000000001},{"rt":1514,"stimulus":"bees-with-color/bee-B2DM.svg","response":0,"trial_type":"image-button-response","trial_index":152,"time_elapsed":1199733,"internal_node_id":"0.0-6.0-0.16","subject_id":"60f9baa99f49184f083a9ce8","study_id":"6197b3f67c2b5cd3b6d9596a","session_id":"619bfbde6a16640042075a08","condition":"full-information","relevant_dimensions":["wings","pattern"],"bee_group":{"antennae":"X","wings":"1","pattern":"S","legs":"X"},"bonus":1.700000000000001},{"rt":2201,"stimulus":"bees-with-color/bee-B1DF.svg","response":0,"trial_type":"image-button-response","trial_index":153,"time_elapsed":1201934,"internal_node_id":"0.0-6.0-0.17","subject_id":"60f9baa99f49184f083a9ce8","study_id":"6197b3f67c2b5cd3b6d9596a","session_id":"619bfbde6a16640042075a08","condition":"full-information","relevant_dimensions":["wings","pattern"],"bee_group":{"antennae":"X","wings":"1","pattern":"S","legs":"X"},"bonus":1.700000000000001},{"rt":6765,"stimulus":"bees-with-color/bee-A2SF.svg","response":0,"trial_type":"image-button-response","trial_index":154,"time_elapsed":1208715,"internal_node_id":"0.0-6.0-0.18","subject_id":"60f9baa99f49184f083a9ce8","study_id":"6197b3f67c2b5cd3b6d9596a","session_id":"619bfbde6a16640042075a08","condition":"full-information","relevant_dimensions":["wings","pattern"],"bee_group":{"antennae":"X","wings":"1","pattern":"S","legs":"X"},"bonus":1.700000000000001},{"rt":1018,"stimulus":"bees-with-color/bee-B1DM.svg","response":0,"trial_type":"image-button-response","trial_index":155,"time_elapsed":1209749,"internal_node_id":"0.0-6.0-0.19","subject_id":"60f9baa99f49184f083a9ce8","study_id":"6197b3f67c2b5cd3b6d9596a","session_id":"619bfbde6a16640042075a08","condition":"full-information","relevant_dimensions":["wings","pattern"],"bee_group":{"antennae":"X","wings":"1","pattern":"S","legs":"X"},"bonus":1.700000000000001},{"rt":2812,"stimulus":"bees-with-color/bee-B2DF.svg","response":0,"trial_type":"image-button-response","trial_index":156,"time_elapsed":1212561,"internal_node_id":"0.0-6.0-0.20","subject_id":"60f9baa99f49184f083a9ce8","study_id":"6197b3f67c2b5cd3b6d9596a","session_id":"619bfbde6a16640042075a08","condition":"full-information","relevant_dimensions":["wings","pattern"],"bee_group":{"antennae":"X","wings":"1","pattern":"S","legs":"X"},"bonus":1.700000000000001},{"rt":1188,"stimulus":"bees-with-color/bee-A1DM.svg","response":0,"trial_type":"image-button-response","trial_index":157,"time_elapsed":1213749,"internal_node_id":"0.0-6.0-0.21","subject_id":"60f9baa99f49184f083a9ce8","study_id":"6197b3f67c2b5cd3b6d9596a","session_id":"619bfbde6a16640042075a08","condition":"full-information","relevant_dimensions":["wings","pattern"],"bee_group":{"antennae":"X","wings":"1","pattern":"S","legs":"X"},"bonus":1.700000000000001},{"rt":3303,"stimulus":"bees-with-color/bee-A1SF.svg","response":1,"trial_type":"image-button-response","trial_index":158,"time_elapsed":1217052,"internal_node_id":"0.0-6.0-0.22","subject_id":"60f9baa99f49184f083a9ce8","study_id":"6197b3f67c2b5cd3b6d9596a","session_id":"619bfbde6a16640042075a08","condition":"full-information","relevant_dimensions":["wings","pattern"],"bee_group":{"antennae":"X","wings":"1","pattern":"S","legs":"X"},"bonus":1.700000000000001},{"rt":5131,"stimulus":"bees-with-color/bee-B1SM.svg","response":1,"trial_type":"image-button-response","trial_index":159,"time_elapsed":1222198,"internal_node_id":"0.0-6.0-0.23","subject_id":"60f9baa99f49184f083a9ce8","study_id":"6197b3f67c2b5cd3b6d9596a","session_id":"619bfbde6a16640042075a08","condition":"full-information","relevant_dimensions":["wings","pattern"],"bee_group":{"antennae":"X","wings":"1","pattern":"S","legs":"X"},"bonus":1.700000000000001},{"rt":1685,"stimulus":"bees-with-color/bee-A2DF.svg","response":0,"trial_type":"image-button-response","trial_index":160,"time_elapsed":1223898,"internal_node_id":"0.0-6.0-0.24","subject_id":"60f9baa99f49184f083a9ce8","study_id":"6197b3f67c2b5cd3b6d9596a","session_id":"619bfbde6a16640042075a08","condition":"full-information","relevant_dimensions":["wings","pattern"],"bee_group":{"antennae":"X","wings":"1","pattern":"S","legs":"X"},"bonus":1.700000000000001},{"rt":850,"stimulus":"bees-with-color/bee-A1DF.svg","response":0,"trial_type":"image-button-response","trial_index":161,"time_elapsed":1224779,"internal_node_id":"0.0-6.0-0.25","subject_id":"60f9baa99f49184f083a9ce8","study_id":"6197b3f67c2b5cd3b6d9596a","session_id":"619bfbde6a16640042075a08","condition":"full-information","relevant_dimensions":["wings","pattern"],"bee_group":{"antennae":"X","wings":"1","pattern":"S","legs":"X"},"bonus":1.700000000000001}