[{"success":true,"trial_type":"fullscreen","trial_index":0,"time_elapsed":3384,"internal_node_id":"0.0-0.0","subject_id":"6107108d42233dace6968f9c","study_id":"6197b3f67c2b5cd3b6d9596a","session_id":"6197b5e1a3a34585eb9f8f0c","condition":"contingent","relevant_dimensions":["antennae","wings"],"bee_group":{"antennae":"B","wings":"2","pattern":"X","legs":"X"},"bonus":0.08},{"success":true,"timeout":false,"failed_images":[],"failed_audio":[],"failed_video":[],"trial_type":"preload","trial_index":1,"time_elapsed":5000,"internal_node_id":"0.0-1.0","subject_id":"6107108d42233dace6968f9c","study_id":"6197b3f67c2b5cd3b6d9596a","session_id":"6197b5e1a3a34585eb9f8f0c","condition":"contingent","relevant_dimensions":["antennae","wings"],"bee_group":{"antennae":"B","wings":"2","pattern":"X","legs":"X"},"bonus":0.08},{"rt":2073.800000011921,"stimulus":"Welcome! Press any key to begin.","response":" ","trial_type":"html-keyboard-response","trial_index":2,"time_elapsed":7075,"internal_node_id":"0.0-2.0","subject_id":"6107108d42233dace6968f9c","study_id":"6197b3f67c2b5cd3b6d9596a","session_id":"6197b5e1a3a34585eb9f8f0c","condition":"contingent","relevant_dimensions":["antennae","wings"],"bee_group":{"antennae":"B","wings":"2","pattern":"X","legs":"X"},"bonus":0.08},{"view_history":[{"page_index":0,"viewing_time":1393.2000000476837},{"page_index":1,"viewing_time":10865.399999976158},{"page_index":2,"viewing_time":5266.100000023842},{"page_index":3,"viewing_time":10231.899999976158},{"page_index":4,"viewing_time":5728.100000023842},{"page_index":5,"viewing_time":6806},{"page_index":6,"viewing_time":6180.199999988079},{"page_index":7,"viewing_time":10585.699999988079},{"page_index":6,"viewing_time":9549.399999976158},{"page_index":5,"viewing_time":3560.5},{"page_index":4,"viewing_time":1924.1000000238419},{"page_index":3,"viewing_time":3590.100000023842},{"page_index":2,"viewing_time":4655.899999976158},{"page_index":1,"viewing_time":4304.100000023842},{"page_index":0,"viewing_time":1705.699999988079},{"page_index":1,"viewing_time":1340.5},{"page_index":2,"viewing_time":41398.80000001192},{"page_index":1,"viewing_time":9636},{"page_index":0,"viewing_time":3006},{"page_index":1,"viewing_time":833.5},{"page_index":2,"viewing_time":714.3999999761581},{"page_index":3,"viewing_time":520.1000000238419},{"page_index":4,"viewing_time":730.0999999642372},{"page_index":5,"viewing_time":760.1000000238419},{"page_index":6,"viewing_time":825.5},{"page_index":7,"viewing_time":2846.099999964237},{"page_index":8,"viewing_time":2619.900000035763},{"page_index":9,"viewing_time":3066},{"page_index":10,"viewing_time":2908},{"page_index":11,"viewing_time":11785.899999976158},{"page_index":12,"viewing_time":20906.100000023842},{"page_index":13,"viewing_time":1370.300000011921},{"page_index":14,"viewing_time":2706}],"rt":194320.10000002384,"trial_type":"instructions","trial_index":3,"time_elapsed":201400,"internal_node_id":"0.0-3.0-0.0","subject_id":"6107108d42233dace6968f9c","study_id":"6197b3f67c2b5cd3b6d9596a","session_id":"6197b5e1a3a34585eb9f8f0c","condition":"contingent","relevant_dimensions":["antennae","wings"],"bee_group":{"antennae":"B","wings":"2","pattern":"X","legs":"X"},"bonus":0.08},{"rt":11092.599999964237,"response":{"Q0":["Two or six legs","Stripes or spots on body","Single or double wings","Antennae or no antennae"]},"question_order":[0],"trial_type":"survey-multi-select","trial_index":4,"time_elapsed":212499,"internal_node_id":"0.0-3.0-1.0","subject_id":"6107108d42233dace6968f9c","study_id":"6197b3f67c2b5cd3b6d9596a","session_id":"6197b5e1a3a34585eb9f8f0c","condition":"contingent","relevant_dimensions":["antennae","wings"],"bee_group":{"antennae":"B","wings":"2","pattern":"X","legs":"X"},"correct":true,"bonus":0.08},{"rt":98132.19999998808,"response":{"Q1":"No.","Q2":"Based on the four features of the bee.","Q3":"You do not learn if it was friendly or dangerous, and do not alter your bonus."},"question_order":[0,1,2],"trial_type":"survey-multi-choice","trial_index":5,"time_elapsed":310637,"internal_node_id":"0.0-3.0-2.0","subject_id":"6107108d42233dace6968f9c","study_id":"6197b3f67c2b5cd3b6d9596a","session_id":"6197b5e1a3a34585eb9f8f0c","condition":"contingent","relevant_dimensions":["antennae","wings"],"bee_group":{"antennae":"B","wings":"2","pattern":"X","legs":"X"},"correct":true,"bonus":0.08},{"rt":1063.6000000238419,"stimulus":"<p>Congrats, you got everything right<br>When you're ready, click the button below to continue to the experiment.</p>","response":0,"trial_type":"html-button-response","trial_index":6,"time_elapsed":311704,"internal_node_id":"0.0-3.0-3.0","subject_id":"6107108d42233dace6968f9c","study_id":"6197b3f67c2b5cd3b6d9596a","session_id":"6197b5e1a3a34585eb9f8f0c","condition":"contingent","relevant_dimensions":["antennae","wings"],"bee_group":{"antennae":"B","wings":"2","pattern":"X","legs":"X"},"bonus":0.08},{"rt":6548.5,"stimulus":"bees-with-color/bee-A1DM.svg","response":0,"trial_type":"image-button-response","trial_index":7,"time_elapsed":318256,"internal_node_id":"0.0-4.0-0.0","subject_id":"6107108d42233dace6968f9c","study_id":"6197b3f67c2b5cd3b6d9596a","session_id":"6197b5e1a3a34585eb9f8f0c","condition":"contingent","relevant_dimensions":["antennae","wings"],"bee_group":{"antennae":"B","wings":"2","pattern":"X","legs":"X"},"action":"harvest","summary":"good-harvest","bonus":0.08},{"rt":4380.5,"stimulus":"\n                    <p><b>Action: <em>harvest</em></b></p>\n                    <p>This is the bee that you just saw.</p>\n                    <img src=\"bees-with-color/bee-A1DM.svg\" width=\"200\">\n                    <p><span class=\"greenText\"><b>Successful harvest!</b></span><br>Your pay has increased by $0.02. Your bonus pay is now $0.56.</p>\n            ","response":0,"trial_type":"html-button-response","trial_index":8,"time_elapsed":322640,"internal_node_id":"0.0-4.0-1.0","subject_id":"6107108d42233dace6968f9c","study_id":"6197b3f67c2b5cd3b6d9596a","session_id":"6197b5e1a3a34585eb9f8f0c","condition":"contingent","relevant_dimensions":["antennae","wings"],"bee_group":{"antennae":"B","wings":"2","pattern":"X","legs":"X"},"bonus":0.08},{"rt":4652.099999964237,"stimulus":"bees-with-color/bee-B1SM.svg","response":0,"trial_type":"image-button-response","trial_index":9,"time_elapsed":327294,"internal_node_id":"0.0-4.0-0.1","subject_id":"6107108d42233dace6968f9c","study_id":"6197b3f67c2b5cd3b6d9596a","session_id":"6197b5e1a3a34585eb9f8f0c","condition":"contingent","relevant_dimensions":["antennae","wings"],"bee_group":{"antennae":"B","wings":"2","pattern":"X","legs":"X"},"action":"harvest","summary":"good-harvest","bonus":0.08},{"rt":3813.5,"stimulus":"\n                    <p><b>Action: <em>harvest</em></b></p>\n                    <p>This is the bee that you just saw.</p>\n                    <img src=\"bees-with-color/bee-B1SM.svg\" width=\"200\">\n                    <p><span class=\"greenText\"><b>Successful harvest!</b></span><br>Your pay has increased by $0.02. Your bonus pay is now $0.58.</p>\n            ","response":0,"trial_type":"html-button-response","trial_index":10,"time_elapsed":331110,"internal_node_id":"0.0-4.0-1.1","subject_id":"6107108d42233dace6968f9c","study_id":"6197b3f67c2b5cd3b6d9596a","session_id":"6197b5e1a3a34585eb9f8f0c","condition":"contingent","relevant_dimensions":["antennae","wings"],"bee_group":{"antennae":"B","wings":"2","pattern":"X","legs":"X"},"bonus":0.08},{"rt":8600,"stimulus":"bees-with-color/bee-A2SF.svg","response":0,"trial_type":"image-button-response","trial_index":11,"time_elapsed":339713,"internal_node_id":"0.0-4.0-0.2","subject_id":"6107108d42233dace6968f9c","study_id":"6197b3f67c2b5cd3b6d9596a","session_id":"6197b5e1a3a34585eb9f8f0c","condition":"contingent","relevant_dimensions":["antennae","wings"],"bee_group":{"antennae":"B","wings":"2","pattern":"X","legs":"X"},"action":"harvest","summary":"good-harvest","bonus":0.08},{"rt":5774.100000023842,"stimulus":"\n                    <p><b>Action: <em>harvest</em></b></p>\n                    <p>This is the bee that you just saw.</p>\n                    <img src=\"bees-with-color/bee-A2SF.svg\" width=\"200\">\n                    <p><span class=\"greenText\"><b>Successful harvest!</b></span><br>Your pay has increased by $0.02. Your bonus pay is now $0.60.</p>\n            ","response":0,"trial_type":"html-button-response","trial_index":12,"time_elapsed":345489,"internal_node_id":"0.0-4.0-1.2","subject_id":"6107108d42233dace6968f9c","study_id":"6197b3f67c2b5cd3b6d9596a","session_id":"6197b5e1a3a34585eb9f8f0c","condition":"contingent","relevant_dimensions":["antennae","wings"],"bee_group":{"antennae":"B","wings":"2","pattern":"X","legs":"X"},"bonus":0.08},{"rt":2345.699999988079,"stimulus":"bees-with-color/bee-A2DF.svg","response":1,"trial_type":"image-button-response","trial_index":13,"time_elapsed":347837,"internal_node_id":"0.0-4.0-0.3","subject_id":"6107108d42233dace6968f9c","study_id":"6197b3f67c2b5cd3b6d9596a","session_id":"6197b5e1a3a34585eb9f8f0c","condition":"contingent","relevant_dimensions":["antennae","wings"],"bee_group":{"antennae":"B","wings":"2","pattern":"X","legs":"X"},"action":"avoid","summary":"bad-avoid","bonus":0.08},{"rt":5783.399999976158,"stimulus":"\n                    <p><b>Action: <em>avoid</em></b></p>\n                    <p>This is the bee that you just saw.</p>\n                    <img src=\"bees-with-color/bee-A2DF.svg\" width=\"200\">\n                    <p><br>Your bonus pay is unchanged, and remains at $0.60.</p>\n            ","response":0,"trial_type":"html-button-response","trial_index":14,"time_elapsed":353623,"internal_node_id":"0.0-4.0-1.3","subject_id":"6107108d42233dace6968f9c","study_id":"6197b3f67c2b5cd3b6d9596a","session_id":"6197b5e1a3a34585eb9f8f0c","condition":"contingent","relevant_dimensions":["antennae","wings"],"bee_group":{"antennae":"B","wings":"2","pattern":"X","legs":"X"},"bonus":0.08},{"rt":3475.7999999523163,"stimulus":"bees-with-color/bee-A2SM.svg","response":0,"trial_type":"image-button-response","trial_index":15,"time_elapsed":357101,"internal_node_id":"0.0-4.0-0.4","subject_id":"6107108d42233dace6968f9c","study_id":"6197b3f67c2b5cd3b6d9596a","session_id":"6197b5e1a3a34585eb9f8f0c","condition":"contingent","relevant_dimensions":["antennae","wings"],"bee_group":{"antennae":"B","wings":"2","pattern":"X","legs":"X"},"action":"harvest","summary":"good-harvest","bonus":0.08},{"rt":1295.5,"stimulus":"\n                    <p><b>Action: <em>harvest</em></b></p>\n                    <p>This is the bee that you just saw.</p>\n                    <img src=\"bees-with-color/bee-A2SM.svg\" width=\"200\">\n                    <p><span class=\"greenText\"><b>Successful harvest!</b></span><br>Your pay has increased by $0.02. Your bonus pay is now $0.62.</p>\n            ","response":0,"trial_type":"html-button-response","trial_index":16,"time_elapsed":358399,"internal_node_id":"0.0-4.0-1.4","subject_id":"6107108d42233dace6968f9c","study_id":"6197b3f67c2b5cd3b6d9596a","session_id":"6197b5e1a3a34585eb9f8f0c","condition":"contingent","relevant_dimensions":["antennae","wings"],"bee_group":{"antennae":"B","wings":"2","pattern":"X","legs":"X"},"bonus":0.08},{"rt":3323.5,"stimulus":"bees-with-color/bee-A1DF.svg","response":1,"trial_type":"image-button-response","trial_index":17,"time_elapsed":361725,"internal_node_id":"0.0-4.0-0.5","subject_id":"6107108d42233dace6968f9c","study_id":"6197b3f67c2b5cd3b6d9596a","session_id":"6197b5e1a3a34585eb9f8f0c","condition":"contingent","relevant_dimensions":["antennae","wings"],"bee_group":{"antennae":"B","wings":"2","pattern":"X","legs":"X"},"action":"avoid","summary":"bad-avoid","bonus":0.08},{"rt":1784.300000011921,"stimulus":"\n                    <p><b>Action: <em>avoid</em></b></p>\n                    <p>This is the bee that you just saw.</p>\n                    <img src=\"bees-with-color/bee-A1DF.svg\" width=\"200\">\n                    <p><br>Your bonus pay is unchanged, and remains at $0.62.</p>\n            ","response":0,"trial_type":"html-button-response","trial_index":18,"time_elapsed":363511,"internal_node_id":"0.0-4.0-1.5","subject_id":"6107108d42233dace6968f9c","study_id":"6197b3f67c2b5cd3b6d9596a","session_id":"6197b5e1a3a34585eb9f8f0c","condition":"contingent","relevant_dimensions":["antennae","wings"],"bee_group":{"antennae":"B","wings":"2","pattern":"X","legs":"X"},"bonus":0.08},{"rt":1786.1000000238419,"stimulus":"bees-with-color/bee-B2SF.svg","response":0,"trial_type":"image-button-response","trial_index":19,"time_elapsed":365299,"internal_node_id":"0.0-4.0-0.6","subject_id":"6107108d42233dace6968f9c","study_id":"6197b3f67c2b5cd3b6d9596a","session_id":"6197b5e1a3a34585eb9f8f0c","condition":"contingent","relevant_dimensions":["antennae","wings"],"bee_group":{"antennae":"B","wings":"2","pattern":"X","legs":"X"},"action":"harvest","summary":"bad-harvest","bonus":0.08},{"rt":2685.899999976158,"stimulus":"\n                    <p><b>Action: <em>harvest</em></b></p>\n                    <p>This is the bee that you just saw.</p>\n                    <img src=\"bees-with-color/bee-B2SF.svg\" width=\"200\">\n                    <p><span class=\"redText\">Bad choice, the bee was angry.</span><br><b>You have been stung!</b><br>Your pay has been decreased by $0.10. Your bonus pay is now $0.52.</p>\n            ","response":0,"trial_type":"html-button-response","trial_index":20,"time_elapsed":367987,"internal_node_id":"0.0-4.0-1.6","subject_id":"6107108d42233dace6968f9c","study_id":"6197b3f67c2b5cd3b6d9596a","session_id":"6197b5e1a3a34585eb9f8f0c","condition":"contingent","relevant_dimensions":["antennae","wings"],"bee_group":{"antennae":"B","wings":"2","pattern":"X","legs":"X"},"bonus":0.08},{"rt":1328.2999999523163,"stimulus":"bees-with-color/bee-B2SM.svg","response":0,"trial_type":"image-button-response","trial_index":21,"time_elapsed":369317,"internal_node_id":"0.0-4.0-0.7","subject_id":"6107108d42233dace6968f9c","study_id":"6197b3f67c2b5cd3b6d9596a","session_id":"6197b5e1a3a34585eb9f8f0c","condition":"contingent","relevant_dimensions":["antennae","wings"],"bee_group":{"antennae":"B","wings":"2","pattern":"X","legs":"X"},"action":"harvest","summary":"bad-harvest","bonus":0.08},{"rt":1335.4000000357628,"stimulus":"\n                    <p><b>Action: <em>harvest</em></b></p>\n                    <p>This is the bee that you just saw.</p>\n                    <img src=\"bees-with-color/bee-B2SM.svg\" width=\"200\">\n                    <p><span class=\"redText\">Bad choice, the bee was angry.</span><br><b>You have been stung!</b><br>Your pay has been decreased by $0.10. Your bonus pay is now $0.42.</p>\n            ","response":0,"trial_type":"html-button-response","trial_index":22,"time_elapsed":370655,"internal_node_id":"0.0-4.0-1.7","subject_id":"6107108d42233dace6968f9c","study_id":"6197b3f67c2b5cd3b6d9596a","session_id":"6197b5e1a3a34585eb9f8f0c","condition":"contingent","relevant_dimensions":["antennae","wings"],"bee_group":{"antennae":"B","wings":"2","pattern":"X","legs":"X"},"bonus":0.08},{"rt":1963.5,"stimulus":"bees-with-color/bee-B1SF.svg","response":0,"trial_type":"image-button-response","trial_index":23,"time_elapsed":372620,"internal_node_id":"0.0-4.0-0.8","subject_id":"6107108d42233dace6968f9c","study_id":"6197b3f67c2b5cd3b6d9596a","session_id":"6197b5e1a3a34585eb9f8f0c","condition":"contingent","relevant_dimensions":["antennae","wings"],"bee_group":{"antennae":"B","wings":"2","pattern":"X","legs":"X"},"action":"harvest","summary":"good-harvest","bonus":0.08},{"rt":1032.199999988079,"stimulus":"\n                    <p><b>Action: <em>harvest</em></b></p>\n                    <p>This is the bee that you just saw.</p>\n                    <img src=\"bees-with-color/bee-B1SF.svg\" width=\"200\">\n                    <p><span class=\"greenText\"><b>Successful harvest!</b></span><br>Your pay has increased by $0.02. Your bonus pay is now $0.44.</p>\n            ","response":0,"trial_type":"html-button-response","trial_index":24,"time_elapsed":373654,"internal_node_id":"0.0-4.0-1.8","subject_id":"6107108d42233dace6968f9c","study_id":"6197b3f67c2b5cd3b6d9596a","session_id":"6197b5e1a3a34585eb9f8f0c","condition":"contingent","relevant_dimensions":["antennae","wings"],"bee_group":{"antennae":"B","wings":"2","pattern":"X","legs":"X"},"bonus":0.08},{"rt":1271.800000011921,"stimulus":"bees-with-color/bee-B1DF.svg","response":0,"trial_type":"image-button-response","trial_index":25,"time_elapsed":374927,"internal_node_id":"0.0-4.0-0.9","subject_id":"6107108d42233dace6968f9c","study_id":"6197b3f67c2b5cd3b6d9596a","session_id":"6197b5e1a3a34585eb9f8f0c","condition":"contingent","relevant_dimensions":["antennae","wings"],"bee_group":{"antennae":"B","wings":"2","pattern":"X","legs":"X"},"action":"harvest","summary":"good-harvest","bonus":0.08},{"rt":997.8999999761581,"stimulus":"\n                    <p><b>Action: <em>harvest</em></b></p>\n                    <p>This is the bee that you just saw.</p>\n                    <img src=\"bees-with-color/bee-B1DF.svg\" width=\"200\">\n                    <p><span class=\"greenText\"><b>Successful harvest!</b></span><br>Your pay has increased by $0.02. Your bonus pay is now $0.46.</p>\n            ","response":0,"trial_type":"html-button-response","trial_index":26,"time_elapsed":375927,"internal_node_id":"0.0-4.0-1.9","subject_id":"6107108d42233dace6968f9c","study_id":"6197b3f67c2b5cd3b6d9596a","session_id":"6197b5e1a3a34585eb9f8f0c","condition":"contingent","relevant_dimensions":["antennae","wings"],"bee_group":{"antennae":"B","wings":"2","pattern":"X","legs":"X"},"bonus":0.08},{"rt":1322.4000000357628,"stimulus":"bees-with-color/bee-B1DM.svg","response":0,"trial_type":"image-button-response","trial_index":27,"time_elapsed":377252,"internal_node_id":"0.0-4.0-0.10","subject_id":"6107108d42233dace6968f9c","study_id":"6197b3f67c2b5cd3b6d9596a","session_id":"6197b5e1a3a34585eb9f8f0c","condition":"contingent","relevant_dimensions":["antennae","wings"],"bee_group":{"antennae":"B","wings":"2","pattern":"X","legs":"X"},"action":"harvest","summary":"good-harvest","bonus":0.08},{"rt":942.0999999642372,"stimulus":"\n                    <p><b>Action: <em>harvest</em></b></p>\n                    <p>This is the bee that you just saw.</p>\n                    <img src=\"bees-with-color/bee-B1DM.svg\" width=\"200\">\n                    <p><span class=\"greenText\"><b>Successful harvest!</b></span><br>Your pay has increased by $0.02. Your bonus pay is now $0.48.</p>\n            ","response":0,"trial_type":"html-button-response","trial_index":28,"time_elapsed":378196,"internal_node_id":"0.0-4.0-1.10","subject_id":"6107108d42233dace6968f9c","study_id":"6197b3f67c2b5cd3b6d9596a","session_id":"6197b5e1a3a34585eb9f8f0c","condition":"contingent","relevant_dimensions":["antennae","wings"],"bee_group":{"antennae":"B","wings":"2","pattern":"X","legs":"X"},"bonus":0.08},{"rt":2322.199999988079,"stimulus":"bees-with-color/bee-B2DF.svg","response":0,"trial_type":"image-button-response","trial_index":29,"time_elapsed":380520,"internal_node_id":"0.0-4.0-0.11","subject_id":"6107108d42233dace6968f9c","study_id":"6197b3f67c2b5cd3b6d9596a","session_id":"6197b5e1a3a34585eb9f8f0c","condition":"contingent","relevant_dimensions":["antennae","wings"],"bee_group":{"antennae":"B","wings":"2","pattern":"X","legs":"X"},"action":"harvest","summary":"bad-harvest","bonus":0.08},{"rt":999.8999999761581,"stimulus":"\n                    <p><b>Action: <em>harvest</em></b></p>\n                    <p>This is the bee that you just saw.</p>\n                    <img src=\"bees-with-color/bee-B2DF.svg\" width=\"200\">\n                    <p><span class=\"redText\">Bad choice, the bee was angry.</span><br><b>You have been stung!</b><br>Your pay has been decreased by $0.10. Your bonus pay is now $0.38.</p>\n            ","response":0,"trial_type":"html-button-response","trial_index":30,"time_elapsed":381522,"internal_node_id":"0.0-4.0-1.11","subject_id":"6107108d42233dace6968f9c","study_id":"6197b3f67c2b5cd3b6d9596a","session_id":"6197b5e1a3a34585eb9f8f0c","condition":"contingent","relevant_dimensions":["antennae","wings"],"bee_group":{"antennae":"B","wings":"2","pattern":"X","legs":"X"},"bonus":0.08},{"rt":928.5,"stimulus":"bees-with-color/bee-A2DM.svg","response":0,"trial_type":"image-button-response","trial_index":31,"time_elapsed":382452,"internal_node_id":"0.0-4.0-0.12","subject_id":"6107108d42233dace6968f9c","study_id":"6197b3f67c2b5cd3b6d9596a","session_id":"6197b5e1a3a34585eb9f8f0c","condition":"contingent","relevant_dimensions":["antennae","wings"],"bee_group":{"antennae":"B","wings":"2","pattern":"X","legs":"X"},"action":"harvest","summary":"good-harvest","bonus":0.08},{"rt":976,"stimulus":"\n                    <p><b>Action: <em>harvest</em></b></p>\n                    <p>This is the bee that you just saw.</p>\n                    <img src=\"bees-with-color/bee-A2DM.svg\" width=\"200\">\n                    <p><span class=\"greenText\"><b>Successful harvest!</b></span><br>Your pay has increased by $0.02. Your bonus pay is now $0.40.</p>\n            ","response":0,"trial_type":"html-button-response","trial_index":32,"time_elapsed":383430,"internal_node_id":"0.0-4.0-1.12","subject_id":"6107108d42233dace6968f9c","study_id":"6197b3f67c2b5cd3b6d9596a","session_id":"6197b5e1a3a34585eb9f8f0c","condition":"contingent","relevant_dimensions":["antennae","wings"],"bee_group":{"antennae":"B","wings":"2","pattern":"X","legs":"X"},"bonus":0.08},{"rt":726.1000000238419,"stimulus":"bees-with-color/bee-A1SM.svg","response":0,"trial_type":"image-button-response","trial_index":33,"time_elapsed":384158,"internal_node_id":"0.0-4.0-0.13","subject_id":"6107108d42233dace6968f9c","study_id":"6197b3f67c2b5cd3b6d9596a","session_id":"6197b5e1a3a34585eb9f8f0c","condition":"contingent","relevant_dimensions":["antennae","wings"],"bee_group":{"antennae":"B","wings":"2","pattern":"X","legs":"X"},"action":"harvest","summary":"good-harvest","bonus":0.08},{"rt":863.8999999761581,"stimulus":"\n                    <p><b>Action: <em>harvest</em></b></p>\n                    <p>This is the bee that you just saw.</p>\n                    <img src=\"bees-with-color/bee-A1SM.svg\" width=\"200\">\n                    <p><span class=\"greenText\"><b>Successful harvest!</b></span><br>Your pay has increased by $0.02. Your bonus pay is now $0.42.</p>\n            ","response":0,"trial_type":"html-button-response","trial_index":34,"time_elapsed":385024,"internal_node_id":"0.0-4.0-1.13","subject_id":"6107108d42233dace6968f9c","study_id":"6197b3f67c2b5cd3b6d9596a","session_id":"6197b5e1a3a34585eb9f8f0c","condition":"contingent","relevant_dimensions":["antennae","wings"],"bee_group":{"antennae":"B","wings":"2","pattern":"X","legs":"X"},"bonus":0.08},{"rt":1240.199999988079,"stimulus":"bees-with-color/bee-A1SF.svg","response":0,"trial_type":"image-button-response","trial_index":35,"time_elapsed":386266,"internal_node_id":"0.0-4.0-0.14","subject_id":"6107108d42233dace6968f9c","study_id":"6197b3f67c2b5cd3b6d9596a","session_id":"6197b5e1a3a34585eb9f8f0c","condition":"contingent","relevant_dimensions":["antennae","wings"],"bee_group":{"antennae":"B","wings":"2","pattern":"X","legs":"X"},"action":"harvest","summary":"good-harvest","bonus":0.08},{"rt":959.8000000119209,"stimulus":"\n                    <p><b>Action: <em>harvest</em></b></p>\n                    <p>This is the bee that you just saw.</p>\n                    <img src=\"bees-with-color/bee-A1SF.svg\" width=\"200\">\n                    <p><span class=\"greenText\"><b>Successful harvest!</b></span><br>Your pay has increased by $0.02. Your bonus pay is now $0.44.</p>\n            ","response":0,"trial_type":"html-button-response","trial_index":36,"time_elapsed":387227,"internal_node_id":"0.0-4.0-1.14","subject_id":"6107108d42233dace6968f9c","study_id":"6197b3f67c2b5cd3b6d9596a","session_id":"6197b5e1a3a34585eb9f8f0c","condition":"contingent","relevant_dimensions":["antennae","wings"],"bee_group":{"antennae":"B","wings":"2","pattern":"X","legs":"X"},"bonus":0.08},{"rt":2025,"stimulus":"bees-with-color/bee-B2DM.svg","response":0,"trial_type":"image-button-response","trial_index":37,"time_elapsed":389254,"internal_node_id":"0.0-4.0-0.15","subject_id":"6107108d42233dace6968f9c","study_id":"6197b3f67c2b5cd3b6d9596a","session_id":"6197b5e1a3a34585eb9f8f0c","condition":"contingent","relevant_dimensions":["antennae","wings"],"bee_group":{"antennae":"B","wings":"2","pattern":"X","legs":"X"},"action":"harvest","summary":"bad-harvest","bonus":0.08},{"rt":783.3999999761581,"stimulus":"\n                    <p><b>Action: <em>harvest</em></b></p>\n                    <p>This is the bee that you just saw.</p>\n                    <img src=\"bees-with-color/bee-B2DM.svg\" width=\"200\">\n                    <p><span class=\"redText\">Bad choice, the bee was angry.</span><br><b>You have been stung!</b><br>Your pay has been decreased by $0.10. Your bonus pay is now $0.34.</p>\n            ","response":0,"trial_type":"html-button-response","trial_index":38,"time_elapsed":390039,"internal_node_id":"0.0-4.0-1.15","subject_id":"6107108d42233dace6968f9c","study_id":"6197b3f67c2b5cd3b6d9596a","session_id":"6197b5e1a3a34585eb9f8f0c","condition":"contingent","relevant_dimensions":["antennae","wings"],"bee_group":{"antennae":"B","wings":"2","pattern":"X","legs":"X"},"bonus":0.08},{"rt":766.1000000238419,"stimulus":"bees-with-color/bee-B2DF.svg","response":0,"trial_type":"image-button-response","trial_index":39,"time_elapsed":390808,"internal_node_id":"0.0-4.0-0.16","subject_id":"6107108d42233dace6968f9c","study_id":"6197b3f67c2b5cd3b6d9596a","session_id":"6197b5e1a3a34585eb9f8f0c","condition":"contingent","relevant_dimensions":["antennae","wings"],"bee_group":{"antennae":"B","wings":"2","pattern":"X","legs":"X"},"action":"harvest","summary":"bad-harvest","bonus":0.08},{"rt":888.1999999880791,"stimulus":"\n                    <p><b>Action: <em>harvest</em></b></p>\n                    <p>This is the bee that you just saw.</p>\n                    <img src=\"bees-with-color/bee-B2DF.svg\" width=\"200\">\n                    <p><span class=\"redText\">Bad choice, the bee was angry.</span><br><b>You have been stung!</b><br>Your pay has been decreased by $0.10. Your bonus pay is now $0.24.</p>\n            ","response":0,"trial_type":"html-button-response","trial_index":40,"time_elapsed":391698,"internal_node_id":"0.0-4.0-1.16","subject_id":"6107108d42233dace6968f9c","study_id":"6197b3f67c2b5cd3b6d9596a","session_id":"6197b5e1a3a34585eb9f8f0c","condition":"contingent","relevant_dimensions":["antennae","wings"],"bee_group":{"antennae":"B","wings":"2","pattern":"X","legs":"X"},"bonus":0.08},{"rt":719.8000000119209,"stimulus":"bees-with-color/bee-B2DM.svg","response":1,"trial_type":"image-button-response","trial_index":41,"time_elapsed":392420,"internal_node_id":"0.0-4.0-0.17","subject_id":"6107108d42233dace6968f9c","study_id":"6197b3f67c2b5cd3b6d9596a","session_id":"6197b5e1a3a34585eb9f8f0c","condition":"contingent","relevant_dimensions":["antennae","wings"],"bee_group":{"antennae":"B","wings":"2","pattern":"X","legs":"X"},"action":"avoid","summary":"good-avoid","bonus":0.08},{"rt":726,"stimulus":"\n                    <p><b>Action: <em>avoid</em></b></p>\n                    <p>This is the bee that you just saw.</p>\n                    <img src=\"bees-with-color/bee-B2DM.svg\" width=\"200\">\n                    <p><br>Your bonus pay is unchanged, and remains at $0.24.</p>\n            ","response":0,"trial_type":"html-button-response","trial_index":42,"time_elapsed":393148,"internal_node_id":"0.0-4.0-1.17","subject_id":"6107108d42233dace6968f9c","study_id":"6197b3f67c2b5cd3b6d9596a","session_id":"6197b5e1a3a34585eb9f8f0c","condition":"contingent","relevant_dimensions":["antennae","wings"],"bee_group":{"antennae":"B","wings":"2","pattern":"X","legs":"X"},"bonus":0.08},{"rt":607.6000000238419,"stimulus":"bees-with-color/bee-A1SM.svg","response":1,"trial_type":"image-button-response","trial_index":43,"time_elapsed":393758,"internal_node_id":"0.0-4.0-0.18","subject_id":"6107108d42233dace6968f9c","study_id":"6197b3f67c2b5cd3b6d9596a","session_id":"6197b5e1a3a34585eb9f8f0c","condition":"contingent","relevant_dimensions":["antennae","wings"],"bee_group":{"antennae":"B","wings":"2","pattern":"X","legs":"X"},"action":"avoid","summary":"bad-avoid","bonus":0.08},{"rt":694.1000000238419,"stimulus":"\n                    <p><b>Action: <em>avoid</em></b></p>\n                    <p>This is the bee that you just saw.</p>\n                    <img src=\"bees-with-color/bee-A1SM.svg\" width=\"200\">\n                    <p><br>Your bonus pay is unchanged, and remains at $0.24.</p>\n            ","response":0,"trial_type":"html-button-response","trial_index":44,"time_elapsed":394455,"internal_node_id":"0.0-4.0-1.18","subject_id":"6107108d42233dace6968f9c","study_id":"6197b3f67c2b5cd3b6d9596a","session_id":"6197b5e1a3a34585eb9f8f0c","condition":"contingent","relevant_dimensions":["antennae","wings"],"bee_group":{"antennae":"B","wings":"2","pattern":"X","legs":"X"},"bonus":0.08},{"rt":559.1999999880791,"stimulus":"bees-with-color/bee-A1SF.svg","response":0,"trial_type":"image-button-response","trial_index":45,"time_elapsed":395016,"internal_node_id":"0.0-4.0-0.19","subject_id":"6107108d42233dace6968f9c","study_id":"6197b3f67c2b5cd3b6d9596a","session_id":"6197b5e1a3a34585eb9f8f0c","condition":"contingent","relevant_dimensions":["antennae","wings"],"bee_group":{"antennae":"B","wings":"2","pattern":"X","legs":"X"},"action":"harvest","summary":"good-harvest","bonus":0.08},{"rt":622.3000000119209,"stimulus":"\n                    <p><b>Action: <em>harvest</em></b></p>\n                    <p>This is the bee that you just saw.</p>\n                    <img src=\"bees-with-color/bee-A1SF.svg\" width=\"200\">\n                    <p><span class=\"greenText\"><b>Successful harvest!</b></span><br>Your pay has increased by $0.02. Your bonus pay is now $0.26.</p>\n            ","response":0,"trial_type":"html-button-response","trial_index":46,"time_elapsed":395640,"internal_node_id":"0.0-4.0-1.19","subject_id":"6107108d42233dace6968f9c","study_id":"6197b3f67c2b5cd3b6d9596a","session_id":"6197b5e1a3a34585eb9f8f0c","condition":"contingent","relevant_dimensions":["antennae","wings"],"bee_group":{"antennae":"B","wings":"2","pattern":"X","legs":"X"},"bonus":0.08},{"rt":600.5,"stimulus":"bees-with-color/bee-B1DF.svg","response":1,"trial_type":"image-button-response","trial_index":47,"time_elapsed":396242,"internal_node_id":"0.0-4.0-0.20","subject_id":"6107108d42233dace6968f9c","study_id":"6197b3f67c2b5cd3b6d9596a","session_id":"6197b5e1a3a34585eb9f8f0c","condition":"contingent","relevant_dimensions":["antennae","wings"],"bee_group":{"antennae":"B","wings":"2","pattern":"X","legs":"X"},"action":"avoid","summary":"bad-avoid","bonus":0.08},{"rt":582.3000000119209,"stimulus":"\n                    <p><b>Action: <em>avoid</em></b></p>\n                    <p>This is the bee that you just saw.</p>\n                    <img src=\"bees-with-color/bee-B1DF.svg\" width=\"200\">\n                    <p><br>Your bonus pay is unchanged, and remains at $0.26.</p>\n            ","response":0,"trial_type":"html-button-response","trial_index":48,"time_elapsed":396826,"internal_node_id":"0.0-4.0-1.20","subject_id":"6107108d42233dace6968f9c","study_id":"6197b3f67c2b5cd3b6d9596a","session_id":"6197b5e1a3a34585eb9f8f0c","condition":"contingent","relevant_dimensions":["antennae","wings"],"bee_group":{"antennae":"B","wings":"2","pattern":"X","legs":"X"},"bonus":0.08},{"rt":544.5,"stimulus":"bees-with-color/bee-B1SF.svg","response":0,"trial_type":"image-button-response","trial_index":49,"time_elapsed":397372,"internal_node_id":"0.0-4.0-0.21","subject_id":"6107108d42233dace6968f9c","study_id":"6197b3f67c2b5cd3b6d9596a","session_id":"6197b5e1a3a34585eb9f8f0c","condition":"contingent","relevant_dimensions":["antennae","wings"],"bee_group":{"antennae":"B","wings":"2","pattern":"X","legs":"X"},"action":"harvest","summary":"good-harvest","bonus":0.08},{"rt":598.3000000119209,"stimulus":"\n                    <p><b>Action: <em>harvest</em></b></p>\n                    <p>This is the bee that you just saw.</p>\n                    <img src=\"bees-with-color/bee-B1SF.svg\" width=\"200\">\n                    <p><span class=\"greenText\"><b>Successful harvest!</b></span><br>Your pay has increased by $0.02. Your bonus pay is now $0.28.</p>\n            ","response":0,"trial_type":"html-button-response","trial_index":50,"time_elapsed":397972,"internal_node_id":"0.0-4.0-1.21","subject_id":"6107108d42233dace6968f9c","study_id":"6197b3f67c2b5cd3b6d9596a","session_id":"6197b5e1a3a34585eb9f8f0c","condition":"contingent","relevant_dimensions":["antennae","wings"],"bee_group":{"antennae":"B","wings":"2","pattern":"X","legs":"X"},"bonus":0.08},{"rt":624.5999999642372,"stimulus":"bees-with-color/bee-A2DM.svg","response":1,"trial_type":"image-button-response","trial_index":51,"time_elapsed":398598,"internal_node_id":"0.0-4.0-0.22","subject_id":"6107108d42233dace6968f9c","study_id":"6197b3f67c2b5cd3b6d9596a","session_id":"6197b5e1a3a34585eb9f8f0c","condition":"contingent","relevant_dimensions":["antennae","wings"],"bee_group":{"antennae":"B","wings":"2","pattern":"X","legs":"X"},"action":"avoid","summary":"bad-avoid","bonus":0.08},{"rt":605.8999999761581,"stimulus":"\n                    <p><b>Action: <em>avoid</em></b></p>\n                    <p>This is the bee that you just saw.</p>\n                    <img src=\"bees-with-color/bee-A2DM.svg\" width=\"200\">\n                    <p><br>Your bonus pay is unchanged, and remains at $0.28.</p>\n            ","response":0,"trial_type":"html-button-response","trial_index":52,"time_elapsed":399206,"internal_node_id":"0.0-4.0-1.22","subject_id":"6107108d42233dace6968f9c","study_id":"6197b3f67c2b5cd3b6d9596a","session_id":"6197b5e1a3a34585eb9f8f0c","condition":"contingent","relevant_dimensions":["antennae","wings"],"bee_group":{"antennae":"B","wings":"2","pattern":"X","legs":"X"},"bonus":0.08},{"rt":592.5,"stimulus":"bees-with-color/bee-B1SM.svg","response":0,"trial_type":"image-button-response","trial_index":53,"time_elapsed":399800,"internal_node_id":"0.0-4.0-0.23","subject_id":"6107108d42233dace6968f9c","study_id":"6197b3f67c2b5cd3b6d9596a","session_id":"6197b5e1a3a34585eb9f8f0c","condition":"contingent","relevant_dimensions":["antennae","wings"],"bee_group":{"antennae":"B","wings":"2","pattern":"X","legs":"X"},"action":"harvest","summary":"good-harvest","bonus":0.08},{"rt":818.3000000119209,"stimulus":"\n                    <p><b>Action: <em>harvest</em></b></p>\n                    <p>This is the bee that you just saw.</p>\n                    <img src=\"bees-with-color/bee-B1SM.svg\" width=\"200\">\n                    <p><span class=\"greenText\"><b>Successful harvest!</b></span><br>Your pay has increased by $0.02. Your bonus pay is now $0.30.</p>\n            ","response":0,"trial_type":"html-button-response","trial_index":54,"time_elapsed":400620,"internal_node_id":"0.0-4.0-1.23","subject_id":"6107108d42233dace6968f9c","study_id":"6197b3f67c2b5cd3b6d9596a","session_id":"6197b5e1a3a34585eb9f8f0c","condition":"contingent","relevant_dimensions":["antennae","wings"],"bee_group":{"antennae":"B","wings":"2","pattern":"X","legs":"X"},"bonus":0.08},{"rt":640.6999999880791,"stimulus":"bees-with-color/bee-A2SF.svg","response":1,"trial_type":"image-button-response","trial_index":55,"time_elapsed":401262,"internal_node_id":"0.0-4.0-0.24","subject_id":"6107108d42233dace6968f9c","study_id":"6197b3f67c2b5cd3b6d9596a","session_id":"6197b5e1a3a34585eb9f8f0c","condition":"contingent","relevant_dimensions":["antennae","wings"],"bee_group":{"antennae":"B","wings":"2","pattern":"X","legs":"X"},"action":"avoid","summary":"bad-avoid","bonus":0.08},{"rt":1263.6000000238419,"stimulus":"\n                    <p><b>Action: <em>avoid</em></b></p>\n                    <p>This is the bee that you just saw.</p>\n                    <img src=\"bees-with-color/bee-A2SF.svg\" width=\"200\">\n                    <p><br>Your bonus pay is unchanged, and remains at $0.30.</p>\n            ","response":0,"trial_type":"html-button-response","trial_index":56,"time_elapsed":402527,"internal_node_id":"0.0-4.0-1.24","subject_id":"6107108d42233dace6968f9c","study_id":"6197b3f67c2b5cd3b6d9596a","session_id":"6197b5e1a3a34585eb9f8f0c","condition":"contingent","relevant_dimensions":["antennae","wings"],"bee_group":{"antennae":"B","wings":"2","pattern":"X","legs":"X"},"bonus":0.08},{"rt":607.5,"stimulus":"bees-with-color/bee-A1DF.svg","response":0,"trial_type":"image-button-response","trial_index":57,"time_elapsed":403136,"internal_node_id":"0.0-4.0-0.25","subject_id":"6107108d42233dace6968f9c","study_id":"6197b3f67c2b5cd3b6d9596a","session_id":"6197b5e1a3a34585eb9f8f0c","condition":"contingent","relevant_dimensions":["antennae","wings"],"bee_group":{"antennae":"B","wings":"2","pattern":"X","legs":"X"},"action":"harvest","summary":"good-harvest","bonus":0.08},{"rt":581.6999999880791,"stimulus":"\n                    <p><b>Action: <em>harvest</em></b></p>\n                    <p>This is the bee that you just saw.</p>\n                    <img src=\"bees-with-color/bee-A1DF.svg\" width=\"200\">\n                    <p><span class=\"greenText\"><b>Successful harvest!</b></span><br>Your pay has increased by $0.02. Your bonus pay is now $0.32.</p>\n            ","response":0,"trial_type":"html-button-response","trial_index":58,"time_elapsed":403720,"internal_node_id":"0.0-4.0-1.25","subject_id":"6107108d42233dace6968f9c","study_id":"6197b3f67c2b5cd3b6d9596a","session_id":"6197b5e1a3a34585eb9f8f0c","condition":"contingent","relevant_dimensions":["antennae","wings"],"bee_group":{"antennae":"B","wings":"2","pattern":"X","legs":"X"},"bonus":0.08},{"rt":609.6999999880791,"stimulus":"bees-with-color/bee-A2DF.svg","response":1,"trial_type":"image-button-response","trial_index":59,"time_elapsed":404331,"internal_node_id":"0.0-4.0-0.26","subject_id":"6107108d42233dace6968f9c","study_id":"6197b3f67c2b5cd3b6d9596a","session_id":"6197b5e1a3a34585eb9f8f0c","condition":"contingent","relevant_dimensions":["antennae","wings"],"bee_group":{"antennae":"B","wings":"2","pattern":"X","legs":"X"},"action":"avoid","summary":"bad-avoid","bonus":0.08},{"rt":647.3999999761581,"stimulus":"\n                    <p><b>Action: <em>avoid</em></b></p>\n                    <p>This is the bee that you just saw.</p>\n                    <img src=\"bees-with-color/bee-A2DF.svg\" width=\"200\">\n                    <p><br>Your bonus pay is unchanged, and remains at $0.32.</p>\n            ","response":0,"trial_type":"html-button-response","trial_index":60,"time_elapsed":404981,"internal_node_id":"0.0-4.0-1.26","subject_id":"6107108d42233dace6968f9c","study_id":"6197b3f67c2b5cd3b6d9596a","session_id":"6197b5e1a3a34585eb9f8f0c","condition":"contingent","relevant_dimensions":["antennae","wings"],"bee_group":{"antennae":"B","wings":"2","pattern":"X","legs":"X"},"bonus":0.08},{"rt":645.5,"stimulus":"bees-with-color/bee-B2SF.svg","response":0,"trial_type":"image-button-response","trial_index":61,"time_elapsed":405628,"internal_node_id":"0.0-4.0-0.27","subject_id":"6107108d42233dace6968f9c","study_id":"6197b3f67c2b5cd3b6d9596a","session_id":"6197b5e1a3a34585eb9f8f0c","condition":"contingent","relevant_dimensions":["antennae","wings"],"bee_group":{"antennae":"B","wings":"2","pattern":"X","legs":"X"},"action":"harvest","summary":"bad-harvest","bonus":0.08},{"rt":991.8999999761581,"stimulus":"\n                    <p><b>Action: <em>harvest</em></b></p>\n                    <p>This is the bee that you just saw.</p>\n                    <img src=\"bees-with-color/bee-B2SF.svg\" width=\"200\">\n                    <p><span class=\"redText\">Bad choice, the bee was angry.</span><br><b>You have been stung!</b><br>Your pay has been decreased by $0.10. Your bonus pay is now $0.22.</p>\n            ","response":0,"trial_type":"html-button-response","trial_index":62,"time_elapsed":406622,"internal_node_id":"0.0-4.0-1.27","subject_id":"6107108d42233dace6968f9c","study_id":"6197b3f67c2b5cd3b6d9596a","session_id":"6197b5e1a3a34585eb9f8f0c","condition":"contingent","relevant_dimensions":["antennae","wings"],"bee_group":{"antennae":"B","wings":"2","pattern":"X","legs":"X"},"bonus":0.08},{"rt":688.8000000119209,"stimulus":"bees-with-color/bee-A2SM.svg","response":1,"trial_type":"image-button-response","trial_index":63,"time_elapsed":407314,"internal_node_id":"0.0-4.0-0.28","subject_id":"6107108d42233dace6968f9c","study_id":"6197b3f67c2b5cd3b6d9596a","session_id":"6197b5e1a3a34585eb9f8f0c","condition":"contingent","relevant_dimensions":["antennae","wings"],"bee_group":{"antennae":"B","wings":"2","pattern":"X","legs":"X"},"action":"avoid","summary":"bad-avoid","bonus":0.08},{"rt":1359.300000011921,"stimulus":"\n                    <p><b>Action: <em>avoid</em></b></p>\n                    <p>This is the bee that you just saw.</p>\n                    <img src=\"bees-with-color/bee-A2SM.svg\" width=\"200\">\n                    <p><br>Your bonus pay is unchanged, and remains at $0.22.</p>\n            ","response":0,"trial_type":"html-button-response","trial_index":64,"time_elapsed":408675,"internal_node_id":"0.0-4.0-1.28","subject_id":"6107108d42233dace6968f9c","study_id":"6197b3f67c2b5cd3b6d9596a","session_id":"6197b5e1a3a34585eb9f8f0c","condition":"contingent","relevant_dimensions":["antennae","wings"],"bee_group":{"antennae":"B","wings":"2","pattern":"X","legs":"X"},"bonus":0.08},{"rt":789.3999999761581,"stimulus":"bees-with-color/bee-B2SM.svg","response":0,"trial_type":"image-button-response","trial_index":65,"time_elapsed":409466,"internal_node_id":"0.0-4.0-0.29","subject_id":"6107108d42233dace6968f9c","study_id":"6197b3f67c2b5cd3b6d9596a","session_id":"6197b5e1a3a34585eb9f8f0c","condition":"contingent","relevant_dimensions":["antennae","wings"],"bee_group":{"antennae":"B","wings":"2","pattern":"X","legs":"X"},"action":"harvest","summary":"bad-harvest","bonus":0.08},{"rt":832.5,"stimulus":"\n                    <p><b>Action: <em>harvest</em></b></p>\n                    <p>This is the bee that you just saw.</p>\n                    <img src=\"bees-with-color/bee-B2SM.svg\" width=\"200\">\n                    <p><span class=\"redText\">Bad choice, the bee was angry.</span><br><b>You have been stung!</b><br>Your pay has been decreased by $0.10. Your bonus pay is now $0.12.</p>\n            ","response":0,"trial_type":"html-button-response","trial_index":66,"time_elapsed":410301,"internal_node_id":"0.0-4.0-1.29","subject_id":"6107108d42233dace6968f9c","study_id":"6197b3f67c2b5cd3b6d9596a","session_id":"6197b5e1a3a34585eb9f8f0c","condition":"contingent","relevant_dimensions":["antennae","wings"],"bee_group":{"antennae":"B","wings":"2","pattern":"X","legs":"X"},"bonus":0.08},{"rt":1495.5999999642372,"stimulus":"bees-with-color/bee-A1DM.svg","response":0,"trial_type":"image-button-response","trial_index":67,"time_elapsed":411798,"internal_node_id":"0.0-4.0-0.30","subject_id":"6107108d42233dace6968f9c","study_id":"6197b3f67c2b5cd3b6d9596a","session_id":"6197b5e1a3a34585eb9f8f0c","condition":"contingent","relevant_dimensions":["antennae","wings"],"bee_group":{"antennae":"B","wings":"2","pattern":"X","legs":"X"},"action":"harvest","summary":"good-harvest","bonus":0.08},{"rt":646.1999999880791,"stimulus":"\n                    <p><b>Action: <em>harvest</em></b></p>\n                    <p>This is the bee that you just saw.</p>\n                    <img src=\"bees-with-color/bee-A1DM.svg\" width=\"200\">\n                    <p><span class=\"greenText\"><b>Successful harvest!</b></span><br>Your pay has increased by $0.02. Your bonus pay is now $0.14.</p>\n            ","response":0,"trial_type":"html-button-response","trial_index":68,"time_elapsed":412446,"internal_node_id":"0.0-4.0-1.30","subject_id":"6107108d42233dace6968f9c","study_id":"6197b3f67c2b5cd3b6d9596a","session_id":"6197b5e1a3a34585eb9f8f0c","condition":"contingent","relevant_dimensions":["antennae","wings"],"bee_group":{"antennae":"B","wings":"2","pattern":"X","legs":"X"},"bonus":0.08},{"rt":1914.7999999523163,"stimulus":"bees-with-color/bee-B1DM.svg","response":0,"trial_type":"image-button-response","trial_index":69,"time_elapsed":414363,"internal_node_id":"0.0-4.0-0.31","subject_id":"6107108d42233dace6968f9c","study_id":"6197b3f67c2b5cd3b6d9596a","session_id":"6197b5e1a3a34585eb9f8f0c","condition":"contingent","relevant_dimensions":["antennae","wings"],"bee_group":{"antennae":"B","wings":"2","pattern":"X","legs":"X"},"action":"harvest","summary":"good-harvest","bonus":0.08},{"rt":703.6000000238419,"stimulus":"\n                    <p><b>Action: <em>harvest</em></b></p>\n                    <p>This is the bee that you just saw.</p>\n                    <img src=\"bees-with-color/bee-B1DM.svg\" width=\"200\">\n                    <p><span class=\"greenText\"><b>Successful harvest!</b></span><br>Your pay has increased by $0.02. Your bonus pay is now $0.16.</p>\n            ","response":0,"trial_type":"html-button-response","trial_index":70,"time_elapsed":415068,"internal_node_id":"0.0-4.0-1.31","subject_id":"6107108d42233dace6968f9c","study_id":"6197b3f67c2b5cd3b6d9596a","session_id":"6197b5e1a3a34585eb9f8f0c","condition":"contingent","relevant_dimensions":["antennae","wings"],"bee_group":{"antennae":"B","wings":"2","pattern":"X","legs":"X"},"bonus":0.08},{"rt":1504.0999999642372,"stimulus":"bees-with-color/bee-B2DF.svg","response":1,"trial_type":"image-button-response","trial_index":71,"time_elapsed":416575,"internal_node_id":"0.0-4.0-0.32","subject_id":"6107108d42233dace6968f9c","study_id":"6197b3f67c2b5cd3b6d9596a","session_id":"6197b5e1a3a34585eb9f8f0c","condition":"contingent","relevant_dimensions":["antennae","wings"],"bee_group":{"antennae":"B","wings":"2","pattern":"X","legs":"X"},"action":"avoid","summary":"good-avoid","bonus":0.08},{"rt":942,"stimulus":"\n                    <p><b>Action: <em>avoid</em></b></p>\n                    <p>This is the bee that you just saw.</p>\n                    <img src=\"bees-with-color/bee-B2DF.svg\" width=\"200\">\n                    <p><br>Your bonus pay is unchanged, and remains at $0.16.</p>\n            ","response":0,"trial_type":"html-button-response","trial_index":72,"time_elapsed":417519,"internal_node_id":"0.0-4.0-1.32","subject_id":"6107108d42233dace6968f9c","study_id":"6197b3f67c2b5cd3b6d9596a","session_id":"6197b5e1a3a34585eb9f8f0c","condition":"contingent","relevant_dimensions":["antennae","wings"],"bee_group":{"antennae":"B","wings":"2","pattern":"X","legs":"X"},"bonus":0.08},{"rt":775.5999999642372,"stimulus":"bees-with-color/bee-A2SM.svg","response":0,"trial_type":"image-button-response","trial_index":73,"time_elapsed":418296,"internal_node_id":"0.0-4.0-0.33","subject_id":"6107108d42233dace6968f9c","study_id":"6197b3f67c2b5cd3b6d9596a","session_id":"6197b5e1a3a34585eb9f8f0c","condition":"contingent","relevant_dimensions":["antennae","wings"],"bee_group":{"antennae":"B","wings":"2","pattern":"X","legs":"X"},"action":"harvest","summary":"good-harvest","bonus":0.08},{"rt":728.1000000238419,"stimulus":"\n                    <p><b>Action: <em>harvest</em></b></p>\n                    <p>This is the bee that you just saw.</p>\n                    <img src=\"bees-with-color/bee-A2SM.svg\" width=\"200\">\n                    <p><span class=\"greenText\"><b>Successful harvest!</b></span><br>Your pay has increased by $0.02. Your bonus pay is now $0.18.</p>\n            ","response":0,"trial_type":"html-button-response","trial_index":74,"time_elapsed":419027,"internal_node_id":"0.0-4.0-1.33","subject_id":"6107108d42233dace6968f9c","study_id":"6197b3f67c2b5cd3b6d9596a","session_id":"6197b5e1a3a34585eb9f8f0c","condition":"contingent","relevant_dimensions":["antennae","wings"],"bee_group":{"antennae":"B","wings":"2","pattern":"X","legs":"X"},"bonus":0.08},{"rt":1287.699999988079,"stimulus":"bees-with-color/bee-A1DF.svg","response":0,"trial_type":"image-button-response","trial_index":75,"time_elapsed":420316,"internal_node_id":"0.0-4.0-0.34","subject_id":"6107108d42233dace6968f9c","study_id":"6197b3f67c2b5cd3b6d9596a","session_id":"6197b5e1a3a34585eb9f8f0c","condition":"contingent","relevant_dimensions":["antennae","wings"],"bee_group":{"antennae":"B","wings":"2","pattern":"X","legs":"X"},"action":"harvest","summary":"good-harvest","bonus":0.08},{"rt":774.4000000357628,"stimulus":"\n                    <p><b>Action: <em>harvest</em></b></p>\n                    <p>This is the bee that you just saw.</p>\n                    <img src=\"bees-with-color/bee-A1DF.svg\" width=\"200\">\n                    <p><span class=\"greenText\"><b>Successful harvest!</b></span><br>Your pay has increased by $0.02. Your bonus pay is now $0.20.</p>\n            ","response":0,"trial_type":"html-button-response","trial_index":76,"time_elapsed":421093,"internal_node_id":"0.0-4.0-1.34","subject_id":"6107108d42233dace6968f9c","study_id":"6197b3f67c2b5cd3b6d9596a","session_id":"6197b5e1a3a34585eb9f8f0c","condition":"contingent","relevant_dimensions":["antennae","wings"],"bee_group":{"antennae":"B","wings":"2","pattern":"X","legs":"X"},"bonus":0.08},{"rt":752.5999999642372,"stimulus":"bees-with-color/bee-A2SF.svg","response":1,"trial_type":"image-button-response","trial_index":77,"time_elapsed":421847,"internal_node_id":"0.0-4.0-0.35","subject_id":"6107108d42233dace6968f9c","study_id":"6197b3f67c2b5cd3b6d9596a","session_id":"6197b5e1a3a34585eb9f8f0c","condition":"contingent","relevant_dimensions":["antennae","wings"],"bee_group":{"antennae":"B","wings":"2","pattern":"X","legs":"X"},"action":"avoid","summary":"bad-avoid","bonus":0.08},{"rt":784.1999999880791,"stimulus":"\n                    <p><b>Action: <em>avoid</em></b></p>\n                    <p>This is the bee that you just saw.</p>\n                    <img src=\"bees-with-color/bee-A2SF.svg\" width=\"200\">\n                    <p><br>Your bonus pay is unchanged, and remains at $0.20.</p>\n            ","response":0,"trial_type":"html-button-response","trial_index":78,"time_elapsed":422632,"internal_node_id":"0.0-4.0-1.35","subject_id":"6107108d42233dace6968f9c","study_id":"6197b3f67c2b5cd3b6d9596a","session_id":"6197b5e1a3a34585eb9f8f0c","condition":"contingent","relevant_dimensions":["antennae","wings"],"bee_group":{"antennae":"B","wings":"2","pattern":"X","legs":"X"},"bonus":0.08},{"rt":734.2999999523163,"stimulus":"bees-with-color/bee-A1SF.svg","response":0,"trial_type":"image-button-response","trial_index":79,"time_elapsed":423368,"internal_node_id":"0.0-4.0-0.36","subject_id":"6107108d42233dace6968f9c","study_id":"6197b3f67c2b5cd3b6d9596a","session_id":"6197b5e1a3a34585eb9f8f0c","condition":"contingent","relevant_dimensions":["antennae","wings"],"bee_group":{"antennae":"B","wings":"2","pattern":"X","legs":"X"},"action":"harvest","summary":"good-harvest","bonus":0.08},{"rt":824.6999999880791,"stimulus":"\n                    <p><b>Action: <em>harvest</em></b></p>\n                    <p>This is the bee that you just saw.</p>\n                    <img src=\"bees-with-color/bee-A1SF.svg\" width=\"200\">\n                    <p><span class=\"greenText\"><b>Successful harvest!</b></span><br>Your pay has increased by $0.02. Your bonus pay is now $0.22.</p>\n            ","response":0,"trial_type":"html-button-response","trial_index":80,"time_elapsed":424195,"internal_node_id":"0.0-4.0-1.36","subject_id":"6107108d42233dace6968f9c","study_id":"6197b3f67c2b5cd3b6d9596a","session_id":"6197b5e1a3a34585eb9f8f0c","condition":"contingent","relevant_dimensions":["antennae","wings"],"bee_group":{"antennae":"B","wings":"2","pattern":"X","legs":"X"},"bonus":0.08},{"rt":558.3999999761581,"stimulus":"bees-with-color/bee-B1DF.svg","response":1,"trial_type":"image-button-response","trial_index":81,"time_elapsed":424755,"internal_node_id":"0.0-4.0-0.37","subject_id":"6107108d42233dace6968f9c","study_id":"6197b3f67c2b5cd3b6d9596a","session_id":"6197b5e1a3a34585eb9f8f0c","condition":"contingent","relevant_dimensions":["antennae","wings"],"bee_group":{"antennae":"B","wings":"2","pattern":"X","legs":"X"},"action":"avoid","summary":"bad-avoid","bonus":0.08},{"rt":784.3999999761581,"stimulus":"\n                    <p><b>Action: <em>avoid</em></b></p>\n                    <p>This is the bee that you just saw.</p>\n                    <img src=\"bees-with-color/bee-B1DF.svg\" width=\"200\">\n                    <p><br>Your bonus pay is unchanged, and remains at $0.22.</p>\n            ","response":0,"trial_type":"html-button-response","trial_index":82,"time_elapsed":425541,"internal_node_id":"0.0-4.0-1.37","subject_id":"6107108d42233dace6968f9c","study_id":"6197b3f67c2b5cd3b6d9596a","session_id":"6197b5e1a3a34585eb9f8f0c","condition":"contingent","relevant_dimensions":["antennae","wings"],"bee_group":{"antennae":"B","wings":"2","pattern":"X","legs":"X"},"bonus":0.08},{"rt":510.0999999642372,"stimulus":"bees-with-color/bee-B1SF.svg","response":0,"trial_type":"image-button-response","trial_index":83,"time_elapsed":426053,"internal_node_id":"0.0-4.0-0.38","subject_id":"6107108d42233dace6968f9c","study_id":"6197b3f67c2b5cd3b6d9596a","session_id":"6197b5e1a3a34585eb9f8f0c","condition":"contingent","relevant_dimensions":["antennae","wings"],"bee_group":{"antennae":"B","wings":"2","pattern":"X","legs":"X"},"action":"harvest","summary":"good-harvest","bonus":0.08},{"rt":784.5,"stimulus":"\n                    <p><b>Action: <em>harvest</em></b></p>\n                    <p>This is the bee that you just saw.</p>\n                    <img src=\"bees-with-color/bee-B1SF.svg\" width=\"200\">\n                    <p><span class=\"greenText\"><b>Successful harvest!</b></span><br>Your pay has increased by $0.02. Your bonus pay is now $0.24.</p>\n            ","response":0,"trial_type":"html-button-response","trial_index":84,"time_elapsed":426839,"internal_node_id":"0.0-4.0-1.38","subject_id":"6107108d42233dace6968f9c","study_id":"6197b3f67c2b5cd3b6d9596a","session_id":"6197b5e1a3a34585eb9f8f0c","condition":"contingent","relevant_dimensions":["antennae","wings"],"bee_group":{"antennae":"B","wings":"2","pattern":"X","legs":"X"},"bonus":0.08},{"rt":624.3000000119209,"stimulus":"bees-with-color/bee-B2SF.svg","response":1,"trial_type":"image-button-response","trial_index":85,"time_elapsed":427465,"internal_node_id":"0.0-4.0-0.39","subject_id":"6107108d42233dace6968f9c","study_id":"6197b3f67c2b5cd3b6d9596a","session_id":"6197b5e1a3a34585eb9f8f0c","condition":"contingent","relevant_dimensions":["antennae","wings"],"bee_group":{"antennae":"B","wings":"2","pattern":"X","legs":"X"},"action":"avoid","summary":"good-avoid","bonus":0.08},{"rt":638.1999999880791,"stimulus":"\n                    <p><b>Action: <em>avoid</em></b></p>\n                    <p>This is the bee that you just saw.</p>\n                    <img src=\"bees-with-color/bee-B2SF.svg\" width=\"200\">\n                    <p><br>Your bonus pay is unchanged, and remains at $0.24.</p>\n            ","response":0,"trial_type":"html-button-response","trial_index":86,"time_elapsed":428105,"internal_node_id":"0.0-4.0-1.39","subject_id":"6107108d42233dace6968f9c","study_id":"6197b3f67c2b5cd3b6d9596a","session_id":"6197b5e1a3a34585eb9f8f0c","condition":"contingent","relevant_dimensions":["antennae","wings"],"bee_group":{"antennae":"B","wings":"2","pattern":"X","legs":"X"},"bonus":0.08},{"rt":696.8000000119209,"stimulus":"bees-with-color/bee-A1SM.svg","response":0,"trial_type":"image-button-response","trial_index":87,"time_elapsed":428803,"internal_node_id":"0.0-4.0-0.40","subject_id":"6107108d42233dace6968f9c","study_id":"6197b3f67c2b5cd3b6d9596a","session_id":"6197b5e1a3a34585eb9f8f0c","condition":"contingent","relevant_dimensions":["antennae","wings"],"bee_group":{"antennae":"B","wings":"2","pattern":"X","legs":"X"},"action":"harvest","summary":"good-harvest","bonus":0.08},{"rt":821.8999999761581,"stimulus":"\n                    <p><b>Action: <em>harvest</em></b></p>\n                    <p>This is the bee that you just saw.</p>\n                    <img src=\"bees-with-color/bee-A1SM.svg\" width=\"200\">\n                    <p><span class=\"greenText\"><b>Successful harvest!</b></span><br>Your pay has increased by $0.02. Your bonus pay is now $0.26.</p>\n            ","response":0,"trial_type":"html-button-response","trial_index":88,"time_elapsed":429626,"internal_node_id":"0.0-4.0-1.40","subject_id":"6107108d42233dace6968f9c","study_id":"6197b3f67c2b5cd3b6d9596a","session_id":"6197b5e1a3a34585eb9f8f0c","condition":"contingent","relevant_dimensions":["antennae","wings"],"bee_group":{"antennae":"B","wings":"2","pattern":"X","legs":"X"},"bonus":0.08},{"rt":536.5999999642372,"stimulus":"bees-with-color/bee-B1SM.svg","response":1,"trial_type":"image-button-response","trial_index":89,"time_elapsed":430165,"internal_node_id":"0.0-4.0-0.41","subject_id":"6107108d42233dace6968f9c","study_id":"6197b3f67c2b5cd3b6d9596a","session_id":"6197b5e1a3a34585eb9f8f0c","condition":"contingent","relevant_dimensions":["antennae","wings"],"bee_group":{"antennae":"B","wings":"2","pattern":"X","legs":"X"},"action":"avoid","summary":"bad-avoid","bonus":0.08},{"rt":620.9000000357628,"stimulus":"\n                    <p><b>Action: <em>avoid</em></b></p>\n                    <p>This is the bee that you just saw.</p>\n                    <img src=\"bees-with-color/bee-B1SM.svg\" width=\"200\">\n                    <p><br>Your bonus pay is unchanged, and remains at $0.26.</p>\n            ","response":0,"trial_type":"html-button-response","trial_index":90,"time_elapsed":430787,"internal_node_id":"0.0-4.0-1.41","subject_id":"6107108d42233dace6968f9c","study_id":"6197b3f67c2b5cd3b6d9596a","session_id":"6197b5e1a3a34585eb9f8f0c","condition":"contingent","relevant_dimensions":["antennae","wings"],"bee_group":{"antennae":"B","wings":"2","pattern":"X","legs":"X"},"bonus":0.08},{"rt":545.4000000357628,"stimulus":"bees-with-color/bee-B2SM.svg","response":0,"trial_type":"image-button-response","trial_index":91,"time_elapsed":431334,"internal_node_id":"0.0-4.0-0.42","subject_id":"6107108d42233dace6968f9c","study_id":"6197b3f67c2b5cd3b6d9596a","session_id":"6197b5e1a3a34585eb9f8f0c","condition":"contingent","relevant_dimensions":["antennae","wings"],"bee_group":{"antennae":"B","wings":"2","pattern":"X","legs":"X"},"action":"harvest","summary":"bad-harvest","bonus":0.08},{"rt":631.1999999880791,"stimulus":"\n                    <p><b>Action: <em>harvest</em></b></p>\n                    <p>This is the bee that you just saw.</p>\n                    <img src=\"bees-with-color/bee-B2SM.svg\" width=\"200\">\n                    <p><span class=\"redText\">Bad choice, the bee was angry.</span><br><b>You have been stung!</b><br>Your pay has been decreased by $0.10. Your bonus pay is now $0.16.</p>\n            ","response":0,"trial_type":"html-button-response","trial_index":92,"time_elapsed":431967,"internal_node_id":"0.0-4.0-1.42","subject_id":"6107108d42233dace6968f9c","study_id":"6197b3f67c2b5cd3b6d9596a","session_id":"6197b5e1a3a34585eb9f8f0c","condition":"contingent","relevant_dimensions":["antennae","wings"],"bee_group":{"antennae":"B","wings":"2","pattern":"X","legs":"X"},"bonus":0.08},{"rt":590,"stimulus":"bees-with-color/bee-A2DF.svg","response":1,"trial_type":"image-button-response","trial_index":93,"time_elapsed":432559,"internal_node_id":"0.0-4.0-0.43","subject_id":"6107108d42233dace6968f9c","study_id":"6197b3f67c2b5cd3b6d9596a","session_id":"6197b5e1a3a34585eb9f8f0c","condition":"contingent","relevant_dimensions":["antennae","wings"],"bee_group":{"antennae":"B","wings":"2","pattern":"X","legs":"X"},"action":"avoid","summary":"bad-avoid","bonus":0.08},{"rt":516,"stimulus":"\n                    <p><b>Action: <em>avoid</em></b></p>\n                    <p>This is the bee that you just saw.</p>\n                    <img src=\"bees-with-color/bee-A2DF.svg\" width=\"200\">\n                    <p><br>Your bonus pay is unchanged, and remains at $0.16.</p>\n            ","response":0,"trial_type":"html-button-response","trial_index":94,"time_elapsed":433077,"internal_node_id":"0.0-4.0-1.43","subject_id":"6107108d42233dace6968f9c","study_id":"6197b3f67c2b5cd3b6d9596a","session_id":"6197b5e1a3a34585eb9f8f0c","condition":"contingent","relevant_dimensions":["antennae","wings"],"bee_group":{"antennae":"B","wings":"2","pattern":"X","legs":"X"},"bonus":0.08},{"rt":502.30000001192093,"stimulus":"bees-with-color/bee-B2DM.svg","response":0,"trial_type":"image-button-response","trial_index":95,"time_elapsed":433581,"internal_node_id":"0.0-4.0-0.44","subject_id":"6107108d42233dace6968f9c","study_id":"6197b3f67c2b5cd3b6d9596a","session_id":"6197b5e1a3a34585eb9f8f0c","condition":"contingent","relevant_dimensions":["antennae","wings"],"bee_group":{"antennae":"B","wings":"2","pattern":"X","legs":"X"},"action":"harvest","summary":"bad-harvest","bonus":0.08},{"rt":687.5,"stimulus":"\n                    <p><b>Action: <em>harvest</em></b></p>\n                    <p>This is the bee that you just saw.</p>\n                    <img src=\"bees-with-color/bee-B2DM.svg\" width=\"200\">\n                    <p><span class=\"redText\">Bad choice, the bee was angry.</span><br><b>You have been stung!</b><br>Your pay has been decreased by $0.10. Your bonus pay is now $0.06.</p>\n            ","response":0,"trial_type":"html-button-response","trial_index":96,"time_elapsed":434270,"internal_node_id":"0.0-4.0-1.44","subject_id":"6107108d42233dace6968f9c","study_id":"6197b3f67c2b5cd3b6d9596a","session_id":"6197b5e1a3a34585eb9f8f0c","condition":"contingent","relevant_dimensions":["antennae","wings"],"bee_group":{"antennae":"B","wings":"2","pattern":"X","legs":"X"},"bonus":0.08},{"rt":703.1999999880791,"stimulus":"bees-with-color/bee-A1DM.svg","response":0,"trial_type":"image-button-response","trial_index":97,"time_elapsed":434975,"internal_node_id":"0.0-4.0-0.45","subject_id":"6107108d42233dace6968f9c","study_id":"6197b3f67c2b5cd3b6d9596a","session_id":"6197b5e1a3a34585eb9f8f0c","condition":"contingent","relevant_dimensions":["antennae","wings"],"bee_group":{"antennae":"B","wings":"2","pattern":"X","legs":"X"},"action":"harvest","summary":"good-harvest","bonus":0.08},{"rt":632,"stimulus":"\n                    <p><b>Action: <em>harvest</em></b></p>\n                    <p>This is the bee that you just saw.</p>\n                    <img src=\"bees-with-color/bee-A1DM.svg\" width=\"200\">\n                    <p><span class=\"greenText\"><b>Successful harvest!</b></span><br>Your pay has increased by $0.02. Your bonus pay is now $0.08.</p>\n            ","response":0,"trial_type":"html-button-response","trial_index":98,"time_elapsed":435609,"internal_node_id":"0.0-4.0-1.45","subject_id":"6107108d42233dace6968f9c","study_id":"6197b3f67c2b5cd3b6d9596a","session_id":"6197b5e1a3a34585eb9f8f0c","condition":"contingent","relevant_dimensions":["antennae","wings"],"bee_group":{"antennae":"B","wings":"2","pattern":"X","legs":"X"},"bonus":0.08},{"rt":573.1999999880791,"stimulus":"bees-with-color/bee-A2DM.svg","response":0,"trial_type":"image-button-response","trial_index":99,"time_elapsed":436185,"internal_node_id":"0.0-4.0-0.46","subject_id":"6107108d42233dace6968f9c","study_id":"6197b3f67c2b5cd3b6d9596a","session_id":"6197b5e1a3a34585eb9f8f0c","condition":"contingent","relevant_dimensions":["antennae","wings"],"bee_group":{"antennae":"B","wings":"2","pattern":"X","legs":"X"},"action":"harvest","summary":"good-harvest","bonus":0.08},{"rt":567.7000000476837,"stimulus":"\n                    <p><b>Action: <em>harvest</em></b></p>\n                    <p>This is the bee that you just saw.</p>\n                    <img src=\"bees-with-color/bee-A2DM.svg\" width=\"200\">\n                    <p><span class=\"greenText\"><b>Successful harvest!</b></span><br>Your pay has increased by $0.02. Your bonus pay is now $0.10.</p>\n            ","response":0,"trial_type":"html-button-response","trial_index":100,"time_elapsed":436755,"internal_node_id":"0.0-4.0-1.46","subject_id":"6107108d42233dace6968f9c","study_id":"6197b3f67c2b5cd3b6d9596a","session_id":"6197b5e1a3a34585eb9f8f0c","condition":"contingent","relevant_dimensions":["antennae","wings"],"bee_group":{"antennae":"B","wings":"2","pattern":"X","legs":"X"},"bonus":0.08},{"rt":574.1000000238419,"stimulus":"bees-with-color/bee-B1DM.svg","response":1,"trial_type":"image-button-response","trial_index":101,"time_elapsed":437331,"internal_node_id":"0.0-4.0-0.47","subject_id":"6107108d42233dace6968f9c","study_id":"6197b3f67c2b5cd3b6d9596a","session_id":"6197b5e1a3a34585eb9f8f0c","condition":"contingent","relevant_dimensions":["antennae","wings"],"bee_group":{"antennae":"B","wings":"2","pattern":"X","legs":"X"},"action":"avoid","summary":"bad-avoid","bonus":0.08},{"rt":622.6999999880791,"stimulus":"\n                    <p><b>Action: <em>avoid</em></b></p>\n                    <p>This is the bee that you just saw.</p>\n                    <img src=\"bees-with-color/bee-B1DM.svg\" width=\"200\">\n                    <p><br>Your bonus pay is unchanged, and remains at $0.10.</p>\n            ","response":0,"trial_type":"html-button-response","trial_index":102,"time_elapsed":437955,"internal_node_id":"0.0-4.0-1.47","subject_id":"6107108d42233dace6968f9c","study_id":"6197b3f67c2b5cd3b6d9596a","session_id":"6197b5e1a3a34585eb9f8f0c","condition":"contingent","relevant_dimensions":["antennae","wings"],"bee_group":{"antennae":"B","wings":"2","pattern":"X","legs":"X"},"bonus":0.08},{"rt":496.10000002384186,"stimulus":"bees-with-color/bee-B2SF.svg","response":0,"trial_type":"image-button-response","trial_index":103,"time_elapsed":438453,"internal_node_id":"0.0-4.0-0.48","subject_id":"6107108d42233dace6968f9c","study_id":"6197b3f67c2b5cd3b6d9596a","session_id":"6197b5e1a3a34585eb9f8f0c","condition":"contingent","relevant_dimensions":["antennae","wings"],"bee_group":{"antennae":"B","wings":"2","pattern":"X","legs":"X"},"action":"harvest","summary":"bad-harvest","bonus":0.08},{"rt":741.7000000476837,"stimulus":"\n                    <p><b>Action: <em>harvest</em></b></p>\n                    <p>This is the bee that you just saw.</p>\n                    <img src=\"bees-with-color/bee-B2SF.svg\" width=\"200\">\n                    <p><span class=\"redText\">Bad choice, the bee was angry.</span><br><b>You have been stung!</b><br>Your pay has been decreased by $0.10. Your bonus pay is now $0.00.</p>\n            ","response":0,"trial_type":"html-button-response","trial_index":104,"time_elapsed":439197,"internal_node_id":"0.0-4.0-1.48","subject_id":"6107108d42233dace6968f9c","study_id":"6197b3f67c2b5cd3b6d9596a","session_id":"6197b5e1a3a34585eb9f8f0c","condition":"contingent","relevant_dimensions":["antennae","wings"],"bee_group":{"antennae":"B","wings":"2","pattern":"X","legs":"X"},"bonus":0.08},{"rt":496.19999998807907,"stimulus":"bees-with-color/bee-A1SM.svg","response":1,"trial_type":"image-button-response","trial_index":105,"time_elapsed":439695,"internal_node_id":"0.0-4.0-0.49","subject_id":"6107108d42233dace6968f9c","study_id":"6197b3f67c2b5cd3b6d9596a","session_id":"6197b5e1a3a34585eb9f8f0c","condition":"contingent","relevant_dimensions":["antennae","wings"],"bee_group":{"antennae":"B","wings":"2","pattern":"X","legs":"X"},"action":"avoid","summary":"bad-avoid","bonus":0.08},{"rt":1088,"stimulus":"\n                    <p><b>Action: <em>avoid</em></b></p>\n                    <p>This is the bee that you just saw.</p>\n                    <img src=\"bees-with-color/bee-A1SM.svg\" width=\"200\">\n                    <p><br>Your bonus pay is unchanged, and remains at $0.00.</p>\n            ","response":0,"trial_type":"html-button-response","trial_index":106,"time_elapsed":440785,"internal_node_id":"0.0-4.0-1.49","subject_id":"6107108d42233dace6968f9c","study_id":"6197b3f67c2b5cd3b6d9596a","session_id":"6197b5e1a3a34585eb9f8f0c","condition":"contingent","relevant_dimensions":["antennae","wings"],"bee_group":{"antennae":"B","wings":"2","pattern":"X","legs":"X"},"bonus":0.08},{"rt":558.1999999880791,"stimulus":"bees-with-color/bee-B1SM.svg","response":0,"trial_type":"image-button-response","trial_index":107,"time_elapsed":441346,"internal_node_id":"0.0-4.0-0.50","subject_id":"6107108d42233dace6968f9c","study_id":"6197b3f67c2b5cd3b6d9596a","session_id":"6197b5e1a3a34585eb9f8f0c","condition":"contingent","relevant_dimensions":["antennae","wings"],"bee_group":{"antennae":"B","wings":"2","pattern":"X","legs":"X"},"action":"harvest","summary":"good-harvest","bonus":0.08},{"rt":471.19999998807907,"stimulus":"\n                    <p><b>Action: <em>harvest</em></b></p>\n                    <p>This is the bee that you just saw.</p>\n                    <img src=\"bees-with-color/bee-B1SM.svg\" width=\"200\">\n                    <p><span class=\"greenText\"><b>Successful harvest!</b></span><br>Your pay has increased by $0.02. Your bonus pay is now $0.02.</p>\n            ","response":0,"trial_type":"html-button-response","trial_index":108,"time_elapsed":441819,"internal_node_id":"0.0-4.0-1.50","subject_id":"6107108d42233dace6968f9c","study_id":"6197b3f67c2b5cd3b6d9596a","session_id":"6197b5e1a3a34585eb9f8f0c","condition":"contingent","relevant_dimensions":["antennae","wings"],"bee_group":{"antennae":"B","wings":"2","pattern":"X","legs":"X"},"bonus":0.08},{"rt":494.10000002384186,"stimulus":"bees-with-color/bee-B1DF.svg","response":0,"trial_type":"image-button-response","trial_index":109,"time_elapsed":442315,"internal_node_id":"0.0-4.0-0.51","subject_id":"6107108d42233dace6968f9c","study_id":"6197b3f67c2b5cd3b6d9596a","session_id":"6197b5e1a3a34585eb9f8f0c","condition":"contingent","relevant_dimensions":["antennae","wings"],"bee_group":{"antennae":"B","wings":"2","pattern":"X","legs":"X"},"action":"harvest","summary":"good-harvest","bonus":0.08},{"rt":445.80000001192093,"stimulus":"\n                    <p><b>Action: <em>harvest</em></b></p>\n                    <p>This is the bee that you just saw.</p>\n                    <img src=\"bees-with-color/bee-B1DF.svg\" width=\"200\">\n                    <p><span class=\"greenText\"><b>Successful harvest!</b></span><br>Your pay has increased by $0.02. Your bonus pay is now $0.04.</p>\n            ","response":0,"trial_type":"html-button-response","trial_index":110,"time_elapsed":442763,"internal_node_id":"0.0-4.0-1.51","subject_id":"6107108d42233dace6968f9c","study_id":"6197b3f67c2b5cd3b6d9596a","session_id":"6197b5e1a3a34585eb9f8f0c","condition":"contingent","relevant_dimensions":["antennae","wings"],"bee_group":{"antennae":"B","wings":"2","pattern":"X","legs":"X"},"bonus":0.08},{"rt":512.3000000119209,"stimulus":"bees-with-color/bee-B1DM.svg","response":1,"trial_type":"image-button-response","trial_index":111,"time_elapsed":443278,"internal_node_id":"0.0-4.0-0.52","subject_id":"6107108d42233dace6968f9c","study_id":"6197b3f67c2b5cd3b6d9596a","session_id":"6197b5e1a3a34585eb9f8f0c","condition":"contingent","relevant_dimensions":["antennae","wings"],"bee_group":{"antennae":"B","wings":"2","pattern":"X","legs":"X"},"action":"avoid","summary":"bad-avoid","bonus":0.08},{"rt":885.3000000119209,"stimulus":"\n                    <p><b>Action: <em>avoid</em></b></p>\n                    <p>This is the bee that you just saw.</p>\n                    <img src=\"bees-with-color/bee-B1DM.svg\" width=\"200\">\n                    <p><br>Your bonus pay is unchanged, and remains at $0.04.</p>\n            ","response":0,"trial_type":"html-button-response","trial_index":112,"time_elapsed":444165,"internal_node_id":"0.0-4.0-1.52","subject_id":"6107108d42233dace6968f9c","study_id":"6197b3f67c2b5cd3b6d9596a","session_id":"6197b5e1a3a34585eb9f8f0c","condition":"contingent","relevant_dimensions":["antennae","wings"],"bee_group":{"antennae":"B","wings":"2","pattern":"X","legs":"X"},"bonus":0.08},{"rt":552.8999999761581,"stimulus":"bees-with-color/bee-B2SM.svg","response":0,"trial_type":"image-button-response","trial_index":113,"time_elapsed":444719,"internal_node_id":"0.0-4.0-0.53","subject_id":"6107108d42233dace6968f9c","study_id":"6197b3f67c2b5cd3b6d9596a","session_id":"6197b5e1a3a34585eb9f8f0c","condition":"contingent","relevant_dimensions":["antennae","wings"],"bee_group":{"antennae":"B","wings":"2","pattern":"X","legs":"X"},"action":"harvest","summary":"bad-harvest","bonus":0.08},{"rt":832.1999999880791,"stimulus":"\n                    <p><b>Action: <em>harvest</em></b></p>\n                    <p>This is the bee that you just saw.</p>\n                    <img src=\"bees-with-color/bee-B2SM.svg\" width=\"200\">\n                    <p><span class=\"redText\">Bad choice, the bee was angry.</span><br><b>You have been stung!</b><br>Your pay has been decreased by $0.10. Your bonus pay is now $0.00.</p>\n            ","response":0,"trial_type":"html-button-response","trial_index":114,"time_elapsed":445553,"internal_node_id":"0.0-4.0-1.53","subject_id":"6107108d42233dace6968f9c","study_id":"6197b3f67c2b5cd3b6d9596a","session_id":"6197b5e1a3a34585eb9f8f0c","condition":"contingent","relevant_dimensions":["antennae","wings"],"bee_group":{"antennae":"B","wings":"2","pattern":"X","legs":"X"},"bonus":0.08},{"rt":518.5,"stimulus":"bees-with-color/bee-A2SM.svg","response":1,"trial_type":"image-button-response","trial_index":115,"time_elapsed":446073,"internal_node_id":"0.0-4.0-0.54","subject_id":"6107108d42233dace6968f9c","study_id":"6197b3f67c2b5cd3b6d9596a","session_id":"6197b5e1a3a34585eb9f8f0c","condition":"contingent","relevant_dimensions":["antennae","wings"],"bee_group":{"antennae":"B","wings":"2","pattern":"X","legs":"X"},"action":"avoid","summary":"bad-avoid","bonus":0.08},{"rt":912.3000000119209,"stimulus":"\n                    <p><b>Action: <em>avoid</em></b></p>\n                    <p>This is the bee that you just saw.</p>\n                    <img src=\"bees-with-color/bee-A2SM.svg\" width=\"200\">\n                    <p><br>Your bonus pay is unchanged, and remains at $0.00.</p>\n            ","response":0,"trial_type":"html-button-response","trial_index":116,"time_elapsed":446987,"internal_node_id":"0.0-4.0-1.54","subject_id":"6107108d42233dace6968f9c","study_id":"6197b3f67c2b5cd3b6d9596a","session_id":"6197b5e1a3a34585eb9f8f0c","condition":"contingent","relevant_dimensions":["antennae","wings"],"bee_group":{"antennae":"B","wings":"2","pattern":"X","legs":"X"},"bonus":0.08},{"rt":718.6999999880791,"stimulus":"bees-with-color/bee-A2SF.svg","response":0,"trial_type":"image-button-response","trial_index":117,"time_elapsed":447707,"internal_node_id":"0.0-4.0-0.55","subject_id":"6107108d42233dace6968f9c","study_id":"6197b3f67c2b5cd3b6d9596a","session_id":"6197b5e1a3a34585eb9f8f0c","condition":"contingent","relevant_dimensions":["antennae","wings"],"bee_group":{"antennae":"B","wings":"2","pattern":"X","legs":"X"},"action":"harvest","summary":"good-harvest","bonus":0.08},{"rt":656.1999999880791,"stimulus":"\n                    <p><b>Action: <em>harvest</em></b></p>\n                    <p>This is the bee that you just saw.</p>\n                    <img src=\"bees-with-color/bee-A2SF.svg\" width=\"200\">\n                    <p><span class=\"greenText\"><b>Successful harvest!</b></span><br>Your pay has increased by $0.02. Your bonus pay is now $0.02.</p>\n            ","response":0,"trial_type":"html-button-response","trial_index":118,"time_elapsed":448365,"internal_node_id":"0.0-4.0-1.55","subject_id":"6107108d42233dace6968f9c","study_id":"6197b3f67c2b5cd3b6d9596a","session_id":"6197b5e1a3a34585eb9f8f0c","condition":"contingent","relevant_dimensions":["antennae","wings"],"bee_group":{"antennae":"B","wings":"2","pattern":"X","legs":"X"},"bonus":0.08},{"rt":1272.6000000238419,"stimulus":"bees-with-color/bee-A1DM.svg","response":0,"trial_type":"image-button-response","trial_index":119,"time_elapsed":449640,"internal_node_id":"0.0-4.0-0.56","subject_id":"6107108d42233dace6968f9c","study_id":"6197b3f67c2b5cd3b6d9596a","session_id":"6197b5e1a3a34585eb9f8f0c","condition":"contingent","relevant_dimensions":["antennae","wings"],"bee_group":{"antennae":"B","wings":"2","pattern":"X","legs":"X"},"action":"harvest","summary":"good-harvest","bonus":0.08},{"rt":605.1000000238419,"stimulus":"\n                    <p><b>Action: <em>harvest</em></b></p>\n                    <p>This is the bee that you just saw.</p>\n                    <img src=\"bees-with-color/bee-A1DM.svg\" width=\"200\">\n                    <p><span class=\"greenText\"><b>Successful harvest!</b></span><br>Your pay has increased by $0.02. Your bonus pay is now $0.04.</p>\n            ","response":0,"trial_type":"html-button-response","trial_index":120,"time_elapsed":450247,"internal_node_id":"0.0-4.0-1.56","subject_id":"6107108d42233dace6968f9c","study_id":"6197b3f67c2b5cd3b6d9596a","session_id":"6197b5e1a3a34585eb9f8f0c","condition":"contingent","relevant_dimensions":["antennae","wings"],"bee_group":{"antennae":"B","wings":"2","pattern":"X","legs":"X"},"bonus":0.08},{"rt":680.4000000357628,"stimulus":"bees-with-color/bee-B1SF.svg","response":1,"trial_type":"image-button-response","trial_index":121,"time_elapsed":450929,"internal_node_id":"0.0-4.0-0.57","subject_id":"6107108d42233dace6968f9c","study_id":"6197b3f67c2b5cd3b6d9596a","session_id":"6197b5e1a3a34585eb9f8f0c","condition":"contingent","relevant_dimensions":["antennae","wings"],"bee_group":{"antennae":"B","wings":"2","pattern":"X","legs":"X"},"action":"avoid","summary":"bad-avoid","bonus":0.08},{"rt":542.1999999880791,"stimulus":"\n                    <p><b>Action: <em>avoid</em></b></p>\n                    <p>This is the bee that you just saw.</p>\n                    <img src=\"bees-with-color/bee-B1SF.svg\" width=\"200\">\n                    <p><br>Your bonus pay is unchanged, and remains at $0.04.</p>\n            ","response":0,"trial_type":"html-button-response","trial_index":122,"time_elapsed":451474,"internal_node_id":"0.0-4.0-1.57","subject_id":"6107108d42233dace6968f9c","study_id":"6197b3f67c2b5cd3b6d9596a","session_id":"6197b5e1a3a34585eb9f8f0c","condition":"contingent","relevant_dimensions":["antennae","wings"],"bee_group":{"antennae":"B","wings":"2","pattern":"X","legs":"X"},"bonus":0.08},{"rt":479.60000002384186,"stimulus":"bees-with-color/bee-A2DF.svg","response":0,"trial_type":"image-button-response","trial_index":123,"time_elapsed":451955,"internal_node_id":"0.0-4.0-0.58","subject_id":"6107108d42233dace6968f9c","study_id":"6197b3f67c2b5cd3b6d9596a","session_id":"6197b5e1a3a34585eb9f8f0c","condition":"contingent","relevant_dimensions":["antennae","wings"],"bee_group":{"antennae":"B","wings":"2","pattern":"X","legs":"X"},"action":"harvest","summary":"good-harvest","bonus":0.08},{"rt":445.7999999523163,"stimulus":"\n                    <p><b>Action: <em>harvest</em></b></p>\n                    <p>This is the bee that you just saw.</p>\n                    <img src=\"bees-with-color/bee-A2DF.svg\" width=\"200\">\n                    <p><span class=\"greenText\"><b>Successful harvest!</b></span><br>Your pay has increased by $0.02. Your bonus pay is now $0.06.</p>\n            ","response":0,"trial_type":"html-button-response","trial_index":124,"time_elapsed":452403,"internal_node_id":"0.0-4.0-1.58","subject_id":"6107108d42233dace6968f9c","study_id":"6197b3f67c2b5cd3b6d9596a","session_id":"6197b5e1a3a34585eb9f8f0c","condition":"contingent","relevant_dimensions":["antennae","wings"],"bee_group":{"antennae":"B","wings":"2","pattern":"X","legs":"X"},"bonus":0.08},{"rt":542.5999999642372,"stimulus":"bees-with-color/bee-B2DF.svg","response":1,"trial_type":"image-button-response","trial_index":125,"time_elapsed":452948,"internal_node_id":"0.0-4.0-0.59","subject_id":"6107108d42233dace6968f9c","study_id":"6197b3f67c2b5cd3b6d9596a","session_id":"6197b5e1a3a34585eb9f8f0c","condition":"contingent","relevant_dimensions":["antennae","wings"],"bee_group":{"antennae":"B","wings":"2","pattern":"X","legs":"X"},"action":"avoid","summary":"good-avoid","bonus":0.08},{"rt":551.6999999880791,"stimulus":"\n                    <p><b>Action: <em>avoid</em></b></p>\n                    <p>This is the bee that you just saw.</p>\n                    <img src=\"bees-with-color/bee-B2DF.svg\" width=\"200\">\n                    <p><br>Your bonus pay is unchanged, and remains at $0.06.</p>\n            ","response":0,"trial_type":"html-button-response","trial_index":126,"time_elapsed":453501,"internal_node_id":"0.0-4.0-1.59","subject_id":"6107108d42233dace6968f9c","study_id":"6197b3f67c2b5cd3b6d9596a","session_id":"6197b5e1a3a34585eb9f8f0c","condition":"contingent","relevant_dimensions":["antennae","wings"],"bee_group":{"antennae":"B","wings":"2","pattern":"X","legs":"X"},"bonus":0.08},{"rt":1528.3999999761581,"stimulus":"bees-with-color/bee-A2DM.svg","response":0,"trial_type":"image-button-response","trial_index":127,"time_elapsed":455031,"internal_node_id":"0.0-4.0-0.60","subject_id":"6107108d42233dace6968f9c","study_id":"6197b3f67c2b5cd3b6d9596a","session_id":"6197b5e1a3a34585eb9f8f0c","condition":"contingent","relevant_dimensions":["antennae","wings"],"bee_group":{"antennae":"B","wings":"2","pattern":"X","legs":"X"},"action":"harvest","summary":"good-harvest","bonus":0.08},{"rt":632,"stimulus":"\n                    <p><b>Action: <em>harvest</em></b></p>\n                    <p>This is the bee that you just saw.</p>\n                    <img src=\"bees-with-color/bee-A2DM.svg\" width=\"200\">\n                    <p><span class=\"greenText\"><b>Successful harvest!</b></span><br>Your pay has increased by $0.02. Your bonus pay is now $0.08.</p>\n            ","response":0,"trial_type":"html-button-response","trial_index":128,"time_elapsed":455665,"internal_node_id":"0.0-4.0-1.60","subject_id":"6107108d42233dace6968f9c","study_id":"6197b3f67c2b5cd3b6d9596a","session_id":"6197b5e1a3a34585eb9f8f0c","condition":"contingent","relevant_dimensions":["antennae","wings"],"bee_group":{"antennae":"B","wings":"2","pattern":"X","legs":"X"},"bonus":0.08},{"rt":1471.800000011921,"stimulus":"bees-with-color/bee-B2DM.svg","response":0,"trial_type":"image-button-response","trial_index":129,"time_elapsed":457139,"internal_node_id":"0.0-4.0-0.61","subject_id":"6107108d42233dace6968f9c","study_id":"6197b3f67c2b5cd3b6d9596a","session_id":"6197b5e1a3a34585eb9f8f0c","condition":"contingent","relevant_dimensions":["antennae","wings"],"bee_group":{"antennae":"B","wings":"2","pattern":"X","legs":"X"},"action":"harvest","summary":"bad-harvest","bonus":0.08},{"rt":712.3000000119209,"stimulus":"\n                    <p><b>Action: <em>harvest</em></b></p>\n                    <p>This is the bee that you just saw.</p>\n                    <img src=\"bees-with-color/bee-B2DM.svg\" width=\"200\">\n                    <p><span class=\"redText\">Bad choice, the bee was angry.</span><br><b>You have been stung!</b><br>Your pay has been decreased by $0.10. Your bonus pay is now $0.00.</p>\n            ","response":0,"trial_type":"html-button-response","trial_index":130,"time_elapsed":457853,"internal_node_id":"0.0-4.0-1.61","subject_id":"6107108d42233dace6968f9c","study_id":"6197b3f67c2b5cd3b6d9596a","session_id":"6197b5e1a3a34585eb9f8f0c","condition":"contingent","relevant_dimensions":["antennae","wings"],"bee_group":{"antennae":"B","wings":"2","pattern":"X","legs":"X"},"bonus":0.08},{"rt":877.8999999761581,"stimulus":"bees-with-color/bee-A1DF.svg","response":0,"trial_type":"image-button-response","trial_index":131,"time_elapsed":458734,"internal_node_id":"0.0-4.0-0.62","subject_id":"6107108d42233dace6968f9c","study_id":"6197b3f67c2b5cd3b6d9596a","session_id":"6197b5e1a3a34585eb9f8f0c","condition":"contingent","relevant_dimensions":["antennae","wings"],"bee_group":{"antennae":"B","wings":"2","pattern":"X","legs":"X"},"action":"harvest","summary":"good-harvest","bonus":0.08},{"rt":872,"stimulus":"\n                    <p><b>Action: <em>harvest</em></b></p>\n                    <p>This is the bee that you just saw.</p>\n                    <img src=\"bees-with-color/bee-A1DF.svg\" width=\"200\">\n                    <p><span class=\"greenText\"><b>Successful harvest!</b></span><br>Your pay has increased by $0.02. Your bonus pay is now $0.02.</p>\n            ","response":0,"trial_type":"html-button-response","trial_index":132,"time_elapsed":459608,"internal_node_id":"0.0-4.0-1.62","subject_id":"6107108d42233dace6968f9c","study_id":"6197b3f67c2b5cd3b6d9596a","session_id":"6197b5e1a3a34585eb9f8f0c","condition":"contingent","relevant_dimensions":["antennae","wings"],"bee_group":{"antennae":"B","wings":"2","pattern":"X","legs":"X"},"bonus":0.08},{"rt":526.3999999761581,"stimulus":"bees-with-color/bee-A1SF.svg","response":0,"trial_type":"image-button-response","trial_index":133,"time_elapsed":460137,"internal_node_id":"0.0-4.0-0.63","subject_id":"6107108d42233dace6968f9c","study_id":"6197b3f67c2b5cd3b6d9596a","session_id":"6197b5e1a3a34585eb9f8f0c","condition":"contingent","relevant_dimensions":["antennae","wings"],"bee_group":{"antennae":"B","wings":"2","pattern":"X","legs":"X"},"action":"harvest","summary":"good-harvest","bonus":0.08},{"rt":551,"stimulus":"\n                    <p><b>Action: <em>harvest</em></b></p>\n                    <p>This is the bee that you just saw.</p>\n                    <img src=\"bees-with-color/bee-A1SF.svg\" width=\"200\">\n                    <p><span class=\"greenText\"><b>Successful harvest!</b></span><br>Your pay has increased by $0.02. Your bonus pay is now $0.04.</p>\n            ","response":0,"trial_type":"html-button-response","trial_index":134,"time_elapsed":460691,"internal_node_id":"0.0-4.0-1.63","subject_id":"6107108d42233dace6968f9c","study_id":"6197b3f67c2b5cd3b6d9596a","session_id":"6197b5e1a3a34585eb9f8f0c","condition":"contingent","relevant_dimensions":["antennae","wings"],"bee_group":{"antennae":"B","wings":"2","pattern":"X","legs":"X"},"bonus":0.08},{"rt":3518,"stimulus":"You have completed the first part of this experiment.<br><br>You will now begin a shorter second part, in which you will receive no feedback.<br>The same rules regarding bonus pay apply.<br><br>Press any key to begin.","response":" ","trial_type":"html-keyboard-response","trial_index":135,"time_elapsed":464210,"internal_node_id":"0.0-5.0","subject_id":"6107108d42233dace6968f9c","study_id":"6197b3f67c2b5cd3b6d9596a","session_id":"6197b5e1a3a34585eb9f8f0c","condition":"contingent","relevant_dimensions":["antennae","wings"],"bee_group":{"antennae":"B","wings":"2","pattern":"X","legs":"X"},"bonus":0.08},{"rt":2202.599999964237,"stimulus":"bees-with-color/bee-A2SM.svg","response":0,"trial_type":"image-button-response","trial_index":136,"time_elapsed":466424,"internal_node_id":"0.0-6.0-0.0","subject_id":"6107108d42233dace6968f9c","study_id":"6197b3f67c2b5cd3b6d9596a","session_id":"6197b5e1a3a34585eb9f8f0c","condition":"contingent","relevant_dimensions":["antennae","wings"],"bee_group":{"antennae":"B","wings":"2","pattern":"X","legs":"X"},"bonus":0.08},{"rt":3249,"stimulus":"bees-with-color/bee-B2SF.svg","response":0,"trial_type":"image-button-response","trial_index":137,"time_elapsed":469676,"internal_node_id":"0.0-6.0-0.1","subject_id":"6107108d42233dace6968f9c","study_id":"6197b3f67c2b5cd3b6d9596a","session_id":"6197b5e1a3a34585eb9f8f0c","condition":"contingent","relevant_dimensions":["antennae","wings"],"bee_group":{"antennae":"B","wings":"2","pattern":"X","legs":"X"},"bonus":0.08},{"rt":1377.0999999642372,"stimulus":"bees-with-color/bee-A2SF.svg","response":0,"trial_type":"image-button-response","trial_index":138,"time_elapsed":471056,"internal_node_id":"0.0-6.0-0.2","subject_id":"6107108d42233dace6968f9c","study_id":"6197b3f67c2b5cd3b6d9596a","session_id":"6197b5e1a3a34585eb9f8f0c","condition":"contingent","relevant_dimensions":["antennae","wings"],"bee_group":{"antennae":"B","wings":"2","pattern":"X","legs":"X"},"bonus":0.08},{"rt":1161.5999999642372,"stimulus":"bees-with-color/bee-A2DF.svg","response":1,"trial_type":"image-button-response","trial_index":139,"time_elapsed":472220,"internal_node_id":"0.0-6.0-0.3","subject_id":"6107108d42233dace6968f9c","study_id":"6197b3f67c2b5cd3b6d9596a","session_id":"6197b5e1a3a34585eb9f8f0c","condition":"contingent","relevant_dimensions":["antennae","wings"],"bee_group":{"antennae":"B","wings":"2","pattern":"X","legs":"X"},"bonus":0.08},{"rt":2691,"stimulus":"bees-with-color/bee-A1SF.svg","response":0,"trial_type":"image-button-response","trial_index":140,"time_elapsed":474914,"internal_node_id":"0.0-6.0-0.4","subject_id":"6107108d42233dace6968f9c","study_id":"6197b3f67c2b5cd3b6d9596a","session_id":"6197b5e1a3a34585eb9f8f0c","condition":"contingent","relevant_dimensions":["antennae","wings"],"bee_group":{"antennae":"B","wings":"2","pattern":"X","legs":"X"},"bonus":0.08},{"rt":2159.399999976158,"stimulus":"bees-with-color/bee-A2DM.svg","response":1,"trial_type":"image-button-response","trial_index":141,"time_elapsed":477076,"internal_node_id":"0.0-6.0-0.5","subject_id":"6107108d42233dace6968f9c","study_id":"6197b3f67c2b5cd3b6d9596a","session_id":"6197b5e1a3a34585eb9f8f0c","condition":"contingent","relevant_dimensions":["antennae","wings"],"bee_group":{"antennae":"B","wings":"2","pattern":"X","legs":"X"},"bonus":0.08},{"rt":1263,"stimulus":"bees-with-color/bee-B2DF.svg","response":0,"trial_type":"image-button-response","trial_index":142,"time_elapsed":478342,"internal_node_id":"0.0-6.0-0.6","subject_id":"6107108d42233dace6968f9c","study_id":"6197b3f67c2b5cd3b6d9596a","session_id":"6197b5e1a3a34585eb9f8f0c","condition":"contingent","relevant_dimensions":["antennae","wings"],"bee_group":{"antennae":"B","wings":"2","pattern":"X","legs":"X"},"bonus":0.08},{"rt":1865.800000011921,"stimulus":"bees-with-color/bee-A1SM.svg","response":0,"trial_type":"image-button-response","trial_index":143,"time_elapsed":480210,"internal_node_id":"0.0-6.0-0.7","subject_id":"6107108d42233dace6968f9c","study_id":"6197b3f67c2b5cd3b6d9596a","session_id":"6197b5e1a3a34585eb9f8f0c","condition":"contingent","relevant_dimensions":["antennae","wings"],"bee_group":{"antennae":"B","wings":"2","pattern":"X","legs":"X"},"bonus":0.08},{"rt":903.5,"stimulus":"bees-with-color/bee-B1SM.svg","response":1,"trial_type":"image-button-response","trial_index":144,"time_elapsed":481116,"internal_node_id":"0.0-6.0-0.8","subject_id":"6107108d42233dace6968f9c","study_id":"6197b3f67c2b5cd3b6d9596a","session_id":"6197b5e1a3a34585eb9f8f0c","condition":"contingent","relevant_dimensions":["antennae","wings"],"bee_group":{"antennae":"B","wings":"2","pattern":"X","legs":"X"},"bonus":0.08},{"rt":710.2000000476837,"stimulus":"bees-with-color/bee-A1DM.svg","response":0,"trial_type":"image-button-response","trial_index":145,"time_elapsed":481828,"internal_node_id":"0.0-6.0-0.9","subject_id":"6107108d42233dace6968f9c","study_id":"6197b3f67c2b5cd3b6d9596a","session_id":"6197b5e1a3a34585eb9f8f0c","condition":"contingent","relevant_dimensions":["antennae","wings"],"bee_group":{"antennae":"B","wings":"2","pattern":"X","legs":"X"},"bonus":0.08},{"rt":639.3999999761581,"stimulus":"bees-with-color/bee-A1DF.svg","response":1,"trial_type":"image-button-response","trial_index":146,"time_elapsed":482470,"internal_node_id":"0.0-6.0-0.10","subject_id":"6107108d42233dace6968f9c","study_id":"6197b3f67c2b5cd3b6d9596a","session_id":"6197b5e1a3a34585eb9f8f0c","condition":"contingent","relevant_dimensions":["antennae","wings"],"bee_group":{"antennae":"B","wings":"2","pattern":"X","legs":"X"},"bonus":0.08},{"rt":541.6000000238419,"stimulus":"bees-with-color/bee-B1SF.svg","response":0,"trial_type":"image-button-response","trial_index":147,"time_elapsed":483014,"internal_node_id":"0.0-6.0-0.11","subject_id":"6107108d42233dace6968f9c","study_id":"6197b3f67c2b5cd3b6d9596a","session_id":"6197b5e1a3a34585eb9f8f0c","condition":"contingent","relevant_dimensions":["antennae","wings"],"bee_group":{"antennae":"B","wings":"2","pattern":"X","legs":"X"},"bonus":0.08},{"rt":1223.3999999761581,"stimulus":"bees-with-color/bee-B1DF.svg","response":1,"trial_type":"image-button-response","trial_index":148,"time_elapsed":484240,"internal_node_id":"0.0-6.0-0.12","subject_id":"6107108d42233dace6968f9c","study_id":"6197b3f67c2b5cd3b6d9596a","session_id":"6197b5e1a3a34585eb9f8f0c","condition":"contingent","relevant_dimensions":["antennae","wings"],"bee_group":{"antennae":"B","wings":"2","pattern":"X","legs":"X"},"bonus":0.08},{"rt":1906,"stimulus":"bees-with-color/bee-B1DM.svg","response":1,"trial_type":"image-button-response","trial_index":149,"time_elapsed":486148,"internal_node_id":"0.0-6.0-0.13","subject_id":"6107108d42233dace6968f9c","study_id":"6197b3f67c2b5cd3b6d9596a","session_id":"6197b5e1a3a34585eb9f8f0c","condition":"contingent","relevant_dimensions":["antennae","wings"],"bee_group":{"antennae":"B","wings":"2","pattern":"X","legs":"X"},"bonus":0.08},{"rt":765.1000000238419,"stimulus":"bees-with-color/bee-B2SM.svg","response":0,"trial_type":"image-button-response","trial_index":150,"time_elapsed":486916,"internal_node_id":"0.0-6.0-0.14","subject_id":"6107108d42233dace6968f9c","study_id":"6197b3f67c2b5cd3b6d9596a","session_id":"6197b5e1a3a34585eb9f8f0c","condition":"contingent","relevant_dimensions":["antennae","wings"],"bee_group":{"antennae":"B","wings":"2","pattern":"X","legs":"X"},"bonus":0.08},{"rt":2145.900000035763,"stimulus":"bees-with-color/bee-B2DM.svg","response":0,"trial_type":"image-button-response","trial_index":151,"time_elapsed":489064,"internal_node_id":"0.0-6.0-0.15","subject_id":"6107108d42233dace6968f9c","study_id":"6197b3f67c2b5cd3b6d9596a","session_id":"6197b5e1a3a34585eb9f8f0c","condition":"contingent","relevant_dimensions":["antennae","wings"],"bee_group":{"antennae":"B","wings":"2","pattern":"X","legs":"X"},"bonus":0.08},{"rt":1063.9000000357628,"stimulus":"bees-with-color/bee-B1SM.svg","response":1,"trial_type":"image-button-response","trial_index":152,"time_elapsed":490130,"internal_node_id":"0.0-6.0-0.16","subject_id":"6107108d42233dace6968f9c","study_id":"6197b3f67c2b5cd3b6d9596a","session_id":"6197b5e1a3a34585eb9f8f0c","condition":"contingent","relevant_dimensions":["antennae","wings"],"bee_group":{"antennae":"B","wings":"2","pattern":"X","legs":"X"},"bonus":0.08},{"rt":527.9000000357628,"stimulus":"bees-with-color/bee-B1DF.svg","response":0,"trial_type":"image-button-response","trial_index":153,"time_elapsed":490660,"internal_node_id":"0.0-6.0-0.17","subject_id":"6107108d42233dace6968f9c","study_id":"6197b3f67c2b5cd3b6d9596a","session_id":"6197b5e1a3a34585eb9f8f0c","condition":"contingent","relevant_dimensions":["antennae","wings"],"bee_group":{"antennae":"B","wings":"2","pattern":"X","legs":"X"},"bonus":0.08},{"rt":533.5,"stimulus":"bees-with-color/bee-A2DF.svg","response":1,"trial_type":"image-button-response","trial_index":154,"time_elapsed":491196,"internal_node_id":"0.0-6.0-0.18","subject_id":"6107108d42233dace6968f9c","study_id":"6197b3f67c2b5cd3b6d9596a","session_id":"6197b5e1a3a34585eb9f8f0c","condition":"contingent","relevant_dimensions":["antennae","wings"],"bee_group":{"antennae":"B","wings":"2","pattern":"X","legs":"X"},"bonus":0.08},{"rt":615.8999999761581,"stimulus":"bees-with-color/bee-A2SF.svg","response":0,"trial_type":"image-button-response","trial_index":155,"time_elapsed":491814,"internal_node_id":"0.0-6.0-0.19","subject_id":"6107108d42233dace6968f9c","study_id":"6197b3f67c2b5cd3b6d9596a","session_id":"6197b5e1a3a34585eb9f8f0c","condition":"contingent","relevant_dimensions":["antennae","wings"],"bee_group":{"antennae":"B","wings":"2","pattern":"X","legs":"X"},"bonus":0.08},{"rt":1392.1000000238419,"stimulus":"bees-with-color/bee-B2DF.svg","response":1,"trial_type":"image-button-response","trial_index":156,"time_elapsed":493208,"internal_node_id":"0.0-6.0-0.20","subject_id":"6107108d42233dace6968f9c","study_id":"6197b3f67c2b5cd3b6d9596a","session_id":"6197b5e1a3a34585eb9f8f0c","condition":"contingent","relevant_dimensions":["antennae","wings"],"bee_group":{"antennae":"B","wings":"2","pattern":"X","legs":"X"},"bonus":0.08},{"rt":485.5,"stimulus":"bees-with-color/bee-A1SM.svg","response":0,"trial_type":"image-button-response","trial_index":157,"time_elapsed":493696,"internal_node_id":"0.0-6.0-0.21","subject_id":"6107108d42233dace6968f9c","study_id":"6197b3f67c2b5cd3b6d9596a","session_id":"6197b5e1a3a34585eb9f8f0c","condition":"contingent","relevant_dimensions":["antennae","wings"],"bee_group":{"antennae":"B","wings":"2","pattern":"X","legs":"X"},"bonus":0.08},{"rt":2170.300000011921,"stimulus":"bees-with-color/bee-B2SF.svg","response":0,"trial_type":"image-button-response","trial_index":158,"time_elapsed":495868,"internal_node_id":"0.0-6.0-0.22","subject_id":"6107108d42233dace6968f9c","study_id":"6197b3f67c2b5cd3b6d9596a","session_id":"6197b5e1a3a34585eb9f8f0c","condition":"contingent","relevant_dimensions":["antennae","wings"],"bee_group":{"antennae":"B","wings":"2","pattern":"X","legs":"X"},"bonus":0.08},{"rt":631.8000000119209,"stimulus":"bees-with-color/bee-A1DM.svg","response":1,"trial_type":"image-button-response","trial_index":159,"time_elapsed":496502,"internal_node_id":"0.0-6.0-0.23","subject_id":"6107108d42233dace6968f9c","study_id":"6197b3f67c2b5cd3b6d9596a","session_id":"6197b5e1a3a34585eb9f8f0c","condition":"contingent","relevant_dimensions":["antennae","wings"],"bee_group":{"antennae":"B","wings":"2","pattern":"X","legs":"X"},"bonus":0.08},{"rt":413.7999999523163,"stimulus":"bees-with-color/bee-B1DM.svg","response":0,"trial_type":"image-button-response","trial_index":160,"time_elapsed":496919,"internal_node_id":"0.0-6.0-0.24","subject_id":"6107108d42233dace6968f9c","study_id":"6197b3f67c2b5cd3b6d9596a","session_id":"6197b5e1a3a34585eb9f8f0c","condition":"contingent","relevant_dimensions":["antennae","wings"],"bee_group":{"antennae":"B","wings":"2","pattern":"X","legs":"X"},"bonus":0.08},{"rt":551.8999999761581,"stimulus":"bees-with-color/bee-B2DM.svg","response":0,"trial_type":"image-button-response","trial_index":161,"time_elapsed":497472,"internal_node_id":"0.0-6.0-0.25","subject_id":"6107108d42233dace6968f9c","study_id":"6197b3f67c2b5cd3b6d9596a","session_id":"6197b5e1a3a34585eb9f8f0c","condition":"contingent","relevant_dimensions":["antennae","wings"],"bee_group":{"antennae":"B","wings":"2","pattern":"X","legs":"X"},"bonus":0.08},{"rt":406,"stimulus":"bees-with-color/bee-B2SM.svg","response":1,"trial_type":"image-button-response","trial_index":162,"time_elapsed":497881,"internal_node_id":"0.0-6.0-0.26","subject_id":"6107108d42233dace6968f9c","study_id":"6197b3f67c2b5cd3b6d9596a","session_id":"6197b5e1a3a34585eb9f8f0c","condition":"contingent","relevant_dimensions":["antennae","wings"],"bee_group":{"antennae":"B","wings":"2","pattern":"X","legs":"X"},"bonus":0.08},{"rt":719.6000000238419,"stimulus":"bees-with-color/bee-A2DM.svg","response":0,"trial_type":"image-button-response","trial_index":163,"time_elapsed":498602,"internal_node_id":"0.0-6.0-0.27","subject_id":"6107108d42233dace6968f9c","study_id":"6197b3f67c2b5cd3b6d9596a","session_id":"6197b5e1a3a34585eb9f8f0c","condition":"contingent","relevant_dimensions":["antennae","wings"],"bee_group":{"antennae":"B","wings":"2","pattern":"X","legs":"X"},"bonus":0.08},{"rt":1224.1000000238419,"stimulus":"bees-with-color/bee-B1SF.svg","response":0,"trial_type":"image-button-response","trial_index":164,"time_elapsed":499828,"internal_node_id":"0.0-6.0-0.28","subject_id":"6107108d42233dace6968f9c","study_id":"6197b3f67c2b5cd3b6d9596a","session_id":"6197b5e1a3a34585eb9f8f0c","condition":"contingent","relevant_dimensions":["antennae","wings"],"bee_group":{"antennae":"B","wings":"2","pattern":"X","legs":"X"},"bonus":0.08},{"rt":462.19999998807907,"stimulus":"bees-with-color/bee-A2SM.svg","response":1,"trial_type":