[{"success":true,"trial_type":"fullscreen","trial_index":0,"time_elapsed":268793,"internal_node_id":"0.0-0.0","subject_id":"5d553414092f860001ceb313","study_id":"6197b3f67c2b5cd3b6d9596a","session_id":"619be326323ecfb813c24f28","condition":"full-information","relevant_dimensions":["antennae","legs"],"bee_group":{"antennae":"B","wings":"X","pattern":"X","legs":"M"},"bonus":1.0000000000000009},{"success":true,"timeout":false,"failed_images":[],"failed_audio":[],"failed_video":[],"trial_type":"preload","trial_index":1,"time_elapsed":271179,"internal_node_id":"0.0-1.0","subject_id":"5d553414092f860001ceb313","study_id":"6197b3f67c2b5cd3b6d9596a","session_id":"619be326323ecfb813c24f28","condition":"full-information","relevant_dimensions":["antennae","legs"],"bee_group":{"antennae":"B","wings":"X","pattern":"X","legs":"M"},"bonus":1.0000000000000009},{"rt":1661.5,"stimulus":"Welcome! Press any key to begin.","response":" ","trial_type":"html-keyboard-response","trial_index":2,"time_elapsed":272841,"internal_node_id":"0.0-2.0","subject_id":"5d553414092f860001ceb313","study_id":"6197b3f67c2b5cd3b6d9596a","session_id":"619be326323ecfb813c24f28","condition":"full-information","relevant_dimensions":["antennae","legs"],"bee_group":{"antennae":"B","wings":"X","pattern":"X","legs":"M"},"bonus":1.0000000000000009},{"view_history":[{"page_index":0,"viewing_time":1848.3999999999069},{"page_index":1,"viewing_time":6599.799999999814},{"page_index":2,"viewing_time":8144.9000000003725},{"page_index":3,"viewing_time":7944.199999999721},{"page_index":4,"viewing_time":4019.899999999907},{"page_index":5,"viewing_time":12086.900000000373},{"page_index":6,"viewing_time":8604},{"page_index":7,"viewing_time":6055.899999999907},{"page_index":8,"viewing_time":5306},{"page_index":9,"viewing_time":4400},{"page_index":10,"viewing_time":5073},{"page_index":11,"viewing_time":5417.100000000093},{"page_index":12,"viewing_time":36554.799999999814},{"page_index":13,"viewing_time":1083.8999999999069},{"page_index":14,"viewing_time":1024.1000000000931}],"rt":114163.1000000001,"trial_type":"instructions","trial_index":3,"time_elapsed":387005,"internal_node_id":"0.0-3.0-0.0","subject_id":"5d553414092f860001ceb313","study_id":"6197b3f67c2b5cd3b6d9596a","session_id":"619be326323ecfb813c24f28","condition":"full-information","relevant_dimensions":["antennae","legs"],"bee_group":{"antennae":"B","wings":"X","pattern":"X","legs":"M"},"bonus":1.0000000000000009},{"rt":11332.69999999972,"response":{"Q0":["Two or six legs","Stripes or spots on body","Single or double wings","Antennae or no antennae"]},"question_order":[0],"trial_type":"survey-multi-select","trial_index":4,"time_elapsed":398342,"internal_node_id":"0.0-3.0-1.0","subject_id":"5d553414092f860001ceb313","study_id":"6197b3f67c2b5cd3b6d9596a","session_id":"619be326323ecfb813c24f28","condition":"full-information","relevant_dimensions":["antennae","legs"],"bee_group":{"antennae":"B","wings":"X","pattern":"X","legs":"M"},"correct":true,"bonus":1.0000000000000009},{"rt":44042.80000000028,"response":{"Q1":"No.","Q2":"Based on the four features of the bee.","Q3":"You learn if it was friendly or dangerous, but do not alter your bonus."},"question_order":[0,1,2],"trial_type":"survey-multi-choice","trial_index":5,"time_elapsed":442386,"internal_node_id":"0.0-3.0-2.0","subject_id":"5d553414092f860001ceb313","study_id":"6197b3f67c2b5cd3b6d9596a","session_id":"619be326323ecfb813c24f28","condition":"full-information","relevant_dimensions":["antennae","legs"],"bee_group":{"antennae":"B","wings":"X","pattern":"X","legs":"M"},"correct":true,"bonus":1.0000000000000009},{"rt":2926.7000000001863,"stimulus":"<p>Congrats, you got everything right<br>When you're ready, click the button below to continue to the experiment.</p>","response":0,"trial_type":"html-button-response","trial_index":6,"time_elapsed":445315,"internal_node_id":"0.0-3.0-3.0","subject_id":"5d553414092f860001ceb313","study_id":"6197b3f67c2b5cd3b6d9596a","session_id":"619be326323ecfb813c24f28","condition":"full-information","relevant_dimensions":["antennae","legs"],"bee_group":{"antennae":"B","wings":"X","pattern":"X","legs":"M"},"bonus":1.0000000000000009},{"rt":22516.399999999907,"stimulus":"bees-with-color/bee-A2DF.svg","response":0,"trial_type":"image-button-response","trial_index":7,"time_elapsed":467834,"internal_node_id":"0.0-4.0-0.0","subject_id":"5d553414092f860001ceb313","study_id":"6197b3f67c2b5cd3b6d9596a","session_id":"619be326323ecfb813c24f28","condition":"full-information","relevant_dimensions":["antennae","legs"],"bee_group":{"antennae":"B","wings":"X","pattern":"X","legs":"M"},"action":"harvest","summary":"good-harvest","bonus":1.0000000000000009},{"rt":10313.30000000028,"stimulus":"\n                    <p><b>Action: <em>harvest</em></b></p>\n                    <p>This is the bee that you just saw.</p>\n                    <img src=\"bees-with-color/bee-A2DF.svg\" width=\"200\">\n                    <p><span class=\"greenText\"><b>Successful harvest!</b></span><br>Your pay has increased by $0.02. Your bonus pay is now $0.56.</p>\n            ","response":0,"trial_type":"html-button-response","trial_index":8,"time_elapsed":478150,"internal_node_id":"0.0-4.0-1.0","subject_id":"5d553414092f860001ceb313","study_id":"6197b3f67c2b5cd3b6d9596a","session_id":"619be326323ecfb813c24f28","condition":"full-information","relevant_dimensions":["antennae","legs"],"bee_group":{"antennae":"B","wings":"X","pattern":"X","legs":"M"},"bonus":1.0000000000000009},{"rt":16682,"stimulus":"bees-with-color/bee-A1DF.svg","response":0,"trial_type":"image-button-response","trial_index":9,"time_elapsed":494834,"internal_node_id":"0.0-4.0-0.1","subject_id":"5d553414092f860001ceb313","study_id":"6197b3f67c2b5cd3b6d9596a","session_id":"619be326323ecfb813c24f28","condition":"full-information","relevant_dimensions":["antennae","legs"],"bee_group":{"antennae":"B","wings":"X","pattern":"X","legs":"M"},"action":"harvest","summary":"good-harvest","bonus":1.0000000000000009},{"rt":8527.899999999907,"stimulus":"\n                    <p><b>Action: <em>harvest</em></b></p>\n                    <p>This is the bee that you just saw.</p>\n                    <img src=\"bees-with-color/bee-A1DF.svg\" width=\"200\">\n                    <p><span class=\"greenText\"><b>Successful harvest!</b></span><br>Your pay has increased by $0.02. Your bonus pay is now $0.58.</p>\n            ","response":0,"trial_type":"html-button-response","trial_index":10,"time_elapsed":503364,"internal_node_id":"0.0-4.0-1.1","subject_id":"5d553414092f860001ceb313","study_id":"6197b3f67c2b5cd3b6d9596a","session_id":"619be326323ecfb813c24f28","condition":"full-information","relevant_dimensions":["antennae","legs"],"bee_group":{"antennae":"B","wings":"X","pattern":"X","legs":"M"},"bonus":1.0000000000000009},{"rt":20201,"stimulus":"bees-with-color/bee-A2SF.svg","response":0,"trial_type":"image-button-response","trial_index":11,"time_elapsed":523567,"internal_node_id":"0.0-4.0-0.2","subject_id":"5d553414092f860001ceb313","study_id":"6197b3f67c2b5cd3b6d9596a","session_id":"619be326323ecfb813c24f28","condition":"full-information","relevant_dimensions":["antennae","legs"],"bee_group":{"antennae":"B","wings":"X","pattern":"X","legs":"M"},"action":"harvest","summary":"good-harvest","bonus":1.0000000000000009},{"rt":7725.199999999721,"stimulus":"\n                    <p><b>Action: <em>harvest</em></b></p>\n                    <p>This is the bee that you just saw.</p>\n                    <img src=\"bees-with-color/bee-A2SF.svg\" width=\"200\">\n                    <p><span class=\"greenText\"><b>Successful harvest!</b></span><br>Your pay has increased by $0.02. Your bonus pay is now $0.60.</p>\n            ","response":0,"trial_type":"html-button-response","trial_index":12,"time_elapsed":531294,"internal_node_id":"0.0-4.0-1.2","subject_id":"5d553414092f860001ceb313","study_id":"6197b3f67c2b5cd3b6d9596a","session_id":"619be326323ecfb813c24f28","condition":"full-information","relevant_dimensions":["antennae","legs"],"bee_group":{"antennae":"B","wings":"X","pattern":"X","legs":"M"},"bonus":1.0000000000000009},{"rt":15967.300000000745,"stimulus":"bees-with-color/bee-B1SF.svg","response":0,"trial_type":"image-button-response","trial_index":13,"time_elapsed":547263,"internal_node_id":"0.0-4.0-0.3","subject_id":"5d553414092f860001ceb313","study_id":"6197b3f67c2b5cd3b6d9596a","session_id":"619be326323ecfb813c24f28","condition":"full-information","relevant_dimensions":["antennae","legs"],"bee_group":{"antennae":"B","wings":"X","pattern":"X","legs":"M"},"action":"harvest","summary":"good-harvest","bonus":1.0000000000000009},{"rt":5658.5,"stimulus":"\n                    <p><b>Action: <em>harvest</em></b></p>\n                    <p>This is the bee that you just saw.</p>\n                    <img src=\"bees-with-color/bee-B1SF.svg\" width=\"200\">\n                    <p><span class=\"greenText\"><b>Successful harvest!</b></span><br>Your pay has increased by $0.02. Your bonus pay is now $0.62.</p>\n            ","response":0,"trial_type":"html-button-response","trial_index":14,"time_elapsed":552923,"internal_node_id":"0.0-4.0-1.3","subject_id":"5d553414092f860001ceb313","study_id":"6197b3f67c2b5cd3b6d9596a","session_id":"619be326323ecfb813c24f28","condition":"full-information","relevant_dimensions":["antennae","legs"],"bee_group":{"antennae":"B","wings":"X","pattern":"X","legs":"M"},"bonus":1.0000000000000009},{"rt":24351.799999999814,"stimulus":"bees-with-color/bee-B2DM.svg","response":0,"trial_type":"image-button-response","trial_index":15,"time_elapsed":577276,"internal_node_id":"0.0-4.0-0.4","subject_id":"5d553414092f860001ceb313","study_id":"6197b3f67c2b5cd3b6d9596a","session_id":"619be326323ecfb813c24f28","condition":"full-information","relevant_dimensions":["antennae","legs"],"bee_group":{"antennae":"B","wings":"X","pattern":"X","legs":"M"},"action":"harvest","summary":"bad-harvest","bonus":1.0000000000000009},{"rt":10036.900000000373,"stimulus":"\n                    <p><b>Action: <em>harvest</em></b></p>\n                    <p>This is the bee that you just saw.</p>\n                    <img src=\"bees-with-color/bee-B2DM.svg\" width=\"200\">\n                    <p><span class=\"redText\">Bad choice, the bee was angry.</span><br><b>You have been stung!</b><br>Your pay has been decreased by $0.10. Your bonus pay is now $0.52.</p>\n            ","response":0,"trial_type":"html-button-response","trial_index":16,"time_elapsed":587315,"internal_node_id":"0.0-4.0-1.4","subject_id":"5d553414092f860001ceb313","study_id":"6197b3f67c2b5cd3b6d9596a","session_id":"619be326323ecfb813c24f28","condition":"full-information","relevant_dimensions":["antennae","legs"],"bee_group":{"antennae":"B","wings":"X","pattern":"X","legs":"M"},"bonus":1.0000000000000009},{"rt":1769,"stimulus":"bees-with-color/bee-A1DM.svg","response":1,"trial_type":"image-button-response","trial_index":17,"time_elapsed":589087,"internal_node_id":"0.0-4.0-0.5","subject_id":"5d553414092f860001ceb313","study_id":"6197b3f67c2b5cd3b6d9596a","session_id":"619be326323ecfb813c24f28","condition":"full-information","relevant_dimensions":["antennae","legs"],"bee_group":{"antennae":"B","wings":"X","pattern":"X","legs":"M"},"action":"avoid","summary":"bad-avoid","bonus":1.0000000000000009},{"rt":26776.699999999255,"stimulus":"\n                    <p><b>Action: <em>avoid</em></b></p>\n                    <p>This is the bee that you just saw.</p>\n                    <img src=\"bees-with-color/bee-A1DM.svg\" width=\"200\">\n                    <p><span class=\"redText\">Bad choice,</span> the bee was friendly.<br>Your bonus pay is unchanged, and remains at $0.52.</p>\n            ","response":0,"trial_type":"html-button-response","trial_index":18,"time_elapsed":615865,"internal_node_id":"0.0-4.0-1.5","subject_id":"5d553414092f860001ceb313","study_id":"6197b3f67c2b5cd3b6d9596a","session_id":"619be326323ecfb813c24f28","condition":"full-information","relevant_dimensions":["antennae","legs"],"bee_group":{"antennae":"B","wings":"X","pattern":"X","legs":"M"},"bonus":1.0000000000000009},{"rt":2947.699999999255,"stimulus":"bees-with-color/bee-A2SM.svg","response":0,"trial_type":"image-button-response","trial_index":19,"time_elapsed":618815,"internal_node_id":"0.0-4.0-0.6","subject_id":"5d553414092f860001ceb313","study_id":"6197b3f67c2b5cd3b6d9596a","session_id":"619be326323ecfb813c24f28","condition":"full-information","relevant_dimensions":["antennae","legs"],"bee_group":{"antennae":"B","wings":"X","pattern":"X","legs":"M"},"action":"harvest","summary":"good-harvest","bonus":1.0000000000000009},{"rt":15201.100000000559,"stimulus":"\n                    <p><b>Action: <em>harvest</em></b></p>\n                    <p>This is the bee that you just saw.</p>\n                    <img src=\"bees-with-color/bee-A2SM.svg\" width=\"200\">\n                    <p><span class=\"greenText\"><b>Successful harvest!</b></span><br>Your pay has increased by $0.02. Your bonus pay is now $0.54.</p>\n            ","response":0,"trial_type":"html-button-response","trial_index":20,"time_elapsed":634017,"internal_node_id":"0.0-4.0-1.6","subject_id":"5d553414092f860001ceb313","study_id":"6197b3f67c2b5cd3b6d9596a","session_id":"619be326323ecfb813c24f28","condition":"full-information","relevant_dimensions":["antennae","legs"],"bee_group":{"antennae":"B","wings":"X","pattern":"X","legs":"M"},"bonus":1.0000000000000009},{"rt":5849.0999999996275,"stimulus":"bees-with-color/bee-B2SM.svg","response":1,"trial_type":"image-button-response","trial_index":21,"time_elapsed":639869,"internal_node_id":"0.0-4.0-0.7","subject_id":"5d553414092f860001ceb313","study_id":"6197b3f67c2b5cd3b6d9596a","session_id":"619be326323ecfb813c24f28","condition":"full-information","relevant_dimensions":["antennae","legs"],"bee_group":{"antennae":"B","wings":"X","pattern":"X","legs":"M"},"action":"avoid","summary":"good-avoid","bonus":1.0000000000000009},{"rt":16766.299999999814,"stimulus":"\n                    <p><b>Action: <em>avoid</em></b></p>\n                    <p>This is the bee that you just saw.</p>\n                    <img src=\"bees-with-color/bee-B2SM.svg\" width=\"200\">\n                    <p><span class=\"greenText\">Good choice!</span>  This bee would have stung you.<br>Your bonus pay is unchanged, and remains at $0.54.</p>\n            ","response":0,"trial_type":"html-button-response","trial_index":22,"time_elapsed":656637,"internal_node_id":"0.0-4.0-1.7","subject_id":"5d553414092f860001ceb313","study_id":"6197b3f67c2b5cd3b6d9596a","session_id":"619be326323ecfb813c24f28","condition":"full-information","relevant_dimensions":["antennae","legs"],"bee_group":{"antennae":"B","wings":"X","pattern":"X","legs":"M"},"bonus":1.0000000000000009},{"rt":3537.4000000003725,"stimulus":"bees-with-color/bee-B1SM.svg","response":0,"trial_type":"image-button-response","trial_index":23,"time_elapsed":660177,"internal_node_id":"0.0-4.0-0.8","subject_id":"5d553414092f860001ceb313","study_id":"6197b3f67c2b5cd3b6d9596a","session_id":"619be326323ecfb813c24f28","condition":"full-information","relevant_dimensions":["antennae","legs"],"bee_group":{"antennae":"B","wings":"X","pattern":"X","legs":"M"},"action":"harvest","summary":"bad-harvest","bonus":1.0000000000000009},{"rt":26797,"stimulus":"\n                    <p><b>Action: <em>harvest</em></b></p>\n                    <p>This is the bee that you just saw.</p>\n                    <img src=\"bees-with-color/bee-B1SM.svg\" width=\"200\">\n                    <p><span class=\"redText\">Bad choice, the bee was angry.</span><br><b>You have been stung!</b><br>Your pay has been decreased by $0.10. Your bonus pay is now $0.44.</p>\n            ","response":0,"trial_type":"html-button-response","trial_index":24,"time_elapsed":686976,"internal_node_id":"0.0-4.0-1.8","subject_id":"5d553414092f860001ceb313","study_id":"6197b3f67c2b5cd3b6d9596a","session_id":"619be326323ecfb813c24f28","condition":"full-information","relevant_dimensions":["antennae","legs"],"bee_group":{"antennae":"B","wings":"X","pattern":"X","legs":"M"},"bonus":1.0000000000000009},{"rt":28314.89999999944,"stimulus":"bees-with-color/bee-A1SF.svg","response":0,"trial_type":"image-button-response","trial_index":25,"time_elapsed":715292,"internal_node_id":"0.0-4.0-0.9","subject_id":"5d553414092f860001ceb313","study_id":"6197b3f67c2b5cd3b6d9596a","session_id":"619be326323ecfb813c24f28","condition":"full-information","relevant_dimensions":["antennae","legs"],"bee_group":{"antennae":"B","wings":"X","pattern":"X","legs":"M"},"action":"harvest","summary":"good-harvest","bonus":1.0000000000000009},{"rt":1099.6000000005588,"stimulus":"\n                    <p><b>Action: <em>harvest</em></b></p>\n                    <p>This is the bee that you just saw.</p>\n                    <img src=\"bees-with-color/bee-A1SF.svg\" width=\"200\">\n                    <p><span class=\"greenText\"><b>Successful harvest!</b></span><br>Your pay has increased by $0.02. Your bonus pay is now $0.46.</p>\n            ","response":0,"trial_type":"html-button-response","trial_index":26,"time_elapsed":716393,"internal_node_id":"0.0-4.0-1.9","subject_id":"5d553414092f860001ceb313","study_id":"6197b3f67c2b5cd3b6d9596a","session_id":"619be326323ecfb813c24f28","condition":"full-information","relevant_dimensions":["antennae","legs"],"bee_group":{"antennae":"B","wings":"X","pattern":"X","legs":"M"},"bonus":1.0000000000000009},{"rt":19813.099999999627,"stimulus":"bees-with-color/bee-B2DF.svg","response":0,"trial_type":"image-button-response","trial_index":27,"time_elapsed":736208,"internal_node_id":"0.0-4.0-0.10","subject_id":"5d553414092f860001ceb313","study_id":"6197b3f67c2b5cd3b6d9596a","session_id":"619be326323ecfb813c24f28","condition":"full-information","relevant_dimensions":["antennae","legs"],"bee_group":{"antennae":"B","wings":"X","pattern":"X","legs":"M"},"action":"harvest","summary":"good-harvest","bonus":1.0000000000000009},{"rt":4537.5999999996275,"stimulus":"\n                    <p><b>Action: <em>harvest</em></b></p>\n                    <p>This is the bee that you just saw.</p>\n                    <img src=\"bees-with-color/bee-B2DF.svg\" width=\"200\">\n                    <p><span class=\"greenText\"><b>Successful harvest!</b></span><br>Your pay has increased by $0.02. Your bonus pay is now $0.48.</p>\n            ","response":0,"trial_type":"html-button-response","trial_index":28,"time_elapsed":740748,"internal_node_id":"0.0-4.0-1.10","subject_id":"5d553414092f860001ceb313","study_id":"6197b3f67c2b5cd3b6d9596a","session_id":"619be326323ecfb813c24f28","condition":"full-information","relevant_dimensions":["antennae","legs"],"bee_group":{"antennae":"B","wings":"X","pattern":"X","legs":"M"},"bonus":1.0000000000000009},{"rt":2654.9000000003725,"stimulus":"bees-with-color/bee-B2SF.svg","response":0,"trial_type":"image-button-response","trial_index":29,"time_elapsed":743404,"internal_node_id":"0.0-4.0-0.11","subject_id":"5d553414092f860001ceb313","study_id":"6197b3f67c2b5cd3b6d9596a","session_id":"619be326323ecfb813c24f28","condition":"full-information","relevant_dimensions":["antennae","legs"],"bee_group":{"antennae":"B","wings":"X","pattern":"X","legs":"M"},"action":"harvest","summary":"good-harvest","bonus":1.0000000000000009},{"rt":848.5,"stimulus":"\n                    <p><b>Action: <em>harvest</em></b></p>\n                    <p>This is the bee that you just saw.</p>\n                    <img src=\"bees-with-color/bee-B2SF.svg\" width=\"200\">\n                    <p><span class=\"greenText\"><b>Successful harvest!</b></span><br>Your pay has increased by $0.02. Your bonus pay is now $0.50.</p>\n            ","response":0,"trial_type":"html-button-response","trial_index":30,"time_elapsed":744254,"internal_node_id":"0.0-4.0-1.11","subject_id":"5d553414092f860001ceb313","study_id":"6197b3f67c2b5cd3b6d9596a","session_id":"619be326323ecfb813c24f28","condition":"full-information","relevant_dimensions":["antennae","legs"],"bee_group":{"antennae":"B","wings":"X","pattern":"X","legs":"M"},"bonus":1.0000000000000009},{"rt":2348.5999999996275,"stimulus":"bees-with-color/bee-A1SM.svg","response":1,"trial_type":"image-button-response","trial_index":31,"time_elapsed":746604,"internal_node_id":"0.0-4.0-0.12","subject_id":"5d553414092f860001ceb313","study_id":"6197b3f67c2b5cd3b6d9596a","session_id":"619be326323ecfb813c24f28","condition":"full-information","relevant_dimensions":["antennae","legs"],"bee_group":{"antennae":"B","wings":"X","pattern":"X","legs":"M"},"action":"avoid","summary":"bad-avoid","bonus":1.0000000000000009},{"rt":19152.700000000186,"stimulus":"\n                    <p><b>Action: <em>avoid</em></b></p>\n                    <p>This is the bee that you just saw.</p>\n                    <img src=\"bees-with-color/bee-A1SM.svg\" width=\"200\">\n                    <p><span class=\"redText\">Bad choice,</span> the bee was friendly.<br>Your bonus pay is unchanged, and remains at $0.50.</p>\n            ","response":0,"trial_type":"html-button-response","trial_index":32,"time_elapsed":765758,"internal_node_id":"0.0-4.0-1.12","subject_id":"5d553414092f860001ceb313","study_id":"6197b3f67c2b5cd3b6d9596a","session_id":"619be326323ecfb813c24f28","condition":"full-information","relevant_dimensions":["antennae","legs"],"bee_group":{"antennae":"B","wings":"X","pattern":"X","legs":"M"},"bonus":1.0000000000000009},{"rt":4257.399999999441,"stimulus":"bees-with-color/bee-B1DM.svg","response":0,"trial_type":"image-button-response","trial_index":33,"time_elapsed":770017,"internal_node_id":"0.0-4.0-0.13","subject_id":"5d553414092f860001ceb313","study_id":"6197b3f67c2b5cd3b6d9596a","session_id":"619be326323ecfb813c24f28","condition":"full-information","relevant_dimensions":["antennae","legs"],"bee_group":{"antennae":"B","wings":"X","pattern":"X","legs":"M"},"action":"harvest","summary":"bad-harvest","bonus":1.0000000000000009},{"rt":103808.40000000037,"stimulus":"\n                    <p><b>Action: <em>harvest</em></b></p>\n                    <p>This is the bee that you just saw.</p>\n                    <img src=\"bees-with-color/bee-B1DM.svg\" width=\"200\">\n                    <p><span class=\"redText\">Bad choice, the bee was angry.</span><br><b>You have been stung!</b><br>Your pay has been decreased by $0.10. Your bonus pay is now $0.40.</p>\n            ","response":0,"trial_type":"html-button-response","trial_index":34,"time_elapsed":873827,"internal_node_id":"0.0-4.0-1.13","subject_id":"5d553414092f860001ceb313","study_id":"6197b3f67c2b5cd3b6d9596a","session_id":"619be326323ecfb813c24f28","condition":"full-information","relevant_dimensions":["antennae","legs"],"bee_group":{"antennae":"B","wings":"X","pattern":"X","legs":"M"},"bonus":1.0000000000000009},{"rt":1068.800000000745,"stimulus":"bees-with-color/bee-B1DF.svg","response":0,"trial_type":"image-button-response","trial_index":35,"time_elapsed":874898,"internal_node_id":"0.0-4.0-0.14","subject_id":"5d553414092f860001ceb313","study_id":"6197b3f67c2b5cd3b6d9596a","session_id":"619be326323ecfb813c24f28","condition":"full-information","relevant_dimensions":["antennae","legs"],"bee_group":{"antennae":"B","wings":"X","pattern":"X","legs":"M"},"action":"harvest","summary":"good-harvest","bonus":1.0000000000000009},{"rt":777.7000000001863,"stimulus":"\n                    <p><b>Action: <em>harvest</em></b></p>\n                    <p>This is the bee that you just saw.</p>\n                    <img src=\"bees-with-color/bee-B1DF.svg\" width=\"200\">\n                    <p><span class=\"greenText\"><b>Successful harvest!</b></span><br>Your pay has increased by $0.02. Your bonus pay is now $0.42.</p>\n            ","response":0,"trial_type":"html-button-response","trial_index":36,"time_elapsed":875677,"internal_node_id":"0.0-4.0-1.14","subject_id":"5d553414092f860001ceb313","study_id":"6197b3f67c2b5cd3b6d9596a","session_id":"619be326323ecfb813c24f28","condition":"full-information","relevant_dimensions":["antennae","legs"],"bee_group":{"antennae":"B","wings":"X","pattern":"X","legs":"M"},"bonus":1.0000000000000009},{"rt":9980.400000000373,"stimulus":"bees-with-color/bee-A2DM.svg","response":1,"trial_type":"image-button-response","trial_index":37,"time_elapsed":885659,"internal_node_id":"0.0-4.0-0.15","subject_id":"5d553414092f860001ceb313","study_id":"6197b3f67c2b5cd3b6d9596a","session_id":"619be326323ecfb813c24f28","condition":"full-information","relevant_dimensions":["antennae","legs"],"bee_group":{"antennae":"B","wings":"X","pattern":"X","legs":"M"},"action":"avoid","summary":"bad-avoid","bonus":1.0000000000000009},{"rt":1938,"stimulus":"\n                    <p><b>Action: <em>avoid</em></b></p>\n                    <p>This is the bee that you just saw.</p>\n                    <img src=\"bees-with-color/bee-A2DM.svg\" width=\"200\">\n                    <p><span class=\"redText\">Bad choice,</span> the bee was friendly.<br>Your bonus pay is unchanged, and remains at $0.42.</p>\n            ","response":0,"trial_type":"html-button-response","trial_index":38,"time_elapsed":887598,"internal_node_id":"0.0-4.0-1.15","subject_id":"5d553414092f860001ceb313","study_id":"6197b3f67c2b5cd3b6d9596a","session_id":"619be326323ecfb813c24f28","condition":"full-information","relevant_dimensions":["antennae","legs"],"bee_group":{"antennae":"B","wings":"X","pattern":"X","legs":"M"},"bonus":1.0000000000000009},{"rt":2373.100000000559,"stimulus":"bees-with-color/bee-B1DM.svg","response":1,"trial_type":"image-button-response","trial_index":39,"time_elapsed":889973,"internal_node_id":"0.0-4.0-0.16","subject_id":"5d553414092f860001ceb313","study_id":"6197b3f67c2b5cd3b6d9596a","session_id":"619be326323ecfb813c24f28","condition":"full-information","relevant_dimensions":["antennae","legs"],"bee_group":{"antennae":"B","wings":"X","pattern":"X","legs":"M"},"action":"avoid","summary":"good-avoid","bonus":1.0000000000000009},{"rt":927.6999999992549,"stimulus":"\n                    <p><b>Action: <em>avoid</em></b></p>\n                    <p>This is the bee that you just saw.</p>\n                    <img src=\"bees-with-color/bee-B1DM.svg\" width=\"200\">\n                    <p><span class=\"greenText\">Good choice!</span>  This bee would have stung you.<br>Your bonus pay is unchanged, and remains at $0.42.</p>\n            ","response":0,"trial_type":"html-button-response","trial_index":40,"time_elapsed":890902,"internal_node_id":"0.0-4.0-1.16","subject_id":"5d553414092f860001ceb313","study_id":"6197b3f67c2b5cd3b6d9596a","session_id":"619be326323ecfb813c24f28","condition":"full-information","relevant_dimensions":["antennae","legs"],"bee_group":{"antennae":"B","wings":"X","pattern":"X","legs":"M"},"bonus":1.0000000000000009},{"rt":2481.7999999998137,"stimulus":"bees-with-color/bee-B2DF.svg","response":0,"trial_type":"image-button-response","trial_index":41,"time_elapsed":893385,"internal_node_id":"0.0-4.0-0.17","subject_id":"5d553414092f860001ceb313","study_id":"6197b3f67c2b5cd3b6d9596a","session_id":"619be326323ecfb813c24f28","condition":"full-information","relevant_dimensions":["antennae","legs"],"bee_group":{"antennae":"B","wings":"X","pattern":"X","legs":"M"},"action":"harvest","summary":"good-harvest","bonus":1.0000000000000009},{"rt":714.5999999996275,"stimulus":"\n                    <p><b>Action: <em>harvest</em></b></p>\n                    <p>This is the bee that you just saw.</p>\n                    <img src=\"bees-with-color/bee-B2DF.svg\" width=\"200\">\n                    <p><span class=\"greenText\"><b>Successful harvest!</b></span><br>Your pay has increased by $0.02. Your bonus pay is now $0.44.</p>\n            ","response":0,"trial_type":"html-button-response","trial_index":42,"time_elapsed":894101,"internal_node_id":"0.0-4.0-1.17","subject_id":"5d553414092f860001ceb313","study_id":"6197b3f67c2b5cd3b6d9596a","session_id":"619be326323ecfb813c24f28","condition":"full-information","relevant_dimensions":["antennae","legs"],"bee_group":{"antennae":"B","wings":"X","pattern":"X","legs":"M"},"bonus":1.0000000000000009},{"rt":7422.399999999441,"stimulus":"bees-with-color/bee-A2SM.svg","response":1,"trial_type":"image-button-response","trial_index":43,"time_elapsed":901525,"internal_node_id":"0.0-4.0-0.18","subject_id":"5d553414092f860001ceb313","study_id":"6197b3f67c2b5cd3b6d9596a","session_id":"619be326323ecfb813c24f28","condition":"full-information","relevant_dimensions":["antennae","legs"],"bee_group":{"antennae":"B","wings":"X","pattern":"X","legs":"M"},"action":"avoid","summary":"bad-avoid","bonus":1.0000000000000009},{"rt":1338.5,"stimulus":"\n                    <p><b>Action: <em>avoid</em></b></p>\n                    <p>This is the bee that you just saw.</p>\n                    <img src=\"bees-with-color/bee-A2SM.svg\" width=\"200\">\n                    <p><span class=\"redText\">Bad choice,</span> the bee was friendly.<br>Your bonus pay is unchanged, and remains at $0.44.</p>\n            ","response":0,"trial_type":"html-button-response","trial_index":44,"time_elapsed":902865,"internal_node_id":"0.0-4.0-1.18","subject_id":"5d553414092f860001ceb313","study_id":"6197b3f67c2b5cd3b6d9596a","session_id":"619be326323ecfb813c24f28","condition":"full-information","relevant_dimensions":["antennae","legs"],"bee_group":{"antennae":"B","wings":"X","pattern":"X","legs":"M"},"bonus":1.0000000000000009},{"rt":1283.9000000003725,"stimulus":"bees-with-color/bee-B2SF.svg","response":0,"trial_type":"image-button-response","trial_index":45,"time_elapsed":904151,"internal_node_id":"0.0-4.0-0.19","subject_id":"5d553414092f860001ceb313","study_id":"6197b3f67c2b5cd3b6d9596a","session_id":"619be326323ecfb813c24f28","condition":"full-information","relevant_dimensions":["antennae","legs"],"bee_group":{"antennae":"B","wings":"X","pattern":"X","legs":"M"},"action":"harvest","summary":"good-harvest","bonus":1.0000000000000009},{"rt":698.6000000005588,"stimulus":"\n                    <p><b>Action: <em>harvest</em></b></p>\n                    <p>This is the bee that you just saw.</p>\n                    <img src=\"bees-with-color/bee-B2SF.svg\" width=\"200\">\n                    <p><span class=\"greenText\"><b>Successful harvest!</b></span><br>Your pay has increased by $0.02. Your bonus pay is now $0.46.</p>\n            ","response":0,"trial_type":"html-button-response","trial_index":46,"time_elapsed":904851,"internal_node_id":"0.0-4.0-1.19","subject_id":"5d553414092f860001ceb313","study_id":"6197b3f67c2b5cd3b6d9596a","session_id":"619be326323ecfb813c24f28","condition":"full-information","relevant_dimensions":["antennae","legs"],"bee_group":{"antennae":"B","wings":"X","pattern":"X","legs":"M"},"bonus":1.0000000000000009},{"rt":964.3999999994412,"stimulus":"bees-with-color/bee-B1SM.svg","response":0,"trial_type":"image-button-response","trial_index":47,"time_elapsed":905817,"internal_node_id":"0.0-4.0-0.20","subject_id":"5d553414092f860001ceb313","study_id":"6197b3f67c2b5cd3b6d9596a","session_id":"619be326323ecfb813c24f28","condition":"full-information","relevant_dimensions":["antennae","legs"],"bee_group":{"antennae":"B","wings":"X","pattern":"X","legs":"M"},"action":"harvest","summary":"bad-harvest","bonus":1.0000000000000009},{"rt":816.1999999992549,"stimulus":"\n                    <p><b>Action: <em>harvest</em></b></p>\n                    <p>This is the bee that you just saw.</p>\n                    <img src=\"bees-with-color/bee-B1SM.svg\" width=\"200\">\n                    <p><span class=\"redText\">Bad choice, the bee was angry.</span><br><b>You have been stung!</b><br>Your pay has been decreased by $0.10. Your bonus pay is now $0.36.</p>\n            ","response":0,"trial_type":"html-button-response","trial_index":48,"time_elapsed":906635,"internal_node_id":"0.0-4.0-1.20","subject_id":"5d553414092f860001ceb313","study_id":"6197b3f67c2b5cd3b6d9596a","session_id":"619be326323ecfb813c24f28","condition":"full-information","relevant_dimensions":["antennae","legs"],"bee_group":{"antennae":"B","wings":"X","pattern":"X","legs":"M"},"bonus":1.0000000000000009},{"rt":519.8999999994412,"stimulus":"bees-with-color/bee-A1DF.svg","response":1,"trial_type":"image-button-response","trial_index":49,"time_elapsed":907156,"internal_node_id":"0.0-4.0-0.21","subject_id":"5d553414092f860001ceb313","study_id":"6197b3f67c2b5cd3b6d9596a","session_id":"619be326323ecfb813c24f28","condition":"full-information","relevant_dimensions":["antennae","legs"],"bee_group":{"antennae":"B","wings":"X","pattern":"X","legs":"M"},"action":"avoid","summary":"bad-avoid","bonus":1.0000000000000009},{"rt":897.5,"stimulus":"\n                    <p><b>Action: <em>avoid</em></b></p>\n                    <p>This is the bee that you just saw.</p>\n                    <img src=\"bees-with-color/bee-A1DF.svg\" width=\"200\">\n                    <p><span class=\"redText\">Bad choice,</span> the bee was friendly.<br>Your bonus pay is unchanged, and remains at $0.36.</p>\n            ","response":0,"trial_type":"html-button-response","trial_index":50,"time_elapsed":908056,"internal_node_id":"0.0-4.0-1.21","subject_id":"5d553414092f860001ceb313","study_id":"6197b3f67c2b5cd3b6d9596a","session_id":"619be326323ecfb813c24f28","condition":"full-information","relevant_dimensions":["antennae","legs"],"bee_group":{"antennae":"B","wings":"X","pattern":"X","legs":"M"},"bonus":1.0000000000000009},{"rt":564.5,"stimulus":"bees-with-color/bee-B1DF.svg","response":0,"trial_type":"image-button-response","trial_index":51,"time_elapsed":908622,"internal_node_id":"0.0-4.0-0.22","subject_id":"5d553414092f860001ceb313","study_id":"6197b3f67c2b5cd3b6d9596a","session_id":"619be326323ecfb813c24f28","condition":"full-information","relevant_dimensions":["antennae","legs"],"bee_group":{"antennae":"B","wings":"X","pattern":"X","legs":"M"},"action":"harvest","summary":"good-harvest","bonus":1.0000000000000009},{"rt":833.5,"stimulus":"\n                    <p><b>Action: <em>harvest</em></b></p>\n                    <p>This is the bee that you just saw.</p>\n                    <img src=\"bees-with-color/bee-B1DF.svg\" width=\"200\">\n                    <p><span class=\"greenText\"><b>Successful harvest!</b></span><br>Your pay has increased by $0.02. Your bonus pay is now $0.38.</p>\n            ","response":0,"trial_type":"html-button-response","trial_index":52,"time_elapsed":909457,"internal_node_id":"0.0-4.0-1.22","subject_id":"5d553414092f860001ceb313","study_id":"6197b3f67c2b5cd3b6d9596a","session_id":"619be326323ecfb813c24f28","condition":"full-information","relevant_dimensions":["antennae","legs"],"bee_group":{"antennae":"B","wings":"X","pattern":"X","legs":"M"},"bonus":1.0000000000000009},{"rt":1310.5,"stimulus":"bees-with-color/bee-A2DF.svg","response":0,"trial_type":"image-button-response","trial_index":53,"time_elapsed":910770,"internal_node_id":"0.0-4.0-0.23","subject_id":"5d553414092f860001ceb313","study_id":"6197b3f67c2b5cd3b6d9596a","session_id":"619be326323ecfb813c24f28","condition":"full-information","relevant_dimensions":["antennae","legs"],"bee_group":{"antennae":"B","wings":"X","pattern":"X","legs":"M"},"action":"harvest","summary":"good-harvest","bonus":1.0000000000000009},{"rt":746.1000000005588,"stimulus":"\n                    <p><b>Action: <em>harvest</em></b></p>\n                    <p>This is the bee that you just saw.</p>\n                    <img src=\"bees-with-color/bee-A2DF.svg\" width=\"200\">\n                    <p><span class=\"greenText\"><b>Successful harvest!</b></span><br>Your pay has increased by $0.02. Your bonus pay is now $0.40.</p>\n            ","response":0,"trial_type":"html-button-response","trial_index":54,"time_elapsed":911517,"internal_node_id":"0.0-4.0-1.23","subject_id":"5d553414092f860001ceb313","study_id":"6197b3f67c2b5cd3b6d9596a","session_id":"619be326323ecfb813c24f28","condition":"full-information","relevant_dimensions":["antennae","legs"],"bee_group":{"antennae":"B","wings":"X","pattern":"X","legs":"M"},"bonus":1.0000000000000009},{"rt":1148.699999999255,"stimulus":"bees-with-color/bee-A1SF.svg","response":0,"trial_type":"image-button-response","trial_index":55,"time_elapsed":912668,"internal_node_id":"0.0-4.0-0.24","subject_id":"5d553414092f860001ceb313","study_id":"6197b3f67c2b5cd3b6d9596a","session_id":"619be326323ecfb813c24f28","condition":"full-information","relevant_dimensions":["antennae","legs"],"bee_group":{"antennae":"B","wings":"X","pattern":"X","legs":"M"},"action":"harvest","summary":"good-harvest","bonus":1.0000000000000009},{"rt":638.5999999996275,"stimulus":"\n                    <p><b>Action: <em>harvest</em></b></p>\n                    <p>This is the bee that you just saw.</p>\n                    <img src=\"bees-with-color/bee-A1SF.svg\" width=\"200\">\n                    <p><span class=\"greenText\"><b>Successful harvest!</b></span><br>Your pay has increased by $0.02. Your bonus pay is now $0.42.</p>\n            ","response":0,"trial_type":"html-button-response","trial_index":56,"time_elapsed":913308,"internal_node_id":"0.0-4.0-1.24","subject_id":"5d553414092f860001ceb313","study_id":"6197b3f67c2b5cd3b6d9596a","session_id":"619be326323ecfb813c24f28","condition":"full-information","relevant_dimensions":["antennae","legs"],"bee_group":{"antennae":"B","wings":"X","pattern":"X","legs":"M"},"bonus":1.0000000000000009},{"rt":2166.5,"stimulus":"bees-with-color/bee-A1SM.svg","response":1,"trial_type":"image-button-response","trial_index":57,"time_elapsed":915476,"internal_node_id":"0.0-4.0-0.25","subject_id":"5d553414092f860001ceb313","study_id":"6197b3f67c2b5cd3b6d9596a","session_id":"619be326323ecfb813c24f28","condition":"full-information","relevant_dimensions":["antennae","legs"],"bee_group":{"antennae":"B","wings":"X","pattern":"X","legs":"M"},"action":"avoid","summary":"bad-avoid","bonus":1.0000000000000009},{"rt":829.3000000007451,"stimulus":"\n                    <p><b>Action: <em>avoid</em></b></p>\n                    <p>This is the bee that you just saw.</p>\n                    <img src=\"bees-with-color/bee-A1SM.svg\" width=\"200\">\n                    <p><span class=\"redText\">Bad choice,</span> the bee was friendly.<br>Your bonus pay is unchanged, and remains at $0.42.</p>\n            ","response":0,"trial_type":"html-button-response","trial_index":58,"time_elapsed":916307,"internal_node_id":"0.0-4.0-1.25","subject_id":"5d553414092f860001ceb313","study_id":"6197b3f67c2b5cd3b6d9596a","session_id":"619be326323ecfb813c24f28","condition":"full-information","relevant_dimensions":["antennae","legs"],"bee_group":{"antennae":"B","wings":"X","pattern":"X","legs":"M"},"bonus":1.0000000000000009},{"rt":1497.7000000001863,"stimulus":"bees-with-color/bee-B2DM.svg","response":0,"trial_type":"image-button-response","trial_index":59,"time_elapsed":917807,"internal_node_id":"0.0-4.0-0.26","subject_id":"5d553414092f860001ceb313","study_id":"6197b3f67c2b5cd3b6d9596a","session_id":"619be326323ecfb813c24f28","condition":"full-information","relevant_dimensions":["antennae","legs"],"bee_group":{"antennae":"B","wings":"X","pattern":"X","legs":"M"},"action":"harvest","summary":"bad-harvest","bonus":1.0000000000000009},{"rt":883.5999999996275,"stimulus":"\n                    <p><b>Action: <em>harvest</em></b></p>\n                    <p>This is the bee that you just saw.</p>\n                    <img src=\"bees-with-color/bee-B2DM.svg\" width=\"200\">\n                    <p><span class=\"redText\">Bad choice, the bee was angry.</span><br><b>You have been stung!</b><br>Your pay has been decreased by $0.10. Your bonus pay is now $0.32.</p>\n            ","response":0,"trial_type":"html-button-response","trial_index":60,"time_elapsed":918692,"internal_node_id":"0.0-4.0-1.26","subject_id":"5d553414092f860001ceb313","study_id":"6197b3f67c2b5cd3b6d9596a","session_id":"619be326323ecfb813c24f28","condition":"full-information","relevant_dimensions":["antennae","legs"],"bee_group":{"antennae":"B","wings":"X","pattern":"X","legs":"M"},"bonus":1.0000000000000009},{"rt":2044.8999999994412,"stimulus":"bees-with-color/bee-A1DM.svg","response":1,"trial_type":"image-button-response","trial_index":61,"time_elapsed":920738,"internal_node_id":"0.0-4.0-0.27","subject_id":"5d553414092f860001ceb313","study_id":"6197b3f67c2b5cd3b6d9596a","session_id":"619be326323ecfb813c24f28","condition":"full-information","relevant_dimensions":["antennae","legs"],"bee_group":{"antennae":"B","wings":"X","pattern":"X","legs":"M"},"action":"avoid","summary":"bad-avoid","bonus":1.0000000000000009},{"rt":849.5,"stimulus":"\n                    <p><b>Action: <em>avoid</em></b></p>\n                    <p>This is the bee that you just saw.</p>\n                    <img src=\"bees-with-color/bee-A1DM.svg\" width=\"200\">\n                    <p><span class=\"redText\">Bad choice,</span> the bee was friendly.<br>Your bonus pay is unchanged, and remains at $0.32.</p>\n            ","response":0,"trial_type":"html-button-response","trial_index":62,"time_elapsed":921589,"internal_node_id":"0.0-4.0-1.27","subject_id":"5d553414092f860001ceb313","study_id":"6197b3f67c2b5cd3b6d9596a","session_id":"619be326323ecfb813c24f28","condition":"full-information","relevant_dimensions":["antennae","legs"],"bee_group":{"antennae":"B","wings":"X","pattern":"X","legs":"M"},"bonus":1.0000000000000009},{"rt":3805.899999999441,"stimulus":"bees-with-color/bee-B2SM.svg","response":1,"trial_type":"image-button-response","trial_index":63,"time_elapsed":925396,"internal_node_id":"0.0-4.0-0.28","subject_id":"5d553414092f860001ceb313","study_id":"6197b3f67c2b5cd3b6d9596a","session_id":"619be326323ecfb813c24f28","condition":"full-information","relevant_dimensions":["antennae","legs"],"bee_group":{"antennae":"B","wings":"X","pattern":"X","legs":"M"},"action":"avoid","summary":"good-avoid","bonus":1.0000000000000009},{"rt":1075.2999999998137,"stimulus":"\n                    <p><b>Action: <em>avoid</em></b></p>\n                    <p>This is the bee that you just saw.</p>\n                    <img src=\"bees-with-color/bee-B2SM.svg\" width=\"200\">\n                    <p><span class=\"greenText\">Good choice!</span>  This bee would have stung you.<br>Your bonus pay is unchanged, and remains at $0.32.</p>\n            ","response":0,"trial_type":"html-button-response","trial_index":64,"time_elapsed":926473,"internal_node_id":"0.0-4.0-1.28","subject_id":"5d553414092f860001ceb313","study_id":"6197b3f67c2b5cd3b6d9596a","session_id":"619be326323ecfb813c24f28","condition":"full-information","relevant_dimensions":["antennae","legs"],"bee_group":{"antennae":"B","wings":"X","pattern":"X","legs":"M"},"bonus":1.0000000000000009},{"rt":1014.6000000005588,"stimulus":"bees-with-color/bee-A2SF.svg","response":0,"trial_type":"image-button-response","trial_index":65,"time_elapsed":927489,"internal_node_id":"0.0-4.0-0.29","subject_id":"5d553414092f860001ceb313","study_id":"6197b3f67c2b5cd3b6d9596a","session_id":"619be326323ecfb813c24f28","condition":"full-information","relevant_dimensions":["antennae","legs"],"bee_group":{"antennae":"B","wings":"X","pattern":"X","legs":"M"},"action":"harvest","summary":"good-harvest","bonus":1.0000000000000009},{"rt":837.5,"stimulus":"\n                    <p><b>Action: <em>harvest</em></b></p>\n                    <p>This is the bee that you just saw.</p>\n                    <img src=\"bees-with-color/bee-A2SF.svg\" width=\"200\">\n                    <p><span class=\"greenText\"><b>Successful harvest!</b></span><br>Your pay has increased by $0.02. Your bonus pay is now $0.34.</p>\n            ","response":0,"trial_type":"html-button-response","trial_index":66,"time_elapsed":928328,"internal_node_id":"0.0-4.0-1.29","subject_id":"5d553414092f860001ceb313","study_id":"6197b3f67c2b5cd3b6d9596a","session_id":"619be326323ecfb813c24f28","condition":"full-information","relevant_dimensions":["antennae","legs"],"bee_group":{"antennae":"B","wings":"X","pattern":"X","legs":"M"},"bonus":1.0000000000000009},{"rt":790.7999999998137,"stimulus":"bees-with-color/bee-B1SF.svg","response":0,"trial_type":"image-button-response","trial_index":67,"time_elapsed":929120,"internal_node_id":"0.0-4.0-0.30","subject_id":"5d553414092f860001ceb313","study_id":"6197b3f67c2b5cd3b6d9596a","session_id":"619be326323ecfb813c24f28","condition":"full-information","relevant_dimensions":["antennae","legs"],"bee_group":{"antennae":"B","wings":"X","pattern":"X","legs":"M"},"action":"harvest","summary":"good-harvest","bonus":1.0000000000000009},{"rt":579.7000000001863,"stimulus":"\n                    <p><b>Action: <em>harvest</em></b></p>\n                    <p>This is the bee that you just saw.</p>\n                    <img src=\"bees-with-color/bee-B1SF.svg\" width=\"200\">\n                    <p><span class=\"greenText\"><b>Successful harvest!</b></span><br>Your pay has increased by $0.02. Your bonus pay is now $0.36.</p>\n            ","response":0,"trial_type":"html-button-response","trial_index":68,"time_elapsed":929701,"internal_node_id":"0.0-4.0-1.30","subject_id":"5d553414092f860001ceb313","study_id":"6197b3f67c2b5cd3b6d9596a","session_id":"619be326323ecfb813c24f28","condition":"full-information","relevant_dimensions":["antennae","legs"],"bee_group":{"antennae":"B","wings":"X","pattern":"X","legs":"M"},"bonus":1.0000000000000009},{"rt":789.7000000001863,"stimulus":"bees-with-color/bee-A2DM.svg","response":1,"trial_type":"image-button-response","trial_index":69,"time_elapsed":930492,"internal_node_id":"0.0-4.0-0.31","subject_id":"5d553414092f860001ceb313","study_id":"6197b3f67c2b5cd3b6d9596a","session_id":"619be326323ecfb813c24f28","condition":"full-information","relevant_dimensions":["antennae","legs"],"bee_group":{"antennae":"B","wings":"X","pattern":"X","legs":"M"},"action":"avoid","summary":"bad-avoid","bonus":1.0000000000000009},{"rt":1101.5,"stimulus":"\n                    <p><b>Action: <em>avoid</em></b></p>\n                    <p>This is the bee that you just saw.</p>\n                    <img src=\"bees-with-color/bee-A2DM.svg\" width=\"200\">\n                    <p><span class=\"redText\">Bad choice,</span> the bee was friendly.<br>Your bonus pay is unchanged, and remains at $0.36.</p>\n            ","response":0,"trial_type":"html-button-response","trial_index":70,"time_elapsed":931594,"internal_node_id":"0.0-4.0-1.31","subject_id":"5d553414092f860001ceb313","study_id":"6197b3f67c2b5cd3b6d9596a","session_id":"619be326323ecfb813c24f28","condition":"full-information","relevant_dimensions":["antennae","legs"],"bee_group":{"antennae":"B","wings":"X","pattern":"X","legs":"M"},"bonus":1.0000000000000009},{"rt":789.1000000005588,"stimulus":"bees-with-color/bee-B1SF.svg","response":0,"trial_type":"image-button-response","trial_index":71,"time_elapsed":932385,"internal_node_id":"0.0-4.0-0.32","subject_id":"5d553414092f860001ceb313","study_id":"6197b3f67c2b5cd3b6d9596a","session_id":"619be326323ecfb813c24f28","condition":"full-information","relevant_dimensions":["antennae","legs"],"bee_group":{"antennae":"B","wings":"X","pattern":"X","legs":"M"},"action":"harvest","summary":"good-harvest","bonus":1.0000000000000009},{"rt":651.2000000001863,"stimulus":"\n                    <p><b>Action: <em>harvest</em></b></p>\n                    <p>This is the bee that you just saw.</p>\n                    <img src=\"bees-with-color/bee-B1SF.svg\" width=\"200\">\n                    <p><span class=\"greenText\"><b>Successful harvest!</b></span><br>Your pay has increased by $0.02. Your bonus pay is now $0.38.</p>\n            ","response":0,"trial_type":"html-button-response","trial_index":72,"time_elapsed":933038,"internal_node_id":"0.0-4.0-1.32","subject_id":"5d553414092f860001ceb313","study_id":"6197b3f67c2b5cd3b6d9596a","session_id":"619be326323ecfb813c24f28","condition":"full-information","relevant_dimensions":["antennae","legs"],"bee_group":{"antennae":"B","wings":"X","pattern":"X","legs":"M"},"bonus":1.0000000000000009},{"rt":1312.8999999994412,"stimulus":"bees-with-color/bee-B2SM.svg","response":1,"trial_type":"image-button-response","trial_index":73,"time_elapsed":934352,"internal_node_id":"0.0-4.0-0.33","subject_id":"5d553414092f860001ceb313","study_id":"6197b3f67c2b5cd3b6d9596a","session_id":"619be326323ecfb813c24f28","condition":"full-information","relevant_dimensions":["antennae","legs"],"bee_group":{"antennae":"B","wings":"X","pattern":"X","legs":"M"},"action":"avoid","summary":"good-avoid","bonus":1.0000000000000009},{"rt":823.3999999994412,"stimulus":"\n                    <p><b>Action: <em>avoid</em></b></p>\n                    <p>This is the bee that you just saw.</p>\n                    <img src=\"bees-with-color/bee-B2SM.svg\" width=\"200\">\n                    <p><span class=\"greenText\">Good choice!</span>  This bee would have stung you.<br>Your bonus pay is unchanged, and remains at $0.38.</p>\n            ","response":0,"trial_type":"html-button-response","trial_index":74,"time_elapsed":935177,"internal_node_id":"0.0-4.0-1.33","subject_id":"5d553414092f860001ceb313","study_id":"6197b3f67c2b5cd3b6d9596a","session_id":"619be326323ecfb813c24f28","condition":"full-information","relevant_dimensions":["antennae","legs"],"bee_group":{"antennae":"B","wings":"X","pattern":"X","legs":"M"},"bonus":1.0000000000000009},{"rt":928.6999999992549,"stimulus":"bees-with-color/bee-A1SF.svg","response":0,"trial_type":"image-button-response","trial_index":75,"time_elapsed":936107,"internal_node_id":"0.0-4.0-0.34","subject_id":"5d553414092f860001ceb313","study_id":"6197b3f67c2b5cd3b6d9596a","session_id":"619be326323ecfb813c24f28","condition":"full-information","relevant_dimensions":["antennae","legs"],"bee_group":{"antennae":"B","wings":"X","pattern":"X","legs":"M"},"action":"harvest","summary":"good-harvest","bonus":1.0000000000000009},{"rt":790.5999999996275,"stimulus":"\n                    <p><b>Action: <em>harvest</em></b></p>\n                    <p>This is the bee that you just saw.</p>\n                    <img src=\"bees-with-color/bee-A1SF.svg\" width=\"200\">\n                    <p><span class=\"greenText\"><b>Successful harvest!</b></span><br>Your pay has increased by $0.02. Your bonus pay is now $0.40.</p>\n            ","response":0,"trial_type":"html-button-response","trial_index":76,"time_elapsed":936898,"internal_node_id":"0.0-4.0-1.34","subject_id":"5d553414092f860001ceb313","study_id":"6197b3f67c2b5cd3b6d9596a","session_id":"619be326323ecfb813c24f28","condition":"full-information","relevant_dimensions":["antennae","legs"],"bee_group":{"antennae":"B","wings":"X","pattern":"X","legs":"M"},"bonus":1.0000000000000009},{"rt":1132.7999999998137,"stimulus":"bees-with-color/bee-A2SF.svg","response":0,"trial_type":"image-button-response","trial_index":77,"time_elapsed":938033,"internal_node_id":"0.0-4.0-0.35","subject_id":"5d553414092f860001ceb313","study_id":"6197b3f67c2b5cd3b6d9596a","session_id":"619be326323ecfb813c24f28","condition":"full-information","relevant_dimensions":["antennae","legs"],"bee_group":{"antennae":"B","wings":"X","pattern":"X","legs":"M"},"action":"harvest","summary":"good-harvest","bonus":1.0000000000000009},{"rt":598.2000000001863,"stimulus":"\n                    <p><b>Action: <em>harvest</em></b></p>\n                    <p>This is the bee that you just saw.</p>\n                    <img src=\"bees-with-color/bee-A2SF.svg\" width=\"200\">\n                    <p><span class=\"greenText\"><b>Successful harvest!</b></span><br>Your pay has increased by $0.02. Your bonus pay is now $0.42.</p>\n            ","response":0,"trial_type":"html-button-response","trial_index":78,"time_elapsed":938632,"internal_node_id":"0.0-4.0-1.35","subject_id":"5d553414092f860001ceb313","study_id":"6197b3f67c2b5cd3b6d9596a","session_id":"619be326323ecfb813c24f28","condition":"full-information","relevant_dimensions":["antennae","legs"],"bee_group":{"antennae":"B","wings":"X","pattern":"X","legs":"M"},"bonus":1.0000000000000009},{"rt":1045.5999999996275,"stimulus":"bees-with-color/bee-B1SM.svg","response":1,"trial_type":"image-button-response","trial_index":79,"time_elapsed":939680,"internal_node_id":"0.0-4.0-0.36","subject_id":"5d553414092f860001ceb313","study_id":"6197b3f67c2b5cd3b6d9596a","session_id":"619be326323ecfb813c24f28","condition":"full-information","relevant_dimensions":["antennae","legs"],"bee_group":{"antennae":"B","wings":"X","pattern":"X","legs":"M"},"action":"avoid","summary":"good-avoid","bonus":1.0000000000000009},{"rt":967.2999999998137,"stimulus":"\n                    <p><b>Action: <em>avoid</em></b></p>\n                    <p>This is the bee that you just saw.</p>\n                    <img src=\"bees-with-color/bee-B1SM.svg\" width=\"200\">\n                    <p><span class=\"greenText\">Good choice!</span>  This bee would have stung you.<br>Your bonus pay is unchanged, and remains at $0.42.</p>\n            ","response":0,"trial_type":"html-button-response","trial_index":80,"time_elapsed":940649,"internal_node_id":"0.0-4.0-1.36","subject_id":"5d553414092f860001ceb313","study_id":"6197b3f67c2b5cd3b6d9596a","session_id":"619be326323ecfb813c24f28","condition":"full-information","relevant_dimensions":["antennae","legs"],"bee_group":{"antennae":"B","wings":"X","pattern":"X","legs":"M"},"bonus":1.0000000000000009},{"rt":864,"stimulus":"bees-with-color/bee-A1DF.svg","response":0,"trial_type":"image-button-response","trial_index":81,"time_elapsed":941514,"internal_node_id":"0.0-4.0-0.37","subject_id":"5d553414092f860001ceb313","study_id":"6197b3f67c2b5cd3b6d9596a","session_id":"619be326323ecfb813c24f28","condition":"full-information","relevant_dimensions":["antennae","legs"],"bee_group":{"antennae":"B","wings":"X","pattern":"X","legs":"M"},"action":"harvest","summary":"good-harvest","bonus":1.0000000000000009},{"rt":802.7999999998137,"stimulus":"\n                    <p><b>Action: <em>harvest</em></b></p>\n                    <p>This is the bee that you just saw.</p>\n                    <img src=\"bees-with-color/bee-A1DF.svg\" width=\"200\">\n                    <p><span class=\"greenText\"><b>Successful harvest!</b></span><br>Your pay has increased by $0.02. Your bonus pay is now $0.44.</p>\n            ","response":0,"trial_type":"html-button-response","trial_index":82,"time_elapsed":942320,"internal_node_id":"0.0-4.0-1.37","subject_id":"5d553414092f860001ceb313","study_id":"6197b3f67c2b5cd3b6d9596a","session_id":"619be326323ecfb813c24f28","condition":"full-information","relevant_dimensions":["antennae","legs"],"bee_group":{"antennae":"B","wings":"X","pattern":"X","legs":"M"},"bonus":1.0000000000000009},{"rt":1035.2999999998137,"stimulus":"bees-with-color/bee-A2DF.svg","response":0,"trial_type":"image-button-response","trial_index":83,"time_elapsed":943357,"internal_node_id":"0.0-4.0-0.38","subject_id":"5d553414092f860001ceb313","study_id":"6197b3f67c2b5cd3b6d9596a","session_id":"619be326323ecfb813c24f28","condition":"full-information","relevant_dimensions":["antennae","legs"],"bee_group":{"antennae":"B","wings":"X","pattern":"X","legs":"M"},"action":"harvest","summary":"good-harvest","bonus":1.0000000000000009},{"rt":622.5999999996275,"stimulus":"\n                    <p><b>Action: <em>harvest</em></b></p>\n                    <p>This is the bee that you just saw.</p>\n                    <img src=\"bees-with-color/bee-A2DF.svg\" width=\"200\">\n                    <p><span class=\"greenText\"><b>Successful harvest!</b></span><br>Your pay has increased by $0.02. Your bonus pay is now $0.46.</p>\n            ","response":0,"trial_type":"html-button-response","trial_index":84,"time_elapsed":943980,"internal_node_id":"0.0-4.0-1.38","subject_id":"5d553414092f860001ceb313","study_id":"6197b3f67c2b5cd3b6d9596a","session_id":"619be326323ecfb813c24f28","condition":"full-information","relevant_dimensions":["antennae","legs"],"bee_group":{"antennae":"B","wings":"X","pattern":"X","legs":"M"},"bonus":1.0000000000000009},{"rt":599.6999999992549,"stimulus":"bees-with-color/bee-B2SF.svg","response":0,"trial_type":"image-button-response","trial_index":85,"time_elapsed":944582,"internal_node_id":"0.0-4.0-0.39","subject_id":"5d553414092f860001ceb313","study_id":"6197b3f67c2b5cd3b6d9596a","session_id":"619be326323ecfb813c24f28","condition":"full-information","relevant_dimensions":["antennae","legs"],"bee_group":{"antennae":"B","wings":"X","pattern":"X","legs":"M"},"action":"harvest","summary":"good-harvest","bonus":1.0000000000000009},{"rt":557.5999999996275,"stimulus":"\n                    <p><b>Action: <em>harvest</em></b></p>\n                    <p>This is the bee that you just saw.</p>\n                    <img src=\"bees-with-color/bee-B2SF.svg\" width=\"200\">\n                    <p><span class=\"greenText\"><b>Successful harvest!</b></span><br>Your pay has increased by $0.02. Your bonus pay is now $0.48.</p>\n            ","response":0,"trial_type":"html-button-response","trial_index":86,"time_elapsed":945140,"internal_node_id":"0.0-4.0-1.39","subject_id":"5d553414092f860001ceb313","study_id":"6197b3f67c2b5cd3b6d9596a","session_id":"619be326323ecfb813c24f28","condition":"full-information","relevant_dimensions":["antennae","legs"],"bee_group":{"antennae":"B","wings":"X","pattern":"X","legs":"M"},"bonus":1.0000000000000009},{"rt":991.1000000005588,"stimulus":"bees-with-color/bee-A2DM.svg","response":1,"trial_type":"image-button-response","trial_index":87,"time_elapsed":946132,"internal_node_id":"0.0-4.0-0.40","subject_id":"5d553414092f860001ceb313","study_id":"6197b3f67c2b5cd3b6d9596a","session_id":"619be326323ecfb813c24f28","condition":"full-information","relevant_dimensions":["antennae","legs"],"bee_group":{"antennae":"B","wings":"X","pattern":"X","legs":"M"},"action":"avoid","summary":"bad-avoid","bonus":1.0000000000000009},{"rt":959.7000000001863,"stimulus":"\n                    <p><b>Action: <em>avoid</em></b></p>\n                    <p>This is the bee that you just saw.</p>\n                    <img src=\"bees-with-color/bee-A2DM.svg\" width=\"200\">\n                    <p><span class=\"redText\">Bad choice,</span> the bee was friendly.<br>Your bonus pay is unchanged, and remains at $0.48.</p>\n            ","response":0,"trial_type":"html-button-response","trial_index":88,"time_elapsed":947093,"internal_node_id":"0.0-4.0-1.40","subject_id":"5d553414092f860001ceb313","study_id":"6197b3f67c2b5cd3b6d9596a","session_id":"619be326323ecfb813c24f28","condition":"full-information","relevant_dimensions":["antennae","legs"],"bee_group":{"antennae":"B","wings":"X","pattern":"X","legs":"M"},"bonus":1.0000000000000009},{"rt":1100.7000000001863,"stimulus":"bees-with-color/bee-B2DM.svg","response":1,"trial_type":"image-button-response","trial_index":89,"time_elapsed":948195,"internal_node_id":"0.0-4.0-0.41","subject_id":"5d553414092f860001ceb313","study_id":"6197b3f67c2b5cd3b6d9596a","session_id":"619be326323ecfb813c24f28","condition":"full-information","relevant_dimensions":["antennae","legs"],"bee_group":{"antennae":"B","wings":"X","pattern":"X","legs":"M"},"action":"avoid","summary":"good-avoid","bonus":1.0000000000000009},{"rt":791.2000000001863,"stimulus":"\n                    <p><b>Action: <em>avoid</em></b></p>\n                    <p>This is the bee that you just saw.</p>\n                    <img src=\"bees-with-color/bee-B2DM.svg\" width=\"200\">\n                    <p><span class=\"greenText\">Good choice!</span>  This bee would have stung you.<br>Your bonus pay is unchanged, and remains at $0.48.</p>\n            ","response":0,"trial_type":"html-button-response","trial_index":90,"time_elapsed":948988,"internal_node_id":"0.0-4.0-1.41","subject_id":"5d553414092f860001ceb313","study_id":"6197b3f67c2b5cd3b6d9596a","session_id":"619be326323ecfb813c24f28","condition":"full-information","relevant_dimensions":["antennae","legs"],"bee_group":{"antennae":"B","wings":"X","pattern":"X","legs":"M"},"bonus":1.0000000000000009},{"rt":1035.800000000745,"stimulus":"bees-with-color/bee-A1SM.svg","response":1,"trial_type":"image-button-response","trial_index":91,"time_elapsed":950025,"internal_node_id":"0.0-4.0-0.42","subject_id":"5d553414092f860001ceb313","study_id":"6197b3f67c2b5cd3b6d9596a","session_id":"619be326323ecfb813c24f28","condition":"full-information","relevant_dimensions":["antennae","legs"],"bee_group":{"antennae":"B","wings":"X","pattern":"X","legs":"M"},"action":"avoid","summary":"bad-avoid","bonus":1.0000000000000009},{"rt":508.40000000037253,"stimulus":"\n                    <p><b>Action: <em>avoid</em></b></p>\n                    <p>This is the bee that you just saw.</p>\n                    <img src=\"bees-with-color/bee-A1SM.svg\" width=\"200\">\n                    <p><span class=\"redText\">Bad choice,</span> the bee was friendly.<br>Your bonus pay is unchanged, and remains at $0.48.</p>\n            ","response":0,"trial_type":"html-button-response","trial_index":92,"time_elapsed":950535,"internal_node_id":"0.0-4.0-1.42","subject_id":"5d553414092f860001ceb313","study_id":"6197b3f67c2b5cd3b6d9596a","session_id":"619be326323ecfb813c24f28","condition":"full-information","relevant_dimensions":["antennae","legs"],"bee_group":{"antennae":"B","wings":"X","pattern":"X","legs":"M"},"bonus":1.0000000000000009},{"rt":696.7999999998137,"stimulus":"bees-with-color/bee-B2DF.svg","response":0,"trial_type":"image-button-response","trial_index":93,"time_elapsed":951233,"internal_node_id":"0.0-4.0-0.43","subject_id":"5d553414092f860001ceb313","study_id":"6197b3f67c2b5cd3b6d9596a","session_id":"619be326323ecfb813c24f28","condition":"full-information","relevant_dimensions":["antennae","legs"],"bee_group":{"antennae":"B","wings":"X","pattern":"X","legs":"M"},"action":"harvest","summary":"good-harvest","bonus":1.0000000000000009},{"rt":668.5,"stimulus":"\n                    <p><b>Action: <em>harvest</em></b></p>\n                    <p>This is the bee that you just saw.</p>\n                    <img src=\"bees-with-color/bee-B2DF.svg\" width=\"200\">\n                    <p><span class=\"greenText\"><b>Successful harvest!</b></span><br>Your pay has increased by $0.02. Your bonus pay is now $0.50.</p>\n            ","response":0,"trial_type":"html-button-response","trial_index":94,"time_elapsed":951903,"internal_node_id":"0.0-4.0-1.43","subject_id":"5d553414092f860001ceb313","study_id":"6197b3f67c2b5cd3b6d9596a","session_id":"619be326323ecfb813c24f28","condition":"full-information","relevant_dimensions":["antennae","legs"],"bee_group":{"antennae":"B","wings":"X","pattern":"X","legs":"M"},"bonus":1.0000000000000009},{"rt":617.7000000001863,"stimulus":"bees-with-color/bee-B1DF.svg","response":0,"trial_type":"image-button-response","trial_index":95,"time_elapsed":952522,"internal_node_id":"0.0-4.0-0.44","subject_id":"5d553414092f860001ceb313","study_id":"6197b3f67c2b5cd3b6d9596a","session_id":"619be326323ecfb813c24f28","condition":"full-information","relevant_dimensions":["antennae","legs"],"bee_group":{"antennae":"B","wings":"X","pattern":"X","legs":"M"},"action":"harvest","summary":"good-harvest","bonus":1.0000000000000009},{"rt":511.5,"stimulus":"\n                    <p><b>Action: <em>harvest</em></b></p>\n                    <p>This is the bee that you just saw.</p>\n                    <img src=\"bees-with-color/bee-B1DF.svg\" width=\"200\">\n                    <p><span class=\"greenText\"><b>Successful harvest!</b></span><br>Your pay has increased by $0.02. Your bonus pay is now $0.52.</p>\n            ","response":0,"trial_type":"html-button-response","trial_index":96,"time_elapsed":953035,"internal_node_id":"0.0-4.0-1.44","subject_id":"5d553414092f860001ceb313","study_id":"6197b3f67c2b5cd3b6d9596a","session_id":"619be326323ecfb813c24f28","condition":"full-information","relevant_dimensions":["antennae","legs"],"bee_group":{"antennae":"B","wings":"X","pattern":"X","legs":"M"},"bonus":1.0000000000000009},{"rt":811.5,"stimulus":"bees-with-color/bee-B1DM.svg","response":1,"trial_type":"image-button-response","trial_index":97,"time_elapsed":953848,"internal_node_id":"0.0-4.0-0.45","subject_id":"5d553414092f860001ceb313","study_id":"6197b3f67c2b5cd3b6d9596a","session_id":"619be326323ecfb813c24f28","condition":"full-information","relevant_dimensions":["antennae","legs"],"bee_group":{"antennae":"B","wings":"X","pattern":"X","legs":"M"},"action":"avoid","summary":"good-avoid","bonus":1.0000000000000009},{"rt":731.5,"stimulus":"\n                    <p><b>Action: <em>avoid</em></b></p>\n                    <p>This is the bee that you just saw.</p>\n                    <img src=\"bees-with-color/bee-B1DM.svg\" width=\"200\">\n                    <p><span class=\"greenText\">Good choice!</span>  This bee would have stung you.<br>Your bonus pay is unchanged, and remains at $0.52.</p>\n            ","response":0,"trial_type":"html-button-response","trial_index":98,"time_elapsed":954581,"internal_node_id":"0.0-4.0-1.45","subject_id":"5d553414092f860001ceb313","study_id":"6197b3f67c2b5cd3b6d9596a","session_id":"619be326323ecfb813c24f28","condition":"full-information","relevant_dimensions":["antennae","legs"],"bee_group":{"antennae":"B","wings":"X","pattern":"X","legs":"M"},"bonus":1.0000000000000009},{"rt":1329.9000000003725,"stimulus":"bees-with-color/bee-A2SM.svg","response":1,"trial_type":"image-button-response","trial_index":99,"time_elapsed":955914,"internal_node_id":"0.0-4.0-0.46","subject_id":"5d553414092f860001ceb313","study_id":"6197b3f67c2b5cd3b6d9596a","session_id":"619be326323ecfb813c24f28","condition":"full-information","relevant_dimensions":["antennae","legs"],"bee_group":{"antennae":"B","wings":"X","pattern":"X","legs":"M"},"action":"avoid","summary":"bad-avoid","bonus":1.0000000000000009},{"rt":1291.300000000745,"stimulus":"\n                    <p><b>Action: <em>avoid</em></b></p>\n                    <p>This is the bee that you just saw.</p>\n                    <img src=\"bees-with-color/bee-A2SM.svg\" width=\"200\">\n                    <p><span class=\"redText\">Bad choice,</span> the bee was friendly.<br>Your bonus pay is unchanged, and remains at $0.52.</p>\n            ","response":0,"trial_type":"html-button-response","trial_index":100,"time_elapsed":957206,"internal_node_id":"0.0-4.0-1.46","subject_id":"5d553414092f860001ceb313","study_id":"6197b3f67c2b5cd3b6d9596a","session_id":"619be326323ecfb813c24f28","condition":"full-information","relevant_dimensions":["antennae","legs"],"bee_group":{"antennae":"B","wings":"X","pattern":"X","legs":"M"},"bonus":1.0000000000000009},{"rt":1073.5,"stimulus":"bees-with-color/bee-A1DM.svg","response":1,"trial_type":"image-button-response","trial_index":101,"time_elapsed":958281,"internal_node_id":"0.0-4.0-0.47","subject_id":"5d553414092f860001ceb313","study_id":"6197b3f67c2b5cd3b6d9596a","session_id":"619be326323ecfb813c24f28","condition":"full-information","relevant_dimensions":["antennae","legs"],"bee_group":{"antennae":"B","wings":"X","pattern":"X","legs":"M"},"action":"avoid","summary":"bad-avoid","bonus":1.0000000000000009},{"rt":658.4000000003725,"stimulus":"\n                    <p><b>Action: <em>avoid</em></b></p>\n                    <p>This is the bee that you just saw.</p>\n                    <img src=\"bees-with-color/bee-A1DM.svg\" width=\"200\">\n                    <p><span class=\"redText\">Bad choice,</span> the bee was friendly.<br>Your bonus pay is unchanged, and remains at $0.52.</p>\n            ","response":0,"trial_type":"html-button-response","trial_index":102,"time_elapsed":958941,"internal_node_id":"0.0-4.0-1.47","subject_id":"5d553414092f860001ceb313","study_id":"6197b3f67c2b5cd3b6d9596a","session_id":"619be326323ecfb813c24f28","condition":"full-information","relevant_dimensions":["antennae","legs"],"bee_group":{"antennae":"B","wings":"X","pattern":"X","legs":"M"},"bonus":1.0000000000000009},{"rt":967.6999999992549,"stimulus":"bees-with-color/bee-B2DF.svg","response":0,"trial_type":"image-button-response","trial_index":103,"time_elapsed":959911,"internal_node_id":"0.0-4.0-0.48","subject_id":"5d553414092f860001ceb313","study_id":"6197b3f67c2b5cd3b6d9596a","session_id":"619be326323ecfb813c24f28","condition":"full-information","relevant_dimensions":["antennae","legs"],"bee_group":{"antennae":"B","wings":"X","pattern":"X","legs":"M"},"action":"harvest","summary":"good-harvest","bonus":1.0000000000000009},{"rt":965.2000000001863,"stimulus":"\n                    <p><b>Action: <em>harvest</em></b></p>\n                    <p>This is the bee that you just saw.</p>\n                    <img src=\"bees-with-color/bee-B2DF.svg\" width=\"200\">\n                    <p><span class=\"greenText\"><b>Successful harvest!</b></span><br>Your pay has increased by $0.02. Your bonus pay is now $0.54.</p>\n            ","response":0,"trial_type":"html-button-response","trial_index":104,"time_elapsed":960877,"internal_node_id":"0.0-4.0-1.48","subject_id":"5d553414092f860001ceb313","study_id":"6197b3f67c2b5cd3b6d9596a","session_id":"619be326323ecfb813c24f28","condition":"full-information","relevant_dimensions":["antennae","legs"],"bee_group":{"antennae":"B","wings":"X","pattern":"X","legs":"M"},"bonus":1.0000000000000009},{"rt":869.6000000005588,"stimulus":"bees-with-color/bee-B1SF.svg","response":0,"trial_type":"image-button-response","trial_index":105,"time_elapsed":961748,"internal_node_id":"0.0-4.0-0.49","subject_id":"5d553414092f860001ceb313","study_id":"6197b3f67c2b5cd3b6d9596a","session_id":"619be326323ecfb813c24f28","condition":"full-information","relevant_dimensions":["antennae","legs"],"bee_group":{"antennae":"B","wings":"X","pattern":"X","legs":"M"},"action":"harvest","summary":"good-harvest","bonus":1.0000000000000009},{"rt":607.2000000001863,"stimulus":"\n                    <p><b>Action: <em>harvest</em></b></p>\n                    <p>This is the bee that you just saw.</p>\n                    <img src=\"bees-with-color/bee-B1SF.svg\" width=\"200\">\n                    <p><span class=\"greenText\"><b>Successful harvest!</b></span><br>Your pay has increased by $0.02. Your bonus pay is now $0.56.</p>\n            ","response":0,"trial_type":"html-button-response","trial_index":106,"time_elapsed":962357,"internal_node_id":"0.0-4.0-1.49","subject_id":"5d553414092f860001ceb313","study_id":"6197b3f67c2b5cd3b6d9596a","session_id":"619be326323ecfb813c24f28","condition":"full-information","relevant_dimensions":["antennae","legs"],"bee_group":{"antennae":"B","wings":"X","pattern":"X","legs":"M"},"bonus":1.0000000000000009},{"rt":881.7000000001863,"stimulus":"bees-with-color/bee-A2DF.svg","response":0,"trial_type":"image-button-response","trial_index":107,"time_elapsed":963240,"internal_node_id":"0.0-4.0-0.50","subject_id":"5d553414092f860001ceb313","study_id":"6197b3f67c2b5cd3b6d9596a","session_id":"619be326323ecfb813c24f28","condition":"full-information","relevant_dimensions":["antennae","legs"],"bee_group":{"antennae":"B","wings":"X","pattern":"X","legs":"M"},"action":"harvest","summary":"good-harvest","bonus":1.0000000000000009},{"rt":535.2000000001863,"stimulus":"\n                    <p><b>Action: <em>harvest</em></b></p>\n                    <p>This is the bee that you just saw.</p>\n                    <img src=\"bees-with-color/bee-A2DF.svg\" width=\"200\">\n                    <p><span class=\"greenText\"><b>Successful harvest!</b></span><br>Your pay has increased by $0.02. Your bonus pay is now $0.58.</p>\n            ","response":0,"trial_type":"html-button-response","trial_index":108,"time_elapsed":963777,"internal_node_id":"0.0-4.0-1.50","subject_id":"5d553414092f860001ceb313","study_id":"6197b3f67c2b5cd3b6d9596a","session_id":"619be326323ecfb813c24f28","condition":"full-information","relevant_dimensions":["antennae","legs"],"bee_group":{"antennae":"B","wings":"X","pattern":"X","legs":"M"},"bonus":1.0000000000000009},{"rt":563.7999999998137,"stimulus":"bees-with-color/bee-B1DF.svg","response":0,"trial_type":"image-button-response","trial_index":109,"time_elapsed":964342,"internal_node_id":"0.0-4.0-0.51","subject_id":"5d553414092f860001ceb313","study_id":"6197b3f67c2b5cd3b6d9596a","session_id":"619be326323ecfb813c24f28","condition":"full-information","relevant_dimensions":["antennae","legs"],"bee_group":{"antennae":"B","wings":"X","pattern":"X","legs":"M"},"action":"harvest","summary":"good-harvest","bonus":1.0000000000000009},{"rt":599,"stimulus":"\n                    <p><b>Action: <em>harvest</em></b></p>\n                    <p>This is the bee that you just saw.</p>\n                    <img src=\"bees-with-color/bee-B1DF.svg\" width=\"200\">\n                    <p><span class=\"greenText\"><b>Successful harvest!</b></span><br>Your pay has increased by $0.02. Your bonus pay is now $0.60.</p>\n            ","response":0,"trial_type":"html-button-response","trial_index":110,"time_elapsed":964943,"internal_node_id":"0.0-4.0-1.51","subject_id":"5d553414092f860001ceb313","study_id":"6197b3f67c2b5cd3b6d9596a","session_id":"619be326323ecfb813c24f28","condition":"full-information","relevant_dimensions":["antennae","legs"],"bee_group":{"antennae":"B","wings":"X","pattern":"X","legs":"M"},"bonus":1.0000000000000009},{"rt":819.2000000001863,"stimulus":"bees-with-color/bee-B2DM.svg","response":1,"trial_type":"image-button-response","trial_index":111,"time_elapsed":965763,"internal_node_id":"0.0-4.0-0.52","subject_id":"5d553414092f860001ceb313","study_id":"6197b3f67c2b5cd3b6d9596a","session_id":"619be326323ecfb813c24f28","condition":"full-information","relevant_dimensions":["antennae","legs"],"bee_group":{"antennae":"B","wings":"X","pattern":"X","legs":"M"},"action":"avoid","summary":"good-avoid","bonus":1.0000000000000009},{"rt":519.6000000005588,"stimulus":"\n                    <p><b>Action: <em>avoid</em></b></p>\n                    <p>This is the bee that you just saw.</p>\n                    <img src=\"bees-with-color/bee-B2DM.svg\" width=\"200\">\n                    <p><span class=\"greenText\">Good choice!</span>  This bee would have stung you.<br>Your bonus pay is unchanged, and remains at $0.60.</p>\n            ","response":0,"trial_type":"html-button-response","trial_index":112,"time_elapsed":966284,"internal_node_id":"0.0-4.0-1.52","subject_id":"5d553414092f860001ceb313","study_id":"6197b3f67c2b5cd3b6d9596a","session_id":"619be326323ecfb813c24f28","condition":"full-information","relevant_dimensions":["antennae","legs"],"bee_group":{"antennae":"B","wings":"X","pattern":"X","legs":"M"},"bonus":1.0000000000000009},{"rt":851.9000000003725,"stimulus":"bees-with-color/bee-B1DM.svg","response":1,"trial_type":"image-button-response","trial_index":113,"time_elapsed":967137,"internal_node_id":"0.0-4.0-0.53","subject_id":"5d553414092f860001ceb313","study_id":"6197b3f67c2b5cd3b6d9596a","session_id":"619be326323ecfb813c24f28","condition":"full-information","relevant_dimensions":["antennae","legs"],"bee_group":{"antennae":"B","wings":"X","pattern":"X","legs":"M"},"action":"avoid","summary":"good-avoid","bonus":1.0000000000000009},{"rt":589.7000000001863,"stimulus":"\n                    <p><b>Action: <em>avoid</em></b></p>\n                    <p>This is the bee that you just saw.</p>\n                    <img src=\"bees-with-color/bee-B1DM.svg\" width=\"200\">\n                    <p><span class=\"greenText\">Good choice!</span>  This bee would have stung you.<br>Your bonus pay is unchanged, and remains at $0.60.</p>\n            ","response":0,"trial_type":"html-button-response","trial_index":114,"time_elapsed":967728,"internal_node_id":"0.0-4.0-1.53","subject_id":"5d553414092f860001ceb313","study_id":"6197b3f67c2b5cd3b6d9596a","session_id":"619be326323ecfb813c24f28","condition":"full-information","relevant_dimensions":["antennae","legs"],"bee_group":{"antennae":"B","wings":"X","pattern":"X","legs":"M"},"bonus":1.0000000000000009},{"rt":887.7000000001863,"stimulus":"bees-with-color/bee-A2SF.svg","response":0,"trial_type":"image-button-response","trial_index":115,"time_elapsed":968617,"internal_node_id":"0.0-4.0-0.54","subject_id":"5d553414092f860001ceb313","study_id":"6197b3f67c2b5cd3b6d9596a","session_id":"619be326323ecfb813c24f28","condition":"full-information","relevant_dimensions":["antennae","legs"],"bee_group":{"antennae":"B","wings":"X","pattern":"X","legs":"M"},"action":"harvest","summary":"good-harvest","bonus":1.0000000000000009},{"rt":594.1000000005588,"stimulus":"\n                    <p><b>Action: <em>harvest</em></b></p>\n                    <p>This is the bee that you just saw.</p>\n                    <img src=\"bees-with-color/bee-A2SF.svg\" width=\"200\">\n                    <p><span class=\"greenText\"><b>Successful harvest!</b></span><br>Your pay has increased by $0.02. Your bonus pay is now $0.62.</p>\n            ","response":0,"trial_type":"html-button-response","trial_index":116,"time_elapsed":969213,"internal_node_id":"0.0-4.0-1.54","subject_id":"5d553414092f860001ceb313","study_id":"6197b3f67c2b5cd3b6d9596a","session_id":"619be326323ecfb813c24f28","condition":"full-information","relevant_dimensions":["antennae","legs"],"bee_group":{"antennae":"B","wings":"X","pattern":"X","legs":"M"},"bonus":1.0000000000000009},{"rt":1586.7000000001863,"stimulus":"bees-with-color/bee-A1SM.svg","response":1,"trial_type":"image-button-response","trial_index":117,"time_elapsed":970801,"internal_node_id":"0.0-4.0-0.55","subject_id":"5d553414092f860001ceb313","study_id":"6197b3f67c2b5cd3b6d9596a","session_id":"619be326323ecfb813c24f28","condition":"full-information","relevant_dimensions":["antennae","legs"],"bee_group":{"antennae":"B","wings":"X","pattern":"X","legs":"M"},"action":"avoid","summary":"bad-avoid","bonus":1.0000000000000009},{"rt":1131.9000000003725,"stimulus":"\n                    <p><b>Action: <em>avoid</em></b></p>\n                    <p>This is the bee that you just saw.</p>\n                    <img src=\"bees-with-color/bee-A1SM.svg\" width=\"200\">\n                    <p><span class=\"redText\">Bad choice,</span> the bee was friendly.<br>Your bonus pay is unchanged, and remains at $0.62.</p>\n            ","response":0,"trial_type":"html-button-response","trial_index":118,"time_elapsed":971934,"internal_node_id":"0.0-4.0-1.55","subject_id":"5d553414092f860001ceb313","study_id":"6197b3f67c2b5cd3b6d9596a","session_id":"619be326323ecfb813c24f28","condition":"full-information","relevant_dimensions":["antennae","legs"],"bee_group":{"antennae":"B","wings":"X","pattern":"X","legs":"M"},"bonus":1.0000000000000009},{"rt":731.4000000003725,"stimulus":"bees-with-color/bee-A1DF.svg","response":0,"trial_type":"image-button-response","trial_index":119,"time_elapsed":972667,"internal_node_id":"0.0-4.0-0.56","subject_id":"5d553414092f860001ceb313","study_id":"6197b3f67c2b5cd3b6d9596a","session_id":"619be326323ecfb813c24f28","condition":"full-information","relevant_dimensions":["antennae","legs"],"bee_group":{"antennae":"B","wings":"X","pattern":"X","legs":"M"},"action":"harvest","summary":"good-harvest","bonus":1.0000000000000009},{"rt":848.8000000007451,"stimulus":"\n                    <p><b>Action: <em>harvest</em></b></p>\n                    <p>This is the bee that you just saw.</p>\n                    <img src=\"bees-with-color/bee-A1DF.svg\" width=\"200\">\n                    <p><span class=\"greenText\"><b>Successful harvest!</b></span><br>Your pay has increased by $0.02. Your bonus pay is now $0.64.</p>\n            ","response":0,"trial_type":"html-button-response","trial_index":120,"time_elapsed":973517,"internal_node_id":"0.0-4.0-1.56","subject_id":"5d553414092f860001ceb313","study_id":"6197b3f67c2b5cd3b6d9596a","session_id":"619be326323ecfb813c24f28","condition":"full-information","relevant_dimensions":["antennae","legs"],"bee_group":{"antennae":"B","wings":"X","pattern":"X","legs":"M"},"bonus":1.0000000000000009},{"rt":743.9000000003725,"stimulus":"bees-with-color/bee-B2SM.svg","response":1,"trial_type":"image-button-response","trial_index":121,"time_elapsed":974262,"internal_node_id":"0.0-4.0-0.57","subject_id":"5d553414092f860001ceb313","study_id":"6197b3f67c2b5cd3b6d9596a","session_id":"619be326323ecfb813c24f28","condition":"full-information","relevant_dimensions":["antennae","legs"],"bee_group":{"antennae":"B","wings":"X","pattern":"X","legs":"M"},"action":"avoid","summary":"good-avoid","bonus":1.0000000000000009},{"rt":725.7000000001863,"stimulus":"\n                    <p><b>Action: <em>avoid</em></b></p>\n                    <p>This is the bee that you just saw.</p>\n                    <img src=\"bees-with-color/bee-B2SM.svg\" width=\"200\">\n                    <p><span class=\"greenText\">Good choice!</span>  This bee would have stung you.<br>Your bonus pay is unchanged, and remains at $0.64.</p>\n            ","response":0,"trial_type":"html-button-response","trial_index":122,"time_elapsed":974990,"internal_node_id":"0.0-4.0-1.57","subject_id":"5d553414092f860001ceb313","study_id":"6197b3f67c2b5cd3b6d9596a","session_id":"619be326323ecfb813c24f28","condition":"full-information","relevant_dimensions":["antennae","legs"],"bee_group":{"antennae":"B","wings":"X","pattern":"X","legs":"M"},"bonus":1.0000000000000009},{"rt":1074.5,"stimulus":"bees-with-color/bee-A1DM.svg","response":1,"trial_type":"image-button-response","trial_index":123,"time_elapsed":976065,"internal_node_id":"0.0-4.0-0.58","subject_id":"5d553414092f860001ceb313","study_id":"6197b3f67c2b5cd3b6d9596a","session_id":"619be326323ecfb813c24f28","condition":"full-information","relevant_dimensions":["antennae","legs"],"bee_group":{"antennae":"B","wings":"X","pattern":"X","legs":"M"},"action":"avoid","summary":"bad-avoid","bonus":1.0000000000000009},{"rt":644.2000000001863,"stimulus":"\n                    <p><b>Action: <em>avoid</em></b></p>\n                    <p>This is the bee that you just saw.</p>\n                    <img src=\"bees-with-color/bee-A1DM.svg\" width=\"200\">\n                    <p><span class=\"redText\">Bad choice,</span> the bee was friendly.<br>Your bonus pay is unchanged, and remains at $0.64.</p>\n            ","response":0,"trial_type":"html-button-response","trial_index":124,"time_elapsed":976711,"internal_node_id":"0.0-4.0-1.58","subject_id":"5d553414092f860001ceb313","study_id":"6197b3f67c2b5cd3b6d9596a","session_id":"619be326323ecfb813c24f28","condition":"full-information","relevant_dimensions":["antennae","legs"],"bee_group":{"antennae":"B","wings":"X","pattern":"X","legs":"M"},"bonus":1.0000000000000009},{"rt":641.8000000007451,"stimulus":"bees-with-color/bee-A1SF.svg","response":0,"trial_type":"image-button-response","trial_index":125,"time_elapsed":977354,"internal_node_id":"0.0-4.0-0.59","subject_id":"5d553414092f860001ceb313","study_id":"6197b3f67c2b5cd3b6d9596a","session_id":"619be326323ecfb813c24f28","condition":"full-information","relevant_dimensions":["antennae","legs"],"bee_group":{"antennae":"B","wings":"X","pattern":"X","legs":"M"},"action":"harvest","summary":"good-harvest","bonus":1.0000000000000009},{"rt":553.2000000001863,"stimulus":"\n                    <p><b>Action: <em>harvest</em></b></p>\n                    <p>This is the bee that you just saw.</p>\n                    <img src=\"bees-with-color/bee-A1SF.svg\" width=\"200\">\n                    <p><span class=\"greenText\"><b>Successful harvest!</b></span><br>Your pay has increased by $0.02. Your bonus pay is now $0.66.</p>\n            ","response":0,"trial_type":"html-button-response","trial_index":126,"time_elapsed":977909,"internal_node_id":"0.0-4.0-1.59","subject_id":"5d553414092f860001ceb313","study_id":"6197b3f67c2b5cd3b6d9596a","session_id":"619be326323ecfb813c24f28","condition":"full-information","relevant_dimensions":["antennae","legs"],"bee_group":{"antennae":"B","wings":"X","pattern":"X","legs":"M"},"bonus":1.0000000000000009},{"rt":705.8999999994412,"stimulus":"bees-with-color/bee-A2DM.svg","response":1,"trial_type":"image-button-response","trial_index":127,"time_elapsed":978617,"internal_node_id":"0.0-4.0-0.60","subject_id":"5d553414092f860001ceb313","study_id":"6197b3f67c2b5cd3b6d9596a","session_id":"619be326323ecfb813c24f28","condition":"full-information","relevant_dimensions":["antennae","legs"],"bee_group":{"antennae":"B","wings":"X","pattern":"X","legs":"M"},"action":"avoid","summary":"bad-avoid","bonus":1.0000000000000009},{"rt":573.3000000007451,"stimulus":"\n                    <p><b>Action: <em>avoid</em></b></p>\n                    <p>This is the bee that you just saw.</p>\n                    <img src=\"bees-with-color/bee-A2DM.svg\" width=\"200\">\n                    <p><span class=\"redText\">Bad choice,</span> the bee was friendly.<br>Your bonus pay is unchanged, and remains at $0.66.</p>\n            ","response":0,"trial_type":"html-button-response","trial_index":128,"time_elapsed":979191,"internal_node_id":"0.0-4.0-1.60","subject_id":"5d553414092f860001ceb313","study_id":"6197b3f67c2b5cd3b6d9596a","session_id":"619be326323ecfb813c24f28","condition":"full-information","relevant_dimensions":["antennae","legs"],"bee_group":{"antennae":"B","wings":"X","pattern":"X","legs":"M"},"bonus":1.0000000000000009},{"rt":695.5999999996275,"stimulus":"bees-with-color/bee-B1SM.svg","response":1,"trial_type":"image-button-response","trial_index":129,"time_elapsed":979888,"internal_node_id":"0.0-4.0-0.61","subject_id":"5d553414092f860001ceb313","study_id":"6197b3f67c2b5cd3b6d9596a","session_id":"619be326323ecfb813c24f28","condition":"full-information","relevant_dimensions":["antennae","legs"],"bee_group":{"antennae":"B","wings":"X","pattern":"X","legs":"M"},"action":"avoid","summary":"good-avoid","bonus":1.0000000000000009},{"rt":633.5,"stimulus":"\n                    <p><b>Action: <em>avoid</em></b></p>\n                    <p>This is the bee that you just saw.</p>\n                    <img src=\"bees-with-color/bee-B1SM.svg\" width=\"200\">\n                    <p><span class=\"greenText\">Good choice!</span>  This bee would have stung you.<br>Your bonus pay is unchanged, and remains at $0.66.</p>\n            ","response":0,"trial_type":"html-button-response","trial_index":130,"time_elapsed":980523,"internal_node_id":"0.0-4.0-1.61","subject_id":"5d553414092f860001ceb313","study_id":"6197b3f67c2b5cd3b6d9596a","session_id":"619be326323ecfb813c24f28","condition":"full-information","relevant_dimensions":["antennae","legs"],"bee_group":{"antennae":"B","wings":"X","pattern":"X","legs":"M"},"bonus":1.0000000000000009},{"rt":958.5999999996275,"stimulus":"bees-with-color/bee-B2SF.svg","response":0,"trial_type":"image-button-response","trial_index":131,"time_elapsed":981483,"internal_node_id":"0.0-4.0-0.62","subject_id":"5d553414092f860001ceb313","study_id":"6197b3f67c2b5cd3b6d9596a","session_id":"619be326323ecfb813c24f28","condition":"full-information","relevant_dimensions":["antennae","legs"],"bee_group":{"antennae":"B","wings":"X","pattern":"X","legs":"M"},"action":"harvest","summary":"good-harvest","bonus":1.0000000000000009},{"rt":555.5999999996275,"stimulus":"\n                    <p><b>Action: <em>harvest</em></b></p>\n                    <p>This is the bee that you just saw.</p>\n                    <img src=\"bees-with-color/bee-B2SF.svg\" width=\"200\">\n                    <p><span class=\"greenText\"><b>Successful harvest!</b></span><br>Your pay has increased by $0.02. Your bonus pay is now $0.68.</p>\n            ","response":0,"trial_type":"html-button-response","trial_index":132,"time_elapsed":982040,"internal_node_id":"0.0-4.0-1.62","subject_id":"5d553414092f860001ceb313","study_id":"6197b3f67c2b5cd3b6d9596a","session_id":"619be326323ecfb813c24f28","condition":"full-information","relevant_dimensions":["antennae","legs"],"bee_group":{"antennae":"B","wings":"X","pattern":"X","legs":"M"},"bonus":1.0000000000000009},{"rt":1017.7999999998137,"stimulus":"bees-with-color/bee-A2SM.svg","response":1,"trial_type":"image-button-response","trial_index":133,"time_elapsed":983059,"internal_node_id":"0.0-4.0-0.63","subject_id":"5d553414092f860001ceb313","study_id":"6197b3f67c2b5cd3b6d9596a","session_id":"619be326323ecfb813c24f28","condition":"full-information","relevant_dimensions":["antennae","legs"],"bee_group":{"antennae":"B","wings":"X","pattern":"X","legs":"M"},"action":"avoid","summary":"bad-avoid","bonus":1.0000000000000009},{"rt":512.5,"stimulus":"\n                    <p><b>Action: <em>avoid</em></b></p>\n                    <p>This is the bee that you just saw.</p>\n                    <img src=\"bees-with-color/bee-A2SM.svg\" width=\"200\">\n                    <p><span class=\"redText\">Bad choice,</span> the bee was friendly.<br>Your bonus pay is unchanged, and remains at $0.68.</p>\n            ","response":0,"trial_type":"html-button-response","trial_index":134,"time_elapsed":983573,"internal_node_id":"0.0-4.0-1.63","subject_id":"5d553414092f860001ceb313","study_id":"6197b3f67c2b5cd3b6d9596a","session_id":"619be326323ecfb813c24f28","condition":"full-information","relevant_dimensions":["antennae","legs"],"bee_group":{"antennae":"B","wings":"X","pattern":"X","legs":"M"},"bonus":1.0000000000000009},{"rt":5231.9000000003725,"stimulus":"You have completed the first part of this experiment.<br><br>You will now begin a shorter second part, in which you will receive no feedback.<br>The same rules regarding bonus pay apply.<br><br>Press any key to begin.","response":"b","trial_type":"html-keyboard-response","trial_index":135,"time_elapsed":988806,"internal_node_id":"0.0-5.0","subject_id":"5d553414092f860001ceb313","study_id":"6197b3f67c2b5cd3b6d9596a","session_id":"619be326323ecfb813c24f28","condition":"full-information","relevant_dimensions":["antennae","legs"],"bee_group":{"antennae":"B","wings":"X","pattern":"X","legs":"M"},"bonus":1.0000000000000009},{"rt":5486.800000000745,"stimulus":"bees-with-color/bee-A1DM.svg","response":1,"trial_type":"image-button-response","trial_index":136,"time_elapsed":994301,"internal_node_id":"0.0-6.0-0.0","subject_id":"5d553414092f860001ceb313","study_id":"6197b3f67c2b5cd3b6d9596a","session_id":"619be326323ecfb813c24f28","condition":"full-information","relevant_dimensions":["antennae","legs"],"bee_group":{"antennae":"B","wings":"X","pattern":"X","legs":"M"},"bonus":1.0000000000000009},{"rt":2173.4000000003725,"stimulus":"bees-with-color/bee-A2DF.svg","response":0,"trial_type":"image-button-response","trial_index":137,"time_elapsed":996477,"internal_node_id":"0.0-6.0-0.1","subject_id":"5d553414092f860001ceb313","study_id":"6197b3f67c2b5cd3b6d9596a","session_id":"619be326323ecfb813c24f28","condition":"full-information","relevant_dimensions":["antennae","legs"],"bee_group":{"antennae":"B","wings":"X","pattern":"X","legs":"M"},"bonus":1.0000000000000009},{"rt":628.3000000007451,"stimulus":"bees-with-color/bee-B2DF.svg","response":0,"trial_type":"image-button-response","trial_index":138,"time_elapsed":997107,"internal_node_id":"0.0-6.0-0.2","subject_id":"5d553414092f860001ceb313","study_id":"6197b3f67c2b5cd3b6d9596a","session_id":"619be326323ecfb813c24f28","condition":"full-information","relevant_dimensions":["antennae","legs"],"bee_group":{"antennae":"B","wings":"X","pattern":"X","legs":"M"},"bonus":1.0000000000000009},{"rt":814,"stimulus":"bees-with-color/bee-B2SM.svg","response":1,"trial_type":"image-button-response","trial_index":139,"time_elapsed":997923,"internal_node_id":"0.0-6.0-0.3","subject_id":"5d553414092f860001ceb313","study_id":"6197b3f67c2b5cd3b6d9596a","session_id":"619be326323ecfb813c24f28","condition":"full-information","relevant_dimensions":["antennae","legs"],"bee_group":{"antennae":"B","wings":"X","pattern":"X","legs":"M"},"bonus":1.0000000000000009},{"rt":655.2999999998137,"stimulus":"bees-with-color/bee-A1SF.svg","response":0,"trial_type":"image-button-response","trial_index":140,"time_elapsed":998580,"internal_node_id":"0.0-6.0-0.4","subject_id":"5d553414092f860001ceb313","study_id":"6197b3f67c2b5cd3b6d9596a","session_id":"619be326323ecfb813c24f28","condition":"full-information","relevant_dimensions":["antennae","legs"],"bee_group":{"antennae":"B","wings":"X","pattern":"X","legs":"M"},"bonus":1.0000000000000009},{"rt":539.0999999996275,"stimulus":"bees-with-color/bee-A2SF.svg","response":0,"trial_type":"image-button-response","trial_index":141,"time_elapsed":999121,"internal_node_id":"0.0-6.0-0.5","subject_id":"5d553414092f860001ceb313","study_id":"6197b3f67c2b5cd3b6d9596a","session_id":"619be326323ecfb813c24f28","condition":"full-information","relevant_dimensions":["antennae","legs"],"bee_group":{"antennae":"B","wings":"X","pattern":"X","legs":"M"},"bonus":1.0000000000000009},{"rt":597.2000000001863,"stimulus":"bees-with-color/bee-B1DM.svg","response":1,"trial_type":"image-button-response","trial_index":142,"time_elapsed":999720,"internal_node_id":"0.0-6.0-0.6","subject_id":"5d553414092f860001ceb313","study_id":"6197b3f67c2b5cd3b6d9596a","session_id":"619be326323ecfb813c24f28","condition":"full-information","relevant_dimensions":["antennae","legs"],"bee_group":{"antennae":"B","wings":"X","pattern":"X","legs":"M"},"bonus":1.0000000000000009},{"rt":721,"stimulus":"bees-with-color/bee-A2SM.svg","response":1,"trial_type":"image-button-response","trial_index":143,"time_elapsed":1000443,"internal_node_id":"0.0-6.0-0.7","subject_id":"5d553414092f860001ceb313","study_id":"6197b3f67c2b5cd3b6d9596a","session_id":"619be326323ecfb813c24f28","condition":"full-information","relevant_dimensions":["antennae","legs"],"bee_group":{"antennae":"B","wings":"X","pattern":"X","legs":"M"},"bonus":1.0000000000000009},{"rt":533.9000000003725,"stimulus":"bees-with-color/bee-B1SM.svg","response":1,"trial_type":"image-button-response","trial_index":144,"time_elapsed":1000979,"internal_node_id":"0.0-6.0-0.8","subject_id":"5d553414092f860001ceb313","study_id":"6197b3f67c2b5cd3b6d9596a","session_id":"619be326323ecfb813c24f28","condition":"full-information","relevant_dimensions":["antennae","legs"],"bee_group":{"antennae":"B","wings":"X","pattern":"X","legs":"M"},"bonus":1.0000000000000009},{"rt":721.2999999998137,"stimulus":"bees-with-color/bee-B2SF.svg","response":0,"trial_type":"image-button-response","trial_index":145,"time_elapsed":1001703,"internal_node_id":"0.0-6.0-0.9","subject_id":"5d553414092f860001ceb313","study_id":"6197b3f67c2b5cd3b6d9596a","session_id":"619be326323ecfb813c24f28","condition":"full-information","relevant_dimensions":["antennae","legs"],"bee_group":{"antennae":"B","wings":"X","pattern":"X","legs":"M"},"bonus":1.0000000000000009},{"rt":798,"stimulus":"bees-with-color/bee-A2DM.svg","response":1,"trial_type":"image-button-response","trial_index":146,"time_elapsed":1002503,"internal_node_id":"0.0-6.0-0.10","subject_id":"5d553414092f860001ceb313","study_id":"6197b3f67c2b5cd3b6d9596a","session_id":"619be326323ecfb813c24f28","condition":"full-information","relevant_dimensions":["antennae","legs"],"bee_group":{"antennae":"B","wings":"X","pattern":"X","legs":"M"},"bonus":1.0000000000000009},{"rt":657.7000000001863,"stimulus":"bees-with-color/bee-A1SM.svg","response":1,"trial_type":"image-button-response","trial_index":147,"time_elapsed":1003163,"internal_node_id":"0.0-6.0-0.11","subject_id":"5d553414092f860001ceb313","study_id":"6197b3f67c2b5cd3b6d9596a","session_id":"619be326323ecfb813c24f28","condition":"full-information","relevant_dimensions":["antennae","legs"],"bee_group":{"antennae":"B","wings":"X","pattern":"X","legs":"M"},"bonus":1.0000000000000009},{"rt":778.7999999998137,"stimulus":"bees-with-color/bee-B1SF.svg","response":0,"trial_type":"image-button-response","trial_index":148,"time_elapsed":1003944,"internal_node_id":"0.0-6.0-0.12","subject_id":"5d553414092f860001ceb313","study_id":"6197b3f67c2b5cd3b6d9596a","session_id":"619be326323ecfb813c24f28","condition":"full-information","relevant_dimensions":["antennae","legs"],"bee_group":{"antennae":"B","wings":"X","pattern":"X","legs":"M"},"bonus":1.0000000000000009},{"rt":797.7999999998137,"stimulus":"bees-with-color/bee-B2DM.svg","response":1,"trial_type":"image-button-response","trial_index":149,"time_elapsed":1004744,"internal_node_id":"0.0-6.0-0.13","subject_id":"5d553414092f860001ceb313","study_id":"6197b3f67c2b5cd3b6d9596a","session_id":"619be326323ecfb813c24f28","condition":"full-information","relevant_dimensions":["antennae","legs"],"bee_group":{"antennae":"B","wings":"X","pattern":"X","legs":"M"},"bonus":1.0000000000000009},{"rt":765.2000000001863,"stimulus":"bees-with-color/bee-B1DF.svg","response":0,"trial_type":"image-button-response","trial_index":150,"time_elapsed":1005511,"internal_node_id":"0.0-6.0-0.14","subject_id":"5d553414092f860001ceb313","study_id":"6197b3f67c2b5cd3b6d9596a","session_id":"619be326323ecfb813c24f28","condition":"full-information","relevant_dimensions":["antennae","legs"],"bee_group":{"antennae":"B","wings":"X","pattern":"X","legs":"M"},"bonus":1.0000000000000009},{"rt":666.3000000007451,"stimulus":"bees-with-color/bee-A1DF.svg","response":0,"trial_type":"image-button-response","trial_index":151,"time_elapsed":1006179,"internal_node_id":"0.0-6.0-0.15","subject_id":"5d553414092f860001ceb313","study_id":"6197b3f67c2b5cd3b6d9596a","session_id":"619be326323ecfb813c24f28","condition":"full-information","relevant_dimensions":["antennae","legs"],"bee_group":{"antennae":"B","wings":"X","pattern":"X","legs":"M"},"bonus":1.0000000000000009},{"rt":738.0999999996275,"stimulus":"bees-with-color/bee-A2DM.svg","response":1,"trial_type":"image-button-response","trial_index":152,"time_elapsed":1006920,"internal_node_id":"0.0-6.0-0.16","subject_id":"5d553414092f860001ceb313","study_id":"6197b3f67c2b5cd3b6d9596a","session_id":"619be326323ecfb813c24f28","condition":"full-information","relevant_dimensions":["antennae","legs"],"bee_group":{"antennae":"B","wings":"X","pattern":"X","legs":"M"},"bonus":1.0000000000000009},{"rt":688.5,"stimulus":"bees-with-color/bee-A2SF.svg","response":0,"trial_type":"image-button-response","trial_index":153,"time_elapsed":1007610,"internal_node_id":"0.0-6.0-0.17","subject_id":"5d553414092f860001ceb313","study_id":"6197b3f67c2b5cd3b6d9596a","session_id":"619be326323ecfb813c24f28","condition":"full-information","relevant_dimensions":["antennae","legs"],"bee_group":{"antennae":"B","wings":"X","pattern":"X","legs":"M"},"bonus":1.0000000000000009},{"rt":825.3999999994412,"stimulus":"bees-with-color/bee-B1DM.svg","response":1,"trial_type":"image-button-response","trial_index":154,"time_elapsed":1008437,"internal_node_id":"0.0-6.0-0.18","subject_id":"5d553414092f860001ceb313","study_id":"6197b3f67c2b5cd3b6d9596a","session_id":"619be326323ecfb813c24f28","condition":"full-information","relevant_dimensions":["antennae","legs"],"bee_group":{"antennae":"B","wings":"X","pattern":"X","legs":"M"},"bonus":1.0000000000000009},{"rt":711.2999999998137,"stimulus":"bees-with-color/bee-A1SM.svg","response":1,"trial_type":"image-button-response","trial_index":155,"time_elapsed":1009150,"internal_node_id":"0.0-6.0-0.19","subject_id":"5d553414092f860001ceb313","study_id":"6197b3f67c2b5cd3b6d9596a","session_id":"619be326323ecfb813c24f28","condition":"full-information","relevant_dimensions":["antennae","legs"],"bee_group":{"antennae":"B","wings":"X","pattern":"X","legs":"M"},"bonus":1.0000000000000009},{"rt":660.2999999998137,"stimulus":"bees-with-color/bee-B2SF.svg","response":0,"trial_type":"image-button-response","trial_index":156,"time_elapsed":1009812,"internal_node_id":"0.0-6.0-0.20","subject_id":"5d553414092f860001ceb313","study_id":"6197b3f67c2b5cd3b6d9596a","session_id":"619be326323ecfb813c24f28","condition":"full-information","relevant_dimensions":["antennae","legs"],"bee_group":{"antennae":"B","wings":"X","pattern":"X","legs":"M"},"bonus":1.0000000000000009},{"rt":696,"stimulus":"bees-with-color/bee-B2SM.svg","response":1,"trial_type":"image-button-response","trial_index":157,"time_elapsed":1010510,"internal_node_id":"0.0-6.0-0.21","subject_id":"5d553414092f860001ceb313","study_id":"6197b3f67c2b5cd3b6d9596a","session_id":"619be326323ecfb813c24f28","condition":"full-inform