[{"success":true,"trial_type":"fullscreen","trial_index":0,"time_elapsed":18518,"internal_node_id":"0.0-0.0","subject_id":"613a585d6c895c58aac41740","study_id":"6197b3f67c2b5cd3b6d9596a","session_id":"6197b9f182523e6a5f691b53","condition":"contingent","relevant_dimensions":["wings","pattern"],"bee_group":{"antennae":"X","wings":"1","pattern":"D","legs":"X"},"bonus":0.4400000000000014},{"success":true,"timeout":false,"failed_images":[],"failed_audio":[],"failed_video":[],"trial_type":"preload","trial_index":1,"time_elapsed":20261,"internal_node_id":"0.0-1.0","subject_id":"613a585d6c895c58aac41740","study_id":"6197b3f67c2b5cd3b6d9596a","session_id":"6197b9f182523e6a5f691b53","condition":"contingent","relevant_dimensions":["wings","pattern"],"bee_group":{"antennae":"X","wings":"1","pattern":"D","legs":"X"},"bonus":0.4400000000000014},{"rt":10322.79999999702,"stimulus":"Welcome! Press any key to begin.","response":" ","trial_type":"html-keyboard-response","trial_index":2,"time_elapsed":30585,"internal_node_id":"0.0-2.0","subject_id":"613a585d6c895c58aac41740","study_id":"6197b3f67c2b5cd3b6d9596a","session_id":"6197b9f182523e6a5f691b53","condition":"contingent","relevant_dimensions":["wings","pattern"],"bee_group":{"antennae":"X","wings":"1","pattern":"D","legs":"X"},"bonus":0.4400000000000014},{"view_history":[{"page_index":0,"viewing_time":1269.2000000029802},{"page_index":1,"viewing_time":1216.9000000059605},{"page_index":2,"viewing_time":12401},{"page_index":3,"viewing_time":3900.199999988079},{"page_index":4,"viewing_time":3845.2000000029802},{"page_index":5,"viewing_time":2268.1000000089407},{"page_index":6,"viewing_time":2999.0999999940395},{"page_index":7,"viewing_time":3509.5999999940395},{"page_index":8,"viewing_time":10610.60000000894},{"page_index":9,"viewing_time":8402.39999999106},{"page_index":10,"viewing_time":7340.4000000059605},{"page_index":11,"viewing_time":6248.5999999940395},{"page_index":12,"viewing_time":3850.6000000089407},{"page_index":13,"viewing_time":950.5999999940395},{"page_index":14,"viewing_time":1056}],"rt":69868.79999999702,"trial_type":"instructions","trial_index":3,"time_elapsed":100455,"internal_node_id":"0.0-3.0-0.0","subject_id":"613a585d6c895c58aac41740","study_id":"6197b3f67c2b5cd3b6d9596a","session_id":"6197b9f182523e6a5f691b53","condition":"contingent","relevant_dimensions":["wings","pattern"],"bee_group":{"antennae":"X","wings":"1","pattern":"D","legs":"X"},"bonus":0.4400000000000014},{"rt":14447.09999999404,"response":{"Q0":["Two or six legs","Stripes or spots on body","Single or double wings","Antennae or no antennae"]},"question_order":[0],"trial_type":"survey-multi-select","trial_index":4,"time_elapsed":114906,"internal_node_id":"0.0-3.0-1.0","subject_id":"613a585d6c895c58aac41740","study_id":"6197b3f67c2b5cd3b6d9596a","session_id":"6197b9f182523e6a5f691b53","condition":"contingent","relevant_dimensions":["wings","pattern"],"bee_group":{"antennae":"X","wings":"1","pattern":"D","legs":"X"},"correct":true,"bonus":0.4400000000000014},{"rt":13710.59999999404,"response":{"Q1":"No.","Q2":"Based on the four features of the bee.","Q3":"You do not learn if it was friendly or dangerous, and do not alter your bonus."},"question_order":[0,1,2],"trial_type":"survey-multi-choice","trial_index":5,"time_elapsed":128619,"internal_node_id":"0.0-3.0-2.0","subject_id":"613a585d6c895c58aac41740","study_id":"6197b3f67c2b5cd3b6d9596a","session_id":"6197b9f182523e6a5f691b53","condition":"contingent","relevant_dimensions":["wings","pattern"],"bee_group":{"antennae":"X","wings":"1","pattern":"D","legs":"X"},"correct":true,"bonus":0.4400000000000014},{"rt":1770.699999988079,"stimulus":"<p>Congrats, you got everything right<br>When you're ready, click the button below to continue to the experiment.</p>","response":0,"trial_type":"html-button-response","trial_index":6,"time_elapsed":130391,"internal_node_id":"0.0-3.0-3.0","subject_id":"613a585d6c895c58aac41740","study_id":"6197b3f67c2b5cd3b6d9596a","session_id":"6197b9f182523e6a5f691b53","condition":"contingent","relevant_dimensions":["wings","pattern"],"bee_group":{"antennae":"X","wings":"1","pattern":"D","legs":"X"},"bonus":0.4400000000000014},{"rt":5925.4000000059605,"stimulus":"bees-with-color/bee-A1DM.svg","response":0,"trial_type":"image-button-response","trial_index":7,"time_elapsed":136319,"internal_node_id":"0.0-4.0-0.0","subject_id":"613a585d6c895c58aac41740","study_id":"6197b3f67c2b5cd3b6d9596a","session_id":"6197b9f182523e6a5f691b53","condition":"contingent","relevant_dimensions":["wings","pattern"],"bee_group":{"antennae":"X","wings":"1","pattern":"D","legs":"X"},"action":"harvest","summary":"bad-harvest","bonus":0.4400000000000014},{"rt":23472.09999999404,"stimulus":"\n                    <p><b>Action: <em>harvest</em></b></p>\n                    <p>This is the bee that you just saw.</p>\n                    <img src=\"bees-with-color/bee-A1DM.svg\" width=\"200\">\n                    <p><span class=\"redText\">Bad choice, the bee was angry.</span><br><b>You have been stung!</b><br>Your pay has been decreased by $0.10. Your bonus pay is now $0.44.</p>\n            ","response":0,"trial_type":"html-button-response","trial_index":8,"time_elapsed":159794,"internal_node_id":"0.0-4.0-1.0","subject_id":"613a585d6c895c58aac41740","study_id":"6197b3f67c2b5cd3b6d9596a","session_id":"6197b9f182523e6a5f691b53","condition":"contingent","relevant_dimensions":["wings","pattern"],"bee_group":{"antennae":"X","wings":"1","pattern":"D","legs":"X"},"bonus":0.4400000000000014},{"rt":3948.4000000059605,"stimulus":"bees-with-color/bee-B2DM.svg","response":0,"trial_type":"image-button-response","trial_index":9,"time_elapsed":163745,"internal_node_id":"0.0-4.0-0.1","subject_id":"613a585d6c895c58aac41740","study_id":"6197b3f67c2b5cd3b6d9596a","session_id":"6197b9f182523e6a5f691b53","condition":"contingent","relevant_dimensions":["wings","pattern"],"bee_group":{"antennae":"X","wings":"1","pattern":"D","legs":"X"},"action":"harvest","summary":"good-harvest","bonus":0.4400000000000014},{"rt":20810.5,"stimulus":"\n                    <p><b>Action: <em>harvest</em></b></p>\n                    <p>This is the bee that you just saw.</p>\n                    <img src=\"bees-with-color/bee-B2DM.svg\" width=\"200\">\n                    <p><span class=\"greenText\"><b>Successful harvest!</b></span><br>Your pay has increased by $0.02. Your bonus pay is now $0.46.</p>\n            ","response":0,"trial_type":"html-button-response","trial_index":10,"time_elapsed":184558,"internal_node_id":"0.0-4.0-1.1","subject_id":"613a585d6c895c58aac41740","study_id":"6197b3f67c2b5cd3b6d9596a","session_id":"6197b9f182523e6a5f691b53","condition":"contingent","relevant_dimensions":["wings","pattern"],"bee_group":{"antennae":"X","wings":"1","pattern":"D","legs":"X"},"bonus":0.4400000000000014},{"rt":3487.1000000089407,"stimulus":"bees-with-color/bee-A1SF.svg","response":1,"trial_type":"image-button-response","trial_index":11,"time_elapsed":188048,"internal_node_id":"0.0-4.0-0.2","subject_id":"613a585d6c895c58aac41740","study_id":"6197b3f67c2b5cd3b6d9596a","session_id":"6197b9f182523e6a5f691b53","condition":"contingent","relevant_dimensions":["wings","pattern"],"bee_group":{"antennae":"X","wings":"1","pattern":"D","legs":"X"},"action":"avoid","summary":"bad-avoid","bonus":0.4400000000000014},{"rt":1935.0999999940395,"stimulus":"\n                    <p><b>Action: <em>avoid</em></b></p>\n                    <p>This is the bee that you just saw.</p>\n                    <img src=\"bees-with-color/bee-A1SF.svg\" width=\"200\">\n                    <p><br>Your bonus pay is unchanged, and remains at $0.46.</p>\n            ","response":0,"trial_type":"html-button-response","trial_index":12,"time_elapsed":189985,"internal_node_id":"0.0-4.0-1.2","subject_id":"613a585d6c895c58aac41740","study_id":"6197b3f67c2b5cd3b6d9596a","session_id":"6197b9f182523e6a5f691b53","condition":"contingent","relevant_dimensions":["wings","pattern"],"bee_group":{"antennae":"X","wings":"1","pattern":"D","legs":"X"},"bonus":0.4400000000000014},{"rt":8895,"stimulus":"bees-with-color/bee-A2SM.svg","response":0,"trial_type":"image-button-response","trial_index":13,"time_elapsed":198881,"internal_node_id":"0.0-4.0-0.3","subject_id":"613a585d6c895c58aac41740","study_id":"6197b3f67c2b5cd3b6d9596a","session_id":"6197b9f182523e6a5f691b53","condition":"contingent","relevant_dimensions":["wings","pattern"],"bee_group":{"antennae":"X","wings":"1","pattern":"D","legs":"X"},"action":"harvest","summary":"good-harvest","bonus":0.4400000000000014},{"rt":6396.20000000298,"stimulus":"\n                    <p><b>Action: <em>harvest</em></b></p>\n                    <p>This is the bee that you just saw.</p>\n                    <img src=\"bees-with-color/bee-A2SM.svg\" width=\"200\">\n                    <p><span class=\"greenText\"><b>Successful harvest!</b></span><br>Your pay has increased by $0.02. Your bonus pay is now $0.48.</p>\n            ","response":0,"trial_type":"html-button-response","trial_index":14,"time_elapsed":205280,"internal_node_id":"0.0-4.0-1.3","subject_id":"613a585d6c895c58aac41740","study_id":"6197b3f67c2b5cd3b6d9596a","session_id":"6197b9f182523e6a5f691b53","condition":"contingent","relevant_dimensions":["wings","pattern"],"bee_group":{"antennae":"X","wings":"1","pattern":"D","legs":"X"},"bonus":0.4400000000000014},{"rt":4529.9000000059605,"stimulus":"bees-with-color/bee-B2DF.svg","response":0,"trial_type":"image-button-response","trial_index":15,"time_elapsed":209811,"internal_node_id":"0.0-4.0-0.4","subject_id":"613a585d6c895c58aac41740","study_id":"6197b3f67c2b5cd3b6d9596a","session_id":"6197b9f182523e6a5f691b53","condition":"contingent","relevant_dimensions":["wings","pattern"],"bee_group":{"antennae":"X","wings":"1","pattern":"D","legs":"X"},"action":"harvest","summary":"good-harvest","bonus":0.4400000000000014},{"rt":1168.7999999970198,"stimulus":"\n                    <p><b>Action: <em>harvest</em></b></p>\n                    <p>This is the bee that you just saw.</p>\n                    <img src=\"bees-with-color/bee-B2DF.svg\" width=\"200\">\n                    <p><span class=\"greenText\"><b>Successful harvest!</b></span><br>Your pay has increased by $0.02. Your bonus pay is now $0.50.</p>\n            ","response":0,"trial_type":"html-button-response","trial_index":16,"time_elapsed":210982,"internal_node_id":"0.0-4.0-1.4","subject_id":"613a585d6c895c58aac41740","study_id":"6197b3f67c2b5cd3b6d9596a","session_id":"6197b9f182523e6a5f691b53","condition":"contingent","relevant_dimensions":["wings","pattern"],"bee_group":{"antennae":"X","wings":"1","pattern":"D","legs":"X"},"bonus":0.4400000000000014},{"rt":3914.5,"stimulus":"bees-with-color/bee-B1DM.svg","response":0,"trial_type":"image-button-response","trial_index":17,"time_elapsed":214898,"internal_node_id":"0.0-4.0-0.5","subject_id":"613a585d6c895c58aac41740","study_id":"6197b3f67c2b5cd3b6d9596a","session_id":"6197b9f182523e6a5f691b53","condition":"contingent","relevant_dimensions":["wings","pattern"],"bee_group":{"antennae":"X","wings":"1","pattern":"D","legs":"X"},"action":"harvest","summary":"bad-harvest","bonus":0.4400000000000014},{"rt":2796.0999999940395,"stimulus":"\n                    <p><b>Action: <em>harvest</em></b></p>\n                    <p>This is the bee that you just saw.</p>\n                    <img src=\"bees-with-color/bee-B1DM.svg\" width=\"200\">\n                    <p><span class=\"redText\">Bad choice, the bee was angry.</span><br><b>You have been stung!</b><br>Your pay has been decreased by $0.10. Your bonus pay is now $0.40.</p>\n            ","response":0,"trial_type":"html-button-response","trial_index":18,"time_elapsed":217697,"internal_node_id":"0.0-4.0-1.5","subject_id":"613a585d6c895c58aac41740","study_id":"6197b3f67c2b5cd3b6d9596a","session_id":"6197b9f182523e6a5f691b53","condition":"contingent","relevant_dimensions":["wings","pattern"],"bee_group":{"antennae":"X","wings":"1","pattern":"D","legs":"X"},"bonus":0.4400000000000014},{"rt":5285.0999999940395,"stimulus":"bees-with-color/bee-A2DM.svg","response":1,"trial_type":"image-button-response","trial_index":19,"time_elapsed":222984,"internal_node_id":"0.0-4.0-0.6","subject_id":"613a585d6c895c58aac41740","study_id":"6197b3f67c2b5cd3b6d9596a","session_id":"6197b9f182523e6a5f691b53","condition":"contingent","relevant_dimensions":["wings","pattern"],"bee_group":{"antennae":"X","wings":"1","pattern":"D","legs":"X"},"action":"avoid","summary":"bad-avoid","bonus":0.4400000000000014},{"rt":1004.6000000089407,"stimulus":"\n                    <p><b>Action: <em>avoid</em></b></p>\n                    <p>This is the bee that you just saw.</p>\n                    <img src=\"bees-with-color/bee-A2DM.svg\" width=\"200\">\n                    <p><br>Your bonus pay is unchanged, and remains at $0.40.</p>\n            ","response":0,"trial_type":"html-button-response","trial_index":20,"time_elapsed":223990,"internal_node_id":"0.0-4.0-1.6","subject_id":"613a585d6c895c58aac41740","study_id":"6197b3f67c2b5cd3b6d9596a","session_id":"6197b9f182523e6a5f691b53","condition":"contingent","relevant_dimensions":["wings","pattern"],"bee_group":{"antennae":"X","wings":"1","pattern":"D","legs":"X"},"bonus":0.4400000000000014},{"rt":1715.4000000059605,"stimulus":"bees-with-color/bee-B1SF.svg","response":0,"trial_type":"image-button-response","trial_index":21,"time_elapsed":225707,"internal_node_id":"0.0-4.0-0.7","subject_id":"613a585d6c895c58aac41740","study_id":"6197b3f67c2b5cd3b6d9596a","session_id":"6197b9f182523e6a5f691b53","condition":"contingent","relevant_dimensions":["wings","pattern"],"bee_group":{"antennae":"X","wings":"1","pattern":"D","legs":"X"},"action":"harvest","summary":"good-harvest","bonus":0.4400000000000014},{"rt":934,"stimulus":"\n                    <p><b>Action: <em>harvest</em></b></p>\n                    <p>This is the bee that you just saw.</p>\n                    <img src=\"bees-with-color/bee-B1SF.svg\" width=\"200\">\n                    <p><span class=\"greenText\"><b>Successful harvest!</b></span><br>Your pay has increased by $0.02. Your bonus pay is now $0.42.</p>\n            ","response":0,"trial_type":"html-button-response","trial_index":22,"time_elapsed":226643,"internal_node_id":"0.0-4.0-1.7","subject_id":"613a585d6c895c58aac41740","study_id":"6197b3f67c2b5cd3b6d9596a","session_id":"6197b9f182523e6a5f691b53","condition":"contingent","relevant_dimensions":["wings","pattern"],"bee_group":{"antennae":"X","wings":"1","pattern":"D","legs":"X"},"bonus":0.4400000000000014},{"rt":1014.5,"stimulus":"bees-with-color/bee-B2SF.svg","response":0,"trial_type":"image-button-response","trial_index":23,"time_elapsed":227659,"internal_node_id":"0.0-4.0-0.8","subject_id":"613a585d6c895c58aac41740","study_id":"6197b3f67c2b5cd3b6d9596a","session_id":"6197b9f182523e6a5f691b53","condition":"contingent","relevant_dimensions":["wings","pattern"],"bee_group":{"antennae":"X","wings":"1","pattern":"D","legs":"X"},"action":"harvest","summary":"good-harvest","bonus":0.4400000000000014},{"rt":724.3999999910593,"stimulus":"\n                    <p><b>Action: <em>harvest</em></b></p>\n                    <p>This is the bee that you just saw.</p>\n                    <img src=\"bees-with-color/bee-B2SF.svg\" width=\"200\">\n                    <p><span class=\"greenText\"><b>Successful harvest!</b></span><br>Your pay has increased by $0.02. Your bonus pay is now $0.44.</p>\n            ","response":0,"trial_type":"html-button-response","trial_index":24,"time_elapsed":228386,"internal_node_id":"0.0-4.0-1.8","subject_id":"613a585d6c895c58aac41740","study_id":"6197b3f67c2b5cd3b6d9596a","session_id":"6197b9f182523e6a5f691b53","condition":"contingent","relevant_dimensions":["wings","pattern"],"bee_group":{"antennae":"X","wings":"1","pattern":"D","legs":"X"},"bonus":0.4400000000000014},{"rt":1811.4000000059605,"stimulus":"bees-with-color/bee-A2DF.svg","response":0,"trial_type":"image-button-response","trial_index":25,"time_elapsed":230198,"internal_node_id":"0.0-4.0-0.9","subject_id":"613a585d6c895c58aac41740","study_id":"6197b3f67c2b5cd3b6d9596a","session_id":"6197b9f182523e6a5f691b53","condition":"contingent","relevant_dimensions":["wings","pattern"],"bee_group":{"antennae":"X","wings":"1","pattern":"D","legs":"X"},"action":"harvest","summary":"good-harvest","bonus":0.4400000000000014},{"rt":829.2000000029802,"stimulus":"\n                    <p><b>Action: <em>harvest</em></b></p>\n                    <p>This is the bee that you just saw.</p>\n                    <img src=\"bees-with-color/bee-A2DF.svg\" width=\"200\">\n                    <p><span class=\"greenText\"><b>Successful harvest!</b></span><br>Your pay has increased by $0.02. Your bonus pay is now $0.46.</p>\n            ","response":0,"trial_type":"html-button-response","trial_index":26,"time_elapsed":231029,"internal_node_id":"0.0-4.0-1.9","subject_id":"613a585d6c895c58aac41740","study_id":"6197b3f67c2b5cd3b6d9596a","session_id":"6197b9f182523e6a5f691b53","condition":"contingent","relevant_dimensions":["wings","pattern"],"bee_group":{"antennae":"X","wings":"1","pattern":"D","legs":"X"},"bonus":0.4400000000000014},{"rt":2345.800000011921,"stimulus":"bees-with-color/bee-A1SM.svg","response":1,"trial_type":"image-button-response","trial_index":27,"time_elapsed":233377,"internal_node_id":"0.0-4.0-0.10","subject_id":"613a585d6c895c58aac41740","study_id":"6197b3f67c2b5cd3b6d9596a","session_id":"6197b9f182523e6a5f691b53","condition":"contingent","relevant_dimensions":["wings","pattern"],"bee_group":{"antennae":"X","wings":"1","pattern":"D","legs":"X"},"action":"avoid","summary":"bad-avoid","bonus":0.4400000000000014},{"rt":733.8000000119209,"stimulus":"\n                    <p><b>Action: <em>avoid</em></b></p>\n                    <p>This is the bee that you just saw.</p>\n                    <img src=\"bees-with-color/bee-A1SM.svg\" width=\"200\">\n                    <p><br>Your bonus pay is unchanged, and remains at $0.46.</p>\n            ","response":0,"trial_type":"html-button-response","trial_index":28,"time_elapsed":234112,"internal_node_id":"0.0-4.0-1.10","subject_id":"613a585d6c895c58aac41740","study_id":"6197b3f67c2b5cd3b6d9596a","session_id":"6197b9f182523e6a5f691b53","condition":"contingent","relevant_dimensions":["wings","pattern"],"bee_group":{"antennae":"X","wings":"1","pattern":"D","legs":"X"},"bonus":0.4400000000000014},{"rt":864.5999999940395,"stimulus":"bees-with-color/bee-B1DF.svg","response":0,"trial_type":"image-button-response","trial_index":29,"time_elapsed":234979,"internal_node_id":"0.0-4.0-0.11","subject_id":"613a585d6c895c58aac41740","study_id":"6197b3f67c2b5cd3b6d9596a","session_id":"6197b9f182523e6a5f691b53","condition":"contingent","relevant_dimensions":["wings","pattern"],"bee_group":{"antennae":"X","wings":"1","pattern":"D","legs":"X"},"action":"harvest","summary":"bad-harvest","bonus":0.4400000000000014},{"rt":1655.7999999970198,"stimulus":"\n                    <p><b>Action: <em>harvest</em></b></p>\n                    <p>This is the bee that you just saw.</p>\n                    <img src=\"bees-with-color/bee-B1DF.svg\" width=\"200\">\n                    <p><span class=\"redText\">Bad choice, the bee was angry.</span><br><b>You have been stung!</b><br>Your pay has been decreased by $0.10. Your bonus pay is now $0.36.</p>\n            ","response":0,"trial_type":"html-button-response","trial_index":30,"time_elapsed":236637,"internal_node_id":"0.0-4.0-1.11","subject_id":"613a585d6c895c58aac41740","study_id":"6197b3f67c2b5cd3b6d9596a","session_id":"6197b9f182523e6a5f691b53","condition":"contingent","relevant_dimensions":["wings","pattern"],"bee_group":{"antennae":"X","wings":"1","pattern":"D","legs":"X"},"bonus":0.4400000000000014},{"rt":14021.699999988079,"stimulus":"bees-with-color/bee-B2SM.svg","response":0,"trial_type":"image-button-response","trial_index":31,"time_elapsed":250659,"internal_node_id":"0.0-4.0-0.12","subject_id":"613a585d6c895c58aac41740","study_id":"6197b3f67c2b5cd3b6d9596a","session_id":"6197b9f182523e6a5f691b53","condition":"contingent","relevant_dimensions":["wings","pattern"],"bee_group":{"antennae":"X","wings":"1","pattern":"D","legs":"X"},"action":"harvest","summary":"good-harvest","bonus":0.4400000000000014},{"rt":2355.5999999940395,"stimulus":"\n                    <p><b>Action: <em>harvest</em></b></p>\n                    <p>This is the bee that you just saw.</p>\n                    <img src=\"bees-with-color/bee-B2SM.svg\" width=\"200\">\n                    <p><span class=\"greenText\"><b>Successful harvest!</b></span><br>Your pay has increased by $0.02. Your bonus pay is now $0.38.</p>\n            ","response":0,"trial_type":"html-button-response","trial_index":32,"time_elapsed":253017,"internal_node_id":"0.0-4.0-1.12","subject_id":"613a585d6c895c58aac41740","study_id":"6197b3f67c2b5cd3b6d9596a","session_id":"6197b9f182523e6a5f691b53","condition":"contingent","relevant_dimensions":["wings","pattern"],"bee_group":{"antennae":"X","wings":"1","pattern":"D","legs":"X"},"bonus":0.4400000000000014},{"rt":3062.7999999970198,"stimulus":"bees-with-color/bee-A1DF.svg","response":1,"trial_type":"image-button-response","trial_index":33,"time_elapsed":256082,"internal_node_id":"0.0-4.0-0.13","subject_id":"613a585d6c895c58aac41740","study_id":"6197b3f67c2b5cd3b6d9596a","session_id":"6197b9f182523e6a5f691b53","condition":"contingent","relevant_dimensions":["wings","pattern"],"bee_group":{"antennae":"X","wings":"1","pattern":"D","legs":"X"},"action":"avoid","summary":"good-avoid","bonus":0.4400000000000014},{"rt":924.6000000089407,"stimulus":"\n                    <p><b>Action: <em>avoid</em></b></p>\n                    <p>This is the bee that you just saw.</p>\n                    <img src=\"bees-with-color/bee-A1DF.svg\" width=\"200\">\n                    <p><br>Your bonus pay is unchanged, and remains at $0.38.</p>\n            ","response":0,"trial_type":"html-button-response","trial_index":34,"time_elapsed":257008,"internal_node_id":"0.0-4.0-1.13","subject_id":"613a585d6c895c58aac41740","study_id":"6197b3f67c2b5cd3b6d9596a","session_id":"6197b9f182523e6a5f691b53","condition":"contingent","relevant_dimensions":["wings","pattern"],"bee_group":{"antennae":"X","wings":"1","pattern":"D","legs":"X"},"bonus":0.4400000000000014},{"rt":2923,"stimulus":"bees-with-color/bee-B1SM.svg","response":0,"trial_type":"image-button-response","trial_index":35,"time_elapsed":259932,"internal_node_id":"0.0-4.0-0.14","subject_id":"613a585d6c895c58aac41740","study_id":"6197b3f67c2b5cd3b6d9596a","session_id":"6197b9f182523e6a5f691b53","condition":"contingent","relevant_dimensions":["wings","pattern"],"bee_group":{"antennae":"X","wings":"1","pattern":"D","legs":"X"},"action":"harvest","summary":"good-harvest","bonus":0.4400000000000014},{"rt":819.5,"stimulus":"\n                    <p><b>Action: <em>harvest</em></b></p>\n                    <p>This is the bee that you just saw.</p>\n                    <img src=\"bees-with-color/bee-B1SM.svg\" width=\"200\">\n                    <p><span class=\"greenText\"><b>Successful harvest!</b></span><br>Your pay has increased by $0.02. Your bonus pay is now $0.40.</p>\n            ","response":0,"trial_type":"html-button-response","trial_index":36,"time_elapsed":260753,"internal_node_id":"0.0-4.0-1.14","subject_id":"613a585d6c895c58aac41740","study_id":"6197b3f67c2b5cd3b6d9596a","session_id":"6197b9f182523e6a5f691b53","condition":"contingent","relevant_dimensions":["wings","pattern"],"bee_group":{"antennae":"X","wings":"1","pattern":"D","legs":"X"},"bonus":0.4400000000000014},{"rt":2801.7999999970198,"stimulus":"bees-with-color/bee-A2SF.svg","response":0,"trial_type":"image-button-response","trial_index":37,"time_elapsed":263556,"internal_node_id":"0.0-4.0-0.15","subject_id":"613a585d6c895c58aac41740","study_id":"6197b3f67c2b5cd3b6d9596a","session_id":"6197b9f182523e6a5f691b53","condition":"contingent","relevant_dimensions":["wings","pattern"],"bee_group":{"antennae":"X","wings":"1","pattern":"D","legs":"X"},"action":"harvest","summary":"good-harvest","bonus":0.4400000000000014},{"rt":644.5999999940395,"stimulus":"\n                    <p><b>Action: <em>harvest</em></b></p>\n                    <p>This is the bee that you just saw.</p>\n                    <img src=\"bees-with-color/bee-A2SF.svg\" width=\"200\">\n                    <p><span class=\"greenText\"><b>Successful harvest!</b></span><br>Your pay has increased by $0.02. Your bonus pay is now $0.42.</p>\n            ","response":0,"trial_type":"html-button-response","trial_index":38,"time_elapsed":264203,"internal_node_id":"0.0-4.0-1.15","subject_id":"613a585d6c895c58aac41740","study_id":"6197b3f67c2b5cd3b6d9596a","session_id":"6197b9f182523e6a5f691b53","condition":"contingent","relevant_dimensions":["wings","pattern"],"bee_group":{"antennae":"X","wings":"1","pattern":"D","legs":"X"},"bonus":0.4400000000000014},{"rt":1424.9000000059605,"stimulus":"bees-with-color/bee-A1DM.svg","response":1,"trial_type":"image-button-response","trial_index":39,"time_elapsed":265629,"internal_node_id":"0.0-4.0-0.16","subject_id":"613a585d6c895c58aac41740","study_id":"6197b3f67c2b5cd3b6d9596a","session_id":"6197b9f182523e6a5f691b53","condition":"contingent","relevant_dimensions":["wings","pattern"],"bee_group":{"antennae":"X","wings":"1","pattern":"D","legs":"X"},"action":"avoid","summary":"good-avoid","bonus":0.4400000000000014},{"rt":1039.300000011921,"stimulus":"\n                    <p><b>Action: <em>avoid</em></b></p>\n                    <p>This is the bee that you just saw.</p>\n                    <img src=\"bees-with-color/bee-A1DM.svg\" width=\"200\">\n                    <p><br>Your bonus pay is unchanged, and remains at $0.42.</p>\n            ","response":0,"trial_type":"html-button-response","trial_index":40,"time_elapsed":266670,"internal_node_id":"0.0-4.0-1.16","subject_id":"613a585d6c895c58aac41740","study_id":"6197b3f67c2b5cd3b6d9596a","session_id":"6197b9f182523e6a5f691b53","condition":"contingent","relevant_dimensions":["wings","pattern"],"bee_group":{"antennae":"X","wings":"1","pattern":"D","legs":"X"},"bonus":0.4400000000000014},{"rt":2107.300000011921,"stimulus":"bees-with-color/bee-A2DF.svg","response":1,"trial_type":"image-button-response","trial_index":41,"time_elapsed":268779,"internal_node_id":"0.0-4.0-0.17","subject_id":"613a585d6c895c58aac41740","study_id":"6197b3f67c2b5cd3b6d9596a","session_id":"6197b9f182523e6a5f691b53","condition":"contingent","relevant_dimensions":["wings","pattern"],"bee_group":{"antennae":"X","wings":"1","pattern":"D","legs":"X"},"action":"avoid","summary":"bad-avoid","bonus":0.4400000000000014},{"rt":638.2999999970198,"stimulus":"\n                    <p><b>Action: <em>avoid</em></b></p>\n                    <p>This is the bee that you just saw.</p>\n                    <img src=\"bees-with-color/bee-A2DF.svg\" width=\"200\">\n                    <p><br>Your bonus pay is unchanged, and remains at $0.42.</p>\n            ","response":0,"trial_type":"html-button-response","trial_index":42,"time_elapsed":269420,"internal_node_id":"0.0-4.0-1.17","subject_id":"613a585d6c895c58aac41740","study_id":"6197b3f67c2b5cd3b6d9596a","session_id":"6197b9f182523e6a5f691b53","condition":"contingent","relevant_dimensions":["wings","pattern"],"bee_group":{"antennae":"X","wings":"1","pattern":"D","legs":"X"},"bonus":0.4400000000000014},{"rt":804.7000000029802,"stimulus":"bees-with-color/bee-A1SF.svg","response":0,"trial_type":"image-button-response","trial_index":43,"time_elapsed":270226,"internal_node_id":"0.0-4.0-0.18","subject_id":"613a585d6c895c58aac41740","study_id":"6197b3f67c2b5cd3b6d9596a","session_id":"6197b9f182523e6a5f691b53","condition":"contingent","relevant_dimensions":["wings","pattern"],"bee_group":{"antennae":"X","wings":"1","pattern":"D","legs":"X"},"action":"harvest","summary":"good-harvest","bonus":0.4400000000000014},{"rt":687.7000000029802,"stimulus":"\n                    <p><b>Action: <em>harvest</em></b></p>\n                    <p>This is the bee that you just saw.</p>\n                    <img src=\"bees-with-color/bee-A1SF.svg\" width=\"200\">\n                    <p><span class=\"greenText\"><b>Successful harvest!</b></span><br>Your pay has increased by $0.02. Your bonus pay is now $0.44.</p>\n            ","response":0,"trial_type":"html-button-response","trial_index":44,"time_elapsed":270916,"internal_node_id":"0.0-4.0-1.18","subject_id":"613a585d6c895c58aac41740","study_id":"6197b3f67c2b5cd3b6d9596a","session_id":"6197b9f182523e6a5f691b53","condition":"contingent","relevant_dimensions":["wings","pattern"],"bee_group":{"antennae":"X","wings":"1","pattern":"D","legs":"X"},"bonus":0.4400000000000014},{"rt":1706,"stimulus":"bees-with-color/bee-B1SM.svg","response":0,"trial_type":"image-button-response","trial_index":45,"time_elapsed":272623,"internal_node_id":"0.0-4.0-0.19","subject_id":"613a585d6c895c58aac41740","study_id":"6197b3f67c2b5cd3b6d9596a","session_id":"6197b9f182523e6a5f691b53","condition":"contingent","relevant_dimensions":["wings","pattern"],"bee_group":{"antennae":"X","wings":"1","pattern":"D","legs":"X"},"action":"harvest","summary":"good-harvest","bonus":0.4400000000000014},{"rt":674.1000000089407,"stimulus":"\n                    <p><b>Action: <em>harvest</em></b></p>\n                    <p>This is the bee that you just saw.</p>\n                    <img src=\"bees-with-color/bee-B1SM.svg\" width=\"200\">\n                    <p><span class=\"greenText\"><b>Successful harvest!</b></span><br>Your pay has increased by $0.02. Your bonus pay is now $0.46.</p>\n            ","response":0,"trial_type":"html-button-response","trial_index":46,"time_elapsed":273299,"internal_node_id":"0.0-4.0-1.19","subject_id":"613a585d6c895c58aac41740","study_id":"6197b3f67c2b5cd3b6d9596a","session_id":"6197b9f182523e6a5f691b53","condition":"contingent","relevant_dimensions":["wings","pattern"],"bee_group":{"antennae":"X","wings":"1","pattern":"D","legs":"X"},"bonus":0.4400000000000014},{"rt":1560.7999999970198,"stimulus":"bees-with-color/bee-B2SF.svg","response":0,"trial_type":"image-button-response","trial_index":47,"time_elapsed":274861,"internal_node_id":"0.0-4.0-0.20","subject_id":"613a585d6c895c58aac41740","study_id":"6197b3f67c2b5cd3b6d9596a","session_id":"6197b9f182523e6a5f691b53","condition":"contingent","relevant_dimensions":["wings","pattern"],"bee_group":{"antennae":"X","wings":"1","pattern":"D","legs":"X"},"action":"harvest","summary":"good-harvest","bonus":0.4400000000000014},{"rt":518.7999999970198,"stimulus":"\n                    <p><b>Action: <em>harvest</em></b></p>\n                    <p>This is the bee that you just saw.</p>\n                    <img src=\"bees-with-color/bee-B2SF.svg\" width=\"200\">\n                    <p><span class=\"greenText\"><b>Successful harvest!</b></span><br>Your pay has increased by $0.02. Your bonus pay is now $0.48.</p>\n            ","response":0,"trial_type":"html-button-response","trial_index":48,"time_elapsed":275382,"internal_node_id":"0.0-4.0-1.20","subject_id":"613a585d6c895c58aac41740","study_id":"6197b3f67c2b5cd3b6d9596a","session_id":"6197b9f182523e6a5f691b53","condition":"contingent","relevant_dimensions":["wings","pattern"],"bee_group":{"antennae":"X","wings":"1","pattern":"D","legs":"X"},"bonus":0.4400000000000014},{"rt":2311.9000000059605,"stimulus":"bees-with-color/bee-B2DM.svg","response":0,"trial_type":"image-button-response","trial_index":49,"time_elapsed":277695,"internal_node_id":"0.0-4.0-0.21","subject_id":"613a585d6c895c58aac41740","study_id":"6197b3f67c2b5cd3b6d9596a","session_id":"6197b9f182523e6a5f691b53","condition":"contingent","relevant_dimensions":["wings","pattern"],"bee_group":{"antennae":"X","wings":"1","pattern":"D","legs":"X"},"action":"harvest","summary":"good-harvest","bonus":0.4400000000000014},{"rt":548.0999999940395,"stimulus":"\n                    <p><b>Action: <em>harvest</em></b></p>\n                    <p>This is the bee that you just saw.</p>\n                    <img src=\"bees-with-color/bee-B2DM.svg\" width=\"200\">\n                    <p><span class=\"greenText\"><b>Successful harvest!</b></span><br>Your pay has increased by $0.02. Your bonus pay is now $0.50.</p>\n            ","response":0,"trial_type":"html-button-response","trial_index":50,"time_elapsed":278245,"internal_node_id":"0.0-4.0-1.21","subject_id":"613a585d6c895c58aac41740","study_id":"6197b3f67c2b5cd3b6d9596a","session_id":"6197b9f182523e6a5f691b53","condition":"contingent","relevant_dimensions":["wings","pattern"],"bee_group":{"antennae":"X","wings":"1","pattern":"D","legs":"X"},"bonus":0.4400000000000014},{"rt":1661.2999999970198,"stimulus":"bees-with-color/bee-B1DF.svg","response":1,"trial_type":"image-button-response","trial_index":51,"time_elapsed":279908,"internal_node_id":"0.0-4.0-0.22","subject_id":"613a585d6c895c58aac41740","study_id":"6197b3f67c2b5cd3b6d9596a","session_id":"6197b9f182523e6a5f691b53","condition":"contingent","relevant_dimensions":["wings","pattern"],"bee_group":{"antennae":"X","wings":"1","pattern":"D","legs":"X"},"action":"avoid","summary":"good-avoid","bonus":0.4400000000000014},{"rt":788,"stimulus":"\n                    <p><b>Action: <em>avoid</em></b></p>\n                    <p>This is the bee that you just saw.</p>\n                    <img src=\"bees-with-color/bee-B1DF.svg\" width=\"200\">\n                    <p><br>Your bonus pay is unchanged, and remains at $0.50.</p>\n            ","response":0,"trial_type":"html-button-response","trial_index":52,"time_elapsed":280698,"internal_node_id":"0.0-4.0-1.22","subject_id":"613a585d6c895c58aac41740","study_id":"6197b3f67c2b5cd3b6d9596a","session_id":"6197b9f182523e6a5f691b53","condition":"contingent","relevant_dimensions":["wings","pattern"],"bee_group":{"antennae":"X","wings":"1","pattern":"D","legs":"X"},"bonus":0.4400000000000014},{"rt":1941.8999999910593,"stimulus":"bees-with-color/bee-B2DF.svg","response":0,"trial_type":"image-button-response","trial_index":53,"time_elapsed":282642,"internal_node_id":"0.0-4.0-0.23","subject_id":"613a585d6c895c58aac41740","study_id":"6197b3f67c2b5cd3b6d9596a","session_id":"6197b9f182523e6a5f691b53","condition":"contingent","relevant_dimensions":["wings","pattern"],"bee_group":{"antennae":"X","wings":"1","pattern":"D","legs":"X"},"action":"harvest","summary":"good-harvest","bonus":0.4400000000000014},{"rt":509.5,"stimulus":"\n                    <p><b>Action: <em>harvest</em></b></p>\n                    <p>This is the bee that you just saw.</p>\n                    <img src=\"bees-with-color/bee-B2DF.svg\" width=\"200\">\n                    <p><span class=\"greenText\"><b>Successful harvest!</b></span><br>Your pay has increased by $0.02. Your bonus pay is now $0.52.</p>\n            ","response":0,"trial_type":"html-button-response","trial_index":54,"time_elapsed":283153,"internal_node_id":"0.0-4.0-1.23","subject_id":"613a585d6c895c58aac41740","study_id":"6197b3f67c2b5cd3b6d9596a","session_id":"6197b9f182523e6a5f691b53","condition":"contingent","relevant_dimensions":["wings","pattern"],"bee_group":{"antennae":"X","wings":"1","pattern":"D","legs":"X"},"bonus":0.4400000000000014},{"rt":1618.7999999970198,"stimulus":"bees-with-color/bee-B2SM.svg","response":0,"trial_type":"image-button-response","trial_index":55,"time_elapsed":284775,"internal_node_id":"0.0-4.0-0.24","subject_id":"613a585d6c895c58aac41740","study_id":"6197b3f67c2b5cd3b6d9596a","session_id":"6197b9f182523e6a5f691b53","condition":"contingent","relevant_dimensions":["wings","pattern"],"bee_group":{"antennae":"X","wings":"1","pattern":"D","legs":"X"},"action":"harvest","summary":"good-harvest","bonus":0.4400000000000014},{"rt":503.40000000596046,"stimulus":"\n                    <p><b>Action: <em>harvest</em></b></p>\n                    <p>This is the bee that you just saw.</p>\n                    <img src=\"bees-with-color/bee-B2SM.svg\" width=\"200\">\n                    <p><span class=\"greenText\"><b>Successful harvest!</b></span><br>Your pay has increased by $0.02. Your bonus pay is now $0.54.</p>\n            ","response":0,"trial_type":"html-button-response","trial_index":56,"time_elapsed":285280,"internal_node_id":"0.0-4.0-1.24","subject_id":"613a585d6c895c58aac41740","study_id":"6197b3f67c2b5cd3b6d9596a","session_id":"6197b9f182523e6a5f691b53","condition":"contingent","relevant_dimensions":["wings","pattern"],"bee_group":{"antennae":"X","wings":"1","pattern":"D","legs":"X"},"bonus":0.4400000000000014},{"rt":1712.2000000029802,"stimulus":"bees-with-color/bee-A1DF.svg","response":1,"trial_type":"image-button-response","trial_index":57,"time_elapsed":286993,"internal_node_id":"0.0-4.0-0.25","subject_id":"613a585d6c895c58aac41740","study_id":"6197b3f67c2b5cd3b6d9596a","session_id":"6197b9f182523e6a5f691b53","condition":"contingent","relevant_dimensions":["wings","pattern"],"bee_group":{"antennae":"X","wings":"1","pattern":"D","legs":"X"},"action":"avoid","summary":"good-avoid","bonus":0.4400000000000014},{"rt":601.8000000119209,"stimulus":"\n                    <p><b>Action: <em>avoid</em></b></p>\n                    <p>This is the bee that you just saw.</p>\n                    <img src=\"bees-with-color/bee-A1DF.svg\" width=\"200\">\n                    <p><br>Your bonus pay is unchanged, and remains at $0.54.</p>\n            ","response":0,"trial_type":"html-button-response","trial_index":58,"time_elapsed":287598,"internal_node_id":"0.0-4.0-1.25","subject_id":"613a585d6c895c58aac41740","study_id":"6197b3f67c2b5cd3b6d9596a","session_id":"6197b9f182523e6a5f691b53","condition":"contingent","relevant_dimensions":["wings","pattern"],"bee_group":{"antennae":"X","wings":"1","pattern":"D","legs":"X"},"bonus":0.4400000000000014},{"rt":2837.7999999970198,"stimulus":"bees-with-color/bee-A2SM.svg","response":1,"trial_type":"image-button-response","trial_index":59,"time_elapsed":290437,"internal_node_id":"0.0-4.0-0.26","subject_id":"613a585d6c895c58aac41740","study_id":"6197b3f67c2b5cd3b6d9596a","session_id":"6197b9f182523e6a5f691b53","condition":"contingent","relevant_dimensions":["wings","pattern"],"bee_group":{"antennae":"X","wings":"1","pattern":"D","legs":"X"},"action":"avoid","summary":"bad-avoid","bonus":0.4400000000000014},{"rt":518.5,"stimulus":"\n                    <p><b>Action: <em>avoid</em></b></p>\n                    <p>This is the bee that you just saw.</p>\n                    <img src=\"bees-with-color/bee-A2SM.svg\" width=\"200\">\n                    <p><br>Your bonus pay is unchanged, and remains at $0.54.</p>\n            ","response":0,"trial_type":"html-button-response","trial_index":60,"time_elapsed":290957,"internal_node_id":"0.0-4.0-1.26","subject_id":"613a585d6c895c58aac41740","study_id":"6197b3f67c2b5cd3b6d9596a","session_id":"6197b9f182523e6a5f691b53","condition":"contingent","relevant_dimensions":["wings","pattern"],"bee_group":{"antennae":"X","wings":"1","pattern":"D","legs":"X"},"bonus":0.4400000000000014},{"rt":1325.5,"stimulus":"bees-with-color/bee-A2DM.svg","response":1,"trial_type":"image-button-response","trial_index":61,"time_elapsed":292284,"internal_node_id":"0.0-4.0-0.27","subject_id":"613a585d6c895c58aac41740","study_id":"6197b3f67c2b5cd3b6d9596a","session_id":"6197b9f182523e6a5f691b53","condition":"contingent","relevant_dimensions":["wings","pattern"],"bee_group":{"antennae":"X","wings":"1","pattern":"D","legs":"X"},"action":"avoid","summary":"bad-avoid","bonus":0.4400000000000014},{"rt":469.5,"stimulus":"\n                    <p><b>Action: <em>avoid</em></b></p>\n                    <p>This is the bee that you just saw.</p>\n                    <img src=\"bees-with-color/bee-A2DM.svg\" width=\"200\">\n                    <p><br>Your bonus pay is unchanged, and remains at $0.54.</p>\n            ","response":0,"trial_type":"html-button-response","trial_index":62,"time_elapsed":292755,"internal_node_id":"0.0-4.0-1.27","subject_id":"613a585d6c895c58aac41740","study_id":"6197b3f67c2b5cd3b6d9596a","session_id":"6197b9f182523e6a5f691b53","condition":"contingent","relevant_dimensions":["wings","pattern"],"bee_group":{"antennae":"X","wings":"1","pattern":"D","legs":"X"},"bonus":0.4400000000000014},{"rt":1800.9000000059605,"stimulus":"bees-with-color/bee-B1DM.svg","response":0,"trial_type":"image-button-response","trial_index":63,"time_elapsed":294557,"internal_node_id":"0.0-4.0-0.28","subject_id":"613a585d6c895c58aac41740","study_id":"6197b3f67c2b5cd3b6d9596a","session_id":"6197b9f182523e6a5f691b53","condition":"contingent","relevant_dimensions":["wings","pattern"],"bee_group":{"antennae":"X","wings":"1","pattern":"D","legs":"X"},"action":"harvest","summary":"bad-harvest","bonus":0.4400000000000014},{"rt":749,"stimulus":"\n                    <p><b>Action: <em>harvest</em></b></p>\n                    <p>This is the bee that you just saw.</p>\n                    <img src=\"bees-with-color/bee-B1DM.svg\" width=\"200\">\n                    <p><span class=\"redText\">Bad choice, the bee was angry.</span><br><b>You have been stung!</b><br>Your pay has been decreased by $0.10. Your bonus pay is now $0.44.</p>\n            ","response":0,"trial_type":"html-button-response","trial_index":64,"time_elapsed":295308,"internal_node_id":"0.0-4.0-1.28","subject_id":"613a585d6c895c58aac41740","study_id":"6197b3f67c2b5cd3b6d9596a","session_id":"6197b9f182523e6a5f691b53","condition":"contingent","relevant_dimensions":["wings","pattern"],"bee_group":{"antennae":"X","wings":"1","pattern":"D","legs":"X"},"bonus":0.4400000000000014},{"rt":1273.7000000029802,"stimulus":"bees-with-color/bee-A2SF.svg","response":0,"trial_type":"image-button-response","trial_index":65,"time_elapsed":296584,"internal_node_id":"0.0-4.0-0.29","subject_id":"613a585d6c895c58aac41740","study_id":"6197b3f67c2b5cd3b6d9596a","session_id":"6197b9f182523e6a5f691b53","condition":"contingent","relevant_dimensions":["wings","pattern"],"bee_group":{"antennae":"X","wings":"1","pattern":"D","legs":"X"},"action":"harvest","summary":"good-harvest","bonus":0.4400000000000014},{"rt":509.09999999403954,"stimulus":"\n                    <p><b>Action: <em>harvest</em></b></p>\n                    <p>This is the bee that you just saw.</p>\n                    <img src=\"bees-with-color/bee-A2SF.svg\" width=\"200\">\n                    <p><span class=\"greenText\"><b>Successful harvest!</b></span><br>Your pay has increased by $0.02. Your bonus pay is now $0.46.</p>\n            ","response":0,"trial_type":"html-button-response","trial_index":66,"time_elapsed":297095,"internal_node_id":"0.0-4.0-1.29","subject_id":"613a585d6c895c58aac41740","study_id":"6197b3f67c2b5cd3b6d9596a","session_id":"6197b9f182523e6a5f691b53","condition":"contingent","relevant_dimensions":["wings","pattern"],"bee_group":{"antennae":"X","wings":"1","pattern":"D","legs":"X"},"bonus":0.4400000000000014},{"rt":929.4000000059605,"stimulus":"bees-with-color/bee-B1SF.svg","response":0,"trial_type":"image-button-response","trial_index":67,"time_elapsed":298026,"internal_node_id":"0.0-4.0-0.30","subject_id":"613a585d6c895c58aac41740","study_id":"6197b3f67c2b5cd3b6d9596a","session_id":"6197b9f182523e6a5f691b53","condition":"contingent","relevant_dimensions":["wings","pattern"],"bee_group":{"antennae":"X","wings":"1","pattern":"D","legs":"X"},"action":"harvest","summary":"good-harvest","bonus":0.4400000000000014},{"rt":549.0999999940395,"stimulus":"\n                    <p><b>Action: <em>harvest</em></b></p>\n                    <p>This is the bee that you just saw.</p>\n                    <img src=\"bees-with-color/bee-B1SF.svg\" width=\"200\">\n                    <p><span class=\"greenText\"><b>Successful harvest!</b></span><br>Your pay has increased by $0.02. Your bonus pay is now $0.48.</p>\n            ","response":0,"trial_type":"html-button-response","trial_index":68,"time_elapsed":298577,"internal_node_id":"0.0-4.0-1.30","subject_id":"613a585d6c895c58aac41740","study_id":"6197b3f67c2b5cd3b6d9596a","session_id":"6197b9f182523e6a5f691b53","condition":"contingent","relevant_dimensions":["wings","pattern"],"bee_group":{"antennae":"X","wings":"1","pattern":"D","legs":"X"},"bonus":0.4400000000000014},{"rt":794.7999999970198,"stimulus":"bees-with-color/bee-A1SM.svg","response":0,"trial_type":"image-button-response","trial_index":69,"time_elapsed":299373,"internal_node_id":"0.0-4.0-0.31","subject_id":"613a585d6c895c58aac41740","study_id":"6197b3f67c2b5cd3b6d9596a","session_id":"6197b9f182523e6a5f691b53","condition":"contingent","relevant_dimensions":["wings","pattern"],"bee_group":{"antennae":"X","wings":"1","pattern":"D","legs":"X"},"action":"harvest","summary":"good-harvest","bonus":0.4400000000000014},{"rt":478.09999999403954,"stimulus":"\n                    <p><b>Action: <em>harvest</em></b></p>\n                    <p>This is the bee that you just saw.</p>\n                    <img src=\"bees-with-color/bee-A1SM.svg\" width=\"200\">\n                    <p><span class=\"greenText\"><b>Successful harvest!</b></span><br>Your pay has increased by $0.02. Your bonus pay is now $0.50.</p>\n            ","response":0,"trial_type":"html-button-response","trial_index":70,"time_elapsed":299853,"internal_node_id":"0.0-4.0-1.31","subject_id":"613a585d6c895c58aac41740","study_id":"6197b3f67c2b5cd3b6d9596a","session_id":"6197b9f182523e6a5f691b53","condition":"contingent","relevant_dimensions":["wings","pattern"],"bee_group":{"antennae":"X","wings":"1","pattern":"D","legs":"X"},"bonus":0.4400000000000014},{"rt":679.7000000029802,"stimulus":"bees-with-color/bee-B2SF.svg","response":0,"trial_type":"image-button-response","trial_index":71,"time_elapsed":300534,"internal_node_id":"0.0-4.0-0.32","subject_id":"613a585d6c895c58aac41740","study_id":"6197b3f67c2b5cd3b6d9596a","session_id":"6197b9f182523e6a5f691b53","condition":"contingent","relevant_dimensions":["wings","pattern"],"bee_group":{"antennae":"X","wings":"1","pattern":"D","legs":"X"},"action":"harvest","summary":"good-harvest","bonus":0.4400000000000014},{"rt":449.1000000089407,"stimulus":"\n                    <p><b>Action: <em>harvest</em></b></p>\n                    <p>This is the bee that you just saw.</p>\n                    <img src=\"bees-with-color/bee-B2SF.svg\" width=\"200\">\n                    <p><span class=\"greenText\"><b>Successful harvest!</b></span><br>Your pay has increased by $0.02. Your bonus pay is now $0.52.</p>\n            ","response":0,"trial_type":"html-button-response","trial_index":72,"time_elapsed":300985,"internal_node_id":"0.0-4.0-1.32","subject_id":"613a585d6c895c58aac41740","study_id":"6197b3f67c2b5cd3b6d9596a","session_id":"6197b9f182523e6a5f691b53","condition":"contingent","relevant_dimensions":["wings","pattern"],"bee_group":{"antennae":"X","wings":"1","pattern":"D","legs":"X"},"bonus":0.4400000000000014},{"rt":1515.7999999970198,"stimulus":"bees-with-color/bee-A1DF.svg","response":1,"trial_type":"image-button-response","trial_index":73,"time_elapsed":302502,"internal_node_id":"0.0-4.0-0.33","subject_id":"613a585d6c895c58aac41740","study_id":"6197b3f67c2b5cd3b6d9596a","session_id":"6197b9f182523e6a5f691b53","condition":"contingent","relevant_dimensions":["wings","pattern"],"bee_group":{"antennae":"X","wings":"1","pattern":"D","legs":"X"},"action":"avoid","summary":"good-avoid","bonus":0.4400000000000014},{"rt":794.6000000089407,"stimulus":"\n                    <p><b>Action: <em>avoid</em></b></p>\n                    <p>This is the bee that you just saw.</p>\n                    <img src=\"bees-with-color/bee-A1DF.svg\" width=\"200\">\n                    <p><br>Your bonus pay is unchanged, and remains at $0.52.</p>\n            ","response":0,"trial_type":"html-button-response","trial_index":74,"time_elapsed":303299,"internal_node_id":"0.0-4.0-1.33","subject_id":"613a585d6c895c58aac41740","study_id":"6197b3f67c2b5cd3b6d9596a","session_id":"6197b9f182523e6a5f691b53","condition":"contingent","relevant_dimensions":["wings","pattern"],"bee_group":{"antennae":"X","wings":"1","pattern":"D","legs":"X"},"bonus":0.4400000000000014},{"rt":999.7000000029802,"stimulus":"bees-with-color/bee-A1DM.svg","response":0,"trial_type":"image-button-response","trial_index":75,"time_elapsed":304300,"internal_node_id":"0.0-4.0-0.34","subject_id":"613a585d6c895c58aac41740","study_id":"6197b3f67c2b5cd3b6d9596a","session_id":"6197b9f182523e6a5f691b53","condition":"contingent","relevant_dimensions":["wings","pattern"],"bee_group":{"antennae":"X","wings":"1","pattern":"D","legs":"X"},"action":"harvest","summary":"bad-harvest","bonus":0.4400000000000014},{"rt":498.29999999701977,"stimulus":"\n                    <p><b>Action: <em>harvest</em></b></p>\n                    <p>This is the bee that you just saw.</p>\n                    <img src=\"bees-with-color/bee-A1DM.svg\" width=\"200\">\n                    <p><span class=\"redText\">Bad choice, the bee was angry.</span><br><b>You have been stung!</b><br>Your pay has been decreased by $0.10. Your bonus pay is now $0.42.</p>\n            ","response":0,"trial_type":"html-button-response","trial_index":76,"time_elapsed":304800,"internal_node_id":"0.0-4.0-1.34","subject_id":"613a585d6c895c58aac41740","study_id":"6197b3f67c2b5cd3b6d9596a","session_id":"6197b9f182523e6a5f691b53","condition":"contingent","relevant_dimensions":["wings","pattern"],"bee_group":{"antennae":"X","wings":"1","pattern":"D","legs":"X"},"bonus":0.4400000000000014},{"rt":855.9000000059605,"stimulus":"bees-with-color/bee-A2DF.svg","response":0,"trial_type":"image-button-response","trial_index":77,"time_elapsed":305657,"internal_node_id":"0.0-4.0-0.35","subject_id":"613a585d6c895c58aac41740","study_id":"6197b3f67c2b5cd3b6d9596a","session_id":"6197b9f182523e6a5f691b53","condition":"contingent","relevant_dimensions":["wings","pattern"],"bee_group":{"antennae":"X","wings":"1","pattern":"D","legs":"X"},"action":"harvest","summary":"good-harvest","bonus":0.4400000000000014},{"rt":523.4000000059605,"stimulus":"\n                    <p><b>Action: <em>harvest</em></b></p>\n                    <p>This is the bee that you just saw.</p>\n                    <img src=\"bees-with-color/bee-A2DF.svg\" width=\"200\">\n                    <p><span class=\"greenText\"><b>Successful harvest!</b></span><br>Your pay has increased by $0.02. Your bonus pay is now $0.44.</p>\n            ","response":0,"trial_type":"html-button-response","trial_index":78,"time_elapsed":306182,"internal_node_id":"0.0-4.0-1.35","subject_id":"613a585d6c895c58aac41740","study_id":"6197b3f67c2b5cd3b6d9596a","session_id":"6197b9f182523e6a5f691b53","condition":"contingent","relevant_dimensions":["wings","pattern"],"bee_group":{"antennae":"X","wings":"1","pattern":"D","legs":"X"},"bonus":0.4400000000000014},{"rt":610.0999999940395,"stimulus":"bees-with-color/bee-B2DF.svg","response":0,"trial_type":"image-button-response","trial_index":79,"time_elapsed":306793,"internal_node_id":"0.0-4.0-0.36","subject_id":"613a585d6c895c58aac41740","study_id":"6197b3f67c2b5cd3b6d9596a","session_id":"6197b9f182523e6a5f691b53","condition":"contingent","relevant_dimensions":["wings","pattern"],"bee_group":{"antennae":"X","wings":"1","pattern":"D","legs":"X"},"action":"harvest","summary":"good-harvest","bonus":0.4400000000000014},{"rt":492.79999999701977,"stimulus":"\n                    <p><b>Action: <em>harvest</em></b></p>\n                    <p>This is the bee that you just saw.</p>\n                    <img src=\"bees-with-color/bee-B2DF.svg\" width=\"200\">\n                    <p><span class=\"greenText\"><b>Successful harvest!</b></span><br>Your pay has increased by $0.02. Your bonus pay is now $0.46.</p>\n            ","response":0,"trial_type":"html-button-response","trial_index":80,"time_elapsed":307289,"internal_node_id":"0.0-4.0-1.36","subject_id":"613a585d6c895c58aac41740","study_id":"6197b3f67c2b5cd3b6d9596a","session_id":"6197b9f182523e6a5f691b53","condition":"contingent","relevant_dimensions":["wings","pattern"],"bee_group":{"antennae":"X","wings":"1","pattern":"D","legs":"X"},"bonus":0.4400000000000014},{"rt":689.1000000089407,"stimulus":"bees-with-color/bee-A2SF.svg","response":0,"trial_type":"image-button-response","trial_index":81,"time_elapsed":307979,"internal_node_id":"0.0-4.0-0.37","subject_id":"613a585d6c895c58aac41740","study_id":"6197b3f67c2b5cd3b6d9596a","session_id":"6197b9f182523e6a5f691b53","condition":"contingent","relevant_dimensions":["wings","pattern"],"bee_group":{"antennae":"X","wings":"1","pattern":"D","legs":"X"},"action":"harvest","summary":"good-harvest","bonus":0.4400000000000014},{"rt":508.8999999910593,"stimulus":"\n                    <p><b>Action: <em>harvest</em></b></p>\n                    <p>This is the bee that you just saw.</p>\n                    <img src=\"bees-with-color/bee-A2SF.svg\" width=\"200\">\n                    <p><span class=\"greenText\"><b>Successful harvest!</b></span><br>Your pay has increased by $0.02. Your bonus pay is now $0.48.</p>\n            ","response":0,"trial_type":"html-button-response","trial_index":82,"time_elapsed":308490,"internal_node_id":"0.0-4.0-1.37","subject_id":"613a585d6c895c58aac41740","study_id":"6197b3f67c2b5cd3b6d9596a","session_id":"6197b9f182523e6a5f691b53","condition":"contingent","relevant_dimensions":["wings","pattern"],"bee_group":{"antennae":"X","wings":"1","pattern":"D","legs":"X"},"bonus":0.4400000000000014},{"rt":819.8999999910593,"stimulus":"bees-with-color/bee-A2SM.svg","response":0,"trial_type":"image-button-response","trial_index":83,"time_elapsed":309311,"internal_node_id":"0.0-4.0-0.38","subject_id":"613a585d6c895c58aac41740","study_id":"6197b3f67c2b5cd3b6d9596a","session_id":"6197b9f182523e6a5f691b53","condition":"contingent","relevant_dimensions":["wings","pattern"],"bee_group":{"antennae":"X","wings":"1","pattern":"D","legs":"X"},"action":"harvest","summary":"good-harvest","bonus":0.4400000000000014},{"rt":499,"stimulus":"\n                    <p><b>Action: <em>harvest</em></b></p>\n                    <p>This is the bee that you just saw.</p>\n                    <img src=\"bees-with-color/bee-A2SM.svg\" width=\"200\">\n                    <p><span class=\"greenText\"><b>Successful harvest!</b></span><br>Your pay has increased by $0.02. Your bonus pay is now $0.50.</p>\n            ","response":0,"trial_type":"html-button-response","trial_index":84,"time_elapsed":309812,"internal_node_id":"0.0-4.0-1.38","subject_id":"613a585d6c895c58aac41740","study_id":"6197b3f67c2b5cd3b6d9596a","session_id":"6197b9f182523e6a5f691b53","condition":"contingent","relevant_dimensions":["wings","pattern"],"bee_group":{"antennae":"X","wings":"1","pattern":"D","legs":"X"},"bonus":0.4400000000000014},{"rt":729.8999999910593,"stimulus":"bees-with-color/bee-B1SF.svg","response":0,"trial_type":"image-button-response","trial_index":85,"time_elapsed":310543,"internal_node_id":"0.0-4.0-0.39","subject_id":"613a585d6c895c58aac41740","study_id":"6197b3f67c2b5cd3b6d9596a","session_id":"6197b9f182523e6a5f691b53","condition":"contingent","relevant_dimensions":["wings","pattern"],"bee_group":{"antennae":"X","wings":"1","pattern":"D","legs":"X"},"action":"harvest","summary":"good-harvest","bonus":0.4400000000000014},{"rt":544.3000000119209,"stimulus":"\n                    <p><b>Action: <em>harvest</em></b></p>\n                    <p>This is the bee that you just saw.</p>\n                    <img src=\"bees-with-color/bee-B1SF.svg\" width=\"200\">\n                    <p><span class=\"greenText\"><b>Successful harvest!</b></span><br>Your pay has increased by $0.02. Your bonus pay is now $0.52.</p>\n            ","response":0,"trial_type":"html-button-response","trial_index":86,"time_elapsed":311089,"internal_node_id":"0.0-4.0-1.39","subject_id":"613a585d6c895c58aac41740","study_id":"6197b3f67c2b5cd3b6d9596a","session_id":"6197b9f182523e6a5f691b53","condition":"contingent","relevant_dimensions":["wings","pattern"],"bee_group":{"antennae":"X","wings":"1","pattern":"D","legs":"X"},"bonus":0.4400000000000014},{"rt":723.7000000029802,"stimulus":"bees-with-color/bee-B1SM.svg","response":0,"trial_type":"image-button-response","trial_index":87,"time_elapsed":311814,"internal_node_id":"0.0-4.0-0.40","subject_id":"613a585d6c895c58aac41740","study_id":"6197b3f67c2b5cd3b6d9596a","session_id":"6197b9f182523e6a5f691b53","condition":"contingent","relevant_dimensions":["wings","pattern"],"bee_group":{"antennae":"X","wings":"1","pattern":"D","legs":"X"},"action":"harvest","summary":"good-harvest","bonus":0.4400000000000014},{"rt":494.5,"stimulus":"\n                    <p><b>Action: <em>harvest</em></b></p>\n                    <p>This is the bee that you just saw.</p>\n                    <img src=\"bees-with-color/bee-B1SM.svg\" width=\"200\">\n                    <p><span class=\"greenText\"><b>Successful harvest!</b></span><br>Your pay has increased by $0.02. Your bonus pay is now $0.54.</p>\n            ","response":0,"trial_type":"html-button-response","trial_index":88,"time_elapsed":312310,"internal_node_id":"0.0-4.0-1.40","subject_id":"613a585d6c895c58aac41740","study_id":"6197b3f67c2b5cd3b6d9596a","session_id":"6197b9f182523e6a5f691b53","condition":"contingent","relevant_dimensions":["wings","pattern"],"bee_group":{"antennae":"X","wings":"1","pattern":"D","legs":"X"},"bonus":0.4400000000000014},{"rt":654.3000000119209,"stimulus":"bees-with-color/bee-A2DM.svg","response":0,"trial_type":"image-button-response","trial_index":89,"time_elapsed":312966,"internal_node_id":"0.0-4.0-0.41","subject_id":"613a585d6c895c58aac41740","study_id":"6197b3f67c2b5cd3b6d9596a","session_id":"6197b9f182523e6a5f691b53","condition":"contingent","relevant_dimensions":["wings","pattern"],"bee_group":{"antennae":"X","wings":"1","pattern":"D","legs":"X"},"action":"harvest","summary":"good-harvest","bonus":0.4400000000000014},{"rt":483.29999999701977,"stimulus":"\n                    <p><b>Action: <em>harvest</em></b></p>\n                    <p>This is the bee that you just saw.</p>\n                    <img src=\"bees-with-color/bee-A2DM.svg\" width=\"200\">\n                    <p><span class=\"greenText\"><b>Successful harvest!</b></span><br>Your pay has increased by $0.02. Your bonus pay is now $0.56.</p>\n            ","response":0,"trial_type":"html-button-response","trial_index":90,"time_elapsed":313451,"internal_node_id":"0.0-4.0-1.41","subject_id":"613a585d6c895c58aac41740","study_id":"6197b3f67c2b5cd3b6d9596a","session_id":"6197b9f182523e6a5f691b53","condition":"contingent","relevant_dimensions":["wings","pattern"],"bee_group":{"antennae":"X","wings":"1","pattern":"D","legs":"X"},"bonus":0.4400000000000014},{"rt":584.5999999940395,"stimulus":"bees-with-color/bee-B1DM.svg","response":0,"trial_type":"image-button-response","trial_index":91,"time_elapsed":314037,"internal_node_id":"0.0-4.0-0.42","subject_id":"613a585d6c895c58aac41740","study_id":"6197b3f67c2b5cd3b6d9596a","session_id":"6197b9f182523e6a5f691b53","condition":"contingent","relevant_dimensions":["wings","pattern"],"bee_group":{"antennae":"X","wings":"1","pattern":"D","legs":"X"},"action":"harvest","summary":"bad-harvest","bonus":0.4400000000000014},{"rt":1585.2999999970198,"stimulus":"\n                    <p><b>Action: <em>harvest</em></b></p>\n                    <p>This is the bee that you just saw.</p>\n                    <img src=\"bees-with-color/bee-B1DM.svg\" width=\"200\">\n                    <p><span class=\"redText\">Bad choice, the bee was angry.</span><br><b>You have been stung!</b><br>Your pay has been decreased by $0.10. Your bonus pay is now $0.46.</p>\n            ","response":0,"trial_type":"html-button-response","trial_index":92,"time_elapsed":315624,"internal_node_id":"0.0-4.0-1.42","subject_id":"613a585d6c895c58aac41740","study_id":"6197b3f67c2b5cd3b6d9596a","session_id":"6197b9f182523e6a5f691b53","condition":"contingent","relevant_dimensions":["wings","pattern"],"bee_group":{"antennae":"X","wings":"1","pattern":"D","legs":"X"},"bonus":0.4400000000000014},{"rt":1009.7999999970198,"stimulus":"bees-with-color/bee-A1SM.svg","response":0,"trial_type":"image-button-response","trial_index":93,"time_elapsed":316635,"internal_node_id":"0.0-4.0-0.43","subject_id":"613a585d6c895c58aac41740","study_id":"6197b3f67c2b5cd3b6d9596a","session_id":"6197b9f182523e6a5f691b53","condition":"contingent","relevant_dimensions":["wings","pattern"],"bee_group":{"antennae":"X","wings":"1","pattern":"D","legs":"X"},"action":"harvest","summary":"good-harvest","bonus":0.4400000000000014},{"rt":499.59999999403954,"stimulus":"\n                    <p><b>Action: <em>harvest</em></b></p>\n                    <p>This is the bee that you just saw.</p>\n                    <img src=\"bees-with-color/bee-A1SM.svg\" width=\"200\">\n                    <p><span class=\"greenText\"><b>Successful harvest!</b></span><br>Your pay has increased by $0.02. Your bonus pay is now $0.48.</p>\n            ","response":0,"trial_type":"html-button-response","trial_index":94,"time_elapsed":317137,"internal_node_id":"0.0-4.0-1.43","subject_id":"613a585d6c895c58aac41740","study_id":"6197b3f67c2b5cd3b6d9596a","session_id":"6197b9f182523e6a5f691b53","condition":"contingent","relevant_dimensions":["wings","pattern"],"bee_group":{"antennae":"X","wings":"1","pattern":"D","legs":"X"},"bonus":0.4400000000000014},{"rt":524.4000000059605,"stimulus":"bees-with-color/bee-A1SF.svg","response":0,"trial_type":"image-button-response","trial_index":95,"time_elapsed":317663,"internal_node_id":"0.0-4.0-0.44","subject_id":"613a585d6c895c58aac41740","study_id":"6197b3f67c2b5cd3b6d9596a","session_id":"6197b9f182523e6a5f691b53","condition":"contingent","relevant_dimensions":["wings","pattern"],"bee_group":{"antennae":"X","wings":"1","pattern":"D","legs":"X"},"action":"harvest","summary":"good-harvest","bonus":0.4400000000000014},{"rt":477.29999999701977,"stimulus":"\n                    <p><b>Action: <em>harvest</em></b></p>\n                    <p>This is the bee that you just saw.</p>\n                    <img src=\"bees-with-color/bee-A1SF.svg\" width=\"200\">\n                    <p><span class=\"greenText\"><b>Successful harvest!</b></span><br>Your pay has increased by $0.02. Your bonus pay is now $0.50.</p>\n            ","response":0,"trial_type":"html-button-response","trial_index":96,"time_elapsed":318142,"internal_node_id":"0.0-4.0-1.44","subject_id":"613a585d6c895c58aac41740","study_id":"6197b3f67c2b5cd3b6d9596a","session_id":"6197b9f182523e6a5f691b53","condition":"contingent","relevant_dimensions":["wings","pattern"],"bee_group":{"antennae":"X","wings":"1","pattern":"D","legs":"X"},"bonus":0.4400000000000014},{"rt":654.8999999910593,"stimulus":"bees-with-color/bee-B2SM.svg","response":0,"trial_type":"image-button-response","trial_index":97,"time_elapsed":318798,"internal_node_id":"0.0-4.0-0.45","subject_id":"613a585d6c895c58aac41740","study_id":"6197b3f67c2b5cd3b6d9596a","session_id":"6197b9f182523e6a5f691b53","condition":"contingent","relevant_dimensions":["wings","pattern"],"bee_group":{"antennae":"X","wings":"1","pattern":"D","legs":"X"},"action":"harvest","summary":"good-harvest","bonus":0.4400000000000014},{"rt":544.5,"stimulus":"\n                    <p><b>Action: <em>harvest</em></b></p>\n                    <p>This is the bee that you just saw.</p>\n                    <img src=\"bees-with-color/bee-B2SM.svg\" width=\"200\">\n                    <p><span class=\"greenText\"><b>Successful harvest!</b></span><br>Your pay has increased by $0.02. Your bonus pay is now $0.52.</p>\n            ","response":0,"trial_type":"html-button-response","trial_index":98,"time_elapsed":319345,"internal_node_id":"0.0-4.0-1.45","subject_id":"613a585d6c895c58aac41740","study_id":"6197b3f67c2b5cd3b6d9596a","session_id":"6197b9f182523e6a5f691b53","condition":"contingent","relevant_dimensions":["wings","pattern"],"bee_group":{"antennae":"X","wings":"1","pattern":"D","legs":"X"},"bonus":0.4400000000000014},{"rt":1565.800000011921,"stimulus":"bees-with-color/bee-B1DF.svg","response":1,"trial_type":"image-button-response","trial_index":99,"time_elapsed":320912,"internal_node_id":"0.0-4.0-0.46","subject_id":"613a585d6c895c58aac41740","study_id":"6197b3f67c2b5cd3b6d9596a","session_id":"6197b9f182523e6a5f691b53","condition":"contingent","relevant_dimensions":["wings","pattern"],"bee_group":{"antennae":"X","wings":"1","pattern":"D","legs":"X"},"action":"avoid","summary":"good-avoid","bonus":0.4400000000000014},{"rt":548.3000000119209,"stimulus":"\n                    <p><b>Action: <em>avoid</em></b></p>\n                    <p>This is the bee that you just saw.</p>\n                    <img src=\"bees-with-color/bee-B1DF.svg\" width=\"200\">\n                    <p><br>Your bonus pay is unchanged, and remains at $0.52.</p>\n            ","response":0,"trial_type":"html-button-response","trial_index":100,"time_elapsed":321462,"internal_node_id":"0.0-4.0-1.46","subject_id":"613a585d6c895c58aac41740","study_id":"6197b3f67c2b5cd3b6d9596a","session_id":"6197b9f182523e6a5f691b53","condition":"contingent","relevant_dimensions":["wings","pattern"],"bee_group":{"antennae":"X","wings":"1","pattern":"D","legs":"X"},"bonus":0.4400000000000014},{"rt":1276,"stimulus":"bees-with-color/bee-B2DM.svg","response":0,"trial_type":"image-button-response","trial_index":101,"time_elapsed":322739,"internal_node_id":"0.0-4.0-0.47","subject_id":"613a585d6c895c58aac41740","study_id":"6197b3f67c2b5cd3b6d9596a","session_id":"6197b9f182523e6a5f691b53","condition":"contingent","relevant_dimensions":["wings","pattern"],"bee_group":{"antennae":"X","wings":"1","pattern":"D","legs":"X"},"action":"harvest","summary":"good-harvest","bonus":0.4400000000000014},{"rt":549.1999999880791,"stimulus":"\n                    <p><b>Action: <em>harvest</em></b></p>\n                    <p>This is the bee that you just saw.</p>\n                    <img src=\"bees-with-color/bee-B2DM.svg\" width=\"200\">\n                    <p><span class=\"greenText\"><b>Successful harvest!</b></span><br>Your pay has increased by $0.02. Your bonus pay is now $0.54.</p>\n            ","response":0,"trial_type":"html-button-response","trial_index":102,"time_elapsed":323290,"internal_node_id":"0.0-4.0-1.47","subject_id":"613a585d6c895c58aac41740","study_id":"6197b3f67c2b5cd3b6d9596a","session_id":"6197b9f182523e6a5f691b53","condition":"contingent","relevant_dimensions":["wings","pattern"],"bee_group":{"antennae":"X","wings":"1","pattern":"D","legs":"X"},"bonus":0.4400000000000014},{"rt":849.7999999970198,"stimulus":"bees-with-color/bee-A2SF.svg","response":0,"trial_type":"image-button-response","trial_index":103,"time_elapsed":324141,"internal_node_id":"0.0-4.0-0.48","subject_id":"613a585d6c895c58aac41740","study_id":"6197b3f67c2b5cd3b6d9596a","session_id":"6197b9f182523e6a5f691b53","condition":"contingent","relevant_dimensions":["wings","pattern"],"bee_group":{"antennae":"X","wings":"1","pattern":"D","legs":"X"},"action":"harvest","summary":"good-harvest","bonus":0.4400000000000014},{"rt":478.5,"stimulus":"\n                    <p><b>Action: <em>harvest</em></b></p>\n                    <p>This is the bee that you just saw.</p>\n                    <img src=\"bees-with-color/bee-A2SF.svg\" width=\"200\">\n                    <p><span class=\"greenText\"><b>Successful harvest!</b></span><br>Your pay has increased by $0.02. Your bonus pay is now $0.56.</p>\n            ","response":0,"trial_type":"html-button-response","trial_index":104,"time_elapsed":324621,"internal_node_id":"0.0-4.0-1.48","subject_id":"613a585d6c895c58aac41740","study_id":"6197b3f67c2b5cd3b6d9596a","session_id":"6197b9f182523e6a5f691b53","condition":"contingent","relevant_dimensions":["wings","pattern"],"bee_group":{"antennae":"X","wings":"1","pattern":"D","legs":"X"},"bonus":0.4400000000000014},{"rt":1240.2999999970198,"stimulus":"bees-with-color/bee-A2DM.svg","response":0,"trial_type":"image-button-response","trial_index":105,"time_elapsed":325863,"internal_node_id":"0.0-4.0-0.49","subject_id":"613a585d6c895c58aac41740","study_id":"6197b3f67c2b5cd3b6d9596a","session_id":"6197b9f182523e6a5f691b53","condition":"contingent","relevant_dimensions":["wings","pattern"],"bee_group":{"antennae":"X","wings":"1","pattern":"D","legs":"X"},"action":"harvest","summary":"good-harvest","bonus":0.4400000000000014},{"rt":453.8999999910593,"stimulus":"\n                    <p><b>Action: <em>harvest</em></b></p>\n                    <p>This is the bee that you just saw.</p>\n                    <img src=\"bees-with-color/bee-A2DM.svg\" width=\"200\">\n                    <p><span class=\"greenText\"><b>Successful harvest!</b></span><br>Your pay has increased by $0.02. Your bonus pay is now $0.58.</p>\n            ","response":0,"trial_type":"html-button-response","trial_index":106,"time_elapsed":326319,"internal_node_id":"0.0-4.0-1.49","subject_id":"613a585d6c895c58aac41740","study_id":"6197b3f67c2b5cd3b6d9596a","session_id":"6197b9f182523e6a5f691b53","condition":"contingent","relevant_dimensions":["wings","pattern"],"bee_group":{"antennae":"X","wings":"1","pattern":"D","legs":"X"},"bonus":0.4400000000000014},{"rt":724.7999999970198,"stimulus":"bees-with-color/bee-B2SM.svg","response":0,"trial_type":"image-button-response","trial_index":107,"time_elapsed":327045,"internal_node_id":"0.0-4.0-0.50","subject_id":"613a585d6c895c58aac41740","study_id":"6197b3f67c2b5cd3b6d9596a","session_id":"6197b9f182523e6a5f691b53","condition":"contingent","relevant_dimensions":["wings","pattern"],"bee_group":{"antennae":"X","wings":"1","pattern":"D","legs":"X"},"action":"harvest","summary":"good-harvest","bonus":0.4400000000000014},{"rt":528.2000000029802,"stimulus":"\n                    <p><b>Action: <em>harvest</em></b></p>\n                    <p>This is the bee that you just saw.</p>\n                    <img src=\"bees-with-color/bee-B2SM.svg\" width=\"200\">\n                    <p><span class=\"greenText\"><b>Successful harvest!</b></span><br>Your pay has increased by $0.02. Your bonus pay is now $0.60.</p>\n            ","response":0,"trial_type":"html-button-response","trial_index":108,"time_elapsed":327575,"internal_node_id":"0.0-4.0-1.50","subject_id":"613a585d6c895c58aac41740","study_id":"6197b3f67c2b5cd3b6d9596a","session_id":"6197b9f182523e6a5f691b53","condition":"contingent","relevant_dimensions":["wings","pattern"],"bee_group":{"antennae":"X","wings":"1","pattern":"D","legs":"X"},"bonus":0.4400000000000014},{"rt":1160.8999999910593,"stimulus":"bees-with-color/bee-A1DF.svg","response":1,"trial_type":"image-button-response","trial_index":109,"time_elapsed":328737,"internal_node_id":"0.0-4.0-0.51","subject_id":"613a585d6c895c58aac41740","study_id":"6197b3f67c2b5cd3b6d9596a","session_id":"6197b9f182523e6a5f691b53","condition":"contingent","relevant_dimensions":["wings","pattern"],"bee_group":{"antennae":"X","wings":"1","pattern":"D","legs":"X"},"action":"avoid","summary":"good-avoid","bonus":0.4400000000000014},{"rt":513,"stimulus":"\n                    <p><b>Action: <em>avoid</em></b></p>\n                    <p>This is the bee that you just saw.</p>\n                    <img src=\"bees-with-color/bee-A1DF.svg\" width=\"200\">\n                    <p><br>Your bonus pay is unchanged, and remains at $0.60.</p>\n            ","response":0,"trial_type":"html-button-response","trial_index":110,"time_elapsed":329252,"internal_node_id":"0.0-4.0-1.51","subject_id":"613a585d6c895c58aac41740","study_id":"6197b3f67c2b5cd3b6d9596a","session_id":"6197b9f182523e6a5f691b53","condition":"contingent","relevant_dimensions":["wings","pattern"],"bee_group":{"antennae":"X","wings":"1","pattern":"D","legs":"X"},"bonus":0.4400000000000014},{"rt":719.7999999970198,"stimulus":"bees-with-color/bee-A2DF.svg","response":0,"trial_type":"image-button-response","trial_index":111,"time_elapsed":329973,"internal_node_id":"0.0-4.0-0.52","subject_id":"613a585d6c895c58aac41740","study_id":"6197b3f67c2b5cd3b6d9596a","session_id":"6197b9f182523e6a5f691b53","condition":"contingent","relevant_dimensions":["wings","pattern"],"bee_group":{"antennae":"X","wings":"1","pattern":"D","legs":"X"},"action":"harvest","summary":"good-harvest","bonus":0.4400000000000014},{"rt":484.5,"stimulus":"\n                    <p><b>Action: <em>harvest</em></b></p>\n                    <p>This is the bee that you just saw.</p>\n                    <img src=\"bees-with-color/bee-A2DF.svg\" width=\"200\">\n                    <p><span class=\"greenText\"><b>Successful harvest!</b></span><br>Your pay has increased by $0.02. Your bonus pay is now $0.62.</p>\n            ","response":0,"trial_type":"html-button-response","trial_index":112,"time_elapsed":330459,"internal_node_id":"0.0-4.0-1.52","subject_id":"613a585d6c895c58aac41740","study_id":"6197b3f67c2b5cd3b6d9596a","session_id":"6197b9f182523e6a5f691b53","condition":"contingent","relevant_dimensions":["wings","pattern"],"bee_group":{"antennae":"X","wings":"1","pattern":"D","legs":"X"},"bonus":0.4400000000000014},{"rt":2006.0999999940395,"stimulus":"bees-with-color/bee-B1SF.svg","response":1,"trial_type":"image-button-response","trial_index":113,"time_elapsed":332467,"internal_node_id":"0.0-4.0-0.53","subject_id":"613a585d6c895c58aac41740","study_id":"6197b3f67c2b5cd3b6d9596a","session_id":"6197b9f182523e6a5f691b53","condition":"contingent","relevant_dimensions":["wings","pattern"],"bee_group":{"antennae":"X","wings":"1","pattern":"D","legs":"X"},"action":"avoid","summary":"bad-avoid","bonus":0.4400000000000014},{"rt":439,"stimulus":"\n                    <p><b>Action: <em>avoid</em></b></p>\n                    <p>This is the bee that you just saw.</p>\n                    <img src=\"bees-with-color/bee-B1SF.svg\" width=\"200\">\n                    <p><br>Your bonus pay is unchanged, and remains at $0.62.</p>\n            ","response":0,"trial_type":"html-button-response","trial_index":114,"time_elapsed":332907,"internal_node_id":"0.0-4.0-1.53","subject_id":"613a585d6c895c58aac41740","study_id":"6197b3f67c2b5cd3b6d9596a","session_id":"6197b9f182523e6a5f691b53","condition":"contingent","relevant_dimensions":["wings","pattern"],"bee_group":{"antennae":"X","wings":"1","pattern":"D","legs":"X"},"bonus":0.4400000000000014},{"rt":489,"stimulus":"bees-with-color/bee-B1DF.svg","response":0,"trial_type":"image-button-response","trial_index":115,"time_elapsed":333398,"internal_node_id":"0.0-4.0-0.54","subject_id":"613a585d6c895c58aac41740","study_id":"6197b3f67c2b5cd3b6d9596a","session_id":"6197b9f182523e6a5f691b53","condition":"contingent","relevant_dimensions":["wings","pattern"],"bee_group":{"antennae":"X","wings":"1","pattern":"D","legs":"X"},"action":"harvest","summary":"bad-harvest","bonus":0.4400000000000014},{"rt":773.7000000029802,"stimulus":"\n                    <p><b>Action: <em>harvest</em></b></p>\n                    <p>This is the bee that you just saw.</p>\n                    <img src=\"bees-with-color/bee-B1DF.svg\" width=\"200\">\n                    <p><span class=\"redText\">Bad choice, the bee was angry.</span><br><b>You have been stung!</b><br>Your pay has been decreased by $0.10. Your bonus pay is now $0.52.</p>\n            ","response":0,"trial_type":"html-button-response","trial_index":116,"time_elapsed":334173,"internal_node_id":"0.0-4.0-1.54","subject_id":"613a585d6c895c58aac41740","study_id":"6197b3f67c2b5cd3b6d9596a","session_id":"6197b9f182523e6a5f691b53","condition":"contingent","relevant_dimensions":["wings","pattern"],"bee_group":{"antennae":"X","wings":"1","pattern":"D","legs":"X"},"bonus":0.4400000000000014},{"rt":2581.9000000059605,"stimulus":"bees-with-color/bee-A1SF.svg","response":0,"trial_type":"image-button-response","trial_index":117,"time_elapsed":336757,"internal_node_id":"0.0-4.0-0.55","subject_id":"613a585d6c895c58aac41740","study_id":"6197b3f67c2b5cd3b6d9596a","session_id":"6197b9f182523e6a5f691b53","condition":"contingent","relevant_dimensions":["wings","pattern"],"bee_group":{"antennae":"X","wings":"1","pattern":"D","legs":"X"},"action":"harvest","summary":"good-harvest","bonus":0.4400000000000014},{"rt":554.2000000029802,"stimulus":"\n                    <p><b>Action: <em>harvest</em></b></p>\n                    <p>This is the bee that you just saw.</p>\n                    <img src=\"bees-with-color/bee-A1SF.svg\" width=\"200\">\n                    <p><span class=\"greenText\"><b>Successful harvest!</b></span><br>Your pay has increased by $0.02. Your bonus pay is now $0.54.</p>\n            ","response":0,"trial_type":"html-button-response","trial_index":118,"time_elapsed":337313,"internal_node_id":"0.0-4.0-1.55","subject_id":"613a585d6c895c58aac41740","study_id":"6197b3f67c2b5cd3b6d9596a","session_id":"6197b9f182523e6a5f691b53","condition":"contingent","relevant_dimensions":["wings","pattern"],"bee_group":{"antennae":"X","wings":"1","pattern":"D","legs":"X"},"bonus":0.4400000000000014},{"rt":559.7000000029802,"stimulus":"bees-with-color/bee-B2SF.svg","response":0,"trial_type":"image-button-response","trial_index":119,"time_elapsed":337874,"internal_node_id":"0.0-4.0-0.56","subject_id":"613a585d6c895c58aac41740","study_id":"6197b3f67c2b5cd3b6d9596a","session_id":"6197b9f182523e6a5f691b53","condition":"contingent","relevant_dimensions":["wings","pattern"],"bee_group":{"antennae":"X","wings":"1","pattern":"D","legs":"X"},"action":"harvest","summary":"good-harvest","bonus":0.4400000000000014},{"rt":528.3999999910593,"stimulus":"\n                    <p><b>Action: <em>harvest</em></b></p>\n                    <p>This is the bee that you just saw.</p>\n                    <img src=\"bees-with-color/bee-B2SF.svg\" width=\"200\">\n                    <p><span class=\"greenText\"><b>Successful harvest!</b></span><br>Your pay has increased by $0.02. Your bonus pay is now $0.56.</p>\n            ","response":0,"trial_type":"html-button-response","trial_index":120,"time_elapsed":338404,"internal_node_id":"0.0-4.0-1.56","subject_id":"613a585d6c895c58aac41740","study_id":"6197b3f67c2b5cd3b6d9596a","session_id":"6197b9f182523e6a5f691b53","condition":"contingent","relevant_dimensions":["wings","pattern"],"bee_group":{"antennae":"X","wings":"1","pattern":"D","legs":"X"},"bonus":0.4400000000000014},{"rt":564.7999999970198,"stimulus":"bees-with-color/bee-A1DM.svg","response":0,"trial_type":"image-button-response","trial_index":121,"time_elapsed":338970,"internal_node_id":"0.0-4.0-0.57","subject_id":"613a585d6c895c58aac41740","study_id":"6197b3f67c2b5cd3b6d9596a","session_id":"6197b9f182523e6a5f691b53","condition":"contingent","relevant_dimensions":["wings","pattern"],"bee_group":{"antennae":"X","wings":"1","pattern":"D","legs":"X"},"action":"harvest","summary":"bad-harvest","bonus":0.4400000000000014},{"rt":889.2999999970198,"stimulus":"\n                    <p><b>Action: <em>harvest</em></b></p>\n                    <p>This is the bee that you just saw.</p>\n                    <img src=\"bees-with-color/bee-A1DM.svg\" width=\"200\">\n                    <p><span class=\"redText\">Bad choice, the bee was angry.</span><br><b>You have been stung!</b><br>Your pay has been decreased by $0.10. Your bonus pay is now $0.46.</p>\n            ","response":0,"trial_type":"html-button-response","trial_index":122,"time_elapsed":339861,"internal_node_id":"0.0-4.0-1.57","subject_id":"613a585d6c895c58aac41740","study_id":"6197b3f67c2b5cd3b6d9596a","session_id":"6197b9f182523e6a5f691b53","condition":"contingent","relevant_dimensions":["wings","pattern"],"bee_group":{"antennae":"X","wings":"1","pattern":"D","legs":"X"},"bonus":0.4400000000000014},{"rt":449.70000000298023,"stimulus":"bees-with-color/bee-B2DM.svg","response":0,"trial_type":"image-button-response","trial_index":123,"time_elapsed":340312,"internal_node_id":"0.0-4.0-0.58","subject_id":"613a585d6c895c58aac41740","study_id":"6197b3f67c2b5cd3b6d9596a","session_id":"6197b9f182523e6a5f691b53","condition":"contingent","relevant_dimensions":["wings","pattern"],"bee_group":{"antennae":"X","wings":"1","pattern":"D","legs":"X"},"action":"harvest","summary":"good-harvest","bonus":0.4400000000000014},{"rt":598.2999999970198,"stimulus":"\n                    <p><b>Action: <em>harvest</em></b></p>\n                    <p>This is the bee that you just saw.</p>\n                    <img src=\"bees-with-color/bee-B2DM.svg\" width=\"200\">\n                    <p><span class=\"greenText\"><b>Successful harvest!</b></span><br>Your pay has increased by $0.02. Your bonus pay is now $0.48.</p>\n            ","response":0,"trial_type":"html-button-response","trial_index":124,"time_elapsed":340912,"internal_node_id":"0.0-4.0-1.58","subject_id":"613a585d6c895c58aac41740","study_id":"6197b3f67c2b5cd3b6d9596a","session_id":"6197b9f182523e6a5f691b53","condition":"contingent","relevant_dimensions":["wings","pattern"],"bee_group":{"antennae":"X","wings":"1","pattern":"D","legs":"X"},"bonus":0.4400000000000014},{"rt":1285.800000011921,"stimulus":"bees-with-color/bee-B2DF.svg","response":0,"trial_type":"image-button-response","trial_index":125,"time_elapsed":342199,"internal_node_id":"0.0-4.0-0.59","subject_id":"613a585d6c895c58aac41740","study_id":"6197b3f67c2b5cd3b6d9596a","session_id":"6197b9f182523e6a5f691b53","condition":"contingent","relevant_dimensions":["wings","pattern"],"bee_group":{"antennae":"X","wings":"1","pattern":"D","legs":"X"},"action":"harvest","summary":"good-harvest","bonus":0.4400000000000014},{"rt":474.20000000298023,"stimulus":"\n                    <p><b>Action: <em>harvest</em></b></p>\n                    <p>This is the bee that you just saw.</p>\n                    <img src=\"bees-with-color/bee-B2DF.svg\" width=\"200\">\n                    <p><span class=\"greenText\"><b>Successful harvest!</b></span><br>Your pay has increased by $0.02. Your bonus pay is now $0.50.</p>\n            ","response":0,"trial_type":"html-button-response","trial_index":126,"time_elapsed":342675,"internal_node_id":"0.0-4.0-1.59","subject_id":"613a585d6c895c58aac41740","study_id":"6197b3f67c2b5cd3b6d9596a","session_id":"6197b9f182523e6a5f691b53","condition":"contingent","relevant_dimensions":["wings","pattern"],"bee_group":{"antennae":"X","wings":"1","pattern":"D","legs":"X"},"bonus":0.4400000000000014},{"rt":1084.8999999910593,"stimulus":"bees-with-color/bee-A1SM.svg","response":0,"trial_type":"image-button-response","trial_index":127,"time_elapsed":343761,"internal_node_id":"0.0-4.0-0.60","subject_id":"613a585d6c895c58aac41740","study_id":"6197b3f67c2b5cd3b6d9596a","session_id":"6197b9f182523e6a5f691b53","condition":"contingent","relevant_dimensions":["wings","pattern"],"bee_group":{"antennae":"X","wings":"1","pattern":"D","legs":"X"},"action":"harvest","summary":"good-harvest","bonus":0.4400000000000014},{"rt":448.09999999403954,"stimulus":"\n                    <p><b>Action: <em>harvest</em></b></p>\n                    <p>This is the bee that you just saw.</p>\n                    <img src=\"bees-with-color/bee-A1SM.svg\" width=\"200\">\n                    <p><span class=\"greenText\"><b>Successful harvest!</b></span><br>Your pay has increased by $0.02. Your bonus pay is now $0.52.</p>\n            ","response":0,"trial_type":"html-button-response","trial_index":128,"time_elapsed":344211,"internal_node_id":"0.0-4.0-1.60","subject_id":"613a585d6c895c58aac41740","study_id":"6197b3f67c2b5cd3b6d9596a","session_id":"6197b9f182523e6a5f691b53","condition":"contingent","relevant_dimensions":["wings","pattern"],"bee_group":{"antennae":"X","wings":"1","pattern":"D","legs":"X"},"bonus":0.4400000000000014},{"rt":795.0999999940395,"stimulus":"bees-with-color/bee-B1DM.svg","response":0,"trial_type":"image-button-response","trial_index":129,"time_elapsed":345007,"internal_node_id":"0.0-4.0-0.61","subject_id":"613a585d6c895c58aac41740","study_id":"6197b3f67c2b5cd3b6d9596a","session_id":"6197b9f182523e6a5f691b53","condition":"contingent","relevant_dimensions":["wings","pattern"],"bee_group":{"antennae":"X","wings":"1","pattern":"D","legs":"X"},"action":"harvest","summary":"bad-harvest","bonus":0.4400000000000014},{"rt":869.0999999940395,"stimulus":"\n                    <p><b>Action: <em>harvest</em></b></p>\n                    <p>This is the bee that you just saw.</p>\n                    <img src=\"bees-with-color/bee-B1DM.svg\" width=\"200\">\n                    <p><span class=\"redText\">Bad choice, the bee was angry.</span><br><b>You have been stung!</b><br>Your pay has been decreased by $0.10. Your bonus pay is now $0.42.</p>\n            ","response":0,"trial_type":"html-button-response","trial_index":130,"time_elapsed":345878,"internal_node_id":"0.0-4.0-1.61","subject_id":"613a585d6c895c58aac41740","study_id":"6197b3f67c2b5cd3b6d9596a","session_id":"6197b9f182523e6a5f691b53","condition":"contingent","relevant_dimensions":["wings","pattern"],"bee_group":{"antennae":"X","wings":"1","pattern":"D","legs":"X"},"bonus":0.4400000000000014},{"rt":740.1000000089407,"stimulus":"bees-with-color/bee-B1SM.svg","response":0,"trial_type":"image-button-response","trial_index":131,"time_elapsed":346620,"internal_node_id":"0.0-4.0-0.62","subject_id":"613a585d6c895c58aac41740","study_id":"6197b3f67c2b5cd3b6d9596a","session_id":"6197b9f182523e6a5f691b53","condition":"contingent","relevant_dimensions":["wings","pattern"],"bee_group":{"antennae":"X","wings":"1","pattern":"D","legs":"X"},"action":"harvest","summary":"good-harvest","bonus":0.4400000000000014},{"rt":459,"stimulus":"\n                    <p><b>Action: <em>harvest</em></b></p>\n                    <p>This is the bee that you just saw.</p>\n                    <img src=\"bees-with-color/bee-B1SM.svg\" width=\"200\">\n                    <p><span class=\"greenText\"><b>Successful harvest!</b></span><br>Your pay has increased by $0.02. Your bonus pay is now $0.44.</p>\n            ","response":0,"trial_type":"html-button-response","trial_index":132,"time_elapsed":347080,"internal_node_id":"0.0-4.0-1.62","subject_id":"613a585d6c895c58aac41740","study_id":"6197b3f67c2b5cd3b6d9596a","session_id":"6197b9f182523e6a5f691b53","condition":"contingent","relevant_dimensions":["wings","pattern"],"bee_group":{"antennae":"X","wings":"1","pattern":"D","legs":"X"},"bonus":0.4400000000000014},{"rt":1269.7999999970198,"stimulus":"bees-with-color/bee-A2SM.svg","response":0,"trial_type":"image-button-response","trial_index":133,"time_elapsed":348352,"internal_node_id":"0.0-4.0-0.63","subject_id":"613a585d6c895c58aac41740","study_id":"6197b3f67c2b5cd3b6d9596a","session_id":"6197b9f182523e6a5f691b53","condition":"contingent","relevant_dimensions":["wings","pattern"],"bee_group":{"antennae":"X","wings":"1","pattern":"D","legs":"X"},"action":"harvest","summary":"good-harvest","bonus":0.4400000000000014},{"rt":494.40000000596046,"stimulus":"\n                    <p><b>Action: <em>harvest</em></b></p>\n                    <p>This is the bee that you just saw.</p>\n                    <img src=\"bees-with-color/bee-A2SM.svg\" width=\"200\">\n                    <p><span class=\"greenText\"><b>Successful harvest!</b></span><br>Your pay has increased by $0.02. Your bonus pay is now $0.46.</p>\n            ","response":0,"trial_type":"html-button-response","trial_index":134,"time_elapsed":348848,"internal_node_id":"0.0-4.0-1.63","subject_id":"613a585d6c895c58aac41740","study_id":"6197b3f67c2b5cd3b6d9596a","session_id":"6197b9f182523e6a5f691b53","condition":"contingent","relevant_dimensions":["wings","pattern"],"bee_group":{"antennae":"X","wings":"1","pattern":"D","legs":"X"},"bonus":0.4400000000000014},{"rt":2890.5,"stimulus":"You have completed the first part of this experiment.<br><br>You will now begin a shorter second part, in which you will receive no feedback.<br>The same rules regarding bonus pay apply.<br><br>Press any key to begin.","response":"meta","trial_type":"html-keyboard-response","trial_index":135,"time_elapsed":351741,"internal_node_id":"0.0-5.0","subject_id":"613a585d6c895c58aac41740","study_id":"6197b3f67c2b5cd3b6d9596a","session_id":"6197b9f182523e6a5f691b53","condition":"contingent","relevant_dimensions":["wings","pattern"],"bee_group":{"antennae":"X","wings":"1","pattern":"D","legs":"X"},"bonus":0.4400000000000014},{"rt":15783.09999999404,"stimulus":"bees-with-color/bee-B1DM.svg","response":0,"trial_type":"image-button-response","trial_index":136,"time_elapsed":367532,"internal_node_id":"0.0-6.0-0.0","subject_id":"613a585d6c895c58aac41740","study_id":"6197b3f67c2b5cd3b6d9596a","session_id":"6197b9f182523e6a5f691b53","condition":"contingent","relevant_dimensions":["wings","pattern"],"bee_group":{"antennae":"X","wings":"1","pattern":"D","legs":"X"},"bonus":0.4400000000000014},{"rt":968.7000000029802,"stimulus":"bees-with-color/bee-A2SF.svg","response":0,"trial_type":"image-button-response","trial_index":137,"time_elapsed":368503,"internal_node_id":"0.0-6.0-0.1","subject_id":"613a585d6c895c58aac41740","study_id":"6197b3f67c2b5cd3b6d9596a","session_id":"6197b9f182523e6a5f691b53","condition":"contingent","relevant_dimensions":["wings","pattern"],"bee_group":{"antennae":"X","wings":"1","pattern":"D","legs":"X"},"bonus":0.4400000000000014},{"rt":834.2000000029802,"stimulus":"bees-with-color/bee-A2DF.svg","response":1,"trial_type":"image-button-response","trial_index":138,"time_elapsed":369339,"internal_node_id":"0.0-6.0-0.2","subject_id":"613a585d6c895c58aac41740","study_id":"6197b3f67c2b5cd3b6d9596a","session_id":"6197b9f182523e6a5f691b53","condition":"contingent","relevant_dimensions":["wings","pattern"],"bee_group":{"antennae":"X","wings":"1","pattern":"D","legs":"X"},"bonus":0.4400000000000014},{"rt":823.6999999880791,"stimulus":"bees-with-color/bee-A1SM.svg","response":0,"trial_type":"image-button-response","trial_index":139,"time_elapsed":370165,"internal_node_id":"0.0-6.0-0.3","subject_id":"613a585d6c895c58aac41740","study_id":"6197b3f67c2b5cd3b6d9596a","session_id":"6197b9f182523e6a5f691b53","condition":"contingent","relevant_dimensions":["wings","pattern"],"bee_group":{"antennae":"X","wings":"1","pattern":"D","legs":"X"},"bonus":0.4400000000000014},{"rt":664.1000000089407,"stimulus":"bees-with-color/bee-B2SF.svg","response":0,"trial_type":"image-button-response","trial_index":140,"time_elapsed":370831,"internal_node_id":"0.0-6.0-0.4","subject_id":"613a585d6c895c58aac41740","study_id":"6197b3f67c2b5cd3b6d9596a","session_id":"6197b9f182523e6a5f691b53","condition":"contingent","relevant_dimensions":["wings","pattern"],"bee_group":{"antennae":"X","wings":"1","pattern":"D","legs":"X"},"bonus":0.4400000000000014},{"rt":879.3000000119209,"stimulus":"bees-with-color/bee-B2DF.svg","response":1,"trial_type":"image-button-response","trial_index":141,"time_elapsed":371713,"internal_node_id":"0.0-6.0-0.5","subject_id":"613a585d6c895c58aac41740","study_id":"6197b3f67c2b5cd3b6d9596a","session_id":"6197b9f182523e6a5f691b53","condition":"contingent","relevant_dimensions":["wings","pattern"],"bee_group":{"antennae":"X","wings":"1","pattern":"D","legs":"X"},"bonus":0.4400000000000014},{"rt":979.7999999970198,"stimulus":"bees-with-color/bee-A1DF.svg","response":1,"trial_type":"image-button-response","trial_index":142,"time_elapsed":372694,"internal_node_id":"0.0-6.0-0.6","subject_id":"613a585d6c895c58aac41740","study_id":"6197b3f67c2b5cd3b6d9596a","session_id":"6197b9f182523e6a5f691b53","condition":"contingent","relevant_dimensions":["wings","pattern"],"bee_group":{"antennae":"X","wings":"1","pattern":"D","legs":"X"},"bonus":0.4400000000000014},{"rt":478.29999999701977,"stimulus":"bees-with-color/bee-B2SM.svg","response":0,"trial_type":"image-button-response","trial_index":143,"time_elapsed":373175,"internal_node_id":"0.0-6.0-0.7","subject_id":"613a585d6c895c58aac41740","study_id":"6197b3f67c2b5cd3b6d9596a","session_id":"6197b9f182523e6a5f691b53","condition":"contingent","relevant_dimensions":["wings","pattern"],"bee_group":{"antennae":"X","wings":"1","pattern":"D","legs":"X"},"bonus":0.4400000000000014},{"rt":929.0999999940395,"stimulus":"bees-with-color/bee-B1DF.svg","response":1,"trial_type":"image-button-response","trial_index":144,"time_elapsed":374107,"internal_node_id":"0.0-6.0-0.8","subject_id":"613a585d6c895c58aac41740","study_id":"6197b3f67c2b5cd3b6d9596a","session_id":"6197b9f182523e6a5f691b53","condition":"contingent","relevant_dimensions":["wings","pattern"],"bee_group":{"antennae":"X","wings":"1","pattern":"D","legs":"X"},"bonus":0.4400000000000014},{"rt":472.40000000596046,"stimulus":"bees-with-color/bee-B1SF.svg","response":0,"trial_type":"image-button-response","trial_index":145,"time_elapsed":374581,"internal_node_id":"0.0-6.0-0.9","subject_id":"613a585d6c895c58aac41740","study_id":"6197b3f67c2b5cd3b6d9596a","session_id":"6197b9f182523e6a5f691b53","condition":"contingent","relevant_dimensions":["wings","pattern"],"bee_group":{"antennae":"X","wings":"1","pattern":"D","legs":"X"},"bonus":0.4400000000000014},{"rt":574.5,"stimulus":"bees-with-color/bee-B2DM.svg","response":0,"trial_type":"image-button-response","trial_index":146,"time_elapsed":375158,"internal_node_id":"0.0-6.0-0.10","subject_id":"613a585d6c895c58aac41740","study_id":"6197b3f67c2b5cd3b6d9596a","session_id":"6197b9f182523e6a5f691b53","condition":"contingent","relevant_dimensions":["wings","pattern"],"bee_group":{"antennae":"X","wings":"1","pattern":"D","legs":"X"},"bonus":0.4400000000000014},{"rt":1309.8999999910593,"stimulus":"bees-with-color/bee-A1DM.svg","response":1,"trial_type":"image-button-response","trial_index":147,"time_elapsed":376470,"internal_node_id":"0.0-6.0-0.11","subject_id":"613a585d6c895c58aac41740","study_id":"6197b3f67c2b5cd3b6d9596a","session_id":"6197b9f182523e6a5f691b53","condition":"contingent","relevant_dimensions":["wings","pattern"],"bee_group":{"antennae":"X","wings":"1","pattern":"D","legs":"X"},"bonus":0.4400000000000014},{"rt":478.3999999910593,"stimulus":"bees-with-color/bee-B1SM.svg","response":0,"trial_type":"image-button-response","trial_index":148,"time_elapsed":376950,"internal_node_id":"0.0-6.0-0.12","subject_id":"613a585d6c895c58aac41740","study_id":"6197b3f67c2b5cd3b6d9596a","session_id":"6197b9f182523e6a5f691b53","condition":"contingent","relevant_dimensions":["wings","pattern"],"bee_group":{"antennae":"X","wings":"1","pattern":"D","legs":"X"},"bonus":0.4400000000000014},{"rt":1209.7000000029802,"stimulus":"bees-with-color/bee-A2DM.svg","response":1,"trial_type":"image-button-response","trial_index":149,"time_elapsed":378162,"internal_node_id":"0.0-6.0-0.13","subject_id":"613a585d6c895c58aac41740","study_id":"6197b3f67c2b5cd3b6d9596a","session_id":"6197b9f182523e6a5f691b53","condition":"contingent","relevant_dimensions":["wings","pattern"],"bee_group":{"antennae":"X","wings":"1","pattern":"D","legs":"X"},"bonus":0.4400000000000014},{"rt":407.90000000596046,"stimulus":"bees-with-color/bee-A2SM.svg","response":0,"trial_type":"image-button-response","trial_index":150,"time_elapsed":378572,"internal_node_id":"0.0-6.0-0.14","subject_id":"613a585d6c895c58aac41740","study_id":"6197b3f67c2b5cd3b6d9596a","session_id":"6197b9f182523e6a5f691b53","condition":"contingent","relevant_dimensions":["wings","pattern"],"bee_group":{"antennae":"X","wings":"1","pattern":"D","legs":"X"},"bonus":0.4400000000000014},{"rt":1585.8999999910593,"stimulus":"bees-with-color/bee-A1SF.svg","response":0,"trial_type":"image-button-response","trial_index":151,"time_elapsed":380160,"internal_node_id":"0.0-6.0-0.15","subject_id":"613a585d6c895c58aac41740","study_id":"6197b3f67c2b5cd3b6d9596a","session_id":"6197b9f182523e6a5f691b53","condition":"contingent","relevant_dimensions":["wings","pattern"],"bee_group":{"antennae":"X","wings":"1","pattern":"D","legs":"X"},"bonus":0.4400000000000014},{"rt":919.4000000059605,"stimulus":"bees-with-color/bee-A1DM.svg","response":0,"trial_type":"image-button-response","trial_index":152,"time_elapsed":381081,"internal_node_id":"0.0-6.0-0.16","subject_id":"613a585d6c895c58aac41740","study_id":"6197b3f67c2b5cd3b6d9596a","session_id":"6197b9f182523e6a5f691b53","condition":"contingent","relevant_dimensions":["wings","pattern"],"bee_group":{"antennae":"X","wings":"1","pattern":"D","legs":"X"},"bonus":0.4400000000000014},{"rt":664.1999999880791,"stimulus":"bees-with-color/bee-A1DF.svg","response":0,"trial_type":"image-button-response","trial_index":153,"time_elapsed":381747,"internal_node_id":"0.0-6.0-0.17","subject_id":"613a585d6c895c58aac41740","study_id":"6197b3f67c2b5cd3b6d9596a","session_id":"6197b9f182523e6a5f691b53","condition":"contingent","relevant_dimensions":["wings","pattern"],"bee_group":{"antennae":"X","wings":"1","pattern":"D","legs":"X"},"bonus":0.4400000000000014},{"rt":783.6999999880791,"stimulus":"bees-with-color/bee-A2DM.svg","response":0,"trial_type":"image-button-response","trial_index":154,"time_elapsed":382533,"internal_node_id":"0.0-6.0-0.18","subject_id":"613a585d6c895c58aac41740","study_id":"6197b3f67c2b5cd3b6d9596a","session_id":"6197b9f182523e6a5f691b53","condition":"contingent","relevant_dimensions":["wings","pattern"],"bee_group":{"antennae":"X","wings":"1","pattern":"D","legs":"X"},"bonus":0.4400000000000014},{"rt":814.2999999970198,"stimulus":"bees-with-color/bee-A1SF.svg","response":1,"trial_type":"image-button-response","trial_index":155,"time_elapsed":383349,"internal_node_id":"0.0-6.0-0.19","subject_id":"613a585d6c895c58aac41740","study_id":"6197b3f67c2b5cd3b6d9596a","session_id":"6197b9f182523e6a5f691b53","condition":"contingent","relevant_dimensions":["wings","pattern"],"bee_group":{"antennae":"X","wings":"1","pattern":"D","legs":"X"},"bonus":0.4400000000000014},{"rt":298.40000000596046,"stimulus":"bees-with-color/bee-A2SM.svg","response":0,"trial_type":"image-button-response","trial_index":156,"time_elapsed":383650,"internal_node_id":"0.0-6.0-0.20","subject_id":"613a585d6c895c58aac41740","study_id":"6197b3f67c2b5cd3b6d9596a","session_id":"6197b9f182523e6a5f691b53","condition":"contingent","relevant_dimensions":["wings","pattern"],"bee_group":{"antennae":"X","wings":"1","pattern":"D","legs":"X"},"bonus":0.4400000000000014},{"rt":843.7999999970198,"stimulus":"bees-with-color/bee-B2DM.svg","response":1,"trial_type":"image-button-response","trial_index":157,"time_elapsed":384495,"internal_node_id":"0.0-6.0-0.21","subject_id":"613a585d6c895c58aac41740","study_id":"6197b3f67c2b5cd3b6d9596a","session_id":"6197b9f182523e6a5f691b53","condition":"contingent","relevant_dimensions":["wings","pattern"],"bee_group":{"antennae":"X","wings":"1","pattern":"D","legs":"X"},"bonus":0.4400000000000014},{"rt":424.1000000089407,"stimulus":"bees-with-color/bee-A1SM.svg","response":0,"trial_type":"image-button-response","trial_index":158,"time_elapsed":384921,"internal_node_id":"0.0-6.0-0.22","subject_id":"613a585d6c895c58aac41740","study_id":"6197b3f67c2b5cd3b6d9596a","session_id":"6197b9f182523e6a5f691b53","condition":"contingent","relevant_dimensions":["wings","pattern"],"bee_group":{"antennae":"X","wings":"1","pattern":"D","legs":"X"},"bonus":0.4400000000000014},{"rt":584.2999999970198,"stimulus":"bees-with-color/bee-B2SF.svg","response":0,"trial_type":"image-button-response","trial_index":159,"time_elapsed":385507,"internal_node_id":"0.0-6.0-0.23","subject_id":"613a585d6c895c58aac41740","study_id":"6197b3f67c2b5cd3b6d9596a","session_id":"6197b9f182523e6a5f691b53","condition":"contingent","relevant_dimensions":["wings","pattern"],"bee_group":{"antennae":"X","wings":"1","pattern":"D","legs":"X"},"bonus":0.4400000000000014},{"rt":694.4000000059605,"stimulus":"bees-with-color/bee-B2SM.svg","response":0,"trial_type":"image-button-response","trial_index":160,"time_elapsed":386203,"internal_node_id":"0.0-6.0-0.24","subject_id":"613a585d6c895c58aac41740","study_id":"6197b3f67c2b5cd3b6d9596a","session_id":"6197b9f182523e6a5f691b53","condition":"contingent","relevant_dimensions":["wings","pattern"],"bee_group":{"antennae":"X","wings":"1","pattern":"D","legs":"X"},"bonus":0.4400000000000014},{"rt":1249.5999999940