[{"success":true,"trial_type":"fullscreen","trial_index":0,"time_elapsed":4470,"internal_node_id":"0.0-0.0","subject_id":"616efbb6f50360c197614d1d","study_id":"6197b3f67c2b5cd3b6d9596a","session_id":"619beef1216ff385cdcccf44","condition":"contingent","relevant_dimensions":["antennae","legs"],"bee_group":{"antennae":"A","wings":"X","pattern":"X","legs":"M"},"bonus":1.020000000000001},{"success":true,"timeout":false,"failed_images":[],"failed_audio":[],"failed_video":[],"trial_type":"preload","trial_index":1,"time_elapsed":6142,"internal_node_id":"0.0-1.0","subject_id":"616efbb6f50360c197614d1d","study_id":"6197b3f67c2b5cd3b6d9596a","session_id":"619beef1216ff385cdcccf44","condition":"contingent","relevant_dimensions":["antennae","legs"],"bee_group":{"antennae":"A","wings":"X","pattern":"X","legs":"M"},"bonus":1.020000000000001},{"rt":2062.7999999523163,"stimulus":"Welcome! Press any key to begin.","response":"g","trial_type":"html-keyboard-response","trial_index":2,"time_elapsed":8208,"internal_node_id":"0.0-2.0","subject_id":"616efbb6f50360c197614d1d","study_id":"6197b3f67c2b5cd3b6d9596a","session_id":"619beef1216ff385cdcccf44","condition":"contingent","relevant_dimensions":["antennae","legs"],"bee_group":{"antennae":"A","wings":"X","pattern":"X","legs":"M"},"bonus":1.020000000000001},{"view_history":[{"page_index":0,"viewing_time":5563.700000047684},{"page_index":1,"viewing_time":9705.899999976158},{"page_index":2,"viewing_time":9159.5},{"page_index":3,"viewing_time":8739.600000023842},{"page_index":4,"viewing_time":5390.700000047684},{"page_index":5,"viewing_time":6209.299999952316},{"page_index":6,"viewing_time":9366.799999952316},{"page_index":7,"viewing_time":24180.100000023842},{"page_index":8,"viewing_time":2880.399999976158},{"page_index":9,"viewing_time":2538.9000000953674},{"page_index":10,"viewing_time":2048.399999976158},{"page_index":11,"viewing_time":6225.399999976158},{"page_index":12,"viewing_time":5607.700000047684},{"page_index":13,"viewing_time":1713.2999999523163},{"page_index":14,"viewing_time":1888.1000000238419}],"rt":101219.20000004768,"trial_type":"instructions","trial_index":3,"time_elapsed":109430,"internal_node_id":"0.0-3.0-0.0","subject_id":"616efbb6f50360c197614d1d","study_id":"6197b3f67c2b5cd3b6d9596a","session_id":"619beef1216ff385cdcccf44","condition":"contingent","relevant_dimensions":["antennae","legs"],"bee_group":{"antennae":"A","wings":"X","pattern":"X","legs":"M"},"bonus":1.020000000000001},{"rt":12156,"response":{"Q0":["Two or six legs","Stripes or spots on body","Stinger or no stinger","Single or double wings","Antennae or no antennae"]},"question_order":[0],"trial_type":"survey-multi-select","trial_index":4,"time_elapsed":121620,"internal_node_id":"0.0-3.0-1.0","subject_id":"616efbb6f50360c197614d1d","study_id":"6197b3f67c2b5cd3b6d9596a","session_id":"619beef1216ff385cdcccf44","condition":"contingent","relevant_dimensions":["antennae","legs"],"bee_group":{"antennae":"A","wings":"X","pattern":"X","legs":"M"},"correct":false,"bonus":1.020000000000001},{"rt":19915.399999976158,"response":{"Q1":"No.","Q2":"Based on the four features of the bee.","Q3":"You do not learn if it was friendly or dangerous, and do not alter your bonus."},"question_order":[0,1,2],"trial_type":"survey-multi-choice","trial_index":5,"time_elapsed":141549,"internal_node_id":"0.0-3.0-2.0","subject_id":"616efbb6f50360c197614d1d","study_id":"6197b3f67c2b5cd3b6d9596a","session_id":"619beef1216ff385cdcccf44","condition":"contingent","relevant_dimensions":["antennae","legs"],"bee_group":{"antennae":"A","wings":"X","pattern":"X","legs":"M"},"correct":true,"bonus":1.020000000000001},{"rt":3270.2999999523163,"stimulus":"<p>You did not answer all comprehension questions correctly.<br>Press <b>continue</b> to review the instructions again.</p>","response":0,"trial_type":"html-button-response","trial_index":6,"time_elapsed":144827,"internal_node_id":"0.0-3.0-3.0","subject_id":"616efbb6f50360c197614d1d","study_id":"6197b3f67c2b5cd3b6d9596a","session_id":"619beef1216ff385cdcccf44","condition":"contingent","relevant_dimensions":["antennae","legs"],"bee_group":{"antennae":"A","wings":"X","pattern":"X","legs":"M"},"bonus":1.020000000000001},{"view_history":[{"page_index":0,"viewing_time":2237.7999999523163},{"page_index":1,"viewing_time":1374.3000000715256},{"page_index":2,"viewing_time":1414.5},{"page_index":3,"viewing_time":1360.5},{"page_index":4,"viewing_time":1491.6000000238419},{"page_index":5,"viewing_time":1161.1999999284744},{"page_index":4,"viewing_time":1100.3999999761581},{"page_index":5,"viewing_time":435.8000000715256},{"page_index":6,"viewing_time":1483.1999999284744},{"page_index":7,"viewing_time":1629.2000000476837},{"page_index":8,"viewing_time":573.5},{"page_index":9,"viewing_time":621.7000000476837},{"page_index":10,"viewing_time":658.2999999523163},{"page_index":11,"viewing_time":1444.3999999761581},{"page_index":12,"viewing_time":2528.7000000476837},{"page_index":11,"viewing_time":1498.3999999761581},{"page_index":10,"viewing_time":1958.7000000476837},{"page_index":9,"viewing_time":1543},{"page_index":8,"viewing_time":1191.0999999046326},{"page_index":7,"viewing_time":1324.2000000476837},{"page_index":6,"viewing_time":1287},{"page_index":7,"viewing_time":1137.7000000476837},{"page_index":8,"viewing_time":662.2999999523163},{"page_index":9,"viewing_time":419.5},{"page_index":10,"viewing_time":571.7000000476837},{"page_index":11,"viewing_time":1900.2999999523163},{"page_index":12,"viewing_time":1707.2999999523163},{"page_index":13,"viewing_time":1489.8000000715256},{"page_index":14,"viewing_time":1501.5}],"rt":37708.700000047684,"trial_type":"instructions","trial_index":7,"time_elapsed":182541,"internal_node_id":"0.0-3.0-4.0-0.0","subject_id":"616efbb6f50360c197614d1d","study_id":"6197b3f67c2b5cd3b6d9596a","session_id":"619beef1216ff385cdcccf44","condition":"contingent","relevant_dimensions":["antennae","legs"],"bee_group":{"antennae":"A","wings":"X","pattern":"X","legs":"M"},"bonus":1.020000000000001},{"rt":7580.899999976158,"response":{"Q0":["Two or six legs","Stripes or spots on body","Single or double wings","Antennae or no antennae"]},"question_order":[0],"trial_type":"survey-multi-select","trial_index":8,"time_elapsed":190148,"internal_node_id":"0.0-3.0-4.0-1.0","subject_id":"616efbb6f50360c197614d1d","study_id":"6197b3f67c2b5cd3b6d9596a","session_id":"619beef1216ff385cdcccf44","condition":"contingent","relevant_dimensions":["antennae","legs"],"bee_group":{"antennae":"A","wings":"X","pattern":"X","legs":"M"},"correct":true,"bonus":1.020000000000001},{"rt":10680.800000071526,"response":{"Q1":"No.","Q2":"Based on the four features of the bee.","Q3":"You do not learn if it was friendly or dangerous, and do not alter your bonus."},"question_order":[0,1,2],"trial_type":"survey-multi-choice","trial_index":9,"time_elapsed":200836,"internal_node_id":"0.0-3.0-4.0-2.0","subject_id":"616efbb6f50360c197614d1d","study_id":"6197b3f67c2b5cd3b6d9596a","session_id":"619beef1216ff385cdcccf44","condition":"contingent","relevant_dimensions":["antennae","legs"],"bee_group":{"antennae":"A","wings":"X","pattern":"X","legs":"M"},"correct":true,"bonus":1.020000000000001},{"rt":2571.3000000715256,"stimulus":"<p>Congrats, you got everything right<br>When you're ready, click the button below to continue to the experiment.</p>","response":0,"trial_type":"html-button-response","trial_index":10,"time_elapsed":203413,"internal_node_id":"0.0-3.0-4.0-3.0","subject_id":"616efbb6f50360c197614d1d","study_id":"6197b3f67c2b5cd3b6d9596a","session_id":"619beef1216ff385cdcccf44","condition":"contingent","relevant_dimensions":["antennae","legs"],"bee_group":{"antennae":"A","wings":"X","pattern":"X","legs":"M"},"bonus":1.020000000000001},{"rt":5301.199999928474,"stimulus":"bees-with-color/bee-A1DM.svg","response":0,"trial_type":"image-button-response","trial_index":11,"time_elapsed":208725,"internal_node_id":"0.0-4.0-0.0","subject_id":"616efbb6f50360c197614d1d","study_id":"6197b3f67c2b5cd3b6d9596a","session_id":"619beef1216ff385cdcccf44","condition":"contingent","relevant_dimensions":["antennae","legs"],"bee_group":{"antennae":"A","wings":"X","pattern":"X","legs":"M"},"action":"harvest","summary":"bad-harvest","bonus":1.020000000000001},{"rt":6320.700000047684,"stimulus":"\n                    <p><b>Action: <em>harvest</em></b></p>\n                    <p>This is the bee that you just saw.</p>\n                    <img src=\"bees-with-color/bee-A1DM.svg\" width=\"200\">\n                    <p><span class=\"redText\">Bad choice, the bee was angry.</span><br><b>You have been stung!</b><br>Your pay has been decreased by $0.10. Your bonus pay is now $0.44.</p>\n            ","response":0,"trial_type":"html-button-response","trial_index":12,"time_elapsed":215061,"internal_node_id":"0.0-4.0-1.0","subject_id":"616efbb6f50360c197614d1d","study_id":"6197b3f67c2b5cd3b6d9596a","session_id":"619beef1216ff385cdcccf44","condition":"contingent","relevant_dimensions":["antennae","legs"],"bee_group":{"antennae":"A","wings":"X","pattern":"X","legs":"M"},"bonus":1.020000000000001},{"rt":2456.7000000476837,"stimulus":"bees-with-color/bee-B2SM.svg","response":0,"trial_type":"image-button-response","trial_index":13,"time_elapsed":217528,"internal_node_id":"0.0-4.0-0.1","subject_id":"616efbb6f50360c197614d1d","study_id":"6197b3f67c2b5cd3b6d9596a","session_id":"619beef1216ff385cdcccf44","condition":"contingent","relevant_dimensions":["antennae","legs"],"bee_group":{"antennae":"A","wings":"X","pattern":"X","legs":"M"},"action":"harvest","summary":"good-harvest","bonus":1.020000000000001},{"rt":2000.4000000953674,"stimulus":"\n                    <p><b>Action: <em>harvest</em></b></p>\n                    <p>This is the bee that you just saw.</p>\n                    <img src=\"bees-with-color/bee-B2SM.svg\" width=\"200\">\n                    <p><span class=\"greenText\"><b>Successful harvest!</b></span><br>Your pay has increased by $0.02. Your bonus pay is now $0.46.</p>\n            ","response":0,"trial_type":"html-button-response","trial_index":14,"time_elapsed":219535,"internal_node_id":"0.0-4.0-1.1","subject_id":"616efbb6f50360c197614d1d","study_id":"6197b3f67c2b5cd3b6d9596a","session_id":"619beef1216ff385cdcccf44","condition":"contingent","relevant_dimensions":["antennae","legs"],"bee_group":{"antennae":"A","wings":"X","pattern":"X","legs":"M"},"bonus":1.020000000000001},{"rt":1738.2000000476837,"stimulus":"bees-with-color/bee-A1DF.svg","response":1,"trial_type":"image-button-response","trial_index":15,"time_elapsed":221283,"internal_node_id":"0.0-4.0-0.2","subject_id":"616efbb6f50360c197614d1d","study_id":"6197b3f67c2b5cd3b6d9596a","session_id":"619beef1216ff385cdcccf44","condition":"contingent","relevant_dimensions":["antennae","legs"],"bee_group":{"antennae":"A","wings":"X","pattern":"X","legs":"M"},"action":"avoid","summary":"bad-avoid","bonus":1.020000000000001},{"rt":1732.5,"stimulus":"\n                    <p><b>Action: <em>avoid</em></b></p>\n                    <p>This is the bee that you just saw.</p>\n                    <img src=\"bees-with-color/bee-A1DF.svg\" width=\"200\">\n                    <p><br>Your bonus pay is unchanged, and remains at $0.46.</p>\n            ","response":0,"trial_type":"html-button-response","trial_index":16,"time_elapsed":223019,"internal_node_id":"0.0-4.0-1.2","subject_id":"616efbb6f50360c197614d1d","study_id":"6197b3f67c2b5cd3b6d9596a","session_id":"619beef1216ff385cdcccf44","condition":"contingent","relevant_dimensions":["antennae","legs"],"bee_group":{"antennae":"A","wings":"X","pattern":"X","legs":"M"},"bonus":1.020000000000001},{"rt":2319.5999999046326,"stimulus":"bees-with-color/bee-B1SM.svg","response":0,"trial_type":"image-button-response","trial_index":17,"time_elapsed":225344,"internal_node_id":"0.0-4.0-0.3","subject_id":"616efbb6f50360c197614d1d","study_id":"6197b3f67c2b5cd3b6d9596a","session_id":"619beef1216ff385cdcccf44","condition":"contingent","relevant_dimensions":["antennae","legs"],"bee_group":{"antennae":"A","wings":"X","pattern":"X","legs":"M"},"action":"harvest","summary":"good-harvest","bonus":1.020000000000001},{"rt":1657.8000000715256,"stimulus":"\n                    <p><b>Action: <em>harvest</em></b></p>\n                    <p>This is the bee that you just saw.</p>\n                    <img src=\"bees-with-color/bee-B1SM.svg\" width=\"200\">\n                    <p><span class=\"greenText\"><b>Successful harvest!</b></span><br>Your pay has increased by $0.02. Your bonus pay is now $0.48.</p>\n            ","response":0,"trial_type":"html-button-response","trial_index":18,"time_elapsed":227012,"internal_node_id":"0.0-4.0-1.3","subject_id":"616efbb6f50360c197614d1d","study_id":"6197b3f67c2b5cd3b6d9596a","session_id":"619beef1216ff385cdcccf44","condition":"contingent","relevant_dimensions":["antennae","legs"],"bee_group":{"antennae":"A","wings":"X","pattern":"X","legs":"M"},"bonus":1.020000000000001},{"rt":1448.7000000476837,"stimulus":"bees-with-color/bee-B2SF.svg","response":0,"trial_type":"image-button-response","trial_index":19,"time_elapsed":228466,"internal_node_id":"0.0-4.0-0.4","subject_id":"616efbb6f50360c197614d1d","study_id":"6197b3f67c2b5cd3b6d9596a","session_id":"619beef1216ff385cdcccf44","condition":"contingent","relevant_dimensions":["antennae","legs"],"bee_group":{"antennae":"A","wings":"X","pattern":"X","legs":"M"},"action":"harvest","summary":"good-harvest","bonus":1.020000000000001},{"rt":1543.1999999284744,"stimulus":"\n                    <p><b>Action: <em>harvest</em></b></p>\n                    <p>This is the bee that you just saw.</p>\n                    <img src=\"bees-with-color/bee-B2SF.svg\" width=\"200\">\n                    <p><span class=\"greenText\"><b>Successful harvest!</b></span><br>Your pay has increased by $0.02. Your bonus pay is now $0.50.</p>\n            ","response":0,"trial_type":"html-button-response","trial_index":20,"time_elapsed":230016,"internal_node_id":"0.0-4.0-1.4","subject_id":"616efbb6f50360c197614d1d","study_id":"6197b3f67c2b5cd3b6d9596a","session_id":"619beef1216ff385cdcccf44","condition":"contingent","relevant_dimensions":["antennae","legs"],"bee_group":{"antennae":"A","wings":"X","pattern":"X","legs":"M"},"bonus":1.020000000000001},{"rt":1238.7000000476837,"stimulus":"bees-with-color/bee-B1DF.svg","response":1,"trial_type":"image-button-response","trial_index":21,"time_elapsed":231264,"internal_node_id":"0.0-4.0-0.5","subject_id":"616efbb6f50360c197614d1d","study_id":"6197b3f67c2b5cd3b6d9596a","session_id":"619beef1216ff385cdcccf44","condition":"contingent","relevant_dimensions":["antennae","legs"],"bee_group":{"antennae":"A","wings":"X","pattern":"X","legs":"M"},"action":"avoid","summary":"bad-avoid","bonus":1.020000000000001},{"rt":1144.8999999761581,"stimulus":"\n                    <p><b>Action: <em>avoid</em></b></p>\n                    <p>This is the bee that you just saw.</p>\n                    <img src=\"bees-with-color/bee-B1DF.svg\" width=\"200\">\n                    <p><br>Your bonus pay is unchanged, and remains at $0.50.</p>\n            ","response":0,"trial_type":"html-button-response","trial_index":22,"time_elapsed":232415,"internal_node_id":"0.0-4.0-1.5","subject_id":"616efbb6f50360c197614d1d","study_id":"6197b3f67c2b5cd3b6d9596a","session_id":"619beef1216ff385cdcccf44","condition":"contingent","relevant_dimensions":["antennae","legs"],"bee_group":{"antennae":"A","wings":"X","pattern":"X","legs":"M"},"bonus":1.020000000000001},{"rt":1372.8000000715256,"stimulus":"bees-with-color/bee-B2DF.svg","response":1,"trial_type":"image-button-response","trial_index":23,"time_elapsed":233793,"internal_node_id":"0.0-4.0-0.6","subject_id":"616efbb6f50360c197614d1d","study_id":"6197b3f67c2b5cd3b6d9596a","session_id":"619beef1216ff385cdcccf44","condition":"contingent","relevant_dimensions":["antennae","legs"],"bee_group":{"antennae":"A","wings":"X","pattern":"X","legs":"M"},"action":"avoid","summary":"bad-avoid","bonus":1.020000000000001},{"rt":1203,"stimulus":"\n                    <p><b>Action: <em>avoid</em></b></p>\n                    <p>This is the bee that you just saw.</p>\n                    <img src=\"bees-with-color/bee-B2DF.svg\" width=\"200\">\n                    <p><br>Your bonus pay is unchanged, and remains at $0.50.</p>\n            ","response":0,"trial_type":"html-button-response","trial_index":24,"time_elapsed":235000,"internal_node_id":"0.0-4.0-1.6","subject_id":"616efbb6f50360c197614d1d","study_id":"6197b3f67c2b5cd3b6d9596a","session_id":"619beef1216ff385cdcccf44","condition":"contingent","relevant_dimensions":["antennae","legs"],"bee_group":{"antennae":"A","wings":"X","pattern":"X","legs":"M"},"bonus":1.020000000000001},{"rt":1208.5,"stimulus":"bees-with-color/bee-A2SM.svg","response":0,"trial_type":"image-button-response","trial_index":25,"time_elapsed":236215,"internal_node_id":"0.0-4.0-0.7","subject_id":"616efbb6f50360c197614d1d","study_id":"6197b3f67c2b5cd3b6d9596a","session_id":"619beef1216ff385cdcccf44","condition":"contingent","relevant_dimensions":["antennae","legs"],"bee_group":{"antennae":"A","wings":"X","pattern":"X","legs":"M"},"action":"harvest","summary":"bad-harvest","bonus":1.020000000000001},{"rt":3239.399999976158,"stimulus":"\n                    <p><b>Action: <em>harvest</em></b></p>\n                    <p>This is the bee that you just saw.</p>\n                    <img src=\"bees-with-color/bee-A2SM.svg\" width=\"200\">\n                    <p><span class=\"redText\">Bad choice, the bee was angry.</span><br><b>You have been stung!</b><br>Your pay has been decreased by $0.10. Your bonus pay is now $0.40.</p>\n            ","response":0,"trial_type":"html-button-response","trial_index":26,"time_elapsed":239461,"internal_node_id":"0.0-4.0-1.7","subject_id":"616efbb6f50360c197614d1d","study_id":"6197b3f67c2b5cd3b6d9596a","session_id":"619beef1216ff385cdcccf44","condition":"contingent","relevant_dimensions":["antennae","legs"],"bee_group":{"antennae":"A","wings":"X","pattern":"X","legs":"M"},"bonus":1.020000000000001},{"rt":2299.399999976158,"stimulus":"bees-with-color/bee-B2DM.svg","response":1,"trial_type":"image-button-response","trial_index":27,"time_elapsed":241770,"internal_node_id":"0.0-4.0-0.8","subject_id":"616efbb6f50360c197614d1d","study_id":"6197b3f67c2b5cd3b6d9596a","session_id":"619beef1216ff385cdcccf44","condition":"contingent","relevant_dimensions":["antennae","legs"],"bee_group":{"antennae":"A","wings":"X","pattern":"X","legs":"M"},"action":"avoid","summary":"bad-avoid","bonus":1.020000000000001},{"rt":1144.3999999761581,"stimulus":"\n                    <p><b>Action: <em>avoid</em></b></p>\n                    <p>This is the bee that you just saw.</p>\n                    <img src=\"bees-with-color/bee-B2DM.svg\" width=\"200\">\n                    <p><br>Your bonus pay is unchanged, and remains at $0.40.</p>\n            ","response":0,"trial_type":"html-button-response","trial_index":28,"time_elapsed":242920,"internal_node_id":"0.0-4.0-1.8","subject_id":"616efbb6f50360c197614d1d","study_id":"6197b3f67c2b5cd3b6d9596a","session_id":"619beef1216ff385cdcccf44","condition":"contingent","relevant_dimensions":["antennae","legs"],"bee_group":{"antennae":"A","wings":"X","pattern":"X","legs":"M"},"bonus":1.020000000000001},{"rt":2384.5,"stimulus":"bees-with-color/bee-A2DF.svg","response":0,"trial_type":"image-button-response","trial_index":29,"time_elapsed":245311,"internal_node_id":"0.0-4.0-0.9","subject_id":"616efbb6f50360c197614d1d","study_id":"6197b3f67c2b5cd3b6d9596a","session_id":"619beef1216ff385cdcccf44","condition":"contingent","relevant_dimensions":["antennae","legs"],"bee_group":{"antennae":"A","wings":"X","pattern":"X","legs":"M"},"action":"harvest","summary":"good-harvest","bonus":1.020000000000001},{"rt":1544.1999999284744,"stimulus":"\n                    <p><b>Action: <em>harvest</em></b></p>\n                    <p>This is the bee that you just saw.</p>\n                    <img src=\"bees-with-color/bee-A2DF.svg\" width=\"200\">\n                    <p><span class=\"greenText\"><b>Successful harvest!</b></span><br>Your pay has increased by $0.02. Your bonus pay is now $0.42.</p>\n            ","response":0,"trial_type":"html-button-response","trial_index":30,"time_elapsed":246863,"internal_node_id":"0.0-4.0-1.9","subject_id":"616efbb6f50360c197614d1d","study_id":"6197b3f67c2b5cd3b6d9596a","session_id":"619beef1216ff385cdcccf44","condition":"contingent","relevant_dimensions":["antennae","legs"],"bee_group":{"antennae":"A","wings":"X","pattern":"X","legs":"M"},"bonus":1.020000000000001},{"rt":1391.1000000238419,"stimulus":"bees-with-color/bee-A2SF.svg","response":0,"trial_type":"image-button-response","trial_index":31,"time_elapsed":248261,"internal_node_id":"0.0-4.0-0.10","subject_id":"616efbb6f50360c197614d1d","study_id":"6197b3f67c2b5cd3b6d9596a","session_id":"619beef1216ff385cdcccf44","condition":"contingent","relevant_dimensions":["antennae","legs"],"bee_group":{"antennae":"A","wings":"X","pattern":"X","legs":"M"},"action":"harvest","summary":"good-harvest","bonus":1.020000000000001},{"rt":1337.8999999761581,"stimulus":"\n                    <p><b>Action: <em>harvest</em></b></p>\n                    <p>This is the bee that you just saw.</p>\n                    <img src=\"bees-with-color/bee-A2SF.svg\" width=\"200\">\n                    <p><span class=\"greenText\"><b>Successful harvest!</b></span><br>Your pay has increased by $0.02. Your bonus pay is now $0.44.</p>\n            ","response":0,"trial_type":"html-button-response","trial_index":32,"time_elapsed":249603,"internal_node_id":"0.0-4.0-1.10","subject_id":"616efbb6f50360c197614d1d","study_id":"6197b3f67c2b5cd3b6d9596a","session_id":"619beef1216ff385cdcccf44","condition":"contingent","relevant_dimensions":["antennae","legs"],"bee_group":{"antennae":"A","wings":"X","pattern":"X","legs":"M"},"bonus":1.020000000000001},{"rt":1358.2999999523163,"stimulus":"bees-with-color/bee-A1SF.svg","response":0,"trial_type":"image-button-response","trial_index":33,"time_elapsed":250969,"internal_node_id":"0.0-4.0-0.11","subject_id":"616efbb6f50360c197614d1d","study_id":"6197b3f67c2b5cd3b6d9596a","session_id":"619beef1216ff385cdcccf44","condition":"contingent","relevant_dimensions":["antennae","legs"],"bee_group":{"antennae":"A","wings":"X","pattern":"X","legs":"M"},"action":"harvest","summary":"good-harvest","bonus":1.020000000000001},{"rt":1225.7000000476837,"stimulus":"\n                    <p><b>Action: <em>harvest</em></b></p>\n                    <p>This is the bee that you just saw.</p>\n                    <img src=\"bees-with-color/bee-A1SF.svg\" width=\"200\">\n                    <p><span class=\"greenText\"><b>Successful harvest!</b></span><br>Your pay has increased by $0.02. Your bonus pay is now $0.46.</p>\n            ","response":0,"trial_type":"html-button-response","trial_index":34,"time_elapsed":252201,"internal_node_id":"0.0-4.0-1.11","subject_id":"616efbb6f50360c197614d1d","study_id":"6197b3f67c2b5cd3b6d9596a","session_id":"619beef1216ff385cdcccf44","condition":"contingent","relevant_dimensions":["antennae","legs"],"bee_group":{"antennae":"A","wings":"X","pattern":"X","legs":"M"},"bonus":1.020000000000001},{"rt":1504.5,"stimulus":"bees-with-color/bee-B1SF.svg","response":0,"trial_type":"image-button-response","trial_index":35,"time_elapsed":253710,"internal_node_id":"0.0-4.0-0.12","subject_id":"616efbb6f50360c197614d1d","study_id":"6197b3f67c2b5cd3b6d9596a","session_id":"619beef1216ff385cdcccf44","condition":"contingent","relevant_dimensions":["antennae","legs"],"bee_group":{"antennae":"A","wings":"X","pattern":"X","legs":"M"},"action":"harvest","summary":"good-harvest","bonus":1.020000000000001},{"rt":1260.8999999761581,"stimulus":"\n                    <p><b>Action: <em>harvest</em></b></p>\n                    <p>This is the bee that you just saw.</p>\n                    <img src=\"bees-with-color/bee-B1SF.svg\" width=\"200\">\n                    <p><span class=\"greenText\"><b>Successful harvest!</b></span><br>Your pay has increased by $0.02. Your bonus pay is now $0.48.</p>\n            ","response":0,"trial_type":"html-button-response","trial_index":36,"time_elapsed":254976,"internal_node_id":"0.0-4.0-1.12","subject_id":"616efbb6f50360c197614d1d","study_id":"6197b3f67c2b5cd3b6d9596a","session_id":"619beef1216ff385cdcccf44","condition":"contingent","relevant_dimensions":["antennae","legs"],"bee_group":{"antennae":"A","wings":"X","pattern":"X","legs":"M"},"bonus":1.020000000000001},{"rt":4457.200000047684,"stimulus":"bees-with-color/bee-A2DM.svg","response":0,"trial_type":"image-button-response","trial_index":37,"time_elapsed":259439,"internal_node_id":"0.0-4.0-0.13","subject_id":"616efbb6f50360c197614d1d","study_id":"6197b3f67c2b5cd3b6d9596a","session_id":"619beef1216ff385cdcccf44","condition":"contingent","relevant_dimensions":["antennae","legs"],"bee_group":{"antennae":"A","wings":"X","pattern":"X","legs":"M"},"action":"harvest","summary":"bad-harvest","bonus":1.020000000000001},{"rt":1470.7000000476837,"stimulus":"\n                    <p><b>Action: <em>harvest</em></b></p>\n                    <p>This is the bee that you just saw.</p>\n                    <img src=\"bees-with-color/bee-A2DM.svg\" width=\"200\">\n                    <p><span class=\"redText\">Bad choice, the bee was angry.</span><br><b>You have been stung!</b><br>Your pay has been decreased by $0.10. Your bonus pay is now $0.38.</p>\n            ","response":0,"trial_type":"html-button-response","trial_index":38,"time_elapsed":260916,"internal_node_id":"0.0-4.0-1.13","subject_id":"616efbb6f50360c197614d1d","study_id":"6197b3f67c2b5cd3b6d9596a","session_id":"619beef1216ff385cdcccf44","condition":"contingent","relevant_dimensions":["antennae","legs"],"bee_group":{"antennae":"A","wings":"X","pattern":"X","legs":"M"},"bonus":1.020000000000001},{"rt":2054.100000023842,"stimulus":"bees-with-color/bee-B1DM.svg","response":1,"trial_type":"image-button-response","trial_index":39,"time_elapsed":262975,"internal_node_id":"0.0-4.0-0.14","subject_id":"616efbb6f50360c197614d1d","study_id":"6197b3f67c2b5cd3b6d9596a","session_id":"619beef1216ff385cdcccf44","condition":"contingent","relevant_dimensions":["antennae","legs"],"bee_group":{"antennae":"A","wings":"X","pattern":"X","legs":"M"},"action":"avoid","summary":"bad-avoid","bonus":1.020000000000001},{"rt":1110.8000000715256,"stimulus":"\n                    <p><b>Action: <em>avoid</em></b></p>\n                    <p>This is the bee that you just saw.</p>\n                    <img src=\"bees-with-color/bee-B1DM.svg\" width=\"200\">\n                    <p><br>Your bonus pay is unchanged, and remains at $0.38.</p>\n            ","response":0,"trial_type":"html-button-response","trial_index":40,"time_elapsed":264091,"internal_node_id":"0.0-4.0-1.14","subject_id":"616efbb6f50360c197614d1d","study_id":"6197b3f67c2b5cd3b6d9596a","session_id":"619beef1216ff385cdcccf44","condition":"contingent","relevant_dimensions":["antennae","legs"],"bee_group":{"antennae":"A","wings":"X","pattern":"X","legs":"M"},"bonus":1.020000000000001},{"rt":1986.6000000238419,"stimulus":"bees-with-color/bee-A1SM.svg","response":0,"trial_type":"image-button-response","trial_index":41,"time_elapsed":266082,"internal_node_id":"0.0-4.0-0.15","subject_id":"616efbb6f50360c197614d1d","study_id":"6197b3f67c2b5cd3b6d9596a","session_id":"619beef1216ff385cdcccf44","condition":"contingent","relevant_dimensions":["antennae","legs"],"bee_group":{"antennae":"A","wings":"X","pattern":"X","legs":"M"},"action":"harvest","summary":"bad-harvest","bonus":1.020000000000001},{"rt":1480.6000000238419,"stimulus":"\n                    <p><b>Action: <em>harvest</em></b></p>\n                    <p>This is the bee that you just saw.</p>\n                    <img src=\"bees-with-color/bee-A1SM.svg\" width=\"200\">\n                    <p><span class=\"redText\">Bad choice, the bee was angry.</span><br><b>You have been stung!</b><br>Your pay has been decreased by $0.10. Your bonus pay is now $0.28.</p>\n            ","response":0,"trial_type":"html-button-response","trial_index":42,"time_elapsed":267567,"internal_node_id":"0.0-4.0-1.15","subject_id":"616efbb6f50360c197614d1d","study_id":"6197b3f67c2b5cd3b6d9596a","session_id":"619beef1216ff385cdcccf44","condition":"contingent","relevant_dimensions":["antennae","legs"],"bee_group":{"antennae":"A","wings":"X","pattern":"X","legs":"M"},"bonus":1.020000000000001},{"rt":1667.3999999761581,"stimulus":"bees-with-color/bee-B1DM.svg","response":1,"trial_type":"image-button-response","trial_index":43,"time_elapsed":269240,"internal_node_id":"0.0-4.0-0.16","subject_id":"616efbb6f50360c197614d1d","study_id":"6197b3f67c2b5cd3b6d9596a","session_id":"619beef1216ff385cdcccf44","condition":"contingent","relevant_dimensions":["antennae","legs"],"bee_group":{"antennae":"A","wings":"X","pattern":"X","legs":"M"},"action":"avoid","summary":"bad-avoid","bonus":1.020000000000001},{"rt":1019.2999999523163,"stimulus":"\n                    <p><b>Action: <em>avoid</em></b></p>\n                    <p>This is the bee that you just saw.</p>\n                    <img src=\"bees-with-color/bee-B1DM.svg\" width=\"200\">\n                    <p><br>Your bonus pay is unchanged, and remains at $0.28.</p>\n            ","response":0,"trial_type":"html-button-response","trial_index":44,"time_elapsed":270265,"internal_node_id":"0.0-4.0-1.16","subject_id":"616efbb6f50360c197614d1d","study_id":"6197b3f67c2b5cd3b6d9596a","session_id":"619beef1216ff385cdcccf44","condition":"contingent","relevant_dimensions":["antennae","legs"],"bee_group":{"antennae":"A","wings":"X","pattern":"X","legs":"M"},"bonus":1.020000000000001},{"rt":1213.6999999284744,"stimulus":"bees-with-color/bee-A1SF.svg","response":0,"trial_type":"image-button-response","trial_index":45,"time_elapsed":271484,"internal_node_id":"0.0-4.0-0.17","subject_id":"616efbb6f50360c197614d1d","study_id":"6197b3f67c2b5cd3b6d9596a","session_id":"619beef1216ff385cdcccf44","condition":"contingent","relevant_dimensions":["antennae","legs"],"bee_group":{"antennae":"A","wings":"X","pattern":"X","legs":"M"},"action":"harvest","summary":"good-harvest","bonus":1.020000000000001},{"rt":1245.8999999761581,"stimulus":"\n                    <p><b>Action: <em>harvest</em></b></p>\n                    <p>This is the bee that you just saw.</p>\n                    <img src=\"bees-with-color/bee-A1SF.svg\" width=\"200\">\n                    <p><span class=\"greenText\"><b>Successful harvest!</b></span><br>Your pay has increased by $0.02. Your bonus pay is now $0.30.</p>\n            ","response":0,"trial_type":"html-button-response","trial_index":46,"time_elapsed":272736,"internal_node_id":"0.0-4.0-1.17","subject_id":"616efbb6f50360c197614d1d","study_id":"6197b3f67c2b5cd3b6d9596a","session_id":"619beef1216ff385cdcccf44","condition":"contingent","relevant_dimensions":["antennae","legs"],"bee_group":{"antennae":"A","wings":"X","pattern":"X","legs":"M"},"bonus":1.020000000000001},{"rt":1164.8999999761581,"stimulus":"bees-with-color/bee-A2SM.svg","response":0,"trial_type":"image-button-response","trial_index":47,"time_elapsed":273906,"internal_node_id":"0.0-4.0-0.18","subject_id":"616efbb6f50360c197614d1d","study_id":"6197b3f67c2b5cd3b6d9596a","session_id":"619beef1216ff385cdcccf44","condition":"contingent","relevant_dimensions":["antennae","legs"],"bee_group":{"antennae":"A","wings":"X","pattern":"X","legs":"M"},"action":"harvest","summary":"bad-harvest","bonus":1.020000000000001},{"rt":1255.7999999523163,"stimulus":"\n                    <p><b>Action: <em>harvest</em></b></p>\n                    <p>This is the bee that you just saw.</p>\n                    <img src=\"bees-with-color/bee-A2SM.svg\" width=\"200\">\n                    <p><span class=\"redText\">Bad choice, the bee was angry.</span><br><b>You have been stung!</b><br>Your pay has been decreased by $0.10. Your bonus pay is now $0.20.</p>\n            ","response":0,"trial_type":"html-button-response","trial_index":48,"time_elapsed":275168,"internal_node_id":"0.0-4.0-1.18","subject_id":"616efbb6f50360c197614d1d","study_id":"6197b3f67c2b5cd3b6d9596a","session_id":"619beef1216ff385cdcccf44","condition":"contingent","relevant_dimensions":["antennae","legs"],"bee_group":{"antennae":"A","wings":"X","pattern":"X","legs":"M"},"bonus":1.020000000000001},{"rt":3944.4000000953674,"stimulus":"bees-with-color/bee-B2DF.svg","response":0,"trial_type":"image-button-response","trial_index":49,"time_elapsed":279117,"internal_node_id":"0.0-4.0-0.19","subject_id":"616efbb6f50360c197614d1d","study_id":"6197b3f67c2b5cd3b6d9596a","session_id":"619beef1216ff385cdcccf44","condition":"contingent","relevant_dimensions":["antennae","legs"],"bee_group":{"antennae":"A","wings":"X","pattern":"X","legs":"M"},"action":"harvest","summary":"good-harvest","bonus":1.020000000000001},{"rt":1209.3999999761581,"stimulus":"\n                    <p><b>Action: <em>harvest</em></b></p>\n                    <p>This is the bee that you just saw.</p>\n                    <img src=\"bees-with-color/bee-B2DF.svg\" width=\"200\">\n                    <p><span class=\"greenText\"><b>Successful harvest!</b></span><br>Your pay has increased by $0.02. Your bonus pay is now $0.22.</p>\n            ","response":0,"trial_type":"html-button-response","trial_index":50,"time_elapsed":280332,"internal_node_id":"0.0-4.0-1.19","subject_id":"616efbb6f50360c197614d1d","study_id":"6197b3f67c2b5cd3b6d9596a","session_id":"619beef1216ff385cdcccf44","condition":"contingent","relevant_dimensions":["antennae","legs"],"bee_group":{"antennae":"A","wings":"X","pattern":"X","legs":"M"},"bonus":1.020000000000001},{"rt":1767.9000000953674,"stimulus":"bees-with-color/bee-A2DF.svg","response":0,"trial_type":"image-button-response","trial_index":51,"time_elapsed":282107,"internal_node_id":"0.0-4.0-0.20","subject_id":"616efbb6f50360c197614d1d","study_id":"6197b3f67c2b5cd3b6d9596a","session_id":"619beef1216ff385cdcccf44","condition":"contingent","relevant_dimensions":["antennae","legs"],"bee_group":{"antennae":"A","wings":"X","pattern":"X","legs":"M"},"action":"harvest","summary":"good-harvest","bonus":1.020000000000001},{"rt":1184,"stimulus":"\n                    <p><b>Action: <em>harvest</em></b></p>\n                    <p>This is the bee that you just saw.</p>\n                    <img src=\"bees-with-color/bee-A2DF.svg\" width=\"200\">\n                    <p><span class=\"greenText\"><b>Successful harvest!</b></span><br>Your pay has increased by $0.02. Your bonus pay is now $0.24.</p>\n            ","response":0,"trial_type":"html-button-response","trial_index":52,"time_elapsed":283297,"internal_node_id":"0.0-4.0-1.20","subject_id":"616efbb6f50360c197614d1d","study_id":"6197b3f67c2b5cd3b6d9596a","session_id":"619beef1216ff385cdcccf44","condition":"contingent","relevant_dimensions":["antennae","legs"],"bee_group":{"antennae":"A","wings":"X","pattern":"X","legs":"M"},"bonus":1.020000000000001},{"rt":1605.8999999761581,"stimulus":"bees-with-color/bee-A2DM.svg","response":1,"trial_type":"image-button-response","trial_index":53,"time_elapsed":284908,"internal_node_id":"0.0-4.0-0.21","subject_id":"616efbb6f50360c197614d1d","study_id":"6197b3f67c2b5cd3b6d9596a","session_id":"619beef1216ff385cdcccf44","condition":"contingent","relevant_dimensions":["antennae","legs"],"bee_group":{"antennae":"A","wings":"X","pattern":"X","legs":"M"},"action":"avoid","summary":"good-avoid","bonus":1.020000000000001},{"rt":1405.2000000476837,"stimulus":"\n                    <p><b>Action: <em>avoid</em></b></p>\n                    <p>This is the bee that you just saw.</p>\n                    <img src=\"bees-with-color/bee-A2DM.svg\" width=\"200\">\n                    <p><br>Your bonus pay is unchanged, and remains at $0.24.</p>\n            ","response":0,"trial_type":"html-button-response","trial_index":54,"time_elapsed":286319,"internal_node_id":"0.0-4.0-1.21","subject_id":"616efbb6f50360c197614d1d","study_id":"6197b3f67c2b5cd3b6d9596a","session_id":"619beef1216ff385cdcccf44","condition":"contingent","relevant_dimensions":["antennae","legs"],"bee_group":{"antennae":"A","wings":"X","pattern":"X","legs":"M"},"bonus":1.020000000000001},{"rt":1603.9000000953674,"stimulus":"bees-with-color/bee-B2SM.svg","response":1,"trial_type":"image-button-response","trial_index":55,"time_elapsed":287928,"internal_node_id":"0.0-4.0-0.22","subject_id":"616efbb6f50360c197614d1d","study_id":"6197b3f67c2b5cd3b6d9596a","session_id":"619beef1216ff385cdcccf44","condition":"contingent","relevant_dimensions":["antennae","legs"],"bee_group":{"antennae":"A","wings":"X","pattern":"X","legs":"M"},"action":"avoid","summary":"bad-avoid","bonus":1.020000000000001},{"rt":1337.6000000238419,"stimulus":"\n                    <p><b>Action: <em>avoid</em></b></p>\n                    <p>This is the bee that you just saw.</p>\n                    <img src=\"bees-with-color/bee-B2SM.svg\" width=\"200\">\n                    <p><br>Your bonus pay is unchanged, and remains at $0.24.</p>\n            ","response":0,"trial_type":"html-button-response","trial_index":56,"time_elapsed":289272,"internal_node_id":"0.0-4.0-1.22","subject_id":"616efbb6f50360c197614d1d","study_id":"6197b3f67c2b5cd3b6d9596a","session_id":"619beef1216ff385cdcccf44","condition":"contingent","relevant_dimensions":["antennae","legs"],"bee_group":{"antennae":"A","wings":"X","pattern":"X","legs":"M"},"bonus":1.020000000000001},{"rt":1526.3999999761581,"stimulus":"bees-with-color/bee-B2DM.svg","response":0,"trial_type":"image-button-response","trial_index":57,"time_elapsed":290804,"internal_node_id":"0.0-4.0-0.23","subject_id":"616efbb6f50360c197614d1d","study_id":"6197b3f67c2b5cd3b6d9596a","session_id":"619beef1216ff385cdcccf44","condition":"contingent","relevant_dimensions":["antennae","legs"],"bee_group":{"antennae":"A","wings":"X","pattern":"X","legs":"M"},"action":"harvest","summary":"good-harvest","bonus":1.020000000000001},{"rt":1193.2999999523163,"stimulus":"\n                    <p><b>Action: <em>harvest</em></b></p>\n                    <p>This is the bee that you just saw.</p>\n                    <img src=\"bees-with-color/bee-B2DM.svg\" width=\"200\">\n                    <p><span class=\"greenText\"><b>Successful harvest!</b></span><br>Your pay has increased by $0.02. Your bonus pay is now $0.26.</p>\n            ","response":0,"trial_type":"html-button-response","trial_index":58,"time_elapsed":292004,"internal_node_id":"0.0-4.0-1.23","subject_id":"616efbb6f50360c197614d1d","study_id":"6197b3f67c2b5cd3b6d9596a","session_id":"619beef1216ff385cdcccf44","condition":"contingent","relevant_dimensions":["antennae","legs"],"bee_group":{"antennae":"A","wings":"X","pattern":"X","legs":"M"},"bonus":1.020000000000001},{"rt":1505.8999999761581,"stimulus":"bees-with-color/bee-B1SM.svg","response":0,"trial_type":"image-button-response","trial_index":59,"time_elapsed":293517,"internal_node_id":"0.0-4.0-0.24","subject_id":"616efbb6f50360c197614d1d","study_id":"6197b3f67c2b5cd3b6d9596a","session_id":"619beef1216ff385cdcccf44","condition":"contingent","relevant_dimensions":["antennae","legs"],"bee_group":{"antennae":"A","wings":"X","pattern":"X","legs":"M"},"action":"harvest","summary":"good-harvest","bonus":1.020000000000001},{"rt":1453.7999999523163,"stimulus":"\n                    <p><b>Action: <em>harvest</em></b></p>\n                    <p>This is the bee that you just saw.</p>\n                    <img src=\"bees-with-color/bee-B1SM.svg\" width=\"200\">\n                    <p><span class=\"greenText\"><b>Successful harvest!</b></span><br>Your pay has increased by $0.02. Your bonus pay is now $0.28.</p>\n            ","response":0,"trial_type":"html-button-response","trial_index":60,"time_elapsed":294980,"internal_node_id":"0.0-4.0-1.24","subject_id":"616efbb6f50360c197614d1d","study_id":"6197b3f67c2b5cd3b6d9596a","session_id":"619beef1216ff385cdcccf44","condition":"contingent","relevant_dimensions":["antennae","legs"],"bee_group":{"antennae":"A","wings":"X","pattern":"X","legs":"M"},"bonus":1.020000000000001},{"rt":9519.600000023842,"stimulus":"bees-with-color/bee-A1DM.svg","response":1,"trial_type":"image-button-response","trial_index":61,"time_elapsed":304507,"internal_node_id":"0.0-4.0-0.25","subject_id":"616efbb6f50360c197614d1d","study_id":"6197b3f67c2b5cd3b6d9596a","session_id":"619beef1216ff385cdcccf44","condition":"contingent","relevant_dimensions":["antennae","legs"],"bee_group":{"antennae":"A","wings":"X","pattern":"X","legs":"M"},"action":"avoid","summary":"good-avoid","bonus":1.020000000000001},{"rt":1002.2000000476837,"stimulus":"\n                    <p><b>Action: <em>avoid</em></b></p>\n                    <p>This is the bee that you just saw.</p>\n                    <img src=\"bees-with-color/bee-A1DM.svg\" width=\"200\">\n                    <p><br>Your bonus pay is unchanged, and remains at $0.28.</p>\n            ","response":0,"trial_type":"html-button-response","trial_index":62,"time_elapsed":305515,"internal_node_id":"0.0-4.0-1.25","subject_id":"616efbb6f50360c197614d1d","study_id":"6197b3f67c2b5cd3b6d9596a","session_id":"619beef1216ff385cdcccf44","condition":"contingent","relevant_dimensions":["antennae","legs"],"bee_group":{"antennae":"A","wings":"X","pattern":"X","legs":"M"},"bonus":1.020000000000001},{"rt":1380.1000000238419,"stimulus":"bees-with-color/bee-B1DF.svg","response":0,"trial_type":"image-button-response","trial_index":63,"time_elapsed":306903,"internal_node_id":"0.0-4.0-0.26","subject_id":"616efbb6f50360c197614d1d","study_id":"6197b3f67c2b5cd3b6d9596a","session_id":"619beef1216ff385cdcccf44","condition":"contingent","relevant_dimensions":["antennae","legs"],"bee_group":{"antennae":"A","wings":"X","pattern":"X","legs":"M"},"action":"harvest","summary":"good-harvest","bonus":1.020000000000001},{"rt":1372.6000000238419,"stimulus":"\n                    <p><b>Action: <em>harvest</em></b></p>\n                    <p>This is the bee that you just saw.</p>\n                    <img src=\"bees-with-color/bee-B1DF.svg\" width=\"200\">\n                    <p><span class=\"greenText\"><b>Successful harvest!</b></span><br>Your pay has increased by $0.02. Your bonus pay is now $0.30.</p>\n            ","response":0,"trial_type":"html-button-response","trial_index":64,"time_elapsed":308282,"internal_node_id":"0.0-4.0-1.26","subject_id":"616efbb6f50360c197614d1d","study_id":"6197b3f67c2b5cd3b6d9596a","session_id":"619beef1216ff385cdcccf44","condition":"contingent","relevant_dimensions":["antennae","legs"],"bee_group":{"antennae":"A","wings":"X","pattern":"X","legs":"M"},"bonus":1.020000000000001},{"rt":11377,"stimulus":"bees-with-color/bee-A2SF.svg","response":0,"trial_type":"image-button-response","trial_index":65,"time_elapsed":319665,"internal_node_id":"0.0-4.0-0.27","subject_id":"616efbb6f50360c197614d1d","study_id":"6197b3f67c2b5cd3b6d9596a","session_id":"619beef1216ff385cdcccf44","condition":"contingent","relevant_dimensions":["antennae","legs"],"bee_group":{"antennae":"A","wings":"X","pattern":"X","legs":"M"},"action":"harvest","summary":"good-harvest","bonus":1.020000000000001},{"rt":1318.5999999046326,"stimulus":"\n                    <p><b>Action: <em>harvest</em></b></p>\n                    <p>This is the bee that you just saw.</p>\n                    <img src=\"bees-with-color/bee-A2SF.svg\" width=\"200\">\n                    <p><span class=\"greenText\"><b>Successful harvest!</b></span><br>Your pay has increased by $0.02. Your bonus pay is now $0.32.</p>\n            ","response":0,"trial_type":"html-button-response","trial_index":66,"time_elapsed":320989,"internal_node_id":"0.0-4.0-1.27","subject_id":"616efbb6f50360c197614d1d","study_id":"6197b3f67c2b5cd3b6d9596a","session_id":"619beef1216ff385cdcccf44","condition":"contingent","relevant_dimensions":["antennae","legs"],"bee_group":{"antennae":"A","wings":"X","pattern":"X","legs":"M"},"bonus":1.020000000000001},{"rt":1607.5,"stimulus":"bees-with-color/bee-B1SF.svg","response":0,"trial_type":"image-button-response","trial_index":67,"time_elapsed":322603,"internal_node_id":"0.0-4.0-0.28","subject_id":"616efbb6f50360c197614d1d","study_id":"6197b3f67c2b5cd3b6d9596a","session_id":"619beef1216ff385cdcccf44","condition":"contingent","relevant_dimensions":["antennae","legs"],"bee_group":{"antennae":"A","wings":"X","pattern":"X","legs":"M"},"action":"harvest","summary":"good-harvest","bonus":1.020000000000001},{"rt":1585.5,"stimulus":"\n                    <p><b>Action: <em>harvest</em></b></p>\n                    <p>This is the bee that you just saw.</p>\n                    <img src=\"bees-with-color/bee-B1SF.svg\" width=\"200\">\n                    <p><span class=\"greenText\"><b>Successful harvest!</b></span><br>Your pay has increased by $0.02. Your bonus pay is now $0.34.</p>\n            ","response":0,"trial_type":"html-button-response","trial_index":68,"time_elapsed":324192,"internal_node_id":"0.0-4.0-1.28","subject_id":"616efbb6f50360c197614d1d","study_id":"6197b3f67c2b5cd3b6d9596a","session_id":"619beef1216ff385cdcccf44","condition":"contingent","relevant_dimensions":["antennae","legs"],"bee_group":{"antennae":"A","wings":"X","pattern":"X","legs":"M"},"bonus":1.020000000000001},{"rt":2313.8000000715256,"stimulus":"bees-with-color/bee-A1SM.svg","response":0,"trial_type":"image-button-response","trial_index":69,"time_elapsed":326509,"internal_node_id":"0.0-4.0-0.29","subject_id":"616efbb6f50360c197614d1d","study_id":"6197b3f67c2b5cd3b6d9596a","session_id":"619beef1216ff385cdcccf44","condition":"contingent","relevant_dimensions":["antennae","legs"],"bee_group":{"antennae":"A","wings":"X","pattern":"X","legs":"M"},"action":"harvest","summary":"bad-harvest","bonus":1.020000000000001},{"rt":1569.1000000238419,"stimulus":"\n                    <p><b>Action: <em>harvest</em></b></p>\n                    <p>This is the bee that you just saw.</p>\n                    <img src=\"bees-with-color/bee-A1SM.svg\" width=\"200\">\n                    <p><span class=\"redText\">Bad choice, the bee was angry.</span><br><b>You have been stung!</b><br>Your pay has been decreased by $0.10. Your bonus pay is now $0.24.</p>\n            ","response":0,"trial_type":"html-button-response","trial_index":70,"time_elapsed":328082,"internal_node_id":"0.0-4.0-1.29","subject_id":"616efbb6f50360c197614d1d","study_id":"6197b3f67c2b5cd3b6d9596a","session_id":"619beef1216ff385cdcccf44","condition":"contingent","relevant_dimensions":["antennae","legs"],"bee_group":{"antennae":"A","wings":"X","pattern":"X","legs":"M"},"bonus":1.020000000000001},{"rt":1503.1000000238419,"stimulus":"bees-with-color/bee-A1DF.svg","response":0,"trial_type":"image-button-response","trial_index":71,"time_elapsed":329592,"internal_node_id":"0.0-4.0-0.30","subject_id":"616efbb6f50360c197614d1d","study_id":"6197b3f67c2b5cd3b6d9596a","session_id":"619beef1216ff385cdcccf44","condition":"contingent","relevant_dimensions":["antennae","legs"],"bee_group":{"antennae":"A","wings":"X","pattern":"X","legs":"M"},"action":"harvest","summary":"good-harvest","bonus":1.020000000000001},{"rt":1682.3999999761581,"stimulus":"\n                    <p><b>Action: <em>harvest</em></b></p>\n                    <p>This is the bee that you just saw.</p>\n                    <img src=\"bees-with-color/bee-A1DF.svg\" width=\"200\">\n                    <p><span class=\"greenText\"><b>Successful harvest!</b></span><br>Your pay has increased by $0.02. Your bonus pay is now $0.26.</p>\n            ","response":0,"trial_type":"html-button-response","trial_index":72,"time_elapsed":331281,"internal_node_id":"0.0-4.0-1.30","subject_id":"616efbb6f50360c197614d1d","study_id":"6197b3f67c2b5cd3b6d9596a","session_id":"619beef1216ff385cdcccf44","condition":"contingent","relevant_dimensions":["antennae","legs"],"bee_group":{"antennae":"A","wings":"X","pattern":"X","legs":"M"},"bonus":1.020000000000001},{"rt":10928.399999976158,"stimulus":"bees-with-color/bee-B2SF.svg","response":0,"trial_type":"image-button-response","trial_index":73,"time_elapsed":342215,"internal_node_id":"0.0-4.0-0.31","subject_id":"616efbb6f50360c197614d1d","study_id":"6197b3f67c2b5cd3b6d9596a","session_id":"619beef1216ff385cdcccf44","condition":"contingent","relevant_dimensions":["antennae","legs"],"bee_group":{"antennae":"A","wings":"X","pattern":"X","legs":"M"},"action":"harvest","summary":"good-harvest","bonus":1.020000000000001},{"rt":1447.8000000715256,"stimulus":"\n                    <p><b>Action: <em>harvest</em></b></p>\n                    <p>This is the bee that you just saw.</p>\n                    <img src=\"bees-with-color/bee-B2SF.svg\" width=\"200\">\n                    <p><span class=\"greenText\"><b>Successful harvest!</b></span><br>Your pay has increased by $0.02. Your bonus pay is now $0.28.</p>\n            ","response":0,"trial_type":"html-button-response","trial_index":74,"time_elapsed":343666,"internal_node_id":"0.0-4.0-1.31","subject_id":"616efbb6f50360c197614d1d","study_id":"6197b3f67c2b5cd3b6d9596a","session_id":"619beef1216ff385cdcccf44","condition":"contingent","relevant_dimensions":["antennae","legs"],"bee_group":{"antennae":"A","wings":"X","pattern":"X","legs":"M"},"bonus":1.020000000000001},{"rt":1379.1000000238419,"stimulus":"bees-with-color/bee-B1SF.svg","response":0,"trial_type":"image-button-response","trial_index":75,"time_elapsed":345050,"internal_node_id":"0.0-4.0-0.32","subject_id":"616efbb6f50360c197614d1d","study_id":"6197b3f67c2b5cd3b6d9596a","session_id":"619beef1216ff385cdcccf44","condition":"contingent","relevant_dimensions":["antennae","legs"],"bee_group":{"antennae":"A","wings":"X","pattern":"X","legs":"M"},"action":"harvest","summary":"good-harvest","bonus":1.020000000000001},{"rt":1128.5,"stimulus":"\n                    <p><b>Action: <em>harvest</em></b></p>\n                    <p>This is the bee that you just saw.</p>\n                    <img src=\"bees-with-color/bee-B1SF.svg\" width=\"200\">\n                    <p><span class=\"greenText\"><b>Successful harvest!</b></span><br>Your pay has increased by $0.02. Your bonus pay is now $0.30.</p>\n            ","response":0,"trial_type":"html-button-response","trial_index":76,"time_elapsed":346184,"internal_node_id":"0.0-4.0-1.32","subject_id":"616efbb6f50360c197614d1d","study_id":"6197b3f67c2b5cd3b6d9596a","session_id":"619beef1216ff385cdcccf44","condition":"contingent","relevant_dimensions":["antennae","legs"],"bee_group":{"antennae":"A","wings":"X","pattern":"X","legs":"M"},"bonus":1.020000000000001},{"rt":2126.3000000715256,"stimulus":"bees-with-color/bee-A1DM.svg","response":1,"trial_type":"image-button-response","trial_index":77,"time_elapsed":348315,"internal_node_id":"0.0-4.0-0.33","subject_id":"616efbb6f50360c197614d1d","study_id":"6197b3f67c2b5cd3b6d9596a","session_id":"619beef1216ff385cdcccf44","condition":"contingent","relevant_dimensions":["antennae","legs"],"bee_group":{"antennae":"A","wings":"X","pattern":"X","legs":"M"},"action":"avoid","summary":"good-avoid","bonus":1.020000000000001},{"rt":1055.3999999761581,"stimulus":"\n                    <p><b>Action: <em>avoid</em></b></p>\n                    <p>This is the bee that you just saw.</p>\n                    <img src=\"bees-with-color/bee-A1DM.svg\" width=\"200\">\n                    <p><br>Your bonus pay is unchanged, and remains at $0.30.</p>\n            ","response":0,"trial_type":"html-button-response","trial_index":78,"time_elapsed":349376,"internal_node_id":"0.0-4.0-1.33","subject_id":"616efbb6f50360c197614d1d","study_id":"6197b3f67c2b5cd3b6d9596a","session_id":"619beef1216ff385cdcccf44","condition":"contingent","relevant_dimensions":["antennae","legs"],"bee_group":{"antennae":"A","wings":"X","pattern":"X","legs":"M"},"bonus":1.020000000000001},{"rt":2131.7999999523163,"stimulus":"bees-with-color/bee-B2DM.svg","response":1,"trial_type":"image-button-response","trial_index":79,"time_elapsed":351513,"internal_node_id":"0.0-4.0-0.34","subject_id":"616efbb6f50360c197614d1d","study_id":"6197b3f67c2b5cd3b6d9596a","session_id":"619beef1216ff385cdcccf44","condition":"contingent","relevant_dimensions":["antennae","legs"],"bee_group":{"antennae":"A","wings":"X","pattern":"X","legs":"M"},"action":"avoid","summary":"bad-avoid","bonus":1.020000000000001},{"rt":1649.6000000238419,"stimulus":"\n                    <p><b>Action: <em>avoid</em></b></p>\n                    <p>This is the bee that you just saw.</p>\n                    <img src=\"bees-with-color/bee-B2DM.svg\" width=\"200\">\n                    <p><br>Your bonus pay is unchanged, and remains at $0.30.</p>\n            ","response":0,"trial_type":"html-button-response","trial_index":80,"time_elapsed":353167,"internal_node_id":"0.0-4.0-1.34","subject_id":"616efbb6f50360c197614d1d","study_id":"6197b3f67c2b5cd3b6d9596a","session_id":"619beef1216ff385cdcccf44","condition":"contingent","relevant_dimensions":["antennae","legs"],"bee_group":{"antennae":"A","wings":"X","pattern":"X","legs":"M"},"bonus":1.020000000000001},{"rt":1334.3999999761581,"stimulus":"bees-with-color/bee-B2DF.svg","response":0,"trial_type":"image-button-response","trial_index":81,"time_elapsed":354508,"internal_node_id":"0.0-4.0-0.35","subject_id":"616efbb6f50360c197614d1d","study_id":"6197b3f67c2b5cd3b6d9596a","session_id":"619beef1216ff385cdcccf44","condition":"contingent","relevant_dimensions":["antennae","legs"],"bee_group":{"antennae":"A","wings":"X","pattern":"X","legs":"M"},"action":"harvest","summary":"good-harvest","bonus":1.020000000000001},{"rt":1338.4000000953674,"stimulus":"\n                    <p><b>Action: <em>harvest</em></b></p>\n                    <p>This is the bee that you just saw.</p>\n                    <img src=\"bees-with-color/bee-B2DF.svg\" width=\"200\">\n                    <p><span class=\"greenText\"><b>Successful harvest!</b></span><br>Your pay has increased by $0.02. Your bonus pay is now $0.32.</p>\n            ","response":0,"trial_type":"html-button-response","trial_index":82,"time_elapsed":355852,"internal_node_id":"0.0-4.0-1.35","subject_id":"616efbb6f50360c197614d1d","study_id":"6197b3f67c2b5cd3b6d9596a","session_id":"619beef1216ff385cdcccf44","condition":"contingent","relevant_dimensions":["antennae","legs"],"bee_group":{"antennae":"A","wings":"X","pattern":"X","legs":"M"},"bonus":1.020000000000001},{"rt":1301.3999999761581,"stimulus":"bees-with-color/bee-B1SM.svg","response":0,"trial_type":"image-button-response","trial_index":83,"time_elapsed":357160,"internal_node_id":"0.0-4.0-0.36","subject_id":"616efbb6f50360c197614d1d","study_id":"6197b3f67c2b5cd3b6d9596a","session_id":"619beef1216ff385cdcccf44","condition":"contingent","relevant_dimensions":["antennae","legs"],"bee_group":{"antennae":"A","wings":"X","pattern":"X","legs":"M"},"action":"harvest","summary":"good-harvest","bonus":1.020000000000001},{"rt":1152.1000000238419,"stimulus":"\n                    <p><b>Action: <em>harvest</em></b></p>\n                    <p>This is the bee that you just saw.</p>\n                    <img src=\"bees-with-color/bee-B1SM.svg\" width=\"200\">\n                    <p><span class=\"greenText\"><b>Successful harvest!</b></span><br>Your pay has increased by $0.02. Your bonus pay is now $0.34.</p>\n            ","response":0,"trial_type":"html-button-response","trial_index":84,"time_elapsed":358319,"internal_node_id":"0.0-4.0-1.36","subject_id":"616efbb6f50360c197614d1d","study_id":"6197b3f67c2b5cd3b6d9596a","session_id":"619beef1216ff385cdcccf44","condition":"contingent","relevant_dimensions":["antennae","legs"],"bee_group":{"antennae":"A","wings":"X","pattern":"X","legs":"M"},"bonus":1.020000000000001},{"rt":3842.6999999284744,"stimulus":"bees-with-color/bee-B2SF.svg","response":0,"trial_type":"image-button-response","trial_index":85,"time_elapsed":362167,"internal_node_id":"0.0-4.0-0.37","subject_id":"616efbb6f50360c197614d1d","study_id":"6197b3f67c2b5cd3b6d9596a","session_id":"619beef1216ff385cdcccf44","condition":"contingent","relevant_dimensions":["antennae","legs"],"bee_group":{"antennae":"A","wings":"X","pattern":"X","legs":"M"},"action":"harvest","summary":"good-harvest","bonus":1.020000000000001},{"rt":1222.1000000238419,"stimulus":"\n                    <p><b>Action: <em>harvest</em></b></p>\n                    <p>This is the bee that you just saw.</p>\n                    <img src=\"bees-with-color/bee-B2SF.svg\" width=\"200\">\n                    <p><span class=\"greenText\"><b>Successful harvest!</b></span><br>Your pay has increased by $0.02. Your bonus pay is now $0.36.</p>\n            ","response":0,"trial_type":"html-button-response","trial_index":86,"time_elapsed":363396,"internal_node_id":"0.0-4.0-1.37","subject_id":"616efbb6f50360c197614d1d","study_id":"6197b3f67c2b5cd3b6d9596a","session_id":"619beef1216ff385cdcccf44","condition":"contingent","relevant_dimensions":["antennae","legs"],"bee_group":{"antennae":"A","wings":"X","pattern":"X","legs":"M"},"bonus":1.020000000000001},{"rt":1432.1000000238419,"stimulus":"bees-with-color/bee-A2SF.svg","response":0,"trial_type":"image-button-response","trial_index":87,"time_elapsed":364835,"internal_node_id":"0.0-4.0-0.38","subject_id":"616efbb6f50360c197614d1d","study_id":"6197b3f67c2b5cd3b6d9596a","session_id":"619beef1216ff385cdcccf44","condition":"contingent","relevant_dimensions":["antennae","legs"],"bee_group":{"antennae":"A","wings":"X","pattern":"X","legs":"M"},"action":"harvest","summary":"good-harvest","bonus":1.020000000000001},{"rt":1191.6000000238419,"stimulus":"\n                    <p><b>Action: <em>harvest</em></b></p>\n                    <p>This is the bee that you just saw.</p>\n                    <img src=\"bees-with-color/bee-A2SF.svg\" width=\"200\">\n                    <p><span class=\"greenText\"><b>Successful harvest!</b></span><br>Your pay has increased by $0.02. Your bonus pay is now $0.38.</p>\n            ","response":0,"trial_type":"html-button-response","trial_index":88,"time_elapsed":366033,"internal_node_id":"0.0-4.0-1.38","subject_id":"616efbb6f50360c197614d1d","study_id":"6197b3f67c2b5cd3b6d9596a","session_id":"619beef1216ff385cdcccf44","condition":"contingent","relevant_dimensions":["antennae","legs"],"bee_group":{"antennae":"A","wings":"X","pattern":"X","legs":"M"},"bonus":1.020000000000001},{"rt":2437.5999999046326,"stimulus":"bees-with-color/bee-A1SM.svg","response":1,"trial_type":"image-button-response","trial_index":89,"time_elapsed":368478,"internal_node_id":"0.0-4.0-0.39","subject_id":"616efbb6f50360c197614d1d","study_id":"6197b3f67c2b5cd3b6d9596a","session_id":"619beef1216ff385cdcccf44","condition":"contingent","relevant_dimensions":["antennae","legs"],"bee_group":{"antennae":"A","wings":"X","pattern":"X","legs":"M"},"action":"avoid","summary":"good-avoid","bonus":1.020000000000001},{"rt":1205.3999999761581,"stimulus":"\n                    <p><b>Action: <em>avoid</em></b></p>\n                    <p>This is the bee that you just saw.</p>\n                    <img src=\"bees-with-color/bee-A1SM.svg\" width=\"200\">\n                    <p><br>Your bonus pay is unchanged, and remains at $0.38.</p>\n            ","response":0,"trial_type":"html-button-response","trial_index":90,"time_elapsed":369696,"internal_node_id":"0.0-4.0-1.39","subject_id":"616efbb6f50360c197614d1d","study_id":"6197b3f67c2b5cd3b6d9596a","session_id":"619beef1216ff385cdcccf44","condition":"contingent","relevant_dimensions":["antennae","legs"],"bee_group":{"antennae":"A","wings":"X","pattern":"X","legs":"M"},"bonus":1.020000000000001},{"rt":1554.5,"stimulus":"bees-with-color/bee-A1SF.svg","response":0,"trial_type":"image-button-response","trial_index":91,"time_elapsed":371257,"internal_node_id":"0.0-4.0-0.40","subject_id":"616efbb6f50360c197614d1d","study_id":"6197b3f67c2b5cd3b6d9596a","session_id":"619beef1216ff385cdcccf44","condition":"contingent","relevant_dimensions":["antennae","legs"],"bee_group":{"antennae":"A","wings":"X","pattern":"X","legs":"M"},"action":"harvest","summary":"good-harvest","bonus":1.020000000000001},{"rt":1320.1000000238419,"stimulus":"\n                    <p><b>Action: <em>harvest</em></b></p>\n                    <p>This is the bee that you just saw.</p>\n                    <img src=\"bees-with-color/bee-A1SF.svg\" width=\"200\">\n                    <p><span class=\"greenText\"><b>Successful harvest!</b></span><br>Your pay has increased by $0.02. Your bonus pay is now $0.40.</p>\n            ","response":0,"trial_type":"html-button-response","trial_index":92,"time_elapsed":372584,"internal_node_id":"0.0-4.0-1.40","subject_id":"616efbb6f50360c197614d1d","study_id":"6197b3f67c2b5cd3b6d9596a","session_id":"619beef1216ff385cdcccf44","condition":"contingent","relevant_dimensions":["antennae","legs"],"bee_group":{"antennae":"A","wings":"X","pattern":"X","legs":"M"},"bonus":1.020000000000001},{"rt":1884.7000000476837,"stimulus":"bees-with-color/bee-A2DF.svg","response":0,"trial_type":"image-button-response","trial_index":93,"time_elapsed":374474,"internal_node_id":"0.0-4.0-0.41","subject_id":"616efbb6f50360c197614d1d","study_id":"6197b3f67c2b5cd3b6d9596a","session_id":"619beef1216ff385cdcccf44","condition":"contingent","relevant_dimensions":["antennae","legs"],"bee_group":{"antennae":"A","wings":"X","pattern":"X","legs":"M"},"action":"harvest","summary":"good-harvest","bonus":1.020000000000001},{"rt":1261.6000000238419,"stimulus":"\n                    <p><b>Action: <em>harvest</em></b></p>\n                    <p>This is the bee that you just saw.</p>\n                    <img src=\"bees-with-color/bee-A2DF.svg\" width=\"200\">\n                    <p><span class=\"greenText\"><b>Successful harvest!</b></span><br>Your pay has increased by $0.02. Your bonus pay is now $0.42.</p>\n            ","response":0,"trial_type":"html-button-response","trial_index":94,"time_elapsed":375743,"internal_node_id":"0.0-4.0-1.41","subject_id":"616efbb6f50360c197614d1d","study_id":"6197b3f67c2b5cd3b6d9596a","session_id":"619beef1216ff385cdcccf44","condition":"contingent","relevant_dimensions":["antennae","legs"],"bee_group":{"antennae":"A","wings":"X","pattern":"X","legs":"M"},"bonus":1.020000000000001},{"rt":1735.1999999284744,"stimulus":"bees-with-color/bee-A1DF.svg","response":0,"trial_type":"image-button-response","trial_index":95,"time_elapsed":377486,"internal_node_id":"0.0-4.0-0.42","subject_id":"616efbb6f50360c197614d1d","study_id":"6197b3f67c2b5cd3b6d9596a","session_id":"619beef1216ff385cdcccf44","condition":"contingent","relevant_dimensions":["antennae","legs"],"bee_group":{"antennae":"A","wings":"X","pattern":"X","legs":"M"},"action":"harvest","summary":"good-harvest","bonus":1.020000000000001},{"rt":1167.3999999761581,"stimulus":"\n                    <p><b>Action: <em>harvest</em></b></p>\n                    <p>This is the bee that you just saw.</p>\n                    <img src=\"bees-with-color/bee-A1DF.svg\" width=\"200\">\n                    <p><span class=\"greenText\"><b>Successful harvest!</b></span><br>Your pay has increased by $0.02. Your bonus pay is now $0.44.</p>\n            ","response":0,"trial_type":"html-button-response","trial_index":96,"time_elapsed":378660,"internal_node_id":"0.0-4.0-1.42","subject_id":"616efbb6f50360c197614d1d","study_id":"6197b3f67c2b5cd3b6d9596a","session_id":"619beef1216ff385cdcccf44","condition":"contingent","relevant_dimensions":["antennae","legs"],"bee_group":{"antennae":"A","wings":"X","pattern":"X","legs":"M"},"bonus":1.020000000000001},{"rt":1989.7000000476837,"stimulus":"bees-with-color/bee-B2SM.svg","response":1,"trial_type":"image-button-response","trial_index":97,"time_elapsed":380655,"internal_node_id":"0.0-4.0-0.43","subject_id":"616efbb6f50360c197614d1d","study_id":"6197b3f67c2b5cd3b6d9596a","session_id":"619beef1216ff385cdcccf44","condition":"contingent","relevant_dimensions":["antennae","legs"],"bee_group":{"antennae":"A","wings":"X","pattern":"X","legs":"M"},"action":"avoid","summary":"bad-avoid","bonus":1.020000000000001},{"rt":1175.2000000476837,"stimulus":"\n                    <p><b>Action: <em>avoid</em></b></p>\n                    <p>This is the bee that you just saw.</p>\n                    <img src=\"bees-with-color/bee-B2SM.svg\" width=\"200\">\n                    <p><br>Your bonus pay is unchanged, and remains at $0.44.</p>\n            ","response":0,"trial_type":"html-button-response","trial_index":98,"time_elapsed":381835,"internal_node_id":"0.0-4.0-1.43","subject_id":"616efbb6f50360c197614d1d","study_id":"6197b3f67c2b5cd3b6d9596a","session_id":"619beef1216ff385cdcccf44","condition":"contingent","relevant_dimensions":["antennae","legs"],"bee_group":{"antennae":"A","wings":"X","pattern":"X","legs":"M"},"bonus":1.020000000000001},{"rt":1370.2999999523163,"stimulus":"bees-with-color/bee-A2DM.svg","response":1,"trial_type":"image-button-response","trial_index":99,"time_elapsed":383211,"internal_node_id":"0.0-4.0-0.44","subject_id":"616efbb6f50360c197614d1d","study_id":"6197b3f67c2b5cd3b6d9596a","session_id":"619beef1216ff385cdcccf44","condition":"contingent","relevant_dimensions":["antennae","legs"],"bee_group":{"antennae":"A","wings":"X","pattern":"X","legs":"M"},"action":"avoid","summary":"good-avoid","bonus":1.020000000000001},{"rt":1048.6000000238419,"stimulus":"\n                    <p><b>Action: <em>avoid</em></b></p>\n                    <p>This is the bee that you just saw.</p>\n                    <img src=\"bees-with-color/bee-A2DM.svg\" width=\"200\">\n                    <p><br>Your bonus pay is unchanged, and remains at $0.44.</p>\n            ","response":0,"trial_type":"html-button-response","trial_index":100,"time_elapsed":384265,"internal_node_id":"0.0-4.0-1.44","subject_id":"616efbb6f50360c197614d1d","study_id":"6197b3f67c2b5cd3b6d9596a","session_id":"619beef1216ff385cdcccf44","condition":"contingent","relevant_dimensions":["antennae","legs"],"bee_group":{"antennae":"A","wings":"X","pattern":"X","legs":"M"},"bonus":1.020000000000001},{"rt":2377.100000023842,"stimulus":"bees-with-color/bee-B1DM.svg","response":0,"trial_type":"image-button-response","trial_index":101,"time_elapsed":386647,"internal_node_id":"0.0-4.0-0.45","subject_id":"616efbb6f50360c197614d1d","study_id":"6197b3f67c2b5cd3b6d9596a","session_id":"619beef1216ff385cdcccf44","condition":"contingent","relevant_dimensions":["antennae","legs"],"bee_group":{"antennae":"A","wings":"X","pattern":"X","legs":"M"},"action":"harvest","summary":"good-harvest","bonus":1.020000000000001},{"rt":1432,"stimulus":"\n                    <p><b>Action: <em>harvest</em></b></p>\n                    <p>This is the bee that you just saw.</p>\n                    <img src=\"bees-with-color/bee-B1DM.svg\" width=\"200\">\n                    <p><span class=\"greenText\"><b>Successful harvest!</b></span><br>Your pay has increased by $0.02. Your bonus pay is now $0.46.</p>\n            ","response":0,"trial_type":"html-button-response","trial_index":102,"time_elapsed":388084,"internal_node_id":"0.0-4.0-1.45","subject_id":"616efbb6f50360c197614d1d","study_id":"6197b3f67c2b5cd3b6d9596a","session_id":"619beef1216ff385cdcccf44","condition":"contingent","relevant_dimensions":["antennae","legs"],"bee_group":{"antennae":"A","wings":"X","pattern":"X","legs":"M"},"bonus":1.020000000000001},{"rt":1643.2000000476837,"stimulus":"bees-with-color/bee-A2SM.svg","response":1,"trial_type":"image-button-response","trial_index":103,"time_elapsed":389733,"internal_node_id":"0.0-4.0-0.46","subject_id":"616efbb6f50360c197614d1d","study_id":"6197b3f67c2b5cd3b6d9596a","session_id":"619beef1216ff385cdcccf44","condition":"contingent","relevant_dimensions":["antennae","legs"],"bee_group":{"antennae":"A","wings":"X","pattern":"X","legs":"M"},"action":"avoid","summary":"good-avoid","bonus":1.020000000000001},{"rt":1174.5,"stimulus":"\n                    <p><b>Action: <em>avoid</em></b></p>\n                    <p>This is the bee that you just saw.</p>\n                    <img src=\"bees-with-color/bee-A2SM.svg\" width=\"200\">\n                    <p><br>Your bonus pay is unchanged, and remains at $0.46.</p>\n            ","response":0,"trial_type":"html-button-response","trial_index":104,"time_elapsed":390914,"internal_node_id":"0.0-4.0-1.46","subject_id":"616efbb6f50360c197614d1d","study_id":"6197b3f67c2b5cd3b6d9596a","session_id":"619beef1216ff385cdcccf44","condition":"contingent","relevant_dimensions":["antennae","legs"],"bee_group":{"antennae":"A","wings":"X","pattern":"X","legs":"M"},"bonus":1.020000000000001},{"rt":1424.7000000476837,"stimulus":"bees-with-color/bee-B1DF.svg","response":0,"trial_type":"image-button-response","trial_index":105,"time_elapsed":392345,"internal_node_id":"0.0-4.0-0.47","subject_id":"616efbb6f50360c197614d1d","study_id":"6197b3f67c2b5cd3b6d9596a","session_id":"619beef1216ff385cdcccf44","condition":"contingent","relevant_dimensions":["antennae","legs"],"bee_group":{"antennae":"A","wings":"X","pattern":"X","legs":"M"},"action":"harvest","summary":"good-harvest","bonus":1.020000000000001},{"rt":1122,"stimulus":"\n                    <p><b>Action: <em>harvest</em></b></p>\n                    <p>This is the bee that you just saw.</p>\n                    <img src=\"bees-with-color/bee-B1DF.svg\" width=\"200\">\n                    <p><span class=\"greenText\"><b>Successful harvest!</b></span><br>Your pay has increased by $0.02. Your bonus pay is now $0.48.</p>\n            ","response":0,"trial_type":"html-button-response","trial_index":106,"time_elapsed":393473,"internal_node_id":"0.0-4.0-1.47","subject_id":"616efbb6f50360c197614d1d","study_id":"6197b3f67c2b5cd3b6d9596a","session_id":"619beef1216ff385cdcccf44","condition":"contingent","relevant_dimensions":["antennae","legs"],"bee_group":{"antennae":"A","wings":"X","pattern":"X","legs":"M"},"bonus":1.020000000000001},{"rt":1967.2000000476837,"stimulus":"bees-with-color/bee-A1SF.svg","response":0,"trial_type":"image-button-response","trial_index":107,"time_elapsed":395447,"internal_node_id":"0.0-4.0-0.48","subject_id":"616efbb6f50360c197614d1d","study_id":"6197b3f67c2b5cd3b6d9596a","session_id":"619beef1216ff385cdcccf44","condition":"contingent","relevant_dimensions":["antennae","legs"],"bee_group":{"antennae":"A","wings":"X","pattern":"X","legs":"M"},"action":"harvest","summary":"good-harvest","bonus":1.020000000000001},{"rt":1011,"stimulus":"\n                    <p><b>Action: <em>harvest</em></b></p>\n                    <p>This is the bee that you just saw.</p>\n                    <img src=\"bees-with-color/bee-A1SF.svg\" width=\"200\">\n                    <p><span class=\"greenText\"><b>Successful harvest!</b></span><br>Your pay has increased by $0.02. Your bonus pay is now $0.50.</p>\n            ","response":0,"trial_type":"html-button-response","trial_index":108,"time_elapsed":396463,"internal_node_id":"0.0-4.0-1.48","subject_id":"616efbb6f50360c197614d1d","study_id":"6197b3f67c2b5cd3b6d9596a","session_id":"619beef1216ff385cdcccf44","condition":"contingent","relevant_dimensions":["antennae","legs"],"bee_group":{"antennae":"A","wings":"X","pattern":"X","legs":"M"},"bonus":1.020000000000001},{"rt":1400.6000000238419,"stimulus":"bees-with-color/bee-A2SM.svg","response":1,"trial_type":"image-button-response","trial_index":109,"time_elapsed":397870,"internal_node_id":"0.0-4.0-0.49","subject_id":"616efbb6f50360c197614d1d","study_id":"6197b3f67c2b5cd3b6d9596a","session_id":"619beef1216ff385cdcccf44","condition":"contingent","relevant_dimensions":["antennae","legs"],"bee_group":{"antennae":"A","wings":"X","pattern":"X","legs":"M"},"action":"avoid","summary":"good-avoid","bonus":1.020000000000001},{"rt":1113.8999999761581,"stimulus":"\n                    <p><b>Action: <em>avoid</em></b></p>\n                    <p>This is the bee that you just saw.</p>\n                    <img src=\"bees-with-color/bee-A2SM.svg\" width=\"200\">\n                    <p><br>Your bonus pay is unchanged, and remains at $0.50.</p>\n            ","response":0,"trial_type":"html-button-response","trial_index":110,"time_elapsed":398991,"internal_node_id":"0.0-4.0-1.49","subject_id":"616efbb6f50360c197614d1d","study_id":"6197b3f67c2b5cd3b6d9596a","session_id":"619beef1216ff385cdcccf44","condition":"contingent","relevant_dimensions":["antennae","legs"],"bee_group":{"antennae":"A","wings":"X","pattern":"X","legs":"M"},"bonus":1.020000000000001},{"rt":1405.7999999523163,"stimulus":"bees-with-color/bee-A1DF.svg","response":0,"trial_type":"image-button-response","trial_index":111,"time_elapsed":400402,"internal_node_id":"0.0-4.0-0.50","subject_id":"616efbb6f50360c197614d1d","study_id":"6197b3f67c2b5cd3b6d9596a","session_id":"619beef1216ff385cdcccf44","condition":"contingent","relevant_dimensions":["antennae","legs"],"bee_group":{"antennae":"A","wings":"X","pattern":"X","legs":"M"},"action":"harvest","summary":"good-harvest","bonus":1.020000000000001},{"rt":1122.8000000715256,"stimulus":"\n                    <p><b>Action: <em>harvest</em></b></p>\n                    <p>This is the bee that you just saw.</p>\n                    <img src=\"bees-with-color/bee-A1DF.svg\" width=\"200\">\n                    <p><span class=\"greenText\"><b>Successful harvest!</b></span><br>Your pay has increased by $0.02. Your bonus pay is now $0.52.</p>\n            ","response":0,"trial_type":"html-button-response","trial_index":112,"time_elapsed":401531,"internal_node_id":"0.0-4.0-1.50","subject_id":"616efbb6f50360c197614d1d","study_id":"6197b3f67c2b5cd3b6d9596a","session_id":"619beef1216ff385cdcccf44","condition":"contingent","relevant_dimensions":["antennae","legs"],"bee_group":{"antennae":"A","wings":"X","pattern":"X","legs":"M"},"bonus":1.020000000000001},{"rt":3095.7000000476837,"stimulus":"bees-with-color/bee-A2DF.svg","response":0,"trial_type":"image-button-response","trial_index":113,"time_elapsed":404632,"internal_node_id":"0.0-4.0-0.51","subject_id":"616efbb6f50360c197614d1d","study_id":"6197b3f67c2b5cd3b6d9596a","session_id":"619beef1216ff385cdcccf44","condition":"contingent","relevant_dimensions":["antennae","legs"],"bee_group":{"antennae":"A","wings":"X","pattern":"X","legs":"M"},"action":"harvest","summary":"good-harvest","bonus":1.020000000000001},{"rt":1682.1000000238419,"stimulus":"\n                    <p><b>Action: <em>harvest</em></b></p>\n                    <p>This is the bee that you just saw.</p>\n                    <img src=\"bees-with-color/bee-A2DF.svg\" width=\"200\">\n                    <p><span class=\"greenText\"><b>Successful harvest!</b></span><br>Your pay has increased by $0.02. Your bonus pay is now $0.54.</p>\n            ","response":0,"trial_type":"html-button-response","trial_index":114,"time_elapsed":406318,"internal_node_id":"0.0-4.0-1.51","subject_id":"616efbb6f50360c197614d1d","study_id":"6197b3f67c2b5cd3b6d9596a","session_id":"619beef1216ff385cdcccf44","condition":"contingent","relevant_dimensions":["antennae","legs"],"bee_group":{"antennae":"A","wings":"X","pattern":"X","legs":"M"},"bonus":1.020000000000001},{"rt":1699.5,"stimulus":"bees-with-color/bee-B1DF.svg","response":0,"trial_type":"image-button-response","trial_index":115,"time_elapsed":408022,"internal_node_id":"0.0-4.0-0.52","subject_id":"616efbb6f50360c197614d1d","study_id":"6197b3f67c2b5cd3b6d9596a","session_id":"619beef1216ff385cdcccf44","condition":"contingent","relevant_dimensions":["antennae","legs"],"bee_group":{"antennae":"A","wings":"X","pattern":"X","legs":"M"},"action":"harvest","summary":"good-harvest","bonus":1.020000000000001},{"rt":1137.5,"stimulus":"\n                    <p><b>Action: <em>harvest</em></b></p>\n                    <p>This is the bee that you just saw.</p>\n                    <img src=\"bees-with-color/bee-B1DF.svg\" width=\"200\">\n                    <p><span class=\"greenText\"><b>Successful harvest!</b></span><br>Your pay has increased by $0.02. Your bonus pay is now $0.56.</p>\n            ","response":0,"trial_type":"html-button-response","trial_index":116,"time_elapsed":409164,"internal_node_id":"0.0-4.0-1.52","subject_id":"616efbb6f50360c197614d1d","study_id":"6197b3f67c2b5cd3b6d9596a","session_id":"619beef1216ff385cdcccf44","condition":"contingent","relevant_dimensions":["antennae","legs"],"bee_group":{"antennae":"A","wings":"X","pattern":"X","legs":"M"},"bonus":1.020000000000001},{"rt":1367.6999999284744,"stimulus":"bees-with-color/bee-A2DM.svg","response":1,"trial_type":"image-button-response","trial_index":117,"time_elapsed":410538,"internal_node_id":"0.0-4.0-0.53","subject_id":"616efbb6f50360c197614d1d","study_id":"6197b3f67c2b5cd3b6d9596a","session_id":"619beef1216ff385cdcccf44","condition":"contingent","relevant_dimensions":["antennae","legs"],"bee_group":{"antennae":"A","wings":"X","pattern":"X","legs":"M"},"action":"avoid","summary":"good-avoid","bonus":1.020000000000001},{"rt":1221,"stimulus":"\n                    <p><b>Action: <em>avoid</em></b></p>\n                    <p>This is the bee that you just saw.</p>\n                    <img src=\"bees-with-color/bee-A2DM.svg\" width=\"200\">\n                    <p><br>Your bonus pay is unchanged, and remains at $0.56.</p>\n            ","response":0,"trial_type":"html-button-response","trial_index":118,"time_elapsed":411765,"internal_node_id":"0.0-4.0-1.53","subject_id":"616efbb6f50360c197614d1d","study_id":"6197b3f67c2b5cd3b6d9596a","session_id":"619beef1216ff385cdcccf44","condition":"contingent","relevant_dimensions":["antennae","legs"],"bee_group":{"antennae":"A","wings":"X","pattern":"X","legs":"M"},"bonus":1.020000000000001},{"rt":1181.2999999523163,"stimulus":"bees-with-color/bee-B2DM.svg","response":1,"trial_type":"image-button-response","trial_index":119,"time_elapsed":412953,"internal_node_id":"0.0-4.0-0.54","subject_id":"616efbb6f50360c197614d1d","study_id":"6197b3f67c2b5cd3b6d9596a","session_id":"619beef1216ff385cdcccf44","condition":"contingent","relevant_dimensions":["antennae","legs"],"bee_group":{"antennae":"A","wings":"X","pattern":"X","legs":"M"},"action":"avoid","summary":"bad-avoid","bonus":1.020000000000001},{"rt":978.5,"stimulus":"\n                    <p><b>Action: <em>avoid</em></b></p>\n                    <p>This is the bee that you just saw.</p>\n                    <img src=\"bees-with-color/bee-B2DM.svg\" width=\"200\">\n                    <p><br>Your bonus pay is unchanged, and remains at $0.56.</p>\n            ","response":0,"trial_type":"html-button-response","trial_index":120,"time_elapsed":413938,"internal_node_id":"0.0-4.0-1.54","subject_id":"616efbb6f50360c197614d1d","study_id":"6197b3f67c2b5cd3b6d9596a","session_id":"619beef1216ff385cdcccf44","condition":"contingent","relevant_dimensions":["antennae","legs"],"bee_group":{"antennae":"A","wings":"X","pattern":"X","legs":"M"},"bonus":1.020000000000001},{"rt":1400,"stimulus":"bees-with-color/bee-B1SF.svg","response":0,"trial_type":"image-button-response","trial_index":121,"time_elapsed":415343,"internal_node_id":"0.0-4.0-0.55","subject_id":"616efbb6f50360c197614d1d","study_id":"6197b3f67c2b5cd3b6d9596a","session_id":"619beef1216ff385cdcccf44","condition":"contingent","relevant_dimensions":["antennae","legs"],"bee_group":{"antennae":"A","wings":"X","pattern":"X","legs":"M"},"action":"harvest","summary":"good-harvest","bonus":1.020000000000001},{"rt":1097.7000000476837,"stimulus":"\n                    <p><b>Action: <em>harvest</em></b></p>\n                    <p>This is the bee that you just saw.</p>\n                    <img src=\"bees-with-color/bee-B1SF.svg\" width=\"200\">\n                    <p><span class=\"greenText\"><b>Successful harvest!</b></span><br>Your pay has increased by $0.02. Your bonus pay is now $0.58.</p>\n            ","response":0,"trial_type":"html-button-response","trial_index":122,"time_elapsed":416447,"internal_node_id":"0.0-4.0-1.55","subject_id":"616efbb6f50360c197614d1d","study_id":"6197b3f67c2b5cd3b6d9596a","session_id":"619beef1216ff385cdcccf44","condition":"contingent","relevant_dimensions":["antennae","legs"],"bee_group":{"antennae":"A","wings":"X","pattern":"X","legs":"M"},"bonus":1.020000000000001},{"rt":1257.3000000715256,"stimulus":"bees-with-color/bee-B1DM.svg","response":1,"trial_type":"image-button-response","trial_index":123,"time_elapsed":417708,"internal_node_id":"0.0-4.0-0.56","subject_id":"616efbb6f50360c197614d1d","study_id":"6197b3f67c2b5cd3b6d9596a","session_id":"619beef1216ff385cdcccf44","condition":"contingent","relevant_dimensions":["antennae","legs"],"bee_group":{"antennae":"A","wings":"X","pattern":"X","legs":"M"},"action":"avoid","summary":"bad-avoid","bonus":1.020000000000001},{"rt":1039.1000000238419,"stimulus":"\n                    <p><b>Action: <em>avoid</em></b></p>\n                    <p>This is the bee that you just saw.</p>\n                    <img src=\"bees-with-color/bee-B1DM.svg\" width=\"200\">\n                    <p><br>Your bonus pay is unchanged, and remains at $0.58.</p>\n            ","response":0,"trial_type":"html-button-response","trial_index":124,"time_elapsed":418751,"internal_node_id":"0.0-4.0-1.56","subject_id":"616efbb6f50360c197614d1d","study_id":"6197b3f67c2b5cd3b6d9596a","session_id":"619beef1216ff385cdcccf44","condition":"contingent","relevant_dimensions":["antennae","legs"],"bee_group":{"antennae":"A","wings":"X","pattern":"X","legs":"M"},"bonus":1.020000000000001},{"rt":4017.100000023842,"stimulus":"bees-with-color/bee-B1SM.svg","response":1,"trial_type":"image-button-response","trial_index":125,"time_elapsed":422776,"internal_node_id":"0.0-4.0-0.57","subject_id":"616efbb6f50360c197614d1d","study_id":"6197b3f67c2b5cd3b6d9596a","session_id":"619beef1216ff385cdcccf44","condition":"contingent","relevant_dimensions":["antennae","legs"],"bee_group":{"antennae":"A","wings":"X","pattern":"X","legs":"M"},"action":"avoid","summary":"bad-avoid","bonus":1.020000000000001},{"rt":988.8999999761581,"stimulus":"\n                    <p><b>Action: <em>avoid</em></b></p>\n                    <p>This is the bee that you just saw.</p>\n                    <img src=\"bees-with-color/bee-B1SM.svg\" width=\"200\">\n                    <p><br>Your bonus pay is unchanged, and remains at $0.58.</p>\n            ","response":0,"trial_type":"html-button-response","trial_index":126,"time_elapsed":423773,"internal_node_id":"0.0-4.0-1.57","subject_id":"616efbb6f50360c197614d1d","study_id":"6197b3f67c2b5cd3b6d9596a","session_id":"619beef1216ff385cdcccf44","condition":"contingent","relevant_dimensions":["antennae","legs"],"bee_group":{"antennae":"A","wings":"X","pattern":"X","legs":"M"},"bonus":1.020000000000001},{"rt":1587.7000000476837,"stimulus":"bees-with-color/bee-B2SF.svg","response":0,"trial_type":"image-button-response","trial_index":127,"time_elapsed":425368,"internal_node_id":"0.0-4.0-0.58","subject_id":"616efbb6f50360c197614d1d","study_id":"6197b3f67c2b5cd3b6d9596a","session_id":"619beef1216ff385cdcccf44","condition":"contingent","relevant_dimensions":["antennae","legs"],"bee_group":{"antennae":"A","wings":"X","pattern":"X","legs":"M"},"action":"harvest","summary":"good-harvest","bonus":1.020000000000001},{"rt":1000.8999999761581,"stimulus":"\n                    <p><b>Action: <em>harvest</em></b></p>\n                    <p>This is the bee that you just saw.</p>\n                    <img src=\"bees-with-color/bee-B2SF.svg\" width=\"200\">\n                    <p><span class=\"greenText\"><b>Successful harvest!</b></span><br>Your pay has increased by $0.02. Your bonus pay is now $0.60.</p>\n            ","response":0,"trial_type":"html-button-response","trial_index":128,"time_elapsed":426375,"internal_node_id":"0.0-4.0-1.58","subject_id":"616efbb6f50360c197614d1d","study_id":"6197b3f67c2b5cd3b6d9596a","session_id":"619beef1216ff385cdcccf44","condition":"contingent","relevant_dimensions":["antennae","legs"],"bee_group":{"antennae":"A","wings":"X","pattern":"X","legs":"M"},"bonus":1.020000000000001},{"rt":1746.5,"stimulus":"bees-with-color/bee-A1DM.svg","response":1,"trial_type":"image-button-response","trial_index":129,"time_elapsed":428126,"internal_node_id":"0.0-4.0-0.59","subject_id":"616efbb6f50360c197614d1d","study_id":"6197b3f67c2b5cd3b6d9596a","session_id":"619beef1216ff385cdcccf44","condition":"contingent","relevant_dimensions":["antennae","legs"],"bee_group":{"antennae":"A","wings":"X","pattern":"X","legs":"M"},"action":"avoid","summary":"good-avoid","bonus":1.020000000000001},{"rt":949.2000000476837,"stimulus":"\n                    <p><b>Action: <em>avoid</em></b></p>\n                    <p>This is the bee that you just saw.</p>\n                    <img src=\"bees-with-color/bee-A1DM.svg\" width=\"200\">\n                    <p><br>Your bonus pay is unchanged, and remains at $0.60.</p>\n            ","response":0,"trial_type":"html-button-response","trial_index":130,"time_elapsed":429079,"internal_node_id":"0.0-4.0-1.59","subject_id":"616efbb6f50360c197614d1d","study_id":"6197b3f67c2b5cd3b6d9596a","session_id":"619beef1216ff385cdcccf44","condition":"contingent","relevant_dimensions":["antennae","legs"],"bee_group":{"antennae":"A","wings":"X","pattern":"X","legs":"M"},"bonus":1.020000000000001},{"rt":2066.9000000953674,"stimulus":"bees-with-color/bee-B2SM.svg","response":1,"trial_type":"image-button-response","trial_index":131,"time_elapsed":431150,"internal_node_id":"0.0-4.0-0.60","subject_id":"616efbb6f50360c197614d1d","study_id":"6197b3f67c2b5cd3b6d9596a","session_id":"619beef1216ff385cdcccf44","condition":"contingent","relevant_dimensions":["antennae","legs"],"bee_group":{"antennae":"A","wings":"X","pattern":"X","legs":"M"},"action":"avoid","summary":"bad-avoid","bonus":1.020000000000001},{"rt":984.8000000715256,"stimulus":"\n                    <p><b>Action: <em>avoid</em></b></p>\n                    <p>This is the bee that you just saw.</p>\n                    <img src=\"bees-with-color/bee-B2SM.svg\" width=\"200\">\n                    <p><br>Your bonus pay is unchanged, and remains at $0.60.</p>\n            ","response":0,"trial_type":"html-button-response","trial_index":132,"time_elapsed":432138,"internal_node_id":"0.0-4.0-1.60","subject_id":"616efbb6f50360c197614d1d","study_id":"6197b3f67c2b5cd3b6d9596a","session_id":"619beef1216ff385cdcccf44","condition":"contingent","relevant_dimensions":["antennae","legs"],"bee_group":{"antennae":"A","wings":"X","pattern":"X","legs":"M"},"bonus":1.020000000000001},{"rt":1319.1999999284744,"stimulus":"bees-with-color/bee-A2SF.svg","response":0,"trial_type":"image-button-response","trial_index":133,"time_elapsed":433461,"internal_node_id":"0.0-4.0-0.61","subject_id":"616efbb6f50360c197614d1d","study_id":"6197b3f67c2b5cd3b6d9596a","session_id":"619beef1216ff385cdcccf44","condition":"contingent","relevant_dimensions":["antennae","legs"],"bee_group":{"antennae":"A","wings":"X","pattern":"X","legs":"M"},"action":"harvest","summary":"good-harvest","bonus":1.020000000000001},{"rt":1038.8999999761581,"stimulus":"\n                    <p><b>Action: <em>harvest</em></b></p>\n                    <p>This is the bee that you just saw.</p>\n                    <img src=\"bees-with-color/bee-A2SF.svg\" width=\"200\">\n                    <p><span class=\"greenText\"><b>Successful harvest!</b></span><br>Your pay has increased by $0.02. Your bonus pay is now $0.62.</p>\n            ","response":0,"trial_type":"html-button-response","trial_index":134,"time_elapsed":434506,"internal_node_id":"0.0-4.0-1.61","subject_id":"616efbb6f50360c197614d1d","study_id":"6197b3f67c2b5cd3b6d9596a","session_id":"619beef1216ff385cdcccf44","condition":"contingent","relevant_dimensions":["antennae","legs"],"bee_group":{"antennae":"A","wings":"X","pattern":"X","legs":"M"},"bonus":1.020000000000001},{"rt":1696.1000000238419,"stimulus":"bees-with-color/bee-A1SM.svg","response":1,"trial_type":"image-button-response","trial_index":135,"time_elapsed":436207,"internal_node_id":"0.0-4.0-0.62","subject_id":"616efbb6f50360c197614d1d","study_id":"6197b3f67c2b5cd3b6d9596a","session_id":"619beef1216ff385cdcccf44","condition":"contingent","relevant_dimensions":["antennae","legs"],"bee_group":{"antennae":"A","wings":"X","pattern":"X","legs":"M"},"action":"avoid","summary":"good-avoid","bonus":1.020000000000001},{"rt":1008.5999999046326,"stimulus":"\n                    <p><b>Action: <em>avoid</em></b></p>\n                    <p>This is the bee that you just saw.</p>\n                    <img src=\"bees-with-color/bee-A1SM.svg\" width=\"200\">\n                    <p><br>Your bonus pay is unchanged, and remains at $0.62.</p>\n            ","response":0,"trial_type":"html-button-response","trial_index":136,"time_elapsed":437221,"internal_node_id":"0.0-4.0-1.62","subject_id":"616efbb6f50360c197614d1d","study_id":"6197b3f67c2b5cd3b6d9596a","session_id":"619beef1216ff385cdcccf44","condition":"contingent","relevant_dimensions":["antennae","legs"],"bee_group":{"antennae":"A","wings":"X","pattern":"X","legs":"M"},"bonus":1.020000000000001},{"rt":1781.4000000953674,"stimulus":"bees-with-color/bee-B2DF.svg","response":0,"trial_type":"image-button-response","trial_index":137,"time_elapsed":439007,"internal_node_id":"0.0-4.0-0.63","subject_id":"616efbb6f50360c197614d1d","study_id":"6197b3f67c2b5cd3b6d9596a","session_id":"619beef1216ff385cdcccf44","condition":"contingent","relevant_dimensions":["antennae","legs"],"bee_group":{"antennae":"A","wings":"X","pattern":"X","legs":"M"},"action":"harvest","summary":"good-harvest","bonus":1.020000000000001},{"rt":1258.1999999284744,"stimulus":"\n                    <p><b>Action: <em>harvest</em></b></p>\n                    <p>This is the bee that you just saw.</p>\n                    <img src=\"bees-with-color/bee-B2DF.svg\" width=\"200\">\n                    <p><span class=\"greenText\"><b>Successful harvest!</b></span><br>Your pay has increased by $0.02. Your bonus pay is now $0.64.</p>\n            ","response":0,"trial_type":"html-button-response","trial_index":138,"time_elapsed":440271,"internal_node_id":"0.0-4.0-1.63","subject_id":"616efbb6f50360c197614d1d","study_id":"6197b3f67c2b5cd3b6d9596a","session_id":"619beef1216ff385cdcccf44","condition":"contingent","relevant_dimensions":["antennae","legs"],"bee_group":{"antennae":"A","wings":"X","pattern":"X","legs":"M"},"bonus":1.020000000000001},{"rt":2641.7000000476837,"stimulus":"You have completed the first part of this experiment.<br><br>You will now begin a shorter second part, in which you will receive no feedback.<br>The same rules regarding bonus pay apply.<br><br>Press any key to begin.","response":"b","trial_type":"html-keyboard-response","trial_index":139,"time_elapsed":442919,"internal_node_id":"0.0-5.0","subject_id":"616efbb6f50360c197614d1d","study_id":"6197b3f67c2b5cd3b6d9596a","session_id":"619beef1216ff385cdcccf44","condition":"contingent","relevant_dimensions":["antennae","legs"],"bee_group":{"antennae":"A","wings":"X","pattern":"X","legs":"M"},"bonus":1.020000000000001},{"rt":3853.4000000953674,"stimulus":"bees-with-color/bee-A1DF.svg","response":0,"trial_type":"image-button-response","trial_index":140,"time_elapsed":446792,"internal_node_id":"0.0-6.0-0.0","subject_id":"616efbb6f50360c197614d1d","study_id":"6197b3f67c2b5cd3b6d9596a","session_id":"619beef1216ff385cdcccf44","condition":"contingent","relevant_dimensions":["antennae","legs"],"bee_group":{"antennae":"A","wings":"X","pattern":"X","legs":"M"},"bonus":1.020000000000001},{"rt":1530.5,"stimulus":"bees-with-color/bee-A2DM.svg","response":1,"trial_type":"image-button-response","trial_index":141,"time_elapsed":448333,"internal_node_id":"0.0-6.0-0.1","subject_id":"616efbb6f50360c197614d1d","study_id":"6197b3f67c2b5cd3b6d9596a","session_id":"619beef1216ff385cdcccf44","condition":"contingent","relevant_dimensions":["antennae","legs"],"bee_group":{"antennae":"A","wings":"X","pattern":"X","legs":"M"},"bonus":1.020000000000001},{"rt":1710.1999999284744,"stimulus":"bees-with-color/bee-A2SF.svg","response":0,"trial_type":"image-button-response","trial_index":142,"time_elapsed":450051,"internal_node_id":"0.0-6.0-0.2","subject_id":"616efbb6f50360c197614d1d","study_id":"6197b3f67c2b5cd3b6d9596a","session_id":"619beef1216ff385cdcccf44","condition":"contingent","relevant_dimensions":["antennae","legs"],"bee_group":{"antennae":"A","wings":"X","pattern":"X","legs":"M"},"bonus":1.020000000000001},{"rt":1024.6000000238419,"stimulus":"bees-with-color/bee-A2SM.svg","response":1,"trial_type":"image-button-response","trial_index":143,"time_elapsed":451085,"internal_node_id":"0.0-6.0-0.3","subject_id":"616efbb6f50360c197614d1d","study_id":"6197b3f67c2b5cd3b6d9596a","session_id":"619beef1216ff385cdcccf44","condition":"contingent","relevant_dimensions":["antennae","legs"],"bee_group":{"antennae":"A","wings":"X","pattern":"X","legs":"M"},"bonus":1.020000000000001},{"rt":1228.8000000715256,"stimulus":"bees-with-color/bee-B2SF.svg","response":0,"trial_type":"image-button-response","trial_index":144,"time_elapsed":452322,"internal_node_id":"0.0-6.0-0.4","subject_id":"616efbb6f50360c197614d1d","study_id":"6197b3f67c2b5cd3b6d9596a","session_id":"619beef1216ff385cdcccf44","condition":"contingent","relevant_dimensions":["antennae","legs"],"bee_group":{"antennae":"A","wings":"X","pattern":"X","legs":"M"},"bonus":1.020000000000001},{"rt":841,"stimulus":"bees-with-color/bee-B2DF.svg","response":0,"trial_type":"image-button-response","trial_index":145,"time_elapsed":453173,"internal_node_id":"0.0-6.0-0.5","subject_id":"616efbb6f50360c197614d1d","study_id":"6197b3f67c2b5cd3b6d9596a","session_id":"619beef1216ff385cdcccf44","condition":"contingent","relevant_dimensions":["antennae","legs"],"bee_group":{"antennae":"A","wings":"X","pattern":"X","legs":"M"},"bonus":1.020000000000001},{"rt":781.1000000238419,"stimulus":"bees-with-color/bee-B1DF.svg","response":0,"trial_type":"image-button-response","trial_index":146,"time_elapsed":453961,"internal_node_id":"0.0-6.0-0.6","subject_id":"616efbb6f50360c197614d1d","study_id":"6197b3f67c2b5cd3b6d9596a","session_id":"619beef1216ff385cdcccf44","condition":"contingent","relevant_dimensions":["antennae","legs"],"bee_group":{"antennae":"A","wings":"X","pattern":"X","legs":"M"},"bonus":1.020000000000001},{"rt":913.7000000476837,"stimulus":"bees-with-color/bee-B1SF.svg","response":0,"trial_type":"image-button-response","trial_index":147,"time_elapsed":454884,"internal_node_id":"0.0-6.0-0.7","subject_id":"616efbb6f50360c197614d1d","study_id":"6197b3f67c2b5cd3b6d9596a","session_id":"619beef1216ff385cdcccf44","condition":"contingent","relevant_dimensions":["antennae","legs"],"bee_group":{"antennae":"A","wings":"X","pattern":"X","legs":"M"},"bonus":1.020000000000001},{"rt":1541.8000000715256,"stimulus":"bees-with-color/bee-A2DF.svg","response":1,"trial_type":"image-button-response","trial_index":148,"time_elapsed":456437,"internal_node_id":"0.0-6.0-0.8","subject_id":"616efbb6f50360c197614d1d","study_id":"6197b3f67c2b5cd3b6d9596a","session_id":"619beef1216ff385cdcccf44","condition":"contingent","relevant_dimensions":["antennae","legs"],"bee_group":{"antennae":"A","wings":"X","pattern":"X","legs":"M"},"bonus":1.020000000000001},{"rt":1847.5,"stimulus":"bees-with-color/bee-B1SM.svg","response":1,"trial_type":"image-button-response","trial_index":149,"time_elapsed":458294,"internal_node_id":"0.0-6.0-0.9","subject_id":"616efbb6f50360c197614d1d","study_id":"6197b3f67c2b5cd3b6d9596a","session_id":"619beef1216ff385cdcccf44","condition":"contingent","relevant_dimensions":["antennae","legs"],"bee_group":{"antennae":"A","wings":"X","pattern":"X","legs":"M"},"bonus":1.020000000000001},{"rt":1703.5,"stimulus":"bees-with-color/bee-A1SF.svg","response":0,"trial_type":"image-button-response","trial_index":150,"time_elapsed":460005,"internal_node_id":"0.0-6.0-0.10","subject_id":"616efbb6f50360c197614d1d","study_id":"6197b3f67c2b5cd3b6d9596a","session_id":"619beef1216ff385cdcccf44","condition":"contingent","relevant_dimensions":["antennae","legs"],"bee_group":{"antennae":"A","wings":"X","pattern":"X","legs":"M"},"bonus":1.020000000000001},{"rt":1140.4000000953674,"stimulus":"bees-with-color/bee-A1SM.svg","response":1,"trial_type":"image-button-response","trial_index":151,"time_elapsed":461154,"internal_node_id":"0.0-6.0-0.11","subject_id":"616efbb6f50360c197614d1d","study_id":"6197b3f67c2b5cd3b6d9596a","session_id":"619beef1216ff385cdcccf44","condition":"contingent","relevant_dimensions":["antennae","legs"],"bee_group":{"antennae":"A","wings":"X","pattern":"X","legs":"M"},"bonus":1.020000000000001},{"rt":1447.5,"stimulus":"bees-with-color/bee-A1DM.svg","response":1,"trial_type":"image-button-response","trial_index":152,"time_elapsed":462611,"internal_node_id":"0.0-6.0-0.12","subject_id":"616efbb6f50360c197614d1d","study_id":"6197b3f67c2b5cd3b6d9596a","session_id":"619beef1216ff385cdcccf44","condition":"contingent","relevant_dimensions":["antennae","legs"],"bee_group":{"antennae":"A","wings":"X","pattern":"X","legs":"M"},"bonus":1.020000000000001},{"rt":3713,"stimulus":"bees-with-color/bee-B2DM.svg","response":0,"trial_type":"image-button-response","trial_index":153,"time_elapsed":466332,"internal_node_id":"0.0-6.0-0.13","subject_id":"616efbb6f50360c197614d1d","study_id":"6197b3f67c2b5cd3b6d9596a","session_id":"619beef1216ff385cdcccf44","condition":"contingent","relevant_dimensions":["antennae","legs"],"bee_group":{"antennae":"A","wings":"X","pattern":"X","legs":"M"},"bonus":1.020000000000001},{"rt":1557.6000000238419,"stimulus":"bees-with-color/bee-B1DM.svg","response":0,"trial_type":"image-button-response","trial_index":154,"time_elapsed":467895,"internal_node_id":"0.0-6.0-0.14","subject_id":"616efbb6f50360c197614d1d","study_id":"6197b3f67c2b5cd3b6d9596a","session_id":"619beef1216ff385cdcccf44","condition":"contingent","relevant_dimensions":["antennae","legs"],"bee_group":{"antennae":"A","wings":"X","pattern":"X","legs":"M"},"bonus":1.020000000000001},{"rt":1160.2000000476837,"stimulus":"bees-with-color/bee-B2SM.svg","response":1,"trial_type":"image-button-response","trial_index":155,"time_elapsed":469060,"internal_node_id":"0.0-6.0-0.15","subject_id":"616efbb6f50360c197614d1d","study_id":"6197b3f67c2b5cd3b6d9596a","session_id":"619beef1216ff385cdcccf44","condition":"contingent","relevant_dimensions":["antennae","legs"],"bee_group":{"antennae":"A","wings":"X","pattern":"X","legs":"M"},"bonus":1.020000000000001},{"rt":1099.8999999761581,"stimulus":"bees-with-color/bee-A1DM.svg","response":1,"trial_type":"image-button-response","trial_index":156,"time_elapsed":470165,"internal_node_id":"0.0-6.0-0.16","subject_id":"616efbb6f50360c197614d1d","study_id":"6197b3f67c2b5cd3b6d9596a","session_id":"619beef1216ff385cdcccf44","condition":"contingent","relevant_dimensions":["antennae","legs"],"bee_group":{"antennae":"A","wings":"X","pattern":"X","legs":"M"},"bonus":1.020000000000001},{"rt":12316.399999976158,"stimulus":"bees-with-color/bee-B2SM.svg","response":0,"trial_type":"image-button-response","trial_index":157,"time_elapsed":482486,"internal_node_id":"0.0-6.0-0.17","subject_id":"616efbb6f50360c197614d1d","study_id":"6197b3f67c2b5cd3b6d9596a","session_id":"619beef1216ff385cdcccf44","condition":"contingent","relevant_dimensions":["antennae","legs"],"bee_group":{"antennae":"A","wings":"X","pattern":"X","legs":"M"},"bonus":1.020000000000001},{"rt":1742.1000000238419,"stimulus":"bees-with-color/bee-B2SF.svg","response":0,"trial_type":"image-button-response","trial_index":158,"time_elapsed":484236,"internal_node_id":"0.0-6.0-0.18","subject_id":"616efbb6f50360c197614d1d","study_id":"6197b3f67c2b5cd3b6d9596a","session_id":"619beef1216ff385cdcccf44","condition":"contingent","relevant_dimensions":["antennae","legs"],"bee_group":{"antennae":"A","wings":"X","pattern":"X","legs":"M"},"bonus":1.020000000000001},{"rt":1481.5,"stimulus":"bees-with-color/bee-A2SF.svg","response":0,"trial_type":"image-button-response","trial_index":159,"time_elapsed":485725,"