[{"success":true,"trial_type":"fullscreen","trial_index":0,"time_elapsed":6798,"internal_node_id":"0.0-0.0","subject_id":"5ea19dcac30e0005e6e6b6e3","study_id":"6197b3f67c2b5cd3b6d9596a","session_id":"619bfbdff4c6938e35c4736a","condition":"full-information","relevant_dimensions":["antennae","pattern"],"bee_group":{"antennae":"A","wings":"X","pattern":"D","legs":"X"},"bonus":0.02},{"success":true,"timeout":false,"failed_images":[],"failed_audio":[],"failed_video":[],"trial_type":"preload","trial_index":1,"time_elapsed":8071,"internal_node_id":"0.0-1.0","subject_id":"5ea19dcac30e0005e6e6b6e3","study_id":"6197b3f67c2b5cd3b6d9596a","session_id":"619bfbdff4c6938e35c4736a","condition":"full-information","relevant_dimensions":["antennae","pattern"],"bee_group":{"antennae":"A","wings":"X","pattern":"D","legs":"X"},"bonus":0.02},{"rt":15564.199999988079,"stimulus":"Welcome! Press any key to begin.","response":" ","trial_type":"html-keyboard-response","trial_index":2,"time_elapsed":23638,"internal_node_id":"0.0-2.0","subject_id":"5ea19dcac30e0005e6e6b6e3","study_id":"6197b3f67c2b5cd3b6d9596a","session_id":"619bfbdff4c6938e35c4736a","condition":"full-information","relevant_dimensions":["antennae","pattern"],"bee_group":{"antennae":"A","wings":"X","pattern":"D","legs":"X"},"bonus":0.02},{"view_history":[{"page_index":0,"viewing_time":11215.800000011921},{"page_index":1,"viewing_time":27348.5},{"page_index":2,"viewing_time":14499.5},{"page_index":3,"viewing_time":66506.80000001192},{"page_index":4,"viewing_time":12738.199999988079},{"page_index":5,"viewing_time":12296.5},{"page_index":6,"viewing_time":99307.19999998808},{"page_index":7,"viewing_time":8357.400000035763},{"page_index":8,"viewing_time":5959.899999976158},{"page_index":9,"viewing_time":9459},{"page_index":10,"viewing_time":3246.800000011921},{"page_index":11,"viewing_time":20475.600000023842},{"page_index":12,"viewing_time":43841.59999996424},{"page_index":13,"viewing_time":2063.199999988079},{"page_index":14,"viewing_time":3614.300000011921}],"rt":340930.8000000119,"trial_type":"instructions","trial_index":3,"time_elapsed":364570,"internal_node_id":"0.0-3.0-0.0","subject_id":"5ea19dcac30e0005e6e6b6e3","study_id":"6197b3f67c2b5cd3b6d9596a","session_id":"619bfbdff4c6938e35c4736a","condition":"full-information","relevant_dimensions":["antennae","pattern"],"bee_group":{"antennae":"A","wings":"X","pattern":"D","legs":"X"},"bonus":0.02},{"rt":19226,"response":{"Q0":["Two or six legs","Stripes or spots on body","Single or double wings","Antennae or no antennae"]},"question_order":[0],"trial_type":"survey-multi-select","trial_index":4,"time_elapsed":383805,"internal_node_id":"0.0-3.0-1.0","subject_id":"5ea19dcac30e0005e6e6b6e3","study_id":"6197b3f67c2b5cd3b6d9596a","session_id":"619bfbdff4c6938e35c4736a","condition":"full-information","relevant_dimensions":["antennae","pattern"],"bee_group":{"antennae":"A","wings":"X","pattern":"D","legs":"X"},"correct":true,"bonus":0.02},{"rt":34588.19999998808,"response":{"Q1":"No.","Q2":"Based on the four features of the bee.","Q3":"You do not learn if it was friendly or dangerous, and do not alter your bonus."},"question_order":[0,1,2],"trial_type":"survey-multi-choice","trial_index":5,"time_elapsed":418396,"internal_node_id":"0.0-3.0-2.0","subject_id":"5ea19dcac30e0005e6e6b6e3","study_id":"6197b3f67c2b5cd3b6d9596a","session_id":"619bfbdff4c6938e35c4736a","condition":"full-information","relevant_dimensions":["antennae","pattern"],"bee_group":{"antennae":"A","wings":"X","pattern":"D","legs":"X"},"correct":false,"bonus":0.02},{"rt":6042.799999952316,"stimulus":"<p>You did not answer all comprehension questions correctly.<br>Press <b>continue</b> to review the instructions again.</p>","response":0,"trial_type":"html-button-response","trial_index":6,"time_elapsed":424442,"internal_node_id":"0.0-3.0-3.0","subject_id":"5ea19dcac30e0005e6e6b6e3","study_id":"6197b3f67c2b5cd3b6d9596a","session_id":"619bfbdff4c6938e35c4736a","condition":"full-information","relevant_dimensions":["antennae","pattern"],"bee_group":{"antennae":"A","wings":"X","pattern":"D","legs":"X"},"bonus":0.02},{"view_history":[{"page_index":0,"viewing_time":3809.400000035763},{"page_index":1,"viewing_time":4211.699999988079},{"page_index":2,"viewing_time":4185.899999976158},{"page_index":3,"viewing_time":12542.400000035763},{"page_index":4,"viewing_time":7506.099999964237},{"page_index":5,"viewing_time":2494.199999988079},{"page_index":6,"viewing_time":6093.200000047684},{"page_index":7,"viewing_time":1962.3999999761581},{"page_index":8,"viewing_time":612.1999999880791},{"page_index":9,"viewing_time":530.3000000119209},{"page_index":10,"viewing_time":463.39999997615814},{"page_index":11,"viewing_time":2253},{"page_index":12,"viewing_time":1575.800000011921},{"page_index":13,"viewing_time":1516},{"page_index":14,"viewing_time":1139.199999988079}],"rt":50895.80000001192,"trial_type":"instructions","trial_index":7,"time_elapsed":475339,"internal_node_id":"0.0-3.0-4.0-0.0","subject_id":"5ea19dcac30e0005e6e6b6e3","study_id":"6197b3f67c2b5cd3b6d9596a","session_id":"619bfbdff4c6938e35c4736a","condition":"full-information","relevant_dimensions":["antennae","pattern"],"bee_group":{"antennae":"A","wings":"X","pattern":"D","legs":"X"},"bonus":0.02},{"rt":11578.800000011921,"response":{"Q0":["Two or six legs","Stripes or spots on body","Single or double wings","Antennae or no antennae"]},"question_order":[0],"trial_type":"survey-multi-select","trial_index":8,"time_elapsed":486924,"internal_node_id":"0.0-3.0-4.0-1.0","subject_id":"5ea19dcac30e0005e6e6b6e3","study_id":"6197b3f67c2b5cd3b6d9596a","session_id":"619bfbdff4c6938e35c4736a","condition":"full-information","relevant_dimensions":["antennae","pattern"],"bee_group":{"antennae":"A","wings":"X","pattern":"D","legs":"X"},"correct":true,"bonus":0.02},{"rt":23015.30000001192,"response":{"Q1":"No.","Q2":"Based on the four features of the bee.","Q3":"You learn if it was friendly or dangerous, but do not alter your bonus."},"question_order":[0,1,2],"trial_type":"survey-multi-choice","trial_index":9,"time_elapsed":509942,"internal_node_id":"0.0-3.0-4.0-2.0","subject_id":"5ea19dcac30e0005e6e6b6e3","study_id":"6197b3f67c2b5cd3b6d9596a","session_id":"619bfbdff4c6938e35c4736a","condition":"full-information","relevant_dimensions":["antennae","pattern"],"bee_group":{"antennae":"A","wings":"X","pattern":"D","legs":"X"},"correct":true,"bonus":0.02},{"rt":2437,"stimulus":"<p>Congrats, you got everything right<br>When you're ready, click the button below to continue to the experiment.</p>","response":0,"trial_type":"html-button-response","trial_index":10,"time_elapsed":512381,"internal_node_id":"0.0-3.0-4.0-3.0","subject_id":"5ea19dcac30e0005e6e6b6e3","study_id":"6197b3f67c2b5cd3b6d9596a","session_id":"619bfbdff4c6938e35c4736a","condition":"full-information","relevant_dimensions":["antennae","pattern"],"bee_group":{"antennae":"A","wings":"X","pattern":"D","legs":"X"},"bonus":0.02},{"rt":6618,"stimulus":"bees-with-color/bee-A1SM.svg","response":0,"trial_type":"image-button-response","trial_index":11,"time_elapsed":519005,"internal_node_id":"0.0-4.0-0.0","subject_id":"5ea19dcac30e0005e6e6b6e3","study_id":"6197b3f67c2b5cd3b6d9596a","session_id":"619bfbdff4c6938e35c4736a","condition":"full-information","relevant_dimensions":["antennae","pattern"],"bee_group":{"antennae":"A","wings":"X","pattern":"D","legs":"X"},"action":"harvest","summary":"good-harvest","bonus":0.02},{"rt":8485.100000023842,"stimulus":"\n                    <p><b>Action: <em>harvest</em></b></p>\n                    <p>This is the bee that you just saw.</p>\n                    <img src=\"bees-with-color/bee-A1SM.svg\" width=\"200\">\n                    <p><span class=\"greenText\"><b>Successful harvest!</b></span><br>Your pay has increased by $0.02. Your bonus pay is now $0.56.</p>\n            ","response":0,"trial_type":"html-button-response","trial_index":12,"time_elapsed":527495,"internal_node_id":"0.0-4.0-1.0","subject_id":"5ea19dcac30e0005e6e6b6e3","study_id":"6197b3f67c2b5cd3b6d9596a","session_id":"619bfbdff4c6938e35c4736a","condition":"full-information","relevant_dimensions":["antennae","pattern"],"bee_group":{"antennae":"A","wings":"X","pattern":"D","legs":"X"},"bonus":0.02},{"rt":2450.5,"stimulus":"bees-with-color/bee-A1DF.svg","response":1,"trial_type":"image-button-response","trial_index":13,"time_elapsed":529950,"internal_node_id":"0.0-4.0-0.1","subject_id":"5ea19dcac30e0005e6e6b6e3","study_id":"6197b3f67c2b5cd3b6d9596a","session_id":"619bfbdff4c6938e35c4736a","condition":"full-information","relevant_dimensions":["antennae","pattern"],"bee_group":{"antennae":"A","wings":"X","pattern":"D","legs":"X"},"action":"avoid","summary":"good-avoid","bonus":0.02},{"rt":9242.100000023842,"stimulus":"\n                    <p><b>Action: <em>avoid</em></b></p>\n                    <p>This is the bee that you just saw.</p>\n                    <img src=\"bees-with-color/bee-A1DF.svg\" width=\"200\">\n                    <p><span class=\"greenText\">Good choice!</span>  This bee would have stung you.<br>Your bonus pay is unchanged, and remains at $0.56.</p>\n            ","response":0,"trial_type":"html-button-response","trial_index":14,"time_elapsed":539196,"internal_node_id":"0.0-4.0-1.1","subject_id":"5ea19dcac30e0005e6e6b6e3","study_id":"6197b3f67c2b5cd3b6d9596a","session_id":"619bfbdff4c6938e35c4736a","condition":"full-information","relevant_dimensions":["antennae","pattern"],"bee_group":{"antennae":"A","wings":"X","pattern":"D","legs":"X"},"bonus":0.02},{"rt":6018,"stimulus":"bees-with-color/bee-A2SM.svg","response":0,"trial_type":"image-button-response","trial_index":15,"time_elapsed":545218,"internal_node_id":"0.0-4.0-0.2","subject_id":"5ea19dcac30e0005e6e6b6e3","study_id":"6197b3f67c2b5cd3b6d9596a","session_id":"619bfbdff4c6938e35c4736a","condition":"full-information","relevant_dimensions":["antennae","pattern"],"bee_group":{"antennae":"A","wings":"X","pattern":"D","legs":"X"},"action":"harvest","summary":"good-harvest","bonus":0.02},{"rt":4631.100000023842,"stimulus":"\n                    <p><b>Action: <em>harvest</em></b></p>\n                    <p>This is the bee that you just saw.</p>\n                    <img src=\"bees-with-color/bee-A2SM.svg\" width=\"200\">\n                    <p><span class=\"greenText\"><b>Successful harvest!</b></span><br>Your pay has increased by $0.02. Your bonus pay is now $0.58.</p>\n            ","response":0,"trial_type":"html-button-response","trial_index":16,"time_elapsed":549854,"internal_node_id":"0.0-4.0-1.2","subject_id":"5ea19dcac30e0005e6e6b6e3","study_id":"6197b3f67c2b5cd3b6d9596a","session_id":"619bfbdff4c6938e35c4736a","condition":"full-information","relevant_dimensions":["antennae","pattern"],"bee_group":{"antennae":"A","wings":"X","pattern":"D","legs":"X"},"bonus":0.02},{"rt":2842.699999988079,"stimulus":"bees-with-color/bee-B1DF.svg","response":1,"trial_type":"image-button-response","trial_index":17,"time_elapsed":552700,"internal_node_id":"0.0-4.0-0.3","subject_id":"5ea19dcac30e0005e6e6b6e3","study_id":"6197b3f67c2b5cd3b6d9596a","session_id":"619bfbdff4c6938e35c4736a","condition":"full-information","relevant_dimensions":["antennae","pattern"],"bee_group":{"antennae":"A","wings":"X","pattern":"D","legs":"X"},"action":"avoid","summary":"bad-avoid","bonus":0.02},{"rt":6217.300000011921,"stimulus":"\n                    <p><b>Action: <em>avoid</em></b></p>\n                    <p>This is the bee that you just saw.</p>\n                    <img src=\"bees-with-color/bee-B1DF.svg\" width=\"200\">\n                    <p><span class=\"redText\">Bad choice,</span> the bee was friendly.<br>Your bonus pay is unchanged, and remains at $0.58.</p>\n            ","response":0,"trial_type":"html-button-response","trial_index":18,"time_elapsed":558920,"internal_node_id":"0.0-4.0-1.3","subject_id":"5ea19dcac30e0005e6e6b6e3","study_id":"6197b3f67c2b5cd3b6d9596a","session_id":"619bfbdff4c6938e35c4736a","condition":"full-information","relevant_dimensions":["antennae","pattern"],"bee_group":{"antennae":"A","wings":"X","pattern":"D","legs":"X"},"bonus":0.02},{"rt":3045.099999964237,"stimulus":"bees-with-color/bee-B2SM.svg","response":0,"trial_type":"image-button-response","trial_index":19,"time_elapsed":561969,"internal_node_id":"0.0-4.0-0.4","subject_id":"5ea19dcac30e0005e6e6b6e3","study_id":"6197b3f67c2b5cd3b6d9596a","session_id":"619bfbdff4c6938e35c4736a","condition":"full-information","relevant_dimensions":["antennae","pattern"],"bee_group":{"antennae":"A","wings":"X","pattern":"D","legs":"X"},"action":"harvest","summary":"good-harvest","bonus":0.02},{"rt":2349.399999976158,"stimulus":"\n                    <p><b>Action: <em>harvest</em></b></p>\n                    <p>This is the bee that you just saw.</p>\n                    <img src=\"bees-with-color/bee-B2SM.svg\" width=\"200\">\n                    <p><span class=\"greenText\"><b>Successful harvest!</b></span><br>Your pay has increased by $0.02. Your bonus pay is now $0.60.</p>\n            ","response":0,"trial_type":"html-button-response","trial_index":20,"time_elapsed":564321,"internal_node_id":"0.0-4.0-1.4","subject_id":"5ea19dcac30e0005e6e6b6e3","study_id":"6197b3f67c2b5cd3b6d9596a","session_id":"619bfbdff4c6938e35c4736a","condition":"full-information","relevant_dimensions":["antennae","pattern"],"bee_group":{"antennae":"A","wings":"X","pattern":"D","legs":"X"},"bonus":0.02},{"rt":3026.699999988079,"stimulus":"bees-with-color/bee-A2DM.svg","response":0,"trial_type":"image-button-response","trial_index":21,"time_elapsed":567351,"internal_node_id":"0.0-4.0-0.5","subject_id":"5ea19dcac30e0005e6e6b6e3","study_id":"6197b3f67c2b5cd3b6d9596a","session_id":"619bfbdff4c6938e35c4736a","condition":"full-information","relevant_dimensions":["antennae","pattern"],"bee_group":{"antennae":"A","wings":"X","pattern":"D","legs":"X"},"action":"harvest","summary":"bad-harvest","bonus":0.02},{"rt":1918,"stimulus":"\n                    <p><b>Action: <em>harvest</em></b></p>\n                    <p>This is the bee that you just saw.</p>\n                    <img src=\"bees-with-color/bee-A2DM.svg\" width=\"200\">\n                    <p><span class=\"redText\">Bad choice, the bee was angry.</span><br><b>You have been stung!</b><br>Your pay has been decreased by $0.10. Your bonus pay is now $0.50.</p>\n            ","response":0,"trial_type":"html-button-response","trial_index":22,"time_elapsed":569272,"internal_node_id":"0.0-4.0-1.5","subject_id":"5ea19dcac30e0005e6e6b6e3","study_id":"6197b3f67c2b5cd3b6d9596a","session_id":"619bfbdff4c6938e35c4736a","condition":"full-information","relevant_dimensions":["antennae","pattern"],"bee_group":{"antennae":"A","wings":"X","pattern":"D","legs":"X"},"bonus":0.02},{"rt":2478.5,"stimulus":"bees-with-color/bee-A2SF.svg","response":1,"trial_type":"image-button-response","trial_index":23,"time_elapsed":571755,"internal_node_id":"0.0-4.0-0.6","subject_id":"5ea19dcac30e0005e6e6b6e3","study_id":"6197b3f67c2b5cd3b6d9596a","session_id":"619bfbdff4c6938e35c4736a","condition":"full-information","relevant_dimensions":["antennae","pattern"],"bee_group":{"antennae":"A","wings":"X","pattern":"D","legs":"X"},"action":"avoid","summary":"bad-avoid","bonus":0.02},{"rt":2363,"stimulus":"\n                    <p><b>Action: <em>avoid</em></b></p>\n                    <p>This is the bee that you just saw.</p>\n                    <img src=\"bees-with-color/bee-A2SF.svg\" width=\"200\">\n                    <p><span class=\"redText\">Bad choice,</span> the bee was friendly.<br>Your bonus pay is unchanged, and remains at $0.50.</p>\n            ","response":0,"trial_type":"html-button-response","trial_index":24,"time_elapsed":574121,"internal_node_id":"0.0-4.0-1.6","subject_id":"5ea19dcac30e0005e6e6b6e3","study_id":"6197b3f67c2b5cd3b6d9596a","session_id":"619bfbdff4c6938e35c4736a","condition":"full-information","relevant_dimensions":["antennae","pattern"],"bee_group":{"antennae":"A","wings":"X","pattern":"D","legs":"X"},"bonus":0.02},{"rt":2151.400000035763,"stimulus":"bees-with-color/bee-B2DM.svg","response":0,"trial_type":"image-button-response","trial_index":25,"time_elapsed":576275,"internal_node_id":"0.0-4.0-0.7","subject_id":"5ea19dcac30e0005e6e6b6e3","study_id":"6197b3f67c2b5cd3b6d9596a","session_id":"619bfbdff4c6938e35c4736a","condition":"full-information","relevant_dimensions":["antennae","pattern"],"bee_group":{"antennae":"A","wings":"X","pattern":"D","legs":"X"},"action":"harvest","summary":"good-harvest","bonus":0.02},{"rt":1269.699999988079,"stimulus":"\n                    <p><b>Action: <em>harvest</em></b></p>\n                    <p>This is the bee that you just saw.</p>\n                    <img src=\"bees-with-color/bee-B2DM.svg\" width=\"200\">\n                    <p><span class=\"greenText\"><b>Successful harvest!</b></span><br>Your pay has increased by $0.02. Your bonus pay is now $0.52.</p>\n            ","response":0,"trial_type":"html-button-response","trial_index":26,"time_elapsed":577548,"internal_node_id":"0.0-4.0-1.7","subject_id":"5ea19dcac30e0005e6e6b6e3","study_id":"6197b3f67c2b5cd3b6d9596a","session_id":"619bfbdff4c6938e35c4736a","condition":"full-information","relevant_dimensions":["antennae","pattern"],"bee_group":{"antennae":"A","wings":"X","pattern":"D","legs":"X"},"bonus":0.02},{"rt":1734.300000011921,"stimulus":"bees-with-color/bee-A1SF.svg","response":0,"trial_type":"image-button-response","trial_index":27,"time_elapsed":579287,"internal_node_id":"0.0-4.0-0.8","subject_id":"5ea19dcac30e0005e6e6b6e3","study_id":"6197b3f67c2b5cd3b6d9596a","session_id":"619bfbdff4c6938e35c4736a","condition":"full-information","relevant_dimensions":["antennae","pattern"],"bee_group":{"antennae":"A","wings":"X","pattern":"D","legs":"X"},"action":"harvest","summary":"good-harvest","bonus":0.02},{"rt":1326,"stimulus":"\n                    <p><b>Action: <em>harvest</em></b></p>\n                    <p>This is the bee that you just saw.</p>\n                    <img src=\"bees-with-color/bee-A1SF.svg\" width=\"200\">\n                    <p><span class=\"greenText\"><b>Successful harvest!</b></span><br>Your pay has increased by $0.02. Your bonus pay is now $0.54.</p>\n            ","response":0,"trial_type":"html-button-response","trial_index":28,"time_elapsed":580616,"internal_node_id":"0.0-4.0-1.8","subject_id":"5ea19dcac30e0005e6e6b6e3","study_id":"6197b3f67c2b5cd3b6d9596a","session_id":"619bfbdff4c6938e35c4736a","condition":"full-information","relevant_dimensions":["antennae","pattern"],"bee_group":{"antennae":"A","wings":"X","pattern":"D","legs":"X"},"bonus":0.02},{"rt":1476.5,"stimulus":"bees-with-color/bee-B1SM.svg","response":0,"trial_type":"image-button-response","trial_index":29,"time_elapsed":582095,"internal_node_id":"0.0-4.0-0.9","subject_id":"5ea19dcac30e0005e6e6b6e3","study_id":"6197b3f67c2b5cd3b6d9596a","session_id":"619bfbdff4c6938e35c4736a","condition":"full-information","relevant_dimensions":["antennae","pattern"],"bee_group":{"antennae":"A","wings":"X","pattern":"D","legs":"X"},"action":"harvest","summary":"good-harvest","bonus":0.02},{"rt":1341.3999999761581,"stimulus":"\n                    <p><b>Action: <em>harvest</em></b></p>\n                    <p>This is the bee that you just saw.</p>\n                    <img src=\"bees-with-color/bee-B1SM.svg\" width=\"200\">\n                    <p><span class=\"greenText\"><b>Successful harvest!</b></span><br>Your pay has increased by $0.02. Your bonus pay is now $0.56.</p>\n            ","response":0,"trial_type":"html-button-response","trial_index":30,"time_elapsed":583439,"internal_node_id":"0.0-4.0-1.9","subject_id":"5ea19dcac30e0005e6e6b6e3","study_id":"6197b3f67c2b5cd3b6d9596a","session_id":"619bfbdff4c6938e35c4736a","condition":"full-information","relevant_dimensions":["antennae","pattern"],"bee_group":{"antennae":"A","wings":"X","pattern":"D","legs":"X"},"bonus":0.02},{"rt":1662.5,"stimulus":"bees-with-color/bee-B1DM.svg","response":0,"trial_type":"image-button-response","trial_index":31,"time_elapsed":585105,"internal_node_id":"0.0-4.0-0.10","subject_id":"5ea19dcac30e0005e6e6b6e3","study_id":"6197b3f67c2b5cd3b6d9596a","session_id":"619bfbdff4c6938e35c4736a","condition":"full-information","relevant_dimensions":["antennae","pattern"],"bee_group":{"antennae":"A","wings":"X","pattern":"D","legs":"X"},"action":"harvest","summary":"good-harvest","bonus":0.02},{"rt":1472.7999999523163,"stimulus":"\n                    <p><b>Action: <em>harvest</em></b></p>\n                    <p>This is the bee that you just saw.</p>\n                    <img src=\"bees-with-color/bee-B1DM.svg\" width=\"200\">\n                    <p><span class=\"greenText\"><b>Successful harvest!</b></span><br>Your pay has increased by $0.02. Your bonus pay is now $0.58.</p>\n            ","response":0,"trial_type":"html-button-response","trial_index":32,"time_elapsed":586581,"internal_node_id":"0.0-4.0-1.10","subject_id":"5ea19dcac30e0005e6e6b6e3","study_id":"6197b3f67c2b5cd3b6d9596a","session_id":"619bfbdff4c6938e35c4736a","condition":"full-information","relevant_dimensions":["antennae","pattern"],"bee_group":{"antennae":"A","wings":"X","pattern":"D","legs":"X"},"bonus":0.02},{"rt":1808.800000011921,"stimulus":"bees-with-color/bee-B2SF.svg","response":0,"trial_type":"image-button-response","trial_index":33,"time_elapsed":588392,"internal_node_id":"0.0-4.0-0.11","subject_id":"5ea19dcac30e0005e6e6b6e3","study_id":"6197b3f67c2b5cd3b6d9596a","session_id":"619bfbdff4c6938e35c4736a","condition":"full-information","relevant_dimensions":["antennae","pattern"],"bee_group":{"antennae":"A","wings":"X","pattern":"D","legs":"X"},"action":"harvest","summary":"good-harvest","bonus":0.02},{"rt":2228.599999964237,"stimulus":"\n                    <p><b>Action: <em>harvest</em></b></p>\n                    <p>This is the bee that you just saw.</p>\n                    <img src=\"bees-with-color/bee-B2SF.svg\" width=\"200\">\n                    <p><span class=\"greenText\"><b>Successful harvest!</b></span><br>Your pay has increased by $0.02. Your bonus pay is now $0.60.</p>\n            ","response":0,"trial_type":"html-button-response","trial_index":34,"time_elapsed":590624,"internal_node_id":"0.0-4.0-1.11","subject_id":"5ea19dcac30e0005e6e6b6e3","study_id":"6197b3f67c2b5cd3b6d9596a","session_id":"619bfbdff4c6938e35c4736a","condition":"full-information","relevant_dimensions":["antennae","pattern"],"bee_group":{"antennae":"A","wings":"X","pattern":"D","legs":"X"},"bonus":0.02},{"rt":1660.300000011921,"stimulus":"bees-with-color/bee-A2DF.svg","response":0,"trial_type":"image-button-response","trial_index":35,"time_elapsed":592288,"internal_node_id":"0.0-4.0-0.12","subject_id":"5ea19dcac30e0005e6e6b6e3","study_id":"6197b3f67c2b5cd3b6d9596a","session_id":"619bfbdff4c6938e35c4736a","condition":"full-information","relevant_dimensions":["antennae","pattern"],"bee_group":{"antennae":"A","wings":"X","pattern":"D","legs":"X"},"action":"harvest","summary":"bad-harvest","bonus":0.02},{"rt":1483.300000011921,"stimulus":"\n                    <p><b>Action: <em>harvest</em></b></p>\n                    <p>This is the bee that you just saw.</p>\n                    <img src=\"bees-with-color/bee-A2DF.svg\" width=\"200\">\n                    <p><span class=\"redText\">Bad choice, the bee was angry.</span><br><b>You have been stung!</b><br>Your pay has been decreased by $0.10. Your bonus pay is now $0.50.</p>\n            ","response":0,"trial_type":"html-button-response","trial_index":36,"time_elapsed":593773,"internal_node_id":"0.0-4.0-1.12","subject_id":"5ea19dcac30e0005e6e6b6e3","study_id":"6197b3f67c2b5cd3b6d9596a","session_id":"619bfbdff4c6938e35c4736a","condition":"full-information","relevant_dimensions":["antennae","pattern"],"bee_group":{"antennae":"A","wings":"X","pattern":"D","legs":"X"},"bonus":0.02},{"rt":2216.399999976158,"stimulus":"bees-with-color/bee-B2DF.svg","response":1,"trial_type":"image-button-response","trial_index":37,"time_elapsed":595993,"internal_node_id":"0.0-4.0-0.13","subject_id":"5ea19dcac30e0005e6e6b6e3","study_id":"6197b3f67c2b5cd3b6d9596a","session_id":"619bfbdff4c6938e35c4736a","condition":"full-information","relevant_dimensions":["antennae","pattern"],"bee_group":{"antennae":"A","wings":"X","pattern":"D","legs":"X"},"action":"avoid","summary":"bad-avoid","bonus":0.02},{"rt":1351.3999999761581,"stimulus":"\n                    <p><b>Action: <em>avoid</em></b></p>\n                    <p>This is the bee that you just saw.</p>\n                    <img src=\"bees-with-color/bee-B2DF.svg\" width=\"200\">\n                    <p><span class=\"redText\">Bad choice,</span> the bee was friendly.<br>Your bonus pay is unchanged, and remains at $0.50.</p>\n            ","response":0,"trial_type":"html-button-response","trial_index":38,"time_elapsed":597348,"internal_node_id":"0.0-4.0-1.13","subject_id":"5ea19dcac30e0005e6e6b6e3","study_id":"6197b3f67c2b5cd3b6d9596a","session_id":"619bfbdff4c6938e35c4736a","condition":"full-information","relevant_dimensions":["antennae","pattern"],"bee_group":{"antennae":"A","wings":"X","pattern":"D","legs":"X"},"bonus":0.02},{"rt":1387,"stimulus":"bees-with-color/bee-A1DM.svg","response":0,"trial_type":"image-button-response","trial_index":39,"time_elapsed":598738,"internal_node_id":"0.0-4.0-0.14","subject_id":"5ea19dcac30e0005e6e6b6e3","study_id":"6197b3f67c2b5cd3b6d9596a","session_id":"619bfbdff4c6938e35c4736a","condition":"full-information","relevant_dimensions":["antennae","pattern"],"bee_group":{"antennae":"A","wings":"X","pattern":"D","legs":"X"},"action":"harvest","summary":"bad-harvest","bonus":0.02},{"rt":1295.800000011921,"stimulus":"\n                    <p><b>Action: <em>harvest</em></b></p>\n                    <p>This is the bee that you just saw.</p>\n                    <img src=\"bees-with-color/bee-A1DM.svg\" width=\"200\">\n                    <p><span class=\"redText\">Bad choice, the bee was angry.</span><br><b>You have been stung!</b><br>Your pay has been decreased by $0.10. Your bonus pay is now $0.40.</p>\n            ","response":0,"trial_type":"html-button-response","trial_index":40,"time_elapsed":600036,"internal_node_id":"0.0-4.0-1.14","subject_id":"5ea19dcac30e0005e6e6b6e3","study_id":"6197b3f67c2b5cd3b6d9596a","session_id":"619bfbdff4c6938e35c4736a","condition":"full-information","relevant_dimensions":["antennae","pattern"],"bee_group":{"antennae":"A","wings":"X","pattern":"D","legs":"X"},"bonus":0.02},{"rt":1199.9000000357628,"stimulus":"bees-with-color/bee-B1SF.svg","response":0,"trial_type":"image-button-response","trial_index":41,"time_elapsed":601239,"internal_node_id":"0.0-4.0-0.15","subject_id":"5ea19dcac30e0005e6e6b6e3","study_id":"6197b3f67c2b5cd3b6d9596a","session_id":"619bfbdff4c6938e35c4736a","condition":"full-information","relevant_dimensions":["antennae","pattern"],"bee_group":{"antennae":"A","wings":"X","pattern":"D","legs":"X"},"action":"harvest","summary":"good-harvest","bonus":0.02},{"rt":2147.399999976158,"stimulus":"\n                    <p><b>Action: <em>harvest</em></b></p>\n                    <p>This is the bee that you just saw.</p>\n                    <img src=\"bees-with-color/bee-B1SF.svg\" width=\"200\">\n                    <p><span class=\"greenText\"><b>Successful harvest!</b></span><br>Your pay has increased by $0.02. Your bonus pay is now $0.42.</p>\n            ","response":0,"trial_type":"html-button-response","trial_index":42,"time_elapsed":603389,"internal_node_id":"0.0-4.0-1.15","subject_id":"5ea19dcac30e0005e6e6b6e3","study_id":"6197b3f67c2b5cd3b6d9596a","session_id":"619bfbdff4c6938e35c4736a","condition":"full-information","relevant_dimensions":["antennae","pattern"],"bee_group":{"antennae":"A","wings":"X","pattern":"D","legs":"X"},"bonus":0.02},{"rt":1198.5,"stimulus":"bees-with-color/bee-B1SF.svg","response":0,"trial_type":"image-button-response","trial_index":43,"time_elapsed":604591,"internal_node_id":"0.0-4.0-0.16","subject_id":"5ea19dcac30e0005e6e6b6e3","study_id":"6197b3f67c2b5cd3b6d9596a","session_id":"619bfbdff4c6938e35c4736a","condition":"full-information","relevant_dimensions":["antennae","pattern"],"bee_group":{"antennae":"A","wings":"X","pattern":"D","legs":"X"},"action":"harvest","summary":"good-harvest","bonus":0.02},{"rt":1474,"stimulus":"\n                    <p><b>Action: <em>harvest</em></b></p>\n                    <p>This is the bee that you just saw.</p>\n                    <img src=\"bees-with-color/bee-B1SF.svg\" width=\"200\">\n                    <p><span class=\"greenText\"><b>Successful harvest!</b></span><br>Your pay has increased by $0.02. Your bonus pay is now $0.44.</p>\n            ","response":0,"trial_type":"html-button-response","trial_index":44,"time_elapsed":606067,"internal_node_id":"0.0-4.0-1.16","subject_id":"5ea19dcac30e0005e6e6b6e3","study_id":"6197b3f67c2b5cd3b6d9596a","session_id":"619bfbdff4c6938e35c4736a","condition":"full-information","relevant_dimensions":["antennae","pattern"],"bee_group":{"antennae":"A","wings":"X","pattern":"D","legs":"X"},"bonus":0.02},{"rt":1418.3999999761581,"stimulus":"bees-with-color/bee-B2SM.svg","response":0,"trial_type":"image-button-response","trial_index":45,"time_elapsed":607488,"internal_node_id":"0.0-4.0-0.17","subject_id":"5ea19dcac30e0005e6e6b6e3","study_id":"6197b3f67c2b5cd3b6d9596a","session_id":"619bfbdff4c6938e35c4736a","condition":"full-information","relevant_dimensions":["antennae","pattern"],"bee_group":{"antennae":"A","wings":"X","pattern":"D","legs":"X"},"action":"harvest","summary":"good-harvest","bonus":0.02},{"rt":1519.5,"stimulus":"\n                    <p><b>Action: <em>harvest</em></b></p>\n                    <p>This is the bee that you just saw.</p>\n                    <img src=\"bees-with-color/bee-B2SM.svg\" width=\"200\">\n                    <p><span class=\"greenText\"><b>Successful harvest!</b></span><br>Your pay has increased by $0.02. Your bonus pay is now $0.46.</p>\n            ","response":0,"trial_type":"html-button-response","trial_index":46,"time_elapsed":609010,"internal_node_id":"0.0-4.0-1.17","subject_id":"5ea19dcac30e0005e6e6b6e3","study_id":"6197b3f67c2b5cd3b6d9596a","session_id":"619bfbdff4c6938e35c4736a","condition":"full-information","relevant_dimensions":["antennae","pattern"],"bee_group":{"antennae":"A","wings":"X","pattern":"D","legs":"X"},"bonus":0.02},{"rt":1594.2999999523163,"stimulus":"bees-with-color/bee-A1SM.svg","response":0,"trial_type":"image-button-response","trial_index":47,"time_elapsed":610607,"internal_node_id":"0.0-4.0-0.18","subject_id":"5ea19dcac30e0005e6e6b6e3","study_id":"6197b3f67c2b5cd3b6d9596a","session_id":"619bfbdff4c6938e35c4736a","condition":"full-information","relevant_dimensions":["antennae","pattern"],"bee_group":{"antennae":"A","wings":"X","pattern":"D","legs":"X"},"action":"harvest","summary":"good-harvest","bonus":0.02},{"rt":1384.6000000238419,"stimulus":"\n                    <p><b>Action: <em>harvest</em></b></p>\n                    <p>This is the bee that you just saw.</p>\n                    <img src=\"bees-with-color/bee-A1SM.svg\" width=\"200\">\n                    <p><span class=\"greenText\"><b>Successful harvest!</b></span><br>Your pay has increased by $0.02. Your bonus pay is now $0.48.</p>\n            ","response":0,"trial_type":"html-button-response","trial_index":48,"time_elapsed":611994,"internal_node_id":"0.0-4.0-1.18","subject_id":"5ea19dcac30e0005e6e6b6e3","study_id":"6197b3f67c2b5cd3b6d9596a","session_id":"619bfbdff4c6938e35c4736a","condition":"full-information","relevant_dimensions":["antennae","pattern"],"bee_group":{"antennae":"A","wings":"X","pattern":"D","legs":"X"},"bonus":0.02},{"rt":1604.5,"stimulus":"bees-with-color/bee-A2SM.svg","response":0,"trial_type":"image-button-response","trial_index":49,"time_elapsed":613602,"internal_node_id":"0.0-4.0-0.19","subject_id":"5ea19dcac30e0005e6e6b6e3","study_id":"6197b3f67c2b5cd3b6d9596a","session_id":"619bfbdff4c6938e35c4736a","condition":"full-information","relevant_dimensions":["antennae","pattern"],"bee_group":{"antennae":"A","wings":"X","pattern":"D","legs":"X"},"action":"harvest","summary":"good-harvest","bonus":0.02},{"rt":1365.199999988079,"stimulus":"\n                    <p><b>Action: <em>harvest</em></b></p>\n                    <p>This is the bee that you just saw.</p>\n                    <img src=\"bees-with-color/bee-A2SM.svg\" width=\"200\">\n                    <p><span class=\"greenText\"><b>Successful harvest!</b></span><br>Your pay has increased by $0.02. Your bonus pay is now $0.50.</p>\n            ","response":0,"trial_type":"html-button-response","trial_index":50,"time_elapsed":614969,"internal_node_id":"0.0-4.0-1.19","subject_id":"5ea19dcac30e0005e6e6b6e3","study_id":"6197b3f67c2b5cd3b6d9596a","session_id":"619bfbdff4c6938e35c4736a","condition":"full-information","relevant_dimensions":["antennae","pattern"],"bee_group":{"antennae":"A","wings":"X","pattern":"D","legs":"X"},"bonus":0.02},{"rt":1820.800000011921,"stimulus":"bees-with-color/bee-B2DF.svg","response":0,"trial_type":"image-button-response","trial_index":51,"time_elapsed":616792,"internal_node_id":"0.0-4.0-0.20","subject_id":"5ea19dcac30e0005e6e6b6e3","study_id":"6197b3f67c2b5cd3b6d9596a","session_id":"619bfbdff4c6938e35c4736a","condition":"full-information","relevant_dimensions":["antennae","pattern"],"bee_group":{"antennae":"A","wings":"X","pattern":"D","legs":"X"},"action":"harvest","summary":"good-harvest","bonus":0.02},{"rt":1447.800000011921,"stimulus":"\n                    <p><b>Action: <em>harvest</em></b></p>\n                    <p>This is the bee that you just saw.</p>\n                    <img src=\"bees-with-color/bee-B2DF.svg\" width=\"200\">\n                    <p><span class=\"greenText\"><b>Successful harvest!</b></span><br>Your pay has increased by $0.02. Your bonus pay is now $0.52.</p>\n            ","response":0,"trial_type":"html-button-response","trial_index":52,"time_elapsed":618243,"internal_node_id":"0.0-4.0-1.20","subject_id":"5ea19dcac30e0005e6e6b6e3","study_id":"6197b3f67c2b5cd3b6d9596a","session_id":"619bfbdff4c6938e35c4736a","condition":"full-information","relevant_dimensions":["antennae","pattern"],"bee_group":{"antennae":"A","wings":"X","pattern":"D","legs":"X"},"bonus":0.02},{"rt":1295.8999999761581,"stimulus":"bees-with-color/bee-A2DF.svg","response":0,"trial_type":"image-button-response","trial_index":53,"time_elapsed":619542,"internal_node_id":"0.0-4.0-0.21","subject_id":"5ea19dcac30e0005e6e6b6e3","study_id":"6197b3f67c2b5cd3b6d9596a","session_id":"619bfbdff4c6938e35c4736a","condition":"full-information","relevant_dimensions":["antennae","pattern"],"bee_group":{"antennae":"A","wings":"X","pattern":"D","legs":"X"},"action":"harvest","summary":"bad-harvest","bonus":0.02},{"rt":1180.7999999523163,"stimulus":"\n                    <p><b>Action: <em>harvest</em></b></p>\n                    <p>This is the bee that you just saw.</p>\n                    <img src=\"bees-with-color/bee-A2DF.svg\" width=\"200\">\n                    <p><span class=\"redText\">Bad choice, the bee was angry.</span><br><b>You have been stung!</b><br>Your pay has been decreased by $0.10. Your bonus pay is now $0.42.</p>\n            ","response":0,"trial_type":"html-button-response","trial_index":54,"time_elapsed":620726,"internal_node_id":"0.0-4.0-1.21","subject_id":"5ea19dcac30e0005e6e6b6e3","study_id":"6197b3f67c2b5cd3b6d9596a","session_id":"619bfbdff4c6938e35c4736a","condition":"full-information","relevant_dimensions":["antennae","pattern"],"bee_group":{"antennae":"A","wings":"X","pattern":"D","legs":"X"},"bonus":0.02},{"rt":2863.699999988079,"stimulus":"bees-with-color/bee-B2DM.svg","response":1,"trial_type":"image-button-response","trial_index":55,"time_elapsed":623591,"internal_node_id":"0.0-4.0-0.22","subject_id":"5ea19dcac30e0005e6e6b6e3","study_id":"6197b3f67c2b5cd3b6d9596a","session_id":"619bfbdff4c6938e35c4736a","condition":"full-information","relevant_dimensions":["antennae","pattern"],"bee_group":{"antennae":"A","wings":"X","pattern":"D","legs":"X"},"action":"avoid","summary":"bad-avoid","bonus":0.02},{"rt":1338.300000011921,"stimulus":"\n                    <p><b>Action: <em>avoid</em></b></p>\n                    <p>This is the bee that you just saw.</p>\n                    <img src=\"bees-with-color/bee-B2DM.svg\" width=\"200\">\n                    <p><span class=\"redText\">Bad choice,</span> the bee was friendly.<br>Your bonus pay is unchanged, and remains at $0.42.</p>\n            ","response":0,"trial_type":"html-button-response","trial_index":56,"time_elapsed":624932,"internal_node_id":"0.0-4.0-1.22","subject_id":"5ea19dcac30e0005e6e6b6e3","study_id":"6197b3f67c2b5cd3b6d9596a","session_id":"619bfbdff4c6938e35c4736a","condition":"full-information","relevant_dimensions":["antennae","pattern"],"bee_group":{"antennae":"A","wings":"X","pattern":"D","legs":"X"},"bonus":0.02},{"rt":1024.5,"stimulus":"bees-with-color/bee-A2DM.svg","response":1,"trial_type":"image-button-response","trial_index":57,"time_elapsed":625959,"internal_node_id":"0.0-4.0-0.23","subject_id":"5ea19dcac30e0005e6e6b6e3","study_id":"6197b3f67c2b5cd3b6d9596a","session_id":"619bfbdff4c6938e35c4736a","condition":"full-information","relevant_dimensions":["antennae","pattern"],"bee_group":{"antennae":"A","wings":"X","pattern":"D","legs":"X"},"action":"avoid","summary":"good-avoid","bonus":0.02},{"rt":2209.800000011921,"stimulus":"\n                    <p><b>Action: <em>avoid</em></b></p>\n                    <p>This is the bee that you just saw.</p>\n                    <img src=\"bees-with-color/bee-A2DM.svg\" width=\"200\">\n                    <p><span class=\"greenText\">Good choice!</span>  This bee would have stung you.<br>Your bonus pay is unchanged, and remains at $0.42.</p>\n            ","response":0,"trial_type":"html-button-response","trial_index":58,"time_elapsed":628172,"internal_node_id":"0.0-4.0-1.23","subject_id":"5ea19dcac30e0005e6e6b6e3","study_id":"6197b3f67c2b5cd3b6d9596a","session_id":"619bfbdff4c6938e35c4736a","condition":"full-information","relevant_dimensions":["antennae","pattern"],"bee_group":{"antennae":"A","wings":"X","pattern":"D","legs":"X"},"bonus":0.02},{"rt":1721.5999999642372,"stimulus":"bees-with-color/bee-B2SF.svg","response":0,"trial_type":"image-button-response","trial_index":59,"time_elapsed":629897,"internal_node_id":"0.0-4.0-0.24","subject_id":"5ea19dcac30e0005e6e6b6e3","study_id":"6197b3f67c2b5cd3b6d9596a","session_id":"619bfbdff4c6938e35c4736a","condition":"full-information","relevant_dimensions":["antennae","pattern"],"bee_group":{"antennae":"A","wings":"X","pattern":"D","legs":"X"},"action":"harvest","summary":"good-harvest","bonus":0.02},{"rt":1567.2000000476837,"stimulus":"\n                    <p><b>Action: <em>harvest</em></b></p>\n                    <p>This is the bee that you just saw.</p>\n                    <img src=\"bees-with-color/bee-B2SF.svg\" width=\"200\">\n                    <p><span class=\"greenText\"><b>Successful harvest!</b></span><br>Your pay has increased by $0.02. Your bonus pay is now $0.44.</p>\n            ","response":0,"trial_type":"html-button-response","trial_index":60,"time_elapsed":631467,"internal_node_id":"0.0-4.0-1.24","subject_id":"5ea19dcac30e0005e6e6b6e3","study_id":"6197b3f67c2b5cd3b6d9596a","session_id":"619bfbdff4c6938e35c4736a","condition":"full-information","relevant_dimensions":["antennae","pattern"],"bee_group":{"antennae":"A","wings":"X","pattern":"D","legs":"X"},"bonus":0.02},{"rt":1557.0999999642372,"stimulus":"bees-with-color/bee-A1DM.svg","response":0,"trial_type":"image-button-response","trial_index":61,"time_elapsed":633028,"internal_node_id":"0.0-4.0-0.25","subject_id":"5ea19dcac30e0005e6e6b6e3","study_id":"6197b3f67c2b5cd3b6d9596a","session_id":"619bfbdff4c6938e35c4736a","condition":"full-information","relevant_dimensions":["antennae","pattern"],"bee_group":{"antennae":"A","wings":"X","pattern":"D","legs":"X"},"action":"harvest","summary":"bad-harvest","bonus":0.02},{"rt":1332.5,"stimulus":"\n                    <p><b>Action: <em>harvest</em></b></p>\n                    <p>This is the bee that you just saw.</p>\n                    <img src=\"bees-with-color/bee-A1DM.svg\" width=\"200\">\n                    <p><span class=\"redText\">Bad choice, the bee was angry.</span><br><b>You have been stung!</b><br>Your pay has been decreased by $0.10. Your bonus pay is now $0.34.</p>\n            ","response":0,"trial_type":"html-button-response","trial_index":62,"time_elapsed":634363,"internal_node_id":"0.0-4.0-1.25","subject_id":"5ea19dcac30e0005e6e6b6e3","study_id":"6197b3f67c2b5cd3b6d9596a","session_id":"619bfbdff4c6938e35c4736a","condition":"full-information","relevant_dimensions":["antennae","pattern"],"bee_group":{"antennae":"A","wings":"X","pattern":"D","legs":"X"},"bonus":0.02},{"rt":1411.7000000476837,"stimulus":"bees-with-color/bee-A1DF.svg","response":1,"trial_type":"image-button-response","trial_index":63,"time_elapsed":635777,"internal_node_id":"0.0-4.0-0.26","subject_id":"5ea19dcac30e0005e6e6b6e3","study_id":"6197b3f67c2b5cd3b6d9596a","session_id":"619bfbdff4c6938e35c4736a","condition":"full-information","relevant_dimensions":["antennae","pattern"],"bee_group":{"antennae":"A","wings":"X","pattern":"D","legs":"X"},"action":"avoid","summary":"good-avoid","bonus":0.02},{"rt":2789.199999988079,"stimulus":"\n                    <p><b>Action: <em>avoid</em></b></p>\n                    <p>This is the bee that you just saw.</p>\n                    <img src=\"bees-with-color/bee-A1DF.svg\" width=\"200\">\n                    <p><span class=\"greenText\">Good choice!</span>  This bee would have stung you.<br>Your bonus pay is unchanged, and remains at $0.34.</p>\n            ","response":0,"trial_type":"html-button-response","trial_index":64,"time_elapsed":638569,"internal_node_id":"0.0-4.0-1.26","subject_id":"5ea19dcac30e0005e6e6b6e3","study_id":"6197b3f67c2b5cd3b6d9596a","session_id":"619bfbdff4c6938e35c4736a","condition":"full-information","relevant_dimensions":["antennae","pattern"],"bee_group":{"antennae":"A","wings":"X","pattern":"D","legs":"X"},"bonus":0.02},{"rt":1902.5,"stimulus":"bees-with-color/bee-B1SM.svg","response":0,"trial_type":"image-button-response","trial_index":65,"time_elapsed":640475,"internal_node_id":"0.0-4.0-0.27","subject_id":"5ea19dcac30e0005e6e6b6e3","study_id":"6197b3f67c2b5cd3b6d9596a","session_id":"619bfbdff4c6938e35c4736a","condition":"full-information","relevant_dimensions":["antennae","pattern"],"bee_group":{"antennae":"A","wings":"X","pattern":"D","legs":"X"},"action":"harvest","summary":"good-harvest","bonus":0.02},{"rt":1320.7000000476837,"stimulus":"\n                    <p><b>Action: <em>harvest</em></b></p>\n                    <p>This is the bee that you just saw.</p>\n                    <img src=\"bees-with-color/bee-B1SM.svg\" width=\"200\">\n                    <p><span class=\"greenText\"><b>Successful harvest!</b></span><br>Your pay has increased by $0.02. Your bonus pay is now $0.36.</p>\n            ","response":0,"trial_type":"html-button-response","trial_index":66,"time_elapsed":641798,"internal_node_id":"0.0-4.0-1.27","subject_id":"5ea19dcac30e0005e6e6b6e3","study_id":"6197b3f67c2b5cd3b6d9596a","session_id":"619bfbdff4c6938e35c4736a","condition":"full-information","relevant_dimensions":["antennae","pattern"],"bee_group":{"antennae":"A","wings":"X","pattern":"D","legs":"X"},"bonus":0.02},{"rt":2113.699999988079,"stimulus":"bees-with-color/bee-B1DF.svg","response":1,"trial_type":"image-button-response","trial_index":67,"time_elapsed":643915,"internal_node_id":"0.0-4.0-0.28","subject_id":"5ea19dcac30e0005e6e6b6e3","study_id":"6197b3f67c2b5cd3b6d9596a","session_id":"619bfbdff4c6938e35c4736a","condition":"full-information","relevant_dimensions":["antennae","pattern"],"bee_group":{"antennae":"A","wings":"X","pattern":"D","legs":"X"},"action":"avoid","summary":"bad-avoid","bonus":0.02},{"rt":1675.5999999642372,"stimulus":"\n                    <p><b>Action: <em>avoid</em></b></p>\n                    <p>This is the bee that you just saw.</p>\n                    <img src=\"bees-with-color/bee-B1DF.svg\" width=\"200\">\n                    <p><span class=\"redText\">Bad choice,</span> the bee was friendly.<br>Your bonus pay is unchanged, and remains at $0.36.</p>\n            ","response":0,"trial_type":"html-button-response","trial_index":68,"time_elapsed":645593,"internal_node_id":"0.0-4.0-1.28","subject_id":"5ea19dcac30e0005e6e6b6e3","study_id":"6197b3f67c2b5cd3b6d9596a","session_id":"619bfbdff4c6938e35c4736a","condition":"full-information","relevant_dimensions":["antennae","pattern"],"bee_group":{"antennae":"A","wings":"X","pattern":"D","legs":"X"},"bonus":0.02},{"rt":1915.199999988079,"stimulus":"bees-with-color/bee-A2SF.svg","response":0,"trial_type":"image-button-response","trial_index":69,"time_elapsed":647512,"internal_node_id":"0.0-4.0-0.29","subject_id":"5ea19dcac30e0005e6e6b6e3","study_id":"6197b3f67c2b5cd3b6d9596a","session_id":"619bfbdff4c6938e35c4736a","condition":"full-information","relevant_dimensions":["antennae","pattern"],"bee_group":{"antennae":"A","wings":"X","pattern":"D","legs":"X"},"action":"harvest","summary":"good-harvest","bonus":0.02},{"rt":1246.300000011921,"stimulus":"\n                    <p><b>Action: <em>harvest</em></b></p>\n                    <p>This is the bee that you just saw.</p>\n                    <img src=\"bees-with-color/bee-A2SF.svg\" width=\"200\">\n                    <p><span class=\"greenText\"><b>Successful harvest!</b></span><br>Your pay has increased by $0.02. Your bonus pay is now $0.38.</p>\n            ","response":0,"trial_type":"html-button-response","trial_index":70,"time_elapsed":648761,"internal_node_id":"0.0-4.0-1.29","subject_id":"5ea19dcac30e0005e6e6b6e3","study_id":"6197b3f67c2b5cd3b6d9596a","session_id":"619bfbdff4c6938e35c4736a","condition":"full-information","relevant_dimensions":["antennae","pattern"],"bee_group":{"antennae":"A","wings":"X","pattern":"D","legs":"X"},"bonus":0.02},{"rt":2044.6000000238419,"stimulus":"bees-with-color/bee-B1DM.svg","response":0,"trial_type":"image-button-response","trial_index":71,"time_elapsed":650808,"internal_node_id":"0.0-4.0-0.30","subject_id":"5ea19dcac30e0005e6e6b6e3","study_id":"6197b3f67c2b5cd3b6d9596a","session_id":"619bfbdff4c6938e35c4736a","condition":"full-information","relevant_dimensions":["antennae","pattern"],"bee_group":{"antennae":"A","wings":"X","pattern":"D","legs":"X"},"action":"harvest","summary":"good-harvest","bonus":0.02},{"rt":1249.199999988079,"stimulus":"\n                    <p><b>Action: <em>harvest</em></b></p>\n                    <p>This is the bee that you just saw.</p>\n                    <img src=\"bees-with-color/bee-B1DM.svg\" width=\"200\">\n                    <p><span class=\"greenText\"><b>Successful harvest!</b></span><br>Your pay has increased by $0.02. Your bonus pay is now $0.40.</p>\n            ","response":0,"trial_type":"html-button-response","trial_index":72,"time_elapsed":652059,"internal_node_id":"0.0-4.0-1.30","subject_id":"5ea19dcac30e0005e6e6b6e3","study_id":"6197b3f67c2b5cd3b6d9596a","session_id":"619bfbdff4c6938e35c4736a","condition":"full-information","relevant_dimensions":["antennae","pattern"],"bee_group":{"antennae":"A","wings":"X","pattern":"D","legs":"X"},"bonus":0.02},{"rt":2280.300000011921,"stimulus":"bees-with-color/bee-A1SF.svg","response":1,"trial_type":"image-button-response","trial_index":73,"time_elapsed":654343,"internal_node_id":"0.0-4.0-0.31","subject_id":"5ea19dcac30e0005e6e6b6e3","study_id":"6197b3f67c2b5cd3b6d9596a","session_id":"619bfbdff4c6938e35c4736a","condition":"full-information","relevant_dimensions":["antennae","pattern"],"bee_group":{"antennae":"A","wings":"X","pattern":"D","legs":"X"},"action":"avoid","summary":"bad-avoid","bonus":0.02},{"rt":1614.300000011921,"stimulus":"\n                    <p><b>Action: <em>avoid</em></b></p>\n                    <p>This is the bee that you just saw.</p>\n                    <img src=\"bees-with-color/bee-A1SF.svg\" width=\"200\">\n                    <p><span class=\"redText\">Bad choice,</span> the bee was friendly.<br>Your bonus pay is unchanged, and remains at $0.40.</p>\n            ","response":0,"trial_type":"html-button-response","trial_index":74,"time_elapsed":655960,"internal_node_id":"0.0-4.0-1.31","subject_id":"5ea19dcac30e0005e6e6b6e3","study_id":"6197b3f67c2b5cd3b6d9596a","session_id":"619bfbdff4c6938e35c4736a","condition":"full-information","relevant_dimensions":["antennae","pattern"],"bee_group":{"antennae":"A","wings":"X","pattern":"D","legs":"X"},"bonus":0.02},{"rt":1470.7000000476837,"stimulus":"bees-with-color/bee-B2SM.svg","response":0,"trial_type":"image-button-response","trial_index":75,"time_elapsed":657434,"internal_node_id":"0.0-4.0-0.32","subject_id":"5ea19dcac30e0005e6e6b6e3","study_id":"6197b3f67c2b5cd3b6d9596a","session_id":"619bfbdff4c6938e35c4736a","condition":"full-information","relevant_dimensions":["antennae","pattern"],"bee_group":{"antennae":"A","wings":"X","pattern":"D","legs":"X"},"action":"harvest","summary":"good-harvest","bonus":0.02},{"rt":1475,"stimulus":"\n                    <p><b>Action: <em>harvest</em></b></p>\n                    <p>This is the bee that you just saw.</p>\n                    <img src=\"bees-with-color/bee-B2SM.svg\" width=\"200\">\n                    <p><span class=\"greenText\"><b>Successful harvest!</b></span><br>Your pay has increased by $0.02. Your bonus pay is now $0.42.</p>\n            ","response":0,"trial_type":"html-button-response","trial_index":76,"time_elapsed":658912,"internal_node_id":"0.0-4.0-1.32","subject_id":"5ea19dcac30e0005e6e6b6e3","study_id":"6197b3f67c2b5cd3b6d9596a","session_id":"619bfbdff4c6938e35c4736a","condition":"full-information","relevant_dimensions":["antennae","pattern"],"bee_group":{"antennae":"A","wings":"X","pattern":"D","legs":"X"},"bonus":0.02},{"rt":2713.300000011921,"stimulus":"bees-with-color/bee-B1DF.svg","response":0,"trial_type":"image-button-response","trial_index":77,"time_elapsed":661628,"internal_node_id":"0.0-4.0-0.33","subject_id":"5ea19dcac30e0005e6e6b6e3","study_id":"6197b3f67c2b5cd3b6d9596a","session_id":"619bfbdff4c6938e35c4736a","condition":"full-information","relevant_dimensions":["antennae","pattern"],"bee_group":{"antennae":"A","wings":"X","pattern":"D","legs":"X"},"action":"harvest","summary":"good-harvest","bonus":0.02},{"rt":1602.300000011921,"stimulus":"\n                    <p><b>Action: <em>harvest</em></b></p>\n                    <p>This is the bee that you just saw.</p>\n                    <img src=\"bees-with-color/bee-B1DF.svg\" width=\"200\">\n                    <p><span class=\"greenText\"><b>Successful harvest!</b></span><br>Your pay has increased by $0.02. Your bonus pay is now $0.44.</p>\n            ","response":0,"trial_type":"html-button-response","trial_index":78,"time_elapsed":663233,"internal_node_id":"0.0-4.0-1.33","subject_id":"5ea19dcac30e0005e6e6b6e3","study_id":"6197b3f67c2b5cd3b6d9596a","session_id":"619bfbdff4c6938e35c4736a","condition":"full-information","relevant_dimensions":["antennae","pattern"],"bee_group":{"antennae":"A","wings":"X","pattern":"D","legs":"X"},"bonus":0.02},{"rt":1836.2999999523163,"stimulus":"bees-with-color/bee-A1SM.svg","response":0,"trial_type":"image-button-response","trial_index":79,"time_elapsed":665072,"internal_node_id":"0.0-4.0-0.34","subject_id":"5ea19dcac30e0005e6e6b6e3","study_id":"6197b3f67c2b5cd3b6d9596a","session_id":"619bfbdff4c6938e35c4736a","condition":"full-information","relevant_dimensions":["antennae","pattern"],"bee_group":{"antennae":"A","wings":"X","pattern":"D","legs":"X"},"action":"harvest","summary":"good-harvest","bonus":0.02},{"rt":2141.599999964237,"stimulus":"\n                    <p><b>Action: <em>harvest</em></b></p>\n                    <p>This is the bee that you just saw.</p>\n                    <img src=\"bees-with-color/bee-A1SM.svg\" width=\"200\">\n                    <p><span class=\"greenText\"><b>Successful harvest!</b></span><br>Your pay has increased by $0.02. Your bonus pay is now $0.46.</p>\n            ","response":0,"trial_type":"html-button-response","trial_index":80,"time_elapsed":667217,"internal_node_id":"0.0-4.0-1.34","subject_id":"5ea19dcac30e0005e6e6b6e3","study_id":"6197b3f67c2b5cd3b6d9596a","session_id":"619bfbdff4c6938e35c4736a","condition":"full-information","relevant_dimensions":["antennae","pattern"],"bee_group":{"antennae":"A","wings":"X","pattern":"D","legs":"X"},"bonus":0.02},{"rt":2230.2000000476837,"stimulus":"bees-with-color/bee-B1SM.svg","response":0,"trial_type":"image-button-response","trial_index":81,"time_elapsed":669451,"internal_node_id":"0.0-4.0-0.35","subject_id":"5ea19dcac30e0005e6e6b6e3","study_id":"6197b3f67c2b5cd3b6d9596a","session_id":"619bfbdff4c6938e35c4736a","condition":"full-information","relevant_dimensions":["antennae","pattern"],"bee_group":{"antennae":"A","wings":"X","pattern":"D","legs":"X"},"action":"harvest","summary":"good-harvest","bonus":0.02},{"rt":2386.900000035763,"stimulus":"\n                    <p><b>Action: <em>harvest</em></b></p>\n                    <p>This is the bee that you just saw.</p>\n                    <img src=\"bees-with-color/bee-B1SM.svg\" width=\"200\">\n                    <p><span class=\"greenText\"><b>Successful harvest!</b></span><br>Your pay has increased by $0.02. Your bonus pay is now $0.48.</p>\n            ","response":0,"trial_type":"html-button-response","trial_index":82,"time_elapsed":671840,"internal_node_id":"0.0-4.0-1.35","subject_id":"5ea19dcac30e0005e6e6b6e3","study_id":"6197b3f67c2b5cd3b6d9596a","session_id":"619bfbdff4c6938e35c4736a","condition":"full-information","relevant_dimensions":["antennae","pattern"],"bee_group":{"antennae":"A","wings":"X","pattern":"D","legs":"X"},"bonus":0.02},{"rt":3163.5,"stimulus":"bees-with-color/bee-A2DM.svg","response":0,"trial_type":"image-button-response","trial_index":83,"time_elapsed":675006,"internal_node_id":"0.0-4.0-0.36","subject_id":"5ea19dcac30e0005e6e6b6e3","study_id":"6197b3f67c2b5cd3b6d9596a","session_id":"619bfbdff4c6938e35c4736a","condition":"full-information","relevant_dimensions":["antennae","pattern"],"bee_group":{"antennae":"A","wings":"X","pattern":"D","legs":"X"},"action":"harvest","summary":"bad-harvest","bonus":0.02},{"rt":1908.5,"stimulus":"\n                    <p><b>Action: <em>harvest</em></b></p>\n                    <p>This is the bee that you just saw.</p>\n                    <img src=\"bees-with-color/bee-A2DM.svg\" width=\"200\">\n                    <p><span class=\"redText\">Bad choice, the bee was angry.</span><br><b>You have been stung!</b><br>Your pay has been decreased by $0.10. Your bonus pay is now $0.38.</p>\n            ","response":0,"trial_type":"html-button-response","trial_index":84,"time_elapsed":676917,"internal_node_id":"0.0-4.0-1.36","subject_id":"5ea19dcac30e0005e6e6b6e3","study_id":"6197b3f67c2b5cd3b6d9596a","session_id":"619bfbdff4c6938e35c4736a","condition":"full-information","relevant_dimensions":["antennae","pattern"],"bee_group":{"antennae":"A","wings":"X","pattern":"D","legs":"X"},"bonus":0.02},{"rt":1159.5999999642372,"stimulus":"bees-with-color/bee-B2DF.svg","response":0,"trial_type":"image-button-response","trial_index":85,"time_elapsed":678080,"internal_node_id":"0.0-4.0-0.37","subject_id":"5ea19dcac30e0005e6e6b6e3","study_id":"6197b3f67c2b5cd3b6d9596a","session_id":"619bfbdff4c6938e35c4736a","condition":"full-information","relevant_dimensions":["antennae","pattern"],"bee_group":{"antennae":"A","wings":"X","pattern":"D","legs":"X"},"action":"harvest","summary":"good-harvest","bonus":0.02},{"rt":1425.199999988079,"stimulus":"\n                    <p><b>Action: <em>harvest</em></b></p>\n                    <p>This is the bee that you just saw.</p>\n                    <img src=\"bees-with-color/bee-B2DF.svg\" width=\"200\">\n                    <p><span class=\"greenText\"><b>Successful harvest!</b></span><br>Your pay has increased by $0.02. Your bonus pay is now $0.40.</p>\n            ","response":0,"trial_type":"html-button-response","trial_index":86,"time_elapsed":679508,"internal_node_id":"0.0-4.0-1.37","subject_id":"5ea19dcac30e0005e6e6b6e3","study_id":"6197b3f67c2b5cd3b6d9596a","session_id":"619bfbdff4c6938e35c4736a","condition":"full-information","relevant_dimensions":["antennae","pattern"],"bee_group":{"antennae":"A","wings":"X","pattern":"D","legs":"X"},"bonus":0.02},{"rt":979.1999999880791,"stimulus":"bees-with-color/bee-A2DF.svg","response":0,"trial_type":"image-button-response","trial_index":87,"time_elapsed":680490,"internal_node_id":"0.0-4.0-0.38","subject_id":"5ea19dcac30e0005e6e6b6e3","study_id":"6197b3f67c2b5cd3b6d9596a","session_id":"619bfbdff4c6938e35c4736a","condition":"full-information","relevant_dimensions":["antennae","pattern"],"bee_group":{"antennae":"A","wings":"X","pattern":"D","legs":"X"},"action":"harvest","summary":"bad-harvest","bonus":0.02},{"rt":1130.699999988079,"stimulus":"\n                    <p><b>Action: <em>harvest</em></b></p>\n                    <p>This is the bee that you just saw.</p>\n                    <img src=\"bees-with-color/bee-A2DF.svg\" width=\"200\">\n                    <p><span class=\"redText\">Bad choice, the bee was angry.</span><br><b>You have been stung!</b><br>Your pay has been decreased by $0.10. Your bonus pay is now $0.30.</p>\n            ","response":0,"trial_type":"html-button-response","trial_index":88,"time_elapsed":681624,"internal_node_id":"0.0-4.0-1.38","subject_id":"5ea19dcac30e0005e6e6b6e3","study_id":"6197b3f67c2b5cd3b6d9596a","session_id":"619bfbdff4c6938e35c4736a","condition":"full-information","relevant_dimensions":["antennae","pattern"],"bee_group":{"antennae":"A","wings":"X","pattern":"D","legs":"X"},"bonus":0.02},{"rt":1398.8999999761581,"stimulus":"bees-with-color/bee-B2DM.svg","response":0,"trial_type":"image-button-response","trial_index":89,"time_elapsed":683025,"internal_node_id":"0.0-4.0-0.39","subject_id":"5ea19dcac30e0005e6e6b6e3","study_id":"6197b3f67c2b5cd3b6d9596a","session_id":"619bfbdff4c6938e35c4736a","condition":"full-information","relevant_dimensions":["antennae","pattern"],"bee_group":{"antennae":"A","wings":"X","pattern":"D","legs":"X"},"action":"harvest","summary":"good-harvest","bonus":0.02},{"rt":1237.300000011921,"stimulus":"\n                    <p><b>Action: <em>harvest</em></b></p>\n                    <p>This is the bee that you just saw.</p>\n                    <img src=\"bees-with-color/bee-B2DM.svg\" width=\"200\">\n                    <p><span class=\"greenText\"><b>Successful harvest!</b></span><br>Your pay has increased by $0.02. Your bonus pay is now $0.32.</p>\n            ","response":0,"trial_type":"html-button-response","trial_index":90,"time_elapsed":684265,"internal_node_id":"0.0-4.0-1.39","subject_id":"5ea19dcac30e0005e6e6b6e3","study_id":"6197b3f67c2b5cd3b6d9596a","session_id":"619bfbdff4c6938e35c4736a","condition":"full-information","relevant_dimensions":["antennae","pattern"],"bee_group":{"antennae":"A","wings":"X","pattern":"D","legs":"X"},"bonus":0.02},{"rt":780.5,"stimulus":"bees-with-color/bee-A1DM.svg","response":0,"trial_type":"image-button-response","trial_index":91,"time_elapsed":685048,"internal_node_id":"0.0-4.0-0.40","subject_id":"5ea19dcac30e0005e6e6b6e3","study_id":"6197b3f67c2b5cd3b6d9596a","session_id":"619bfbdff4c6938e35c4736a","condition":"full-information","relevant_dimensions":["antennae","pattern"],"bee_group":{"antennae":"A","wings":"X","pattern":"D","legs":"X"},"action":"harvest","summary":"bad-harvest","bonus":0.02},{"rt":864.5,"stimulus":"\n                    <p><b>Action: <em>harvest</em></b></p>\n                    <p>This is the bee that you just saw.</p>\n                    <img src=\"bees-with-color/bee-A1DM.svg\" width=\"200\">\n                    <p><span class=\"redText\">Bad choice, the bee was angry.</span><br><b>You have been stung!</b><br>Your pay has been decreased by $0.10. Your bonus pay is now $0.22.</p>\n            ","response":0,"trial_type":"html-button-response","trial_index":92,"time_elapsed":685915,"internal_node_id":"0.0-4.0-1.40","subject_id":"5ea19dcac30e0005e6e6b6e3","study_id":"6197b3f67c2b5cd3b6d9596a","session_id":"619bfbdff4c6938e35c4736a","condition":"full-information","relevant_dimensions":["antennae","pattern"],"bee_group":{"antennae":"A","wings":"X","pattern":"D","legs":"X"},"bonus":0.02},{"rt":733.8999999761581,"stimulus":"bees-with-color/bee-A1DF.svg","response":1,"trial_type":"image-button-response","trial_index":93,"time_elapsed":686651,"internal_node_id":"0.0-4.0-0.41","subject_id":"5ea19dcac30e0005e6e6b6e3","study_id":"6197b3f67c2b5cd3b6d9596a","session_id":"619bfbdff4c6938e35c4736a","condition":"full-information","relevant_dimensions":["antennae","pattern"],"bee_group":{"antennae":"A","wings":"X","pattern":"D","legs":"X"},"action":"avoid","summary":"good-avoid","bonus":0.02},{"rt":957.1000000238419,"stimulus":"\n                    <p><b>Action: <em>avoid</em></b></p>\n                    <p>This is the bee that you just saw.</p>\n                    <img src=\"bees-with-color/bee-A1DF.svg\" width=\"200\">\n                    <p><span class=\"greenText\">Good choice!</span>  This bee would have stung you.<br>Your bonus pay is unchanged, and remains at $0.22.</p>\n            ","response":0,"trial_type":"html-button-response","trial_index":94,"time_elapsed":687611,"internal_node_id":"0.0-4.0-1.41","subject_id":"5ea19dcac30e0005e6e6b6e3","study_id":"6197b3f67c2b5cd3b6d9596a","session_id":"619bfbdff4c6938e35c4736a","condition":"full-information","relevant_dimensions":["antennae","pattern"],"bee_group":{"antennae":"A","wings":"X","pattern":"D","legs":"X"},"bonus":0.02},{"rt":853.8999999761581,"stimulus":"bees-with-color/bee-B1DM.svg","response":1,"trial_type":"image-button-response","trial_index":95,"time_elapsed":688467,"internal_node_id":"0.0-4.0-0.42","subject_id":"5ea19dcac30e0005e6e6b6e3","study_id":"6197b3f67c2b5cd3b6d9596a","session_id":"619bfbdff4c6938e35c4736a","condition":"full-information","relevant_dimensions":["antennae","pattern"],"bee_group":{"antennae":"A","wings":"X","pattern":"D","legs":"X"},"action":"avoid","summary":"bad-avoid","bonus":0.02},{"rt":1070.8999999761581,"stimulus":"\n                    <p><b>Action: <em>avoid</em></b></p>\n                    <p>This is the bee that you just saw.</p>\n                    <img src=\"bees-with-color/bee-B1DM.svg\" width=\"200\">\n                    <p><span class=\"redText\">Bad choice,</span> the bee was friendly.<br>Your bonus pay is unchanged, and remains at $0.22.</p>\n            ","response":0,"trial_type":"html-button-response","trial_index":96,"time_elapsed":689540,"internal_node_id":"0.0-4.0-1.42","subject_id":"5ea19dcac30e0005e6e6b6e3","study_id":"6197b3f67c2b5cd3b6d9596a","session_id":"619bfbdff4c6938e35c4736a","condition":"full-information","relevant_dimensions":["antennae","pattern"],"bee_group":{"antennae":"A","wings":"X","pattern":"D","legs":"X"},"bonus":0.02},{"rt":872.6999999880791,"stimulus":"bees-with-color/bee-B1SF.svg","response":1,"trial_type":"image-button-response","trial_index":97,"time_elapsed":690413,"internal_node_id":"0.0-4.0-0.43","subject_id":"5ea19dcac30e0005e6e6b6e3","study_id":"6197b3f67c2b5cd3b6d9596a","session_id":"619bfbdff4c6938e35c4736a","condition":"full-information","relevant_dimensions":["antennae","pattern"],"bee_group":{"antennae":"A","wings":"X","pattern":"D","legs":"X"},"action":"avoid","summary":"bad-avoid","bonus":0.02},{"rt":2206.800000011921,"stimulus":"\n                    <p><b>Action: <em>avoid</em></b></p>\n                    <p>This is the bee that you just saw.</p>\n                    <img src=\"bees-with-color/bee-B1SF.svg\" width=\"200\">\n                    <p><span class=\"redText\">Bad choice,</span> the bee was friendly.<br>Your bonus pay is unchanged, and remains at $0.22.</p>\n            ","response":0,"trial_type":"html-button-response","trial_index":98,"time_elapsed":692621,"internal_node_id":"0.0-4.0-1.43","subject_id":"5ea19dcac30e0005e6e6b6e3","study_id":"6197b3f67c2b5cd3b6d9596a","session_id":"619bfbdff4c6938e35c4736a","condition":"full-information","relevant_dimensions":["antennae","pattern"],"bee_group":{"antennae":"A","wings":"X","pattern":"D","legs":"X"},"bonus":0.02},{"rt":595.4000000357628,"stimulus":"bees-with-color/bee-A1SF.svg","response":0,"trial_type":"image-button-response","trial_index":99,"time_elapsed":693218,"internal_node_id":"0.0-4.0-0.44","subject_id":"5ea19dcac30e0005e6e6b6e3","study_id":"6197b3f67c2b5cd3b6d9596a","session_id":"619bfbdff4c6938e35c4736a","condition":"full-information","relevant_dimensions":["antennae","pattern"],"bee_group":{"antennae":"A","wings":"X","pattern":"D","legs":"X"},"action":"harvest","summary":"good-harvest","bonus":0.02},{"rt":935.4000000357628,"stimulus":"\n                    <p><b>Action: <em>harvest</em></b></p>\n                    <p>This is the bee that you just saw.</p>\n                    <img src=\"bees-with-color/bee-A1SF.svg\" width=\"200\">\n                    <p><span class=\"greenText\"><b>Successful harvest!</b></span><br>Your pay has increased by $0.02. Your bonus pay is now $0.24.</p>\n            ","response":0,"trial_type":"html-button-response","trial_index":100,"time_elapsed":694155,"internal_node_id":"0.0-4.0-1.44","subject_id":"5ea19dcac30e0005e6e6b6e3","study_id":"6197b3f67c2b5cd3b6d9596a","session_id":"619bfbdff4c6938e35c4736a","condition":"full-information","relevant_dimensions":["antennae","pattern"],"bee_group":{"antennae":"A","wings":"X","pattern":"D","legs":"X"},"bonus":0.02},{"rt":687.3000000119209,"stimulus":"bees-with-color/bee-A2SM.svg","response":0,"trial_type":"image-button-response","trial_index":101,"time_elapsed":694844,"internal_node_id":"0.0-4.0-0.45","subject_id":"5ea19dcac30e0005e6e6b6e3","study_id":"6197b3f67c2b5cd3b6d9596a","session_id":"619bfbdff4c6938e35c4736a","condition":"full-information","relevant_dimensions":["antennae","pattern"],"bee_group":{"antennae":"A","wings":"X","pattern":"D","legs":"X"},"action":"harvest","summary":"good-harvest","bonus":0.02},{"rt":1069.5,"stimulus":"\n                    <p><b>Action: <em>harvest</em></b></p>\n                    <p>This is the bee that you just saw.</p>\n                    <img src=\"bees-with-color/bee-A2SM.svg\" width=\"200\">\n                    <p><span class=\"greenText\"><b>Successful harvest!</b></span><br>Your pay has increased by $0.02. Your bonus pay is now $0.26.</p>\n            ","response":0,"trial_type":"html-button-response","trial_index":102,"time_elapsed":695915,"internal_node_id":"0.0-4.0-1.45","subject_id":"5ea19dcac30e0005e6e6b6e3","study_id":"6197b3f67c2b5cd3b6d9596a","session_id":"619bfbdff4c6938e35c4736a","condition":"full-information","relevant_dimensions":["antennae","pattern"],"bee_group":{"antennae":"A","wings":"X","pattern":"D","legs":"X"},"bonus":0.02},{"rt":1079.300000011921,"stimulus":"bees-with-color/bee-A2SF.svg","response":0,"trial_type":"image-button-response","trial_index":103,"time_elapsed":696996,"internal_node_id":"0.0-4.0-0.46","subject_id":"5ea19dcac30e0005e6e6b6e3","study_id":"6197b3f67c2b5cd3b6d9596a","session_id":"619bfbdff4c6938e35c4736a","condition":"full-information","relevant_dimensions":["antennae","pattern"],"bee_group":{"antennae":"A","wings":"X","pattern":"D","legs":"X"},"action":"harvest","summary":"good-harvest","bonus":0.02},{"rt":1020.5,"stimulus":"\n                    <p><b>Action: <em>harvest</em></b></p>\n                    <p>This is the bee that you just saw.</p>\n                    <img src=\"bees-with-color/bee-A2SF.svg\" width=\"200\">\n                    <p><span class=\"greenText\"><b>Successful harvest!</b></span><br>Your pay has increased by $0.02. Your bonus pay is now $0.28.</p>\n            ","response":0,"trial_type":"html-button-response","trial_index":104,"time_elapsed":698018,"internal_node_id":"0.0-4.0-1.46","subject_id":"5ea19dcac30e0005e6e6b6e3","study_id":"6197b3f67c2b5cd3b6d9596a","session_id":"619bfbdff4c6938e35c4736a","condition":"full-information","relevant_dimensions":["antennae","pattern"],"bee_group":{"antennae":"A","wings":"X","pattern":"D","legs":"X"},"bonus":0.02},{"rt":680.3999999761581,"stimulus":"bees-with-color/bee-B2SF.svg","response":0,"trial_type":"image-button-response","trial_index":105,"time_elapsed":698700,"internal_node_id":"0.0-4.0-0.47","subject_id":"5ea19dcac30e0005e6e6b6e3","study_id":"6197b3f67c2b5cd3b6d9596a","session_id":"619bfbdff4c6938e35c4736a","condition":"full-information","relevant_dimensions":["antennae","pattern"],"bee_group":{"antennae":"A","wings":"X","pattern":"D","legs":"X"},"action":"harvest","summary":"good-harvest","bonus":0.02},{"rt":941.6999999880791,"stimulus":"\n                    <p><b>Action: <em>harvest</em></b></p>\n                    <p>This is the bee that you just saw.</p>\n                    <img src=\"bees-with-color/bee-B2SF.svg\" width=\"200\">\n                    <p><span class=\"greenText\"><b>Successful harvest!</b></span><br>Your pay has increased by $0.02. Your bonus pay is now $0.30.</p>\n            ","response":0,"trial_type":"html-button-response","trial_index":106,"time_elapsed":699644,"internal_node_id":"0.0-4.0-1.47","subject_id":"5ea19dcac30e0005e6e6b6e3","study_id":"6197b3f67c2b5cd3b6d9596a","session_id":"619bfbdff4c6938e35c4736a","condition":"full-information","relevant_dimensions":["antennae","pattern"],"bee_group":{"antennae":"A","wings":"X","pattern":"D","legs":"X"},"bonus":0.02},{"rt":1640,"stimulus":"bees-with-color/bee-A1SM.svg","response":1,"trial_type":"image-button-response","trial_index":107,"time_elapsed":701285,"internal_node_id":"0.0-4.0-0.48","subject_id":"5ea19dcac30e0005e6e6b6e3","study_id":"6197b3f67c2b5cd3b6d9596a","session_id":"619bfbdff4c6938e35c4736a","condition":"full-information","relevant_dimensions":["antennae","pattern"],"bee_group":{"antennae":"A","wings":"X","pattern":"D","legs":"X"},"action":"avoid","summary":"bad-avoid","bonus":0.02},{"rt":1178.699999988079,"stimulus":"\n                    <p><b>Action: <em>avoid</em></b></p>\n                    <p>This is the bee that you just saw.</p>\n                    <img src=\"bees-with-color/bee-A1SM.svg\" width=\"200\">\n                    <p><span class=\"redText\">Bad choice,</span> the bee was friendly.<br>Your bonus pay is unchanged, and remains at $0.30.</p>\n            ","response":0,"trial_type":"html-button-response","trial_index":108,"time_elapsed":702466,"internal_node_id":"0.0-4.0-1.48","subject_id":"5ea19dcac30e0005e6e6b6e3","study_id":"6197b3f67c2b5cd3b6d9596a","session_id":"619bfbdff4c6938e35c4736a","condition":"full-information","relevant_dimensions":["antennae","pattern"],"bee_group":{"antennae":"A","wings":"X","pattern":"D","legs":"X"},"bonus":0.02},{"rt":736.2000000476837,"stimulus":"bees-with-color/bee-B1SF.svg","response":0,"trial_type":"image-button-response","trial_index":109,"time_elapsed":703204,"internal_node_id":"0.0-4.0-0.49","subject_id":"5ea19dcac30e0005e6e6b6e3","study_id":"6197b3f67c2b5cd3b6d9596a","session_id":"619bfbdff4c6938e35c4736a","condition":"full-information","relevant_dimensions":["antennae","pattern"],"bee_group":{"antennae":"A","wings":"X","pattern":"D","legs":"X"},"action":"harvest","summary":"good-harvest","bonus":0.02},{"rt":857.2000000476837,"stimulus":"\n                    <p><b>Action: <em>harvest</em></b></p>\n                    <p>This is the bee that you just saw.</p>\n                    <img src=\"bees-with-color/bee-B1SF.svg\" width=\"200\">\n                    <p><span class=\"greenText\"><b>Successful harvest!</b></span><br>Your pay has increased by $0.02. Your bonus pay is now $0.32.</p>\n            ","response":0,"trial_type":"html-button-response","trial_index":110,"time_elapsed":704064,"internal_node_id":"0.0-4.0-1.49","subject_id":"5ea19dcac30e0005e6e6b6e3","study_id":"6197b3f67c2b5cd3b6d9596a","session_id":"619bfbdff4c6938e35c4736a","condition":"full-information","relevant_dimensions":["antennae","pattern"],"bee_group":{"antennae":"A","wings":"X","pattern":"D","legs":"X"},"bonus":0.02},{"rt":799.1999999880791,"stimulus":"bees-with-color/bee-A2DF.svg","response":0,"trial_type":"image-button-response","trial_index":111,"time_elapsed":704866,"internal_node_id":"0.0-4.0-0.50","subject_id":"5ea19dcac30e0005e6e6b6e3","study_id":"6197b3f67c2b5cd3b6d9596a","session_id":"619bfbdff4c6938e35c4736a","condition":"full-information","relevant_dimensions":["antennae","pattern"],"bee_group":{"antennae":"A","wings":"X","pattern":"D","legs":"X"},"action":"harvest","summary":"bad-harvest","bonus":0.02},{"rt":1005.7999999523163,"stimulus":"\n                    <p><b>Action: <em>harvest</em></b></p>\n                    <p>This is the bee that you just saw.</p>\n                    <img src=\"bees-with-color/bee-A2DF.svg\" width=\"200\">\n                    <p><span class=\"redText\">Bad choice, the bee was angry.</span><br><b>You have been stung!</b><br>Your pay has been decreased by $0.10. Your bonus pay is now $0.22.</p>\n            ","response":0,"trial_type":"html-button-response","trial_index":112,"time_elapsed":705874,"internal_node_id":"0.0-4.0-1.50","subject_id":"5ea19dcac30e0005e6e6b6e3","study_id":"6197b3f67c2b5cd3b6d9596a","session_id":"619bfbdff4c6938e35c4736a","condition":"full-information","relevant_dimensions":["antennae","pattern"],"bee_group":{"antennae":"A","wings":"X","pattern":"D","legs":"X"},"bonus":0.02},{"rt":836.1999999880791,"stimulus":"bees-with-color/bee-B1DF.svg","response":0,"trial_type":"image-button-response","trial_index":113,"time_elapsed":706713,"internal_node_id":"0.0-4.0-0.51","subject_id":"5ea19dcac30e0005e6e6b6e3","study_id":"6197b3f67c2b5cd3b6d9596a","session_id":"619bfbdff4c6938e35c4736a","condition":"full-information","relevant_dimensions":["antennae","pattern"],"bee_group":{"antennae":"A","wings":"X","pattern":"D","legs":"X"},"action":"harvest","summary":"good-harvest","bonus":0.02},{"rt":1063.3999999761581,"stimulus":"\n                    <p><b>Action: <em>harvest</em></b></p>\n                    <p>This is the bee that you just saw.</p>\n                    <img src=\"bees-with-color/bee-B1DF.svg\" width=\"200\">\n                    <p><span class=\"greenText\"><b>Successful harvest!</b></span><br>Your pay has increased by $0.02. Your bonus pay is now $0.24.</p>\n            ","response":0,"trial_type":"html-button-response","trial_index":114,"time_elapsed":707779,"internal_node_id":"0.0-4.0-1.51","subject_id":"5ea19dcac30e0005e6e6b6e3","study_id":"6197b3f67c2b5cd3b6d9596a","session_id":"619bfbdff4c6938e35c4736a","condition":"full-information","relevant_dimensions":["antennae","pattern"],"bee_group":{"antennae":"A","wings":"X","pattern":"D","legs":"X"},"bonus":0.02},{"rt":598.9000000357628,"stimulus":"bees-with-color/bee-A1DF.svg","response":0,"trial_type":"image-button-response","trial_index":115,"time_elapsed":708380,"internal_node_id":"0.0-4.0-0.52","subject_id":"5ea19dcac30e0005e6e6b6e3","study_id":"6197b3f67c2b5cd3b6d9596a","session_id":"619bfbdff4c6938e35c4736a","condition":"full-information","relevant_dimensions":["antennae","pattern"],"bee_group":{"antennae":"A","wings":"X","pattern":"D","legs":"X"},"action":"harvest","summary":"bad-harvest","bonus":0.02},{"rt":1005.4000000357628,"stimulus":"\n                    <p><b>Action: <em>harvest</em></b></p>\n                    <p>This is the bee that you just saw.</p>\n                    <img src=\"bees-with-color/bee-A1DF.svg\" width=\"200\">\n                    <p><span class=\"redText\">Bad choice, the bee was angry.</span><br><b>You have been stung!</b><br>Your pay has been decreased by $0.10. Your bonus pay is now $0.14.</p>\n            ","response":0,"trial_type":"html-button-response","trial_index":116,"time_elapsed":709388,"internal_node_id":"0.0-4.0-1.52","subject_id":"5ea19dcac30e0005e6e6b6e3","study_id":"6197b3f67c2b5cd3b6d9596a","session_id":"619bfbdff4c6938e35c4736a","condition":"full-information","relevant_dimensions":["antennae","pattern"],"bee_group":{"antennae":"A","wings":"X","pattern":"D","legs":"X"},"bonus":0.02},{"rt":866.5,"stimulus":"bees-with-color/bee-B2SF.svg","response":0,"trial_type":"image-button-response","trial_index":117,"time_elapsed":710258,"internal_node_id":"0.0-4.0-0.53","subject_id":"5ea19dcac30e0005e6e6b6e3","study_id":"6197b3f67c2b5cd3b6d9596a","session_id":"619bfbdff4c6938e35c4736a","condition":"full-information","relevant_dimensions":["antennae","pattern"],"bee_group":{"antennae":"A","wings":"X","pattern":"D","legs":"X"},"action":"harvest","summary":"good-harvest","bonus":0.02},{"rt":727.8000000119209,"stimulus":"\n                    <p><b>Action: <em>harvest</em></b></p>\n                    <p>This is the bee that you just saw.</p>\n                    <img src=\"bees-with-color/bee-B2SF.svg\" width=\"200\">\n                    <p><span class=\"greenText\"><b>Successful harvest!</b></span><br>Your pay has increased by $0.02. Your bonus pay is now $0.16.</p>\n            ","response":0,"trial_type":"html-button-response","trial_index":118,"time_elapsed":710989,"internal_node_id":"0.0-4.0-1.53","subject_id":"5ea19dcac30e0005e6e6b6e3","study_id":"6197b3f67c2b5cd3b6d9596a","session_id":"619bfbdff4c6938e35c4736a","condition":"full-information","relevant_dimensions":["antennae","pattern"],"bee_group":{"antennae":"A","wings":"X","pattern":"D","legs":"X"},"bonus":0.02},{"rt":792.7999999523163,"stimulus":"bees-with-color/bee-B1SM.svg","response":0,"trial_type":"image-button-response","trial_index":119,"time_elapsed":711784,"internal_node_id":"0.0-4.0-0.54","subject_id":"5ea19dcac30e0005e6e6b6e3","study_id":"6197b3f67c2b5cd3b6d9596a","session_id":"619bfbdff4c6938e35c4736a","condition":"full-information","relevant_dimensions":["antennae","pattern"],"bee_group":{"antennae":"A","wings":"X","pattern":"D","legs":"X"},"action":"harvest","summary":"good-harvest","bonus":0.02},{"rt":969.5,"stimulus":"\n                    <p><b>Action: <em>harvest</em></b></p>\n                    <p>This is the bee that you just saw.</p>\n                    <img src=\"bees-with-color/bee-B1SM.svg\" width=\"200\">\n                    <p><span class=\"greenText\"><b>Successful harvest!</b></span><br>Your pay has increased by $0.02. Your bonus pay is now $0.18.</p>\n            ","response":0,"trial_type":"html-button-response","trial_index":120,"time_elapsed":712757,"internal_node_id":"0.0-4.0-1.54","subject_id":"5ea19dcac30e0005e6e6b6e3","study_id":"6197b3f67c2b5cd3b6d9596a","session_id":"619bfbdff4c6938e35c4736a","condition":"full-information","relevant_dimensions":["antennae","pattern"],"bee_group":{"antennae":"A","wings":"X","pattern":"D","legs":"X"},"bonus":0.02},{"rt":799.1999999880791,"stimulus":"bees-with-color/bee-B2SM.svg","response":0,"trial_type":"image-button-response","trial_index":121,"time_elapsed":713559,"internal_node_id":"0.0-4.0-0.55","subject_id":"5ea19dcac30e0005e6e6b6e3","study_id":"6197b3f67c2b5cd3b6d9596a","session_id":"619bfbdff4c6938e35c4736a","condition":"full-information","relevant_dimensions":["antennae","pattern"],"bee_group":{"antennae":"A","wings":"X","pattern":"D","legs":"X"},"action":"harvest","summary":"good-harvest","bonus":0.02},{"rt":1074.199999988079,"stimulus":"\n                    <p><b>Action: <em>harvest</em></b></p>\n                    <p>This is the bee that you just saw.</p>\n                    <img src=\"bees-with-color/bee-B2SM.svg\" width=\"200\">\n                    <p><span class=\"greenText\"><b>Successful harvest!</b></span><br>Your pay has increased by $0.02. Your bonus pay is now $0.20.</p>\n            ","response":0,"trial_type":"html-button-response","trial_index":122,"time_elapsed":714636,"internal_node_id":"0.0-4.0-1.55","subject_id":"5ea19dcac30e0005e6e6b6e3","study_id":"6197b3f67c2b5cd3b6d9596a","session_id":"619bfbdff4c6938e35c4736a","condition":"full-information","relevant_dimensions":["antennae","pattern"],"bee_group":{"antennae":"A","wings":"X","pattern":"D","legs":"X"},"bonus":0.02},{"rt":886.2000000476837,"stimulus":"bees-with-color/bee-A2DM.svg","response":0,"trial_type":"image-button-response","trial_index":123,"time_elapsed":715525,"internal_node_id":"0.0-4.0-0.56","subject_id":"5ea19dcac30e0005e6e6b6e3","study_id":"6197b3f67c2b5cd3b6d9596a","session_id":"619bfbdff4c6938e35c4736a","condition":"full-information","relevant_dimensions":["antennae","pattern"],"bee_group":{"antennae":"A","wings":"X","pattern":"D","legs":"X"},"action":"harvest","summary":"bad-harvest","bonus":0.02},{"rt":770.3000000119209,"stimulus":"\n                    <p><b>Action: <em>harvest</em></b></p>\n                    <p>This is the bee that you just saw.</p>\n                    <img src=\"bees-with-color/bee-A2DM.svg\" width=\"200\">\n                    <p><span class=\"redText\">Bad choice, the bee was angry.</span><br><b>You have been stung!</b><br>Your pay has been decreased by $0.10. Your bonus pay is now $0.10.</p>\n            ","response":0,"trial_type":"html-button-response","trial_index":124,"time_elapsed":716298,"internal_node_id":"0.0-4.0-1.56","subject_id":"5ea19dcac30e0005e6e6b6e3","study_id":"6197b3f67c2b5cd3b6d9596a","session_id":"619bfbdff4c6938e35c4736a","condition":"full-information","relevant_dimensions":["antennae","pattern"],"bee_group":{"antennae":"A","wings":"X","pattern":"D","legs":"X"},"bonus":0.02},{"rt":673.0999999642372,"stimulus":"bees-with-color/bee-A1SF.svg","response":0,"trial_type":"image-button-response","trial_index":125,"time_elapsed":716974,"internal_node_id":"0.0-4.0-0.57","subject_id":"5ea19dcac30e0005e6e6b6e3","study_id":"6197b3f67c2b5cd3b6d9596a","session_id":"619bfbdff4c6938e35c4736a","condition":"full-information","relevant_dimensions":["antennae","pattern"],"bee_group":{"antennae":"A","wings":"X","pattern":"D","legs":"X"},"action":"harvest","summary":"good-harvest","bonus":0.02},{"rt":1232.6000000238419,"stimulus":"\n                    <p><b>Action: <em>harvest</em></b></p>\n                    <p>This is the bee that you just saw.</p>\n                    <img src=\"bees-with-color/bee-A1SF.svg\" width=\"200\">\n                    <p><span class=\"greenText\"><b>Successful harvest!</b></span><br>Your pay has increased by $0.02. Your bonus pay is now $0.12.</p>\n            ","response":0,"trial_type":"html-button-response","trial_index":126,"time_elapsed":718210,"internal_node_id":"0.0-4.0-1.57","subject_id":"5ea19dcac30e0005e6e6b6e3","study_id":"6197b3f67c2b5cd3b6d9596a","session_id":"619bfbdff4c6938e35c4736a","condition":"full-information","relevant_dimensions":["antennae","pattern"],"bee_group":{"antennae":"A","wings":"X","pattern":"D","legs":"X"},"bonus":0.02},{"rt":685.9000000357628,"stimulus":"bees-with-color/bee-B2DM.svg","response":0,"trial_type":"image-button-response","trial_index":127,"time_elapsed":718898,"internal_node_id":"0.0-4.0-0.58","subject_id":"5ea19dcac30e0005e6e6b6e3","study_id":"6197b3f67c2b5cd3b6d9596a","session_id":"619bfbdff4c6938e35c4736a","condition":"full-information","relevant_dimensions":["antennae","pattern"],"bee_group":{"antennae":"A","wings":"X","pattern":"D","legs":"X"},"action":"harvest","summary":"good-harvest","bonus":0.02},{"rt":969.1000000238419,"stimulus":"\n                    <p><b>Action: <em>harvest</em></b></p>\n                    <p>This is the bee that you just saw.</p>\n                    <img src=\"bees-with-color/bee-B2DM.svg\" width=\"200\">\n                    <p><span class=\"greenText\"><b>Successful harvest!</b></span><br>Your pay has increased by $0.02. Your bonus pay is now $0.14.</p>\n            ","response":0,"trial_type":"html-button-response","trial_index":128,"time_elapsed":719871,"internal_node_id":"0.0-4.0-1.58","subject_id":"5ea19dcac30e0005e6e6b6e3","study_id":"6197b3f67c2b5cd3b6d9596a","session_id":"619bfbdff4c6938e35c4736a","condition":"full-information","relevant_dimensions":["antennae","pattern"],"bee_group":{"antennae":"A","wings":"X","pattern":"D","legs":"X"},"bonus":0.02},{"rt":764,"stimulus":"bees-with-color/bee-A2SM.svg","response":1,"trial_type":"image-button-response","trial_index":129,"time_elapsed":720638,"internal_node_id":"0.0-4.0-0.59","subject_id":"5ea19dcac30e0005e6e6b6e3","study_id":"6197b3f67c2b5cd3b6d9596a","session_id":"619bfbdff4c6938e35c4736a","condition":"full-information","relevant_dimensions":["antennae","pattern"],"bee_group":{"antennae":"A","wings":"X","pattern":"D","legs":"X"},"action":"avoid","summary":"bad-avoid","bonus":0.02},{"rt":665.6000000238419,"stimulus":"\n                    <p><b>Action: <em>avoid</em></b></p>\n                    <p>This is the bee that you just saw.</p>\n                    <img src=\"bees-with-color/bee-A2SM.svg\" width=\"200\">\n                    <p><span class=\"redText\">Bad choice,</span> the bee was friendly.<br>Your bonus pay is unchanged, and remains at $0.14.</p>\n            ","response":0,"trial_type":"html-button-response","trial_index":130,"time_elapsed":721307,"internal_node_id":"0.0-4.0-1.59","subject_id":"5ea19dcac30e0005e6e6b6e3","study_id":"6197b3f67c2b5cd3b6d9596a","session_id":"619bfbdff4c6938e35c4736a","condition":"full-information","relevant_dimensions":["antennae","pattern"],"bee_group":{"antennae":"A","wings":"X","pattern":"D","legs":"X"},"bonus":0.02},{"rt":857,"stimulus":"bees-with-color/bee-B2DF.svg","response":0,"trial_type":"image-button-response","trial_index":131,"time_elapsed":722166,"internal_node_id":"0.0-4.0-0.60","subject_id":"5ea19dcac30e0005e6e6b6e3","study_id":"6197b3f67c2b5cd3b6d9596a","session_id":"619bfbdff4c6938e35c4736a","condition":"full-information","relevant_dimensions":["antennae","pattern"],"bee_group":{"antennae":"A","wings":"X","pattern":"D","legs":"X"},"action":"harvest","summary":"good-harvest","bonus":0.02},{"rt":1033.9000000357628,"stimulus":"\n                    <p><b>Action: <em>harvest</em></b></p>\n                    <p>This is the bee that you just saw.</p>\n                    <img src=\"bees-with-color/bee-B2DF.svg\" width=\"200\">\n                    <p><span class=\"greenText\"><b>Successful harvest!</b></span><br>Your pay has increased by $0.02. Your bonus pay is now $0.16.</p>\n            ","response":0,"trial_type":"html-button-response","trial_index":132,"time_elapsed":723204,"internal_node_id":"0.0-4.0-1.60","subject_id":"5ea19dcac30e0005e6e6b6e3","study_id":"6197b3f67c2b5cd3b6d9596a","session_id":"619bfbdff4c6938e35c4736a","condition":"full-information","relevant_dimensions":["antennae","pattern"],"bee_group":{"antennae":"A","wings":"X","pattern":"D","legs":"X"},"bonus":0.02},{"rt":789.8999999761581,"stimulus":"bees-with-color/bee-A1DM.svg","response":0,"trial_type":"image-button-response","trial_index":133,"time_elapsed":723997,"internal_node_id":"0.0-4.0-0.61","subject_id":"5ea19dcac30e0005e6e6b6e3","study_id":"6197b3f67c2b5cd3b6d9596a","session_id":"619bfbdff4c6938e35c4736a","condition":"full-information","relevant_dimensions":["antennae","pattern"],"bee_group":{"antennae":"A","wings":"X","pattern":"D","legs":"X"},"action":"harvest","summary":"bad-harvest","bonus":0.02},{"rt":1020.3000000119209,"stimulus":"\n                    <p><b>Action: <em>harvest</em></b></p>\n                    <p>This is the bee that you just saw.</p>\n                    <img src=\"bees-with-color/bee-A1DM.svg\" width=\"200\">\n                    <p><span class=\"redText\">Bad choice, the bee was angry.</span><br><b>You have been stung!</b><br>Your pay has been decreased by $0.10. Your bonus pay is now $0.06.</p>\n            ","response":0,"trial_type":"html-button-response","trial_index":134,"time_elapsed":725020,"internal_node_id":"0.0-4.0-1.61","subject_id":"5ea19dcac30e0005e6e6b6e3","study_id":"6197b3f67c2b5cd3b6d9596a","session_id":"619bfbdff4c6938e35c4736a","condition":"full-information","relevant_dimensions":["antennae","pattern"],"bee_group":{"antennae":"A","wings":"X","pattern":"D","legs":"X"},"bonus":0.02},{"rt":735.6999999880791,"stimulus":"bees-with-color/bee-B1DM.svg","response":0,"trial_type":"image-button-response","trial_index":135,"time_elapsed":725759,"internal_node_id":"0.0-4.0-0.62","subject_id":"5ea19dcac30e0005e6e6b6e3","study_id":"6197b3f67c2b5cd3b6d9596a","session_id":"619bfbdff4c6938e35c4736a","condition":"full-information","relevant_dimensions":["antennae","pattern"],"bee_group":{"antennae":"A","wings":"X","pattern":"D","legs":"X"},"action":"harvest","summary":"good-harvest","bonus":0.02},{"rt":721.7000000476837,"stimulus":"\n                    <p><b>Action: <em>harvest</em></b></p>\n                    <p>This is the bee that you just saw.</p>\n                    <img src=\"bees-with-color/bee-B1DM.svg\" width=\"200\">\n                    <p><span class=\"greenText\"><b>Successful harvest!</b></span><br>Your pay has increased by $0.02. Your bonus pay is now $0.08.</p>\n            ","response":0,"trial_type":"html-button-response","trial_index":136,"time_elapsed":726484,"internal_node_id":"0.0-4.0-1.62","subject_id":"5ea19dcac30e0005e6e6b6e3","study_id":"6197b3f67c2b5cd3b6d9596a","session_id":"619bfbdff4c6938e35c4736a","condition":"full-information","relevant_dimensions":["antennae","pattern"],"bee_group":{"antennae":"A","wings":"X","pattern":"D","legs":"X"},"bonus":0.02},{"rt":549.1999999880791,"stimulus":"bees-with-color/bee-A2SF.svg","response":0,"trial_type":"image-button-response","trial_index":137,"time_elapsed":727037,"internal_node_id":"0.0-4.0-0.63","subject_id":"5ea19dcac30e0005e6e6b6e3","study_id":"6197b3f67c2b5cd3b6d9596a","session_id":"619bfbdff4c6938e35c4736a","condition":"full-information","relevant_dimensions":["antennae","pattern"],"bee_group":{"antennae":"A","wings":"X","pattern":"D","legs":"X"},"action":"harvest","summary":"good-harvest","bonus":0.02},{"rt":705.9000000357628,"stimulus":"\n                    <p><b>Action: <em>harvest</em></b></p>\n                    <p>This is the bee that you just saw.</p>\n                    <img src=\"bees-with-color/bee-A2SF.svg\" width=\"200\">\n                    <p><span class=\"greenText\"><b>Successful harvest!</b></span><br>Your pay has increased by $0.02. Your bonus pay is now $0.10.</p>\n            ","response":0,"trial_type":"html-button-response","trial_index":138,"time_elapsed":727746,"internal_node_id":"0.0-4.0-1.63","subject_id":"5ea19dcac30e0005e6e6b6e3","study_id":"6197b3f67c2b5cd3b6d9596a","session_id":"619bfbdff4c6938e35c4736a","condition":"full-information","relevant_dimensions":["antennae","pattern"],"bee_group":{"antennae":"A","wings":"X","pattern":"D","legs":"X"},"bonus":0.02},{"rt":4009.600000023842,"stimulus":"You have completed the first part of this experiment.<br><br>You will now begin a shorter second part, in which you will receive no feedback.<br>The same rules regarding bonus pay apply.<br><br>Press any key to begin.","response":" ","trial_type":"html-keyboard-response","trial_index":139,"time_elapsed":731759,"internal_node_id":"0.0-5.0","subject_id":"5ea19dcac30e0005e6e6b6e3","study_id":"6197b3f67c2b5cd3b6d9596a","session_id":"619bfbdff4c6938e35c4736a","condition":"full-information","relevant_dimensions":["antennae","pattern"],"bee_group":{"antennae":"A","wings":"X","pattern":"D","legs":"X"},"bonus":0.02},{"rt":3954.5,"stimulus":"bees-with-color/bee-A2SF.svg","response":0,"trial_type":"image-button-response","trial_index":140,"time_elapsed":735730,"internal_node_id":"0.0-6.0-0.0","subject_id":"5ea19dcac30e0005e6e6b6e3","study_id":"6197b3f67c2b5cd3b6d9596a","session_id":"619bfbdff4c6938e35c4736a","condition":"full-information","relevant_dimensions":["antennae","pattern"],"bee_group":{"antennae":"A","wings":"X","pattern":"D","legs":"X"},"bonus":0.02},{"rt":3586.600000023842,"stimulus":"bees-with-color/bee-B2SM.svg","response":0,"trial_type":"image-button-response","trial_index":141,"time_elapsed":739323,"internal_node_id":"0.0-6.0-0.1","subject_id":"5ea19dcac30e0005e6e6b6e3","study_id":"6197b3f67c2b5cd3b6d9596a","session_id":"619bfbdff4c6938e35c4736a","condition":"full-information","relevant_dimensions":["antennae","pattern"],"bee_group":{"antennae":"A","wings":"X","pattern":"D","legs":"X"},"bonus":0.02},{"rt":2019.300000011921,"stimulus":"bees-with-color/bee-B1SM.svg","response":0,"trial_type":"image-button-response","trial_index":142,"time_elapsed":741348,"internal_node_id":"0.0-6.0-0.2","subject_id":"5ea19dcac30e0005e6e6b6e3","study_id":"6197b3f67c2b5cd3b6d9596a","session_id":"619bfbdff4c6938e35c4736a","condition":"full-information","relevant_dimensions":["antennae","pattern"],"bee_group":{"antennae":"A","wings":"X","pattern":"D","legs":"X"},"bonus":0.02},{"rt":2714.400000035763,"stimulus":"bees-with-color/bee-A2SM.svg","response":0,"trial_type":"image-button-response","trial_index":143,"time_elapsed":744068,"internal_node_id":"0.0-6.0-0.3","subject_id":"5ea19dcac30e0005e6e6b6e3","study_id":"6197b3f67c2b5cd3b6d9596a","session_id":"619bfbdff4c6938e35c4736a","condition":"full-information","relevant_dimensions":["antennae","pattern"],"bee_group":{"antennae":"A","wings":"X","pattern":"D","legs":"X"},"bonus":0.02},{"rt":4328.399999976158,"stimulus":"bees-with-color/bee-B1DM.svg","response":0,"trial_type":"image-button-response","trial_index":144,"time_elapsed":748401,"internal_node_id":"0.0-6.0-0.4","subject_id":"5ea19dcac30e0005e6e6b6e3","study_id":"6197b3f67c2b5cd3b6d9596a","session_id":"619bfbdff4c6938e35c4736a","condition":"full-information","relevant_dimensions":["antennae","pattern"],"bee_group":{"antennae":"A","wings":"X","pattern":"D","legs":"X"},"bonus":0.02},{"rt":3084.300000011921,"stimulus":"bees-with-color/bee-A1SF.svg","response":0,"trial_type":"image-button-response","trial_index":145,"time_elapsed":751491,"internal_node_id":"0.0-6.0-0.5","subject_id":"5ea19dcac30e0005e6e6b6e3","study_id":"6197b3f67c2b5cd3b6d9596a","session_id":"619bfbdff4c6938e35c4736a","condition":"full-information","relevant_dimensions":["antennae","pattern"],"bee_group":{"antennae":"A","wings":"X","pattern":"D","legs":"X"},"bonus":0.02},{"rt":2275.399999976158,"stimulus":"bees-with-color/bee-A2DM.svg","response":0,"trial_type":"image-button-response","trial_index":146,"time_elapsed":753772,"internal_node_id":"0.0-6.0-0.6","subject_id":"5ea19dcac30e0005e6e6b6e3","study_id":"6197b3f67c2b5cd3b6d9596a","session_id":"619bfbdff4c6938e35c4736a","condition":"full-information","relevant_dimensions":["antennae","pattern"],"bee_group":{"antennae":"A","wings":"X","pattern":"D","legs":"X"},"bonus":0.02},{"rt":1441.5,"stimulus":"bees-with-color/bee-A2DF.svg","response":0,"trial_type":"image-button-response","trial_index":147,"time_elapsed":755219,"internal_node_id":"0.0-6.0-0.7","subject_id":"5ea19dcac30e0005e6e6b6e3","study_id":"6197b3f67c2b5cd3b6d9596a","session_id":"619bfbdff4c6938e35c4736a","condition":"full-information","relevant_dimensions":["antennae","pattern"],"bee_group":{"antennae":"A","wings":"X","pattern":"D","legs":"X"},"bonus":0.02},{"rt":1936.1000000238419,"stimulus":"bees-with-color/bee-B1DF.svg","response":0,"trial_type":"image-button-response","trial_index":148,"time_elapsed":757159,"internal_node_id":"0.0-6.0-0.8","subject_id":"5ea19dcac30e0005e6e6b6e3","study_id":"6197b3f67c2b5cd3b6d9596a","session_id":"619bfbdff4c6938e35c4736a","condition":"full-information","relevant_dimensions":["antennae","pattern"],"bee_group":{"antennae":"A","wings":"X","pattern":"D","legs":"X"},"bonus":0.02},{"rt":3704.699999988079,"stimulus":"bees-with-color/bee-A1DF.svg","response":0,"trial_type":"image-button-response","trial_index":149,"time_elapsed":760868,"internal_node_id":"0.0-6.0-0.9","subject_id":"5ea19dcac30e0005e6e6b6e3","study_id":"6197b3f67c2b5cd3b6d9596a","session_id":"619bfbdff4c6938e35c4736a","condition":"full-information","relevant_dimensions":["antennae","pattern"],"bee_group":{"antennae":"A","wings":"X","pattern":"D","legs":"X"},"bonus":0.02},{"rt":1831.4000000357628,"stimulus":"bees-with-color/bee-A1DM.svg","response":0,"trial_type":"image-button-response","trial_index":150,"time_elapsed":762704,"internal_node_id":"0.0-6.0-0.10","subject_id":"5ea19dcac30e0005e6e6b6e3","study_id":"6197b3f67c2b5cd3b6d9596a","session_id":"619bfbdff4c6938e35c4736a","condition":"full-information","relevant_dimensions":["antennae","pattern"],"bee_group":{"antennae":"A","wings":"X","pattern":"D","legs":"X"},"bonus":0.02},{"rt":2945,"stimulus":"bees-with-color/bee-B2SF.svg","response":0,"trial_type":"image-button-response","trial_index":151,"time_elapsed":765653,"internal_node_id":"0.0-6.0-0.11","subject_id":"5ea19dcac30e0005e6e6b6e3","study_id":"6197b3f67c2b5cd3b6d9596a","session_id":"619bfbdff4c6938e35c4736a","condition":"full-information","relevant_dimensions":["antennae","pattern"],"bee_group":{"antennae":"A","wings":"X","pattern":"D","legs":"X"},"bonus":0.02},{"rt":2442.300000011921,"stimulus":"bees-with-color/bee-B2DM.svg","response":0,"trial_type":"image-button-response","trial_index":152,"time_elapsed":768099,"internal_node_id":"0.0-6.0-0.12","subject_id":"5ea19dcac30e0005e6e6b6e3","study_id":"6197b3f67c2b5cd3b6d9596a","session_id":"619bfbdff4c6938e35c4736a","condition":"full-information","relevant_dimensions":["antennae","pattern"],"bee_group":{"antennae":"A","wings":"X","pattern":"D","legs":"X"},"bonus":0.02},{"rt":1732.699999988079,"stimulus":"bees-with-color/bee-B1SF.svg","response":0,"trial_type":"image-button-response","trial_index":153,"time_elapsed":769836,"internal_node_id":"0.0-6.0-0.13","subject_id":"5ea19dcac30e0005e6e6b6e3","study_id":"6197b3f67c2b5cd3b6d9596a","session_id":"619bfbdff4c6938e35c4736a","condition":"full-information","relevant_dimensions":["antennae","pattern"],"bee_group":{"antennae":"A","wings":"X","pattern":"D","legs":"X"},"bonus":0.02},{"rt":6098.800000011921,"stimulus":"bees-with-color/bee-A1SM.svg","response":0,"trial_type":"image-button-response","trial_index":154,"time_elapsed":775939,"internal_node_id":"0.0-6.0-0.14","subject_id":"5ea19dcac30e0005e6e6b6e3","study_id":"6197b3f67c2b5cd3b6d9596a","session_id":"619bfbdff4c6938e35c4736a","condition":"full-information","relevant_dimensions":["antennae","pattern"],"bee_group":{"antennae":"A","wings":"X","pattern":"D","legs":"X"},"bonus":0.02},{"rt":2024.2000000476837,"stimulus":"bees-with-color/bee-B2DF.svg","response":1,"trial_type":"image-button-response","trial_index":155,"time_elapsed":777968,"internal_node_id":"0.0-6.0-0.15","subject_id":"5ea19dcac30e0005e6e6b6e3","study_id":"6197b3f67c2b5cd3b6d9596a","session_id":"619bfbdff4c6938e35c4736a","condition":"full-information","relevant_dimensions":["antennae","pattern"],"bee_group":{"antennae":"A","wings":"X","pattern":"D","legs":"X"},"bonus":0.02},{"rt":1313.5,"stimulus":"bees-with-color/bee-A2DM.svg","response":1,"trial_type":"image-button-response","trial_index":156,"time_elapsed":779285,"internal_node_id":"0.0-6.0-0.16","subject_id":"5ea19dcac30e0005e6e6b6e3","study_id":"6197b3f67c2b5cd3b6d9596a","session_id":"619bfbdff4c6938e35c4736a","condition":"full-information","relevant_dimensions":["antennae","pattern"],"bee_group":{"antennae":"A","wings":"X","pattern":"D","legs":"X"},"bonus":0.02},{"rt":1323.1000000238419,"stimulus":"bees-with-color/bee-B2SF.svg","response":1,"trial_type":"image-button-response","trial_index":157,"time_elapsed":780612,"internal_node_id":"0.0-6.0-0.17","subject_id":"5ea19dcac30e0005e6e6b6e3","study_id":"6197b3f67c2b5cd3b6d9596a","session_id":"619bfbdff4c6938e35c4736a","condition":"full-information","relevant_dimensions":["antennae","pattern"],"bee_group":{"antennae":"A","wings":"X","pattern":"D","legs":"X"},"bonus":0.02},{"rt":1749.3999999761581,"stimulus":"bees-with-color/bee-B2SM.svg","response":0,"trial_type":"image-button-response","trial_index":158,"time_elapsed":782365,"internal_node_id":"0.0-6.0-0.18","subject_id":"5ea19dcac30e0005e6e6b6e3","study_id":"6197b3f67c2b5cd3b6d9596a","session_id":