[{"success":true,"trial_type":"fullscreen","trial_index":0,"time_elapsed":23553,"internal_node_id":"0.0-0.0","subject_id":"614fb54a636d939d60da5818","study_id":"6197b3f67c2b5cd3b6d9596a","session_id":"6197b9ee4c1af4d577c279a0","condition":"full-information","relevant_dimensions":["pattern","legs"],"bee_group":{"antennae":"X","wings":"X","pattern":"S","legs":"M"},"bonus":1.3800000000000008},{"success":true,"timeout":false,"failed_images":[],"failed_audio":[],"failed_video":[],"trial_type":"preload","trial_index":1,"time_elapsed":25408,"internal_node_id":"0.0-1.0","subject_id":"614fb54a636d939d60da5818","study_id":"6197b3f67c2b5cd3b6d9596a","session_id":"6197b9ee4c1af4d577c279a0","condition":"full-information","relevant_dimensions":["pattern","legs"],"bee_group":{"antennae":"X","wings":"X","pattern":"S","legs":"M"},"bonus":1.3800000000000008},{"rt":2820.900000035763,"stimulus":"Welcome! Press any key to begin.","response":" ","trial_type":"html-keyboard-response","trial_index":2,"time_elapsed":28230,"internal_node_id":"0.0-2.0","subject_id":"614fb54a636d939d60da5818","study_id":"6197b3f67c2b5cd3b6d9596a","session_id":"6197b9ee4c1af4d577c279a0","condition":"full-information","relevant_dimensions":["pattern","legs"],"bee_group":{"antennae":"X","wings":"X","pattern":"S","legs":"M"},"bonus":1.3800000000000008},{"view_history":[{"page_index":0,"viewing_time":4704.399999976158},{"page_index":1,"viewing_time":17075.80000001192},{"page_index":2,"viewing_time":14976.100000023842},{"page_index":3,"viewing_time":28744},{"page_index":4,"viewing_time":5216},{"page_index":5,"viewing_time":8354},{"page_index":6,"viewing_time":1196.0999999642372},{"page_index":5,"viewing_time":11625.900000035763},{"page_index":6,"viewing_time":7148.099999964237},{"page_index":7,"viewing_time":6135.900000035763},{"page_index":8,"viewing_time":6179.899999976158},{"page_index":9,"viewing_time":3290},{"page_index":10,"viewing_time":4520},{"page_index":11,"viewing_time":8746},{"page_index":12,"viewing_time":11354.199999988079},{"page_index":13,"viewing_time":1203.800000011921},{"page_index":14,"viewing_time":4550.199999988079}],"rt":145020.80000001192,"trial_type":"instructions","trial_index":3,"time_elapsed":173251,"internal_node_id":"0.0-3.0-0.0","subject_id":"614fb54a636d939d60da5818","study_id":"6197b3f67c2b5cd3b6d9596a","session_id":"6197b9ee4c1af4d577c279a0","condition":"full-information","relevant_dimensions":["pattern","legs"],"bee_group":{"antennae":"X","wings":"X","pattern":"S","legs":"M"},"bonus":1.3800000000000008},{"rt":19472.900000035763,"response":{"Q0":["Two or six legs","Stripes or spots on body","Single or double wings","Antennae or no antennae"]},"question_order":[0],"trial_type":"survey-multi-select","trial_index":4,"time_elapsed":192727,"internal_node_id":"0.0-3.0-1.0","subject_id":"614fb54a636d939d60da5818","study_id":"6197b3f67c2b5cd3b6d9596a","session_id":"6197b9ee4c1af4d577c279a0","condition":"full-information","relevant_dimensions":["pattern","legs"],"bee_group":{"antennae":"X","wings":"X","pattern":"S","legs":"M"},"correct":true,"bonus":1.3800000000000008},{"rt":36724.09999996424,"response":{"Q1":"No.","Q2":"Based on the four features of the bee.","Q3":"You learn if it was friendly or dangerous, but do not alter your bonus."},"question_order":[0,1,2],"trial_type":"survey-multi-choice","trial_index":5,"time_elapsed":229453,"internal_node_id":"0.0-3.0-2.0","subject_id":"614fb54a636d939d60da5818","study_id":"6197b3f67c2b5cd3b6d9596a","session_id":"6197b9ee4c1af4d577c279a0","condition":"full-information","relevant_dimensions":["pattern","legs"],"bee_group":{"antennae":"X","wings":"X","pattern":"S","legs":"M"},"correct":true,"bonus":1.3800000000000008},{"rt":2580,"stimulus":"<p>Congrats, you got everything right<br>When you're ready, click the button below to continue to the experiment.</p>","response":0,"trial_type":"html-button-response","trial_index":6,"time_elapsed":232035,"internal_node_id":"0.0-3.0-3.0","subject_id":"614fb54a636d939d60da5818","study_id":"6197b3f67c2b5cd3b6d9596a","session_id":"6197b9ee4c1af4d577c279a0","condition":"full-information","relevant_dimensions":["pattern","legs"],"bee_group":{"antennae":"X","wings":"X","pattern":"S","legs":"M"},"bonus":1.3800000000000008},{"rt":8938,"stimulus":"bees-with-color/bee-B1DM.svg","response":1,"trial_type":"image-button-response","trial_index":7,"time_elapsed":240975,"internal_node_id":"0.0-4.0-0.0","subject_id":"614fb54a636d939d60da5818","study_id":"6197b3f67c2b5cd3b6d9596a","session_id":"6197b9ee4c1af4d577c279a0","condition":"full-information","relevant_dimensions":["pattern","legs"],"bee_group":{"antennae":"X","wings":"X","pattern":"S","legs":"M"},"action":"avoid","summary":"bad-avoid","bonus":1.3800000000000008},{"rt":6860,"stimulus":"\n                    <p><b>Action: <em>avoid</em></b></p>\n                    <p>This is the bee that you just saw.</p>\n                    <img src=\"bees-with-color/bee-B1DM.svg\" width=\"200\">\n                    <p><span class=\"redText\">Bad choice,</span> the bee was friendly.<br>Your bonus pay is unchanged, and remains at $0.54.</p>\n            ","response":0,"trial_type":"html-button-response","trial_index":8,"time_elapsed":247836,"internal_node_id":"0.0-4.0-1.0","subject_id":"614fb54a636d939d60da5818","study_id":"6197b3f67c2b5cd3b6d9596a","session_id":"6197b9ee4c1af4d577c279a0","condition":"full-information","relevant_dimensions":["pattern","legs"],"bee_group":{"antennae":"X","wings":"X","pattern":"S","legs":"M"},"bonus":1.3800000000000008},{"rt":7578.700000047684,"stimulus":"bees-with-color/bee-A2SM.svg","response":1,"trial_type":"image-button-response","trial_index":9,"time_elapsed":255417,"internal_node_id":"0.0-4.0-0.1","subject_id":"614fb54a636d939d60da5818","study_id":"6197b3f67c2b5cd3b6d9596a","session_id":"6197b9ee4c1af4d577c279a0","condition":"full-information","relevant_dimensions":["pattern","legs"],"bee_group":{"antennae":"X","wings":"X","pattern":"S","legs":"M"},"action":"avoid","summary":"good-avoid","bonus":1.3800000000000008},{"rt":5342.900000035763,"stimulus":"\n                    <p><b>Action: <em>avoid</em></b></p>\n                    <p>This is the bee that you just saw.</p>\n                    <img src=\"bees-with-color/bee-A2SM.svg\" width=\"200\">\n                    <p><span class=\"greenText\">Good choice!</span>  This bee would have stung you.<br>Your bonus pay is unchanged, and remains at $0.54.</p>\n            ","response":0,"trial_type":"html-button-response","trial_index":10,"time_elapsed":260760,"internal_node_id":"0.0-4.0-1.1","subject_id":"614fb54a636d939d60da5818","study_id":"6197b3f67c2b5cd3b6d9596a","session_id":"6197b9ee4c1af4d577c279a0","condition":"full-information","relevant_dimensions":["pattern","legs"],"bee_group":{"antennae":"X","wings":"X","pattern":"S","legs":"M"},"bonus":1.3800000000000008},{"rt":5466.599999964237,"stimulus":"bees-with-color/bee-B2DM.svg","response":1,"trial_type":"image-button-response","trial_index":11,"time_elapsed":266228,"internal_node_id":"0.0-4.0-0.2","subject_id":"614fb54a636d939d60da5818","study_id":"6197b3f67c2b5cd3b6d9596a","session_id":"6197b9ee4c1af4d577c279a0","condition":"full-information","relevant_dimensions":["pattern","legs"],"bee_group":{"antennae":"X","wings":"X","pattern":"S","legs":"M"},"action":"avoid","summary":"bad-avoid","bonus":1.3800000000000008},{"rt":3387,"stimulus":"\n                    <p><b>Action: <em>avoid</em></b></p>\n                    <p>This is the bee that you just saw.</p>\n                    <img src=\"bees-with-color/bee-B2DM.svg\" width=\"200\">\n                    <p><span class=\"redText\">Bad choice,</span> the bee was friendly.<br>Your bonus pay is unchanged, and remains at $0.54.</p>\n            ","response":0,"trial_type":"html-button-response","trial_index":12,"time_elapsed":269616,"internal_node_id":"0.0-4.0-1.2","subject_id":"614fb54a636d939d60da5818","study_id":"6197b3f67c2b5cd3b6d9596a","session_id":"6197b9ee4c1af4d577c279a0","condition":"full-information","relevant_dimensions":["pattern","legs"],"bee_group":{"antennae":"X","wings":"X","pattern":"S","legs":"M"},"bonus":1.3800000000000008},{"rt":1797.1000000238419,"stimulus":"bees-with-color/bee-B2SF.svg","response":1,"trial_type":"image-button-response","trial_index":13,"time_elapsed":271414,"internal_node_id":"0.0-4.0-0.3","subject_id":"614fb54a636d939d60da5818","study_id":"6197b3f67c2b5cd3b6d9596a","session_id":"6197b9ee4c1af4d577c279a0","condition":"full-information","relevant_dimensions":["pattern","legs"],"bee_group":{"antennae":"X","wings":"X","pattern":"S","legs":"M"},"action":"avoid","summary":"bad-avoid","bonus":1.3800000000000008},{"rt":1889.199999988079,"stimulus":"\n                    <p><b>Action: <em>avoid</em></b></p>\n                    <p>This is the bee that you just saw.</p>\n                    <img src=\"bees-with-color/bee-B2SF.svg\" width=\"200\">\n                    <p><span class=\"redText\">Bad choice,</span> the bee was friendly.<br>Your bonus pay is unchanged, and remains at $0.54.</p>\n            ","response":0,"trial_type":"html-button-response","trial_index":14,"time_elapsed":273304,"internal_node_id":"0.0-4.0-1.3","subject_id":"614fb54a636d939d60da5818","study_id":"6197b3f67c2b5cd3b6d9596a","session_id":"6197b9ee4c1af4d577c279a0","condition":"full-information","relevant_dimensions":["pattern","legs"],"bee_group":{"antennae":"X","wings":"X","pattern":"S","legs":"M"},"bonus":1.3800000000000008},{"rt":3825,"stimulus":"bees-with-color/bee-A1SF.svg","response":1,"trial_type":"image-button-response","trial_index":15,"time_elapsed":277130,"internal_node_id":"0.0-4.0-0.4","subject_id":"614fb54a636d939d60da5818","study_id":"6197b3f67c2b5cd3b6d9596a","session_id":"6197b9ee4c1af4d577c279a0","condition":"full-information","relevant_dimensions":["pattern","legs"],"bee_group":{"antennae":"X","wings":"X","pattern":"S","legs":"M"},"action":"avoid","summary":"bad-avoid","bonus":1.3800000000000008},{"rt":2329.199999988079,"stimulus":"\n                    <p><b>Action: <em>avoid</em></b></p>\n                    <p>This is the bee that you just saw.</p>\n                    <img src=\"bees-with-color/bee-A1SF.svg\" width=\"200\">\n                    <p><span class=\"redText\">Bad choice,</span> the bee was friendly.<br>Your bonus pay is unchanged, and remains at $0.54.</p>\n            ","response":0,"trial_type":"html-button-response","trial_index":16,"time_elapsed":279461,"internal_node_id":"0.0-4.0-1.4","subject_id":"614fb54a636d939d60da5818","study_id":"6197b3f67c2b5cd3b6d9596a","session_id":"6197b9ee4c1af4d577c279a0","condition":"full-information","relevant_dimensions":["pattern","legs"],"bee_group":{"antennae":"X","wings":"X","pattern":"S","legs":"M"},"bonus":1.3800000000000008},{"rt":2436.600000023842,"stimulus":"bees-with-color/bee-B1DF.svg","response":0,"trial_type":"image-button-response","trial_index":17,"time_elapsed":281898,"internal_node_id":"0.0-4.0-0.5","subject_id":"614fb54a636d939d60da5818","study_id":"6197b3f67c2b5cd3b6d9596a","session_id":"6197b9ee4c1af4d577c279a0","condition":"full-information","relevant_dimensions":["pattern","legs"],"bee_group":{"antennae":"X","wings":"X","pattern":"S","legs":"M"},"action":"harvest","summary":"good-harvest","bonus":1.3800000000000008},{"rt":1329.199999988079,"stimulus":"\n                    <p><b>Action: <em>harvest</em></b></p>\n                    <p>This is the bee that you just saw.</p>\n                    <img src=\"bees-with-color/bee-B1DF.svg\" width=\"200\">\n                    <p><span class=\"greenText\"><b>Successful harvest!</b></span><br>Your pay has increased by $0.02. Your bonus pay is now $0.56.</p>\n            ","response":0,"trial_type":"html-button-response","trial_index":18,"time_elapsed":283229,"internal_node_id":"0.0-4.0-1.5","subject_id":"614fb54a636d939d60da5818","study_id":"6197b3f67c2b5cd3b6d9596a","session_id":"6197b9ee4c1af4d577c279a0","condition":"full-information","relevant_dimensions":["pattern","legs"],"bee_group":{"antennae":"X","wings":"X","pattern":"S","legs":"M"},"bonus":1.3800000000000008},{"rt":1988.6000000238419,"stimulus":"bees-with-color/bee-A1SM.svg","response":1,"trial_type":"image-button-response","trial_index":19,"time_elapsed":285218,"internal_node_id":"0.0-4.0-0.6","subject_id":"614fb54a636d939d60da5818","study_id":"6197b3f67c2b5cd3b6d9596a","session_id":"6197b9ee4c1af4d577c279a0","condition":"full-information","relevant_dimensions":["pattern","legs"],"bee_group":{"antennae":"X","wings":"X","pattern":"S","legs":"M"},"action":"avoid","summary":"good-avoid","bonus":1.3800000000000008},{"rt":1039,"stimulus":"\n                    <p><b>Action: <em>avoid</em></b></p>\n                    <p>This is the bee that you just saw.</p>\n                    <img src=\"bees-with-color/bee-A1SM.svg\" width=\"200\">\n                    <p><span class=\"greenText\">Good choice!</span>  This bee would have stung you.<br>Your bonus pay is unchanged, and remains at $0.56.</p>\n            ","response":0,"trial_type":"html-button-response","trial_index":20,"time_elapsed":286258,"internal_node_id":"0.0-4.0-1.6","subject_id":"614fb54a636d939d60da5818","study_id":"6197b3f67c2b5cd3b6d9596a","session_id":"6197b9ee4c1af4d577c279a0","condition":"full-information","relevant_dimensions":["pattern","legs"],"bee_group":{"antennae":"X","wings":"X","pattern":"S","legs":"M"},"bonus":1.3800000000000008},{"rt":1401.0999999642372,"stimulus":"bees-with-color/bee-A1DF.svg","response":0,"trial_type":"image-button-response","trial_index":21,"time_elapsed":287661,"internal_node_id":"0.0-4.0-0.7","subject_id":"614fb54a636d939d60da5818","study_id":"6197b3f67c2b5cd3b6d9596a","session_id":"6197b9ee4c1af4d577c279a0","condition":"full-information","relevant_dimensions":["pattern","legs"],"bee_group":{"antennae":"X","wings":"X","pattern":"S","legs":"M"},"action":"harvest","summary":"good-harvest","bonus":1.3800000000000008},{"rt":1214.800000011921,"stimulus":"\n                    <p><b>Action: <em>harvest</em></b></p>\n                    <p>This is the bee that you just saw.</p>\n                    <img src=\"bees-with-color/bee-A1DF.svg\" width=\"200\">\n                    <p><span class=\"greenText\"><b>Successful harvest!</b></span><br>Your pay has increased by $0.02. Your bonus pay is now $0.58.</p>\n            ","response":0,"trial_type":"html-button-response","trial_index":22,"time_elapsed":288876,"internal_node_id":"0.0-4.0-1.7","subject_id":"614fb54a636d939d60da5818","study_id":"6197b3f67c2b5cd3b6d9596a","session_id":"6197b9ee4c1af4d577c279a0","condition":"full-information","relevant_dimensions":["pattern","legs"],"bee_group":{"antennae":"X","wings":"X","pattern":"S","legs":"M"},"bonus":1.3800000000000008},{"rt":2112.899999976158,"stimulus":"bees-with-color/bee-A2SF.svg","response":1,"trial_type":"image-button-response","trial_index":23,"time_elapsed":290991,"internal_node_id":"0.0-4.0-0.8","subject_id":"614fb54a636d939d60da5818","study_id":"6197b3f67c2b5cd3b6d9596a","session_id":"6197b9ee4c1af4d577c279a0","condition":"full-information","relevant_dimensions":["pattern","legs"],"bee_group":{"antennae":"X","wings":"X","pattern":"S","legs":"M"},"action":"avoid","summary":"bad-avoid","bonus":1.3800000000000008},{"rt":1014.8000000119209,"stimulus":"\n                    <p><b>Action: <em>avoid</em></b></p>\n                    <p>This is the bee that you just saw.</p>\n                    <img src=\"bees-with-color/bee-A2SF.svg\" width=\"200\">\n                    <p><span class=\"redText\">Bad choice,</span> the bee was friendly.<br>Your bonus pay is unchanged, and remains at $0.58.</p>\n            ","response":0,"trial_type":"html-button-response","trial_index":24,"time_elapsed":292006,"internal_node_id":"0.0-4.0-1.8","subject_id":"614fb54a636d939d60da5818","study_id":"6197b3f67c2b5cd3b6d9596a","session_id":"6197b9ee4c1af4d577c279a0","condition":"full-information","relevant_dimensions":["pattern","legs"],"bee_group":{"antennae":"X","wings":"X","pattern":"S","legs":"M"},"bonus":1.3800000000000008},{"rt":1323.1000000238419,"stimulus":"bees-with-color/bee-B1SM.svg","response":1,"trial_type":"image-button-response","trial_index":25,"time_elapsed":293330,"internal_node_id":"0.0-4.0-0.9","subject_id":"614fb54a636d939d60da5818","study_id":"6197b3f67c2b5cd3b6d9596a","session_id":"6197b9ee4c1af4d577c279a0","condition":"full-information","relevant_dimensions":["pattern","legs"],"bee_group":{"antennae":"X","wings":"X","pattern":"S","legs":"M"},"action":"avoid","summary":"good-avoid","bonus":1.3800000000000008},{"rt":2851.099999964237,"stimulus":"\n                    <p><b>Action: <em>avoid</em></b></p>\n                    <p>This is the bee that you just saw.</p>\n                    <img src=\"bees-with-color/bee-B1SM.svg\" width=\"200\">\n                    <p><span class=\"greenText\">Good choice!</span>  This bee would have stung you.<br>Your bonus pay is unchanged, and remains at $0.58.</p>\n            ","response":0,"trial_type":"html-button-response","trial_index":26,"time_elapsed":296183,"internal_node_id":"0.0-4.0-1.9","subject_id":"614fb54a636d939d60da5818","study_id":"6197b3f67c2b5cd3b6d9596a","session_id":"6197b9ee4c1af4d577c279a0","condition":"full-information","relevant_dimensions":["pattern","legs"],"bee_group":{"antennae":"X","wings":"X","pattern":"S","legs":"M"},"bonus":1.3800000000000008},{"rt":1178.800000011921,"stimulus":"bees-with-color/bee-A1DM.svg","response":0,"trial_type":"image-button-response","trial_index":27,"time_elapsed":297362,"internal_node_id":"0.0-4.0-0.10","subject_id":"614fb54a636d939d60da5818","study_id":"6197b3f67c2b5cd3b6d9596a","session_id":"6197b9ee4c1af4d577c279a0","condition":"full-information","relevant_dimensions":["pattern","legs"],"bee_group":{"antennae":"X","wings":"X","pattern":"S","legs":"M"},"action":"harvest","summary":"good-harvest","bonus":1.3800000000000008},{"rt":3131,"stimulus":"\n                    <p><b>Action: <em>harvest</em></b></p>\n                    <p>This is the bee that you just saw.</p>\n                    <img src=\"bees-with-color/bee-A1DM.svg\" width=\"200\">\n                    <p><span class=\"greenText\"><b>Successful harvest!</b></span><br>Your pay has increased by $0.02. Your bonus pay is now $0.60.</p>\n            ","response":0,"trial_type":"html-button-response","trial_index":28,"time_elapsed":300494,"internal_node_id":"0.0-4.0-1.10","subject_id":"614fb54a636d939d60da5818","study_id":"6197b3f67c2b5cd3b6d9596a","session_id":"6197b9ee4c1af4d577c279a0","condition":"full-information","relevant_dimensions":["pattern","legs"],"bee_group":{"antennae":"X","wings":"X","pattern":"S","legs":"M"},"bonus":1.3800000000000008},{"rt":1602.9000000357628,"stimulus":"bees-with-color/bee-A2DF.svg","response":1,"trial_type":"image-button-response","trial_index":29,"time_elapsed":302099,"internal_node_id":"0.0-4.0-0.11","subject_id":"614fb54a636d939d60da5818","study_id":"6197b3f67c2b5cd3b6d9596a","session_id":"6197b9ee4c1af4d577c279a0","condition":"full-information","relevant_dimensions":["pattern","legs"],"bee_group":{"antennae":"X","wings":"X","pattern":"S","legs":"M"},"action":"avoid","summary":"bad-avoid","bonus":1.3800000000000008},{"rt":992.8999999761581,"stimulus":"\n                    <p><b>Action: <em>avoid</em></b></p>\n                    <p>This is the bee that you just saw.</p>\n                    <img src=\"bees-with-color/bee-A2DF.svg\" width=\"200\">\n                    <p><span class=\"redText\">Bad choice,</span> the bee was friendly.<br>Your bonus pay is unchanged, and remains at $0.60.</p>\n            ","response":0,"trial_type":"html-button-response","trial_index":30,"time_elapsed":303092,"internal_node_id":"0.0-4.0-1.11","subject_id":"614fb54a636d939d60da5818","study_id":"6197b3f67c2b5cd3b6d9596a","session_id":"6197b9ee4c1af4d577c279a0","condition":"full-information","relevant_dimensions":["pattern","legs"],"bee_group":{"antennae":"X","wings":"X","pattern":"S","legs":"M"},"bonus":1.3800000000000008},{"rt":1568.800000011921,"stimulus":"bees-with-color/bee-B2SM.svg","response":1,"trial_type":"image-button-response","trial_index":31,"time_elapsed":304662,"internal_node_id":"0.0-4.0-0.12","subject_id":"614fb54a636d939d60da5818","study_id":"6197b3f67c2b5cd3b6d9596a","session_id":"6197b9ee4c1af4d577c279a0","condition":"full-information","relevant_dimensions":["pattern","legs"],"bee_group":{"antennae":"X","wings":"X","pattern":"S","legs":"M"},"action":"avoid","summary":"good-avoid","bonus":1.3800000000000008},{"rt":875.1000000238419,"stimulus":"\n                    <p><b>Action: <em>avoid</em></b></p>\n                    <p>This is the bee that you just saw.</p>\n                    <img src=\"bees-with-color/bee-B2SM.svg\" width=\"200\">\n                    <p><span class=\"greenText\">Good choice!</span>  This bee would have stung you.<br>Your bonus pay is unchanged, and remains at $0.60.</p>\n            ","response":0,"trial_type":"html-button-response","trial_index":32,"time_elapsed":305538,"internal_node_id":"0.0-4.0-1.12","subject_id":"614fb54a636d939d60da5818","study_id":"6197b3f67c2b5cd3b6d9596a","session_id":"6197b9ee4c1af4d577c279a0","condition":"full-information","relevant_dimensions":["pattern","legs"],"bee_group":{"antennae":"X","wings":"X","pattern":"S","legs":"M"},"bonus":1.3800000000000008},{"rt":2127.300000011921,"stimulus":"bees-with-color/bee-B1SF.svg","response":0,"trial_type":"image-button-response","trial_index":33,"time_elapsed":307666,"internal_node_id":"0.0-4.0-0.13","subject_id":"614fb54a636d939d60da5818","study_id":"6197b3f67c2b5cd3b6d9596a","session_id":"6197b9ee4c1af4d577c279a0","condition":"full-information","relevant_dimensions":["pattern","legs"],"bee_group":{"antennae":"X","wings":"X","pattern":"S","legs":"M"},"action":"harvest","summary":"good-harvest","bonus":1.3800000000000008},{"rt":1043.199999988079,"stimulus":"\n                    <p><b>Action: <em>harvest</em></b></p>\n                    <p>This is the bee that you just saw.</p>\n                    <img src=\"bees-with-color/bee-B1SF.svg\" width=\"200\">\n                    <p><span class=\"greenText\"><b>Successful harvest!</b></span><br>Your pay has increased by $0.02. Your bonus pay is now $0.62.</p>\n            ","response":0,"trial_type":"html-button-response","trial_index":34,"time_elapsed":308710,"internal_node_id":"0.0-4.0-1.13","subject_id":"614fb54a636d939d60da5818","study_id":"6197b3f67c2b5cd3b6d9596a","session_id":"6197b9ee4c1af4d577c279a0","condition":"full-information","relevant_dimensions":["pattern","legs"],"bee_group":{"antennae":"X","wings":"X","pattern":"S","legs":"M"},"bonus":1.3800000000000008},{"rt":3001.100000023842,"stimulus":"bees-with-color/bee-B2DF.svg","response":1,"trial_type":"image-button-response","trial_index":35,"time_elapsed":311712,"internal_node_id":"0.0-4.0-0.14","subject_id":"614fb54a636d939d60da5818","study_id":"6197b3f67c2b5cd3b6d9596a","session_id":"6197b9ee4c1af4d577c279a0","condition":"full-information","relevant_dimensions":["pattern","legs"],"bee_group":{"antennae":"X","wings":"X","pattern":"S","legs":"M"},"action":"avoid","summary":"bad-avoid","bonus":1.3800000000000008},{"rt":905.1000000238419,"stimulus":"\n                    <p><b>Action: <em>avoid</em></b></p>\n                    <p>This is the bee that you just saw.</p>\n                    <img src=\"bees-with-color/bee-B2DF.svg\" width=\"200\">\n                    <p><span class=\"redText\">Bad choice,</span> the bee was friendly.<br>Your bonus pay is unchanged, and remains at $0.62.</p>\n            ","response":0,"trial_type":"html-button-response","trial_index":36,"time_elapsed":312618,"internal_node_id":"0.0-4.0-1.14","subject_id":"614fb54a636d939d60da5818","study_id":"6197b3f67c2b5cd3b6d9596a","session_id":"6197b9ee4c1af4d577c279a0","condition":"full-information","relevant_dimensions":["pattern","legs"],"bee_group":{"antennae":"X","wings":"X","pattern":"S","legs":"M"},"bonus":1.3800000000000008},{"rt":4005,"stimulus":"bees-with-color/bee-A2DM.svg","response":0,"trial_type":"image-button-response","trial_index":37,"time_elapsed":316624,"internal_node_id":"0.0-4.0-0.15","subject_id":"614fb54a636d939d60da5818","study_id":"6197b3f67c2b5cd3b6d9596a","session_id":"6197b9ee4c1af4d577c279a0","condition":"full-information","relevant_dimensions":["pattern","legs"],"bee_group":{"antennae":"X","wings":"X","pattern":"S","legs":"M"},"action":"harvest","summary":"good-harvest","bonus":1.3800000000000008},{"rt":895.1000000238419,"stimulus":"\n                    <p><b>Action: <em>harvest</em></b></p>\n                    <p>This is the bee that you just saw.</p>\n                    <img src=\"bees-with-color/bee-A2DM.svg\" width=\"200\">\n                    <p><span class=\"greenText\"><b>Successful harvest!</b></span><br>Your pay has increased by $0.02. Your bonus pay is now $0.64.</p>\n            ","response":0,"trial_type":"html-button-response","trial_index":38,"time_elapsed":317520,"internal_node_id":"0.0-4.0-1.15","subject_id":"614fb54a636d939d60da5818","study_id":"6197b3f67c2b5cd3b6d9596a","session_id":"6197b9ee4c1af4d577c279a0","condition":"full-information","relevant_dimensions":["pattern","legs"],"bee_group":{"antennae":"X","wings":"X","pattern":"S","legs":"M"},"bonus":1.3800000000000008},{"rt":4626.899999976158,"stimulus":"bees-with-color/bee-B1DM.svg","response":0,"trial_type":"image-button-response","trial_index":39,"time_elapsed":322148,"internal_node_id":"0.0-4.0-0.16","subject_id":"614fb54a636d939d60da5818","study_id":"6197b3f67c2b5cd3b6d9596a","session_id":"6197b9ee4c1af4d577c279a0","condition":"full-information","relevant_dimensions":["pattern","legs"],"bee_group":{"antennae":"X","wings":"X","pattern":"S","legs":"M"},"action":"harvest","summary":"good-harvest","bonus":1.3800000000000008},{"rt":841.3000000119209,"stimulus":"\n                    <p><b>Action: <em>harvest</em></b></p>\n                    <p>This is the bee that you just saw.</p>\n                    <img src=\"bees-with-color/bee-B1DM.svg\" width=\"200\">\n                    <p><span class=\"greenText\"><b>Successful harvest!</b></span><br>Your pay has increased by $0.02. Your bonus pay is now $0.66.</p>\n            ","response":0,"trial_type":"html-button-response","trial_index":40,"time_elapsed":322990,"internal_node_id":"0.0-4.0-1.16","subject_id":"614fb54a636d939d60da5818","study_id":"6197b3f67c2b5cd3b6d9596a","session_id":"6197b9ee4c1af4d577c279a0","condition":"full-information","relevant_dimensions":["pattern","legs"],"bee_group":{"antennae":"X","wings":"X","pattern":"S","legs":"M"},"bonus":1.3800000000000008},{"rt":7590.899999976158,"stimulus":"bees-with-color/bee-A1DF.svg","response":1,"trial_type":"image-button-response","trial_index":41,"time_elapsed":330582,"internal_node_id":"0.0-4.0-0.17","subject_id":"614fb54a636d939d60da5818","study_id":"6197b3f67c2b5cd3b6d9596a","session_id":"6197b9ee4c1af4d577c279a0","condition":"full-information","relevant_dimensions":["pattern","legs"],"bee_group":{"antennae":"X","wings":"X","pattern":"S","legs":"M"},"action":"avoid","summary":"bad-avoid","bonus":1.3800000000000008},{"rt":927.1000000238419,"stimulus":"\n                    <p><b>Action: <em>avoid</em></b></p>\n                    <p>This is the bee that you just saw.</p>\n                    <img src=\"bees-with-color/bee-A1DF.svg\" width=\"200\">\n                    <p><span class=\"redText\">Bad choice,</span> the bee was friendly.<br>Your bonus pay is unchanged, and remains at $0.66.</p>\n            ","response":0,"trial_type":"html-button-response","trial_index":42,"time_elapsed":331511,"internal_node_id":"0.0-4.0-1.17","subject_id":"614fb54a636d939d60da5818","study_id":"6197b3f67c2b5cd3b6d9596a","session_id":"6197b9ee4c1af4d577c279a0","condition":"full-information","relevant_dimensions":["pattern","legs"],"bee_group":{"antennae":"X","wings":"X","pattern":"S","legs":"M"},"bonus":1.3800000000000008},{"rt":2514.699999988079,"stimulus":"bees-with-color/bee-B2SM.svg","response":1,"trial_type":"image-button-response","trial_index":43,"time_elapsed":334026,"internal_node_id":"0.0-4.0-0.18","subject_id":"614fb54a636d939d60da5818","study_id":"6197b3f67c2b5cd3b6d9596a","session_id":"6197b9ee4c1af4d577c279a0","condition":"full-information","relevant_dimensions":["pattern","legs"],"bee_group":{"antennae":"X","wings":"X","pattern":"S","legs":"M"},"action":"avoid","summary":"good-avoid","bonus":1.3800000000000008},{"rt":731,"stimulus":"\n                    <p><b>Action: <em>avoid</em></b></p>\n                    <p>This is the bee that you just saw.</p>\n                    <img src=\"bees-with-color/bee-B2SM.svg\" width=\"200\">\n                    <p><span class=\"greenText\">Good choice!</span>  This bee would have stung you.<br>Your bonus pay is unchanged, and remains at $0.66.</p>\n            ","response":0,"trial_type":"html-button-response","trial_index":44,"time_elapsed":334758,"internal_node_id":"0.0-4.0-1.18","subject_id":"614fb54a636d939d60da5818","study_id":"6197b3f67c2b5cd3b6d9596a","session_id":"6197b9ee4c1af4d577c279a0","condition":"full-information","relevant_dimensions":["pattern","legs"],"bee_group":{"antennae":"X","wings":"X","pattern":"S","legs":"M"},"bonus":1.3800000000000008},{"rt":1503.199999988079,"stimulus":"bees-with-color/bee-B1DF.svg","response":0,"trial_type":"image-button-response","trial_index":45,"time_elapsed":336262,"internal_node_id":"0.0-4.0-0.19","subject_id":"614fb54a636d939d60da5818","study_id":"6197b3f67c2b5cd3b6d9596a","session_id":"6197b9ee4c1af4d577c279a0","condition":"full-information","relevant_dimensions":["pattern","legs"],"bee_group":{"antennae":"X","wings":"X","pattern":"S","legs":"M"},"action":"harvest","summary":"good-harvest","bonus":1.3800000000000008},{"rt":726.8999999761581,"stimulus":"\n                    <p><b>Action: <em>harvest</em></b></p>\n                    <p>This is the bee that you just saw.</p>\n                    <img src=\"bees-with-color/bee-B1DF.svg\" width=\"200\">\n                    <p><span class=\"greenText\"><b>Successful harvest!</b></span><br>Your pay has increased by $0.02. Your bonus pay is now $0.68.</p>\n            ","response":0,"trial_type":"html-button-response","trial_index":46,"time_elapsed":336990,"internal_node_id":"0.0-4.0-1.19","subject_id":"614fb54a636d939d60da5818","study_id":"6197b3f67c2b5cd3b6d9596a","session_id":"6197b9ee4c1af4d577c279a0","condition":"full-information","relevant_dimensions":["pattern","legs"],"bee_group":{"antennae":"X","wings":"X","pattern":"S","legs":"M"},"bonus":1.3800000000000008},{"rt":2805,"stimulus":"bees-with-color/bee-B1SM.svg","response":1,"trial_type":"image-button-response","trial_index":47,"time_elapsed":339796,"internal_node_id":"0.0-4.0-0.20","subject_id":"614fb54a636d939d60da5818","study_id":"6197b3f67c2b5cd3b6d9596a","session_id":"6197b9ee4c1af4d577c279a0","condition":"full-information","relevant_dimensions":["pattern","legs"],"bee_group":{"antennae":"X","wings":"X","pattern":"S","legs":"M"},"action":"avoid","summary":"good-avoid","bonus":1.3800000000000008},{"rt":835.2000000476837,"stimulus":"\n                    <p><b>Action: <em>avoid</em></b></p>\n                    <p>This is the bee that you just saw.</p>\n                    <img src=\"bees-with-color/bee-B1SM.svg\" width=\"200\">\n                    <p><span class=\"greenText\">Good choice!</span>  This bee would have stung you.<br>Your bonus pay is unchanged, and remains at $0.68.</p>\n            ","response":0,"trial_type":"html-button-response","trial_index":48,"time_elapsed":340632,"internal_node_id":"0.0-4.0-1.20","subject_id":"614fb54a636d939d60da5818","study_id":"6197b3f67c2b5cd3b6d9596a","session_id":"6197b9ee4c1af4d577c279a0","condition":"full-information","relevant_dimensions":["pattern","legs"],"bee_group":{"antennae":"X","wings":"X","pattern":"S","legs":"M"},"bonus":1.3800000000000008},{"rt":1909.1000000238419,"stimulus":"bees-with-color/bee-A2SF.svg","response":1,"trial_type":"image-button-response","trial_index":49,"time_elapsed":342542,"internal_node_id":"0.0-4.0-0.21","subject_id":"614fb54a636d939d60da5818","study_id":"6197b3f67c2b5cd3b6d9596a","session_id":"6197b9ee4c1af4d577c279a0","condition":"full-information","relevant_dimensions":["pattern","legs"],"bee_group":{"antennae":"X","wings":"X","pattern":"S","legs":"M"},"action":"avoid","summary":"bad-avoid","bonus":1.3800000000000008},{"rt":659.1000000238419,"stimulus":"\n                    <p><b>Action: <em>avoid</em></b></p>\n                    <p>This is the bee that you just saw.</p>\n                    <img src=\"bees-with-color/bee-A2SF.svg\" width=\"200\">\n                    <p><span class=\"redText\">Bad choice,</span> the bee was friendly.<br>Your bonus pay is unchanged, and remains at $0.68.</p>\n            ","response":0,"trial_type":"html-button-response","trial_index":50,"time_elapsed":343202,"internal_node_id":"0.0-4.0-1.21","subject_id":"614fb54a636d939d60da5818","study_id":"6197b3f67c2b5cd3b6d9596a","session_id":"6197b9ee4c1af4d577c279a0","condition":"full-information","relevant_dimensions":["pattern","legs"],"bee_group":{"antennae":"X","wings":"X","pattern":"S","legs":"M"},"bonus":1.3800000000000008},{"rt":3225,"stimulus":"bees-with-color/bee-A1SF.svg","response":0,"trial_type":"image-button-response","trial_index":51,"time_elapsed":346428,"internal_node_id":"0.0-4.0-0.22","subject_id":"614fb54a636d939d60da5818","study_id":"6197b3f67c2b5cd3b6d9596a","session_id":"6197b9ee4c1af4d577c279a0","condition":"full-information","relevant_dimensions":["pattern","legs"],"bee_group":{"antennae":"X","wings":"X","pattern":"S","legs":"M"},"action":"harvest","summary":"good-harvest","bonus":1.3800000000000008},{"rt":877,"stimulus":"\n                    <p><b>Action: <em>harvest</em></b></p>\n                    <p>This is the bee that you just saw.</p>\n                    <img src=\"bees-with-color/bee-A1SF.svg\" width=\"200\">\n                    <p><span class=\"greenText\"><b>Successful harvest!</b></span><br>Your pay has increased by $0.02. Your bonus pay is now $0.70.</p>\n            ","response":0,"trial_type":"html-button-response","trial_index":52,"time_elapsed":347306,"internal_node_id":"0.0-4.0-1.22","subject_id":"614fb54a636d939d60da5818","study_id":"6197b3f67c2b5cd3b6d9596a","session_id":"6197b9ee4c1af4d577c279a0","condition":"full-information","relevant_dimensions":["pattern","legs"],"bee_group":{"antennae":"X","wings":"X","pattern":"S","legs":"M"},"bonus":1.3800000000000008},{"rt":2500.899999976158,"stimulus":"bees-with-color/bee-A2DM.svg","response":0,"trial_type":"image-button-response","trial_index":53,"time_elapsed":349808,"internal_node_id":"0.0-4.0-0.23","subject_id":"614fb54a636d939d60da5818","study_id":"6197b3f67c2b5cd3b6d9596a","session_id":"6197b9ee4c1af4d577c279a0","condition":"full-information","relevant_dimensions":["pattern","legs"],"bee_group":{"antennae":"X","wings":"X","pattern":"S","legs":"M"},"action":"harvest","summary":"good-harvest","bonus":1.3800000000000008},{"rt":959.1000000238419,"stimulus":"\n                    <p><b>Action: <em>harvest</em></b></p>\n                    <p>This is the bee that you just saw.</p>\n                    <img src=\"bees-with-color/bee-A2DM.svg\" width=\"200\">\n                    <p><span class=\"greenText\"><b>Successful harvest!</b></span><br>Your pay has increased by $0.02. Your bonus pay is now $0.72.</p>\n            ","response":0,"trial_type":"html-button-response","trial_index":54,"time_elapsed":350768,"internal_node_id":"0.0-4.0-1.23","subject_id":"614fb54a636d939d60da5818","study_id":"6197b3f67c2b5cd3b6d9596a","session_id":"6197b9ee4c1af4d577c279a0","condition":"full-information","relevant_dimensions":["pattern","legs"],"bee_group":{"antennae":"X","wings":"X","pattern":"S","legs":"M"},"bonus":1.3800000000000008},{"rt":1779,"stimulus":"bees-with-color/bee-A2SM.svg","response":1,"trial_type":"image-button-response","trial_index":55,"time_elapsed":352548,"internal_node_id":"0.0-4.0-0.24","subject_id":"614fb54a636d939d60da5818","study_id":"6197b3f67c2b5cd3b6d9596a","session_id":"6197b9ee4c1af4d577c279a0","condition":"full-information","relevant_dimensions":["pattern","legs"],"bee_group":{"antennae":"X","wings":"X","pattern":"S","legs":"M"},"action":"avoid","summary":"good-avoid","bonus":1.3800000000000008},{"rt":623.2000000476837,"stimulus":"\n                    <p><b>Action: <em>avoid</em></b></p>\n                    <p>This is the bee that you just saw.</p>\n                    <img src=\"bees-with-color/bee-A2SM.svg\" width=\"200\">\n                    <p><span class=\"greenText\">Good choice!</span>  This bee would have stung you.<br>Your bonus pay is unchanged, and remains at $0.72.</p>\n            ","response":0,"trial_type":"html-button-response","trial_index":56,"time_elapsed":353172,"internal_node_id":"0.0-4.0-1.24","subject_id":"614fb54a636d939d60da5818","study_id":"6197b3f67c2b5cd3b6d9596a","session_id":"6197b9ee4c1af4d577c279a0","condition":"full-information","relevant_dimensions":["pattern","legs"],"bee_group":{"antennae":"X","wings":"X","pattern":"S","legs":"M"},"bonus":1.3800000000000008},{"rt":1568.8999999761581,"stimulus":"bees-with-color/bee-B1SF.svg","response":0,"trial_type":"image-button-response","trial_index":57,"time_elapsed":354742,"internal_node_id":"0.0-4.0-0.25","subject_id":"614fb54a636d939d60da5818","study_id":"6197b3f67c2b5cd3b6d9596a","session_id":"6197b9ee4c1af4d577c279a0","condition":"full-information","relevant_dimensions":["pattern","legs"],"bee_group":{"antennae":"X","wings":"X","pattern":"S","legs":"M"},"action":"harvest","summary":"good-harvest","bonus":1.3800000000000008},{"rt":725.8999999761581,"stimulus":"\n                    <p><b>Action: <em>harvest</em></b></p>\n                    <p>This is the bee that you just saw.</p>\n                    <img src=\"bees-with-color/bee-B1SF.svg\" width=\"200\">\n                    <p><span class=\"greenText\"><b>Successful harvest!</b></span><br>Your pay has increased by $0.02. Your bonus pay is now $0.74.</p>\n            ","response":0,"trial_type":"html-button-response","trial_index":58,"time_elapsed":355469,"internal_node_id":"0.0-4.0-1.25","subject_id":"614fb54a636d939d60da5818","study_id":"6197b3f67c2b5cd3b6d9596a","session_id":"6197b9ee4c1af4d577c279a0","condition":"full-information","relevant_dimensions":["pattern","legs"],"bee_group":{"antennae":"X","wings":"X","pattern":"S","legs":"M"},"bonus":1.3800000000000008},{"rt":1654.6000000238419,"stimulus":"bees-with-color/bee-B2DF.svg","response":1,"trial_type":"image-button-response","trial_index":59,"time_elapsed":357124,"internal_node_id":"0.0-4.0-0.26","subject_id":"614fb54a636d939d60da5818","study_id":"6197b3f67c2b5cd3b6d9596a","session_id":"6197b9ee4c1af4d577c279a0","condition":"full-information","relevant_dimensions":["pattern","legs"],"bee_group":{"antennae":"X","wings":"X","pattern":"S","legs":"M"},"action":"avoid","summary":"bad-avoid","bonus":1.3800000000000008},{"rt":918.8999999761581,"stimulus":"\n                    <p><b>Action: <em>avoid</em></b></p>\n                    <p>This is the bee that you just saw.</p>\n                    <img src=\"bees-with-color/bee-B2DF.svg\" width=\"200\">\n                    <p><span class=\"redText\">Bad choice,</span> the bee was friendly.<br>Your bonus pay is unchanged, and remains at $0.74.</p>\n            ","response":0,"trial_type":"html-button-response","trial_index":60,"time_elapsed":358044,"internal_node_id":"0.0-4.0-1.26","subject_id":"614fb54a636d939d60da5818","study_id":"6197b3f67c2b5cd3b6d9596a","session_id":"6197b9ee4c1af4d577c279a0","condition":"full-information","relevant_dimensions":["pattern","legs"],"bee_group":{"antennae":"X","wings":"X","pattern":"S","legs":"M"},"bonus":1.3800000000000008},{"rt":1921.1000000238419,"stimulus":"bees-with-color/bee-B2DM.svg","response":0,"trial_type":"image-button-response","trial_index":61,"time_elapsed":359966,"internal_node_id":"0.0-4.0-0.27","subject_id":"614fb54a636d939d60da5818","study_id":"6197b3f67c2b5cd3b6d9596a","session_id":"6197b9ee4c1af4d577c279a0","condition":"full-information","relevant_dimensions":["pattern","legs"],"bee_group":{"antennae":"X","wings":"X","pattern":"S","legs":"M"},"action":"harvest","summary":"good-harvest","bonus":1.3800000000000008},{"rt":791,"stimulus":"\n                    <p><b>Action: <em>harvest</em></b></p>\n                    <p>This is the bee that you just saw.</p>\n                    <img src=\"bees-with-color/bee-B2DM.svg\" width=\"200\">\n                    <p><span class=\"greenText\"><b>Successful harvest!</b></span><br>Your pay has increased by $0.02. Your bonus pay is now $0.76.</p>\n            ","response":0,"trial_type":"html-button-response","trial_index":62,"time_elapsed":360759,"internal_node_id":"0.0-4.0-1.27","subject_id":"614fb54a636d939d60da5818","study_id":"6197b3f67c2b5cd3b6d9596a","session_id":"6197b9ee4c1af4d577c279a0","condition":"full-information","relevant_dimensions":["pattern","legs"],"bee_group":{"antennae":"X","wings":"X","pattern":"S","legs":"M"},"bonus":1.3800000000000008},{"rt":2777.099999964237,"stimulus":"bees-with-color/bee-B2SF.svg","response":1,"trial_type":"image-button-response","trial_index":63,"time_elapsed":363536,"internal_node_id":"0.0-4.0-0.28","subject_id":"614fb54a636d939d60da5818","study_id":"6197b3f67c2b5cd3b6d9596a","session_id":"6197b9ee4c1af4d577c279a0","condition":"full-information","relevant_dimensions":["pattern","legs"],"bee_group":{"antennae":"X","wings":"X","pattern":"S","legs":"M"},"action":"avoid","summary":"bad-avoid","bonus":1.3800000000000008},{"rt":823,"stimulus":"\n                    <p><b>Action: <em>avoid</em></b></p>\n                    <p>This is the bee that you just saw.</p>\n                    <img src=\"bees-with-color/bee-B2SF.svg\" width=\"200\">\n                    <p><span class=\"redText\">Bad choice,</span> the bee was friendly.<br>Your bonus pay is unchanged, and remains at $0.76.</p>\n            ","response":0,"trial_type":"html-button-response","trial_index":64,"time_elapsed":364360,"internal_node_id":"0.0-4.0-1.28","subject_id":"614fb54a636d939d60da5818","study_id":"6197b3f67c2b5cd3b6d9596a","session_id":"6197b9ee4c1af4d577c279a0","condition":"full-information","relevant_dimensions":["pattern","legs"],"bee_group":{"antennae":"X","wings":"X","pattern":"S","legs":"M"},"bonus":1.3800000000000008},{"rt":1622.9000000357628,"stimulus":"bees-with-color/bee-A1DM.svg","response":0,"trial_type":"image-button-response","trial_index":65,"time_elapsed":365984,"internal_node_id":"0.0-4.0-0.29","subject_id":"614fb54a636d939d60da5818","study_id":"6197b3f67c2b5cd3b6d9596a","session_id":"6197b9ee4c1af4d577c279a0","condition":"full-information","relevant_dimensions":["pattern","legs"],"bee_group":{"antennae":"X","wings":"X","pattern":"S","legs":"M"},"action":"harvest","summary":"good-harvest","bonus":1.3800000000000008},{"rt":835.0999999642372,"stimulus":"\n                    <p><b>Action: <em>harvest</em></b></p>\n                    <p>This is the bee that you just saw.</p>\n                    <img src=\"bees-with-color/bee-A1DM.svg\" width=\"200\">\n                    <p><span class=\"greenText\"><b>Successful harvest!</b></span><br>Your pay has increased by $0.02. Your bonus pay is now $0.78.</p>\n            ","response":0,"trial_type":"html-button-response","trial_index":66,"time_elapsed":366821,"internal_node_id":"0.0-4.0-1.29","subject_id":"614fb54a636d939d60da5818","study_id":"6197b3f67c2b5cd3b6d9596a","session_id":"6197b9ee4c1af4d577c279a0","condition":"full-information","relevant_dimensions":["pattern","legs"],"bee_group":{"antennae":"X","wings":"X","pattern":"S","legs":"M"},"bonus":1.3800000000000008},{"rt":1310.6000000238419,"stimulus":"bees-with-color/bee-A2DF.svg","response":0,"trial_type":"image-button-response","trial_index":67,"time_elapsed":368132,"internal_node_id":"0.0-4.0-0.30","subject_id":"614fb54a636d939d60da5818","study_id":"6197b3f67c2b5cd3b6d9596a","session_id":"6197b9ee4c1af4d577c279a0","condition":"full-information","relevant_dimensions":["pattern","legs"],"bee_group":{"antennae":"X","wings":"X","pattern":"S","legs":"M"},"action":"harvest","summary":"good-harvest","bonus":1.3800000000000008},{"rt":693,"stimulus":"\n                    <p><b>Action: <em>harvest</em></b></p>\n                    <p>This is the bee that you just saw.</p>\n                    <img src=\"bees-with-color/bee-A2DF.svg\" width=\"200\">\n                    <p><span class=\"greenText\"><b>Successful harvest!</b></span><br>Your pay has increased by $0.02. Your bonus pay is now $0.80.</p>\n            ","response":0,"trial_type":"html-button-response","trial_index":68,"time_elapsed":368826,"internal_node_id":"0.0-4.0-1.30","subject_id":"614fb54a636d939d60da5818","study_id":"6197b3f67c2b5cd3b6d9596a","session_id":"6197b9ee4c1af4d577c279a0","condition":"full-information","relevant_dimensions":["pattern","legs"],"bee_group":{"antennae":"X","wings":"X","pattern":"S","legs":"M"},"bonus":1.3800000000000008},{"rt":1599.1000000238419,"stimulus":"bees-with-color/bee-A1SM.svg","response":0,"trial_type":"image-button-response","trial_index":69,"time_elapsed":370426,"internal_node_id":"0.0-4.0-0.31","subject_id":"614fb54a636d939d60da5818","study_id":"6197b3f67c2b5cd3b6d9596a","session_id":"6197b9ee4c1af4d577c279a0","condition":"full-information","relevant_dimensions":["pattern","legs"],"bee_group":{"antennae":"X","wings":"X","pattern":"S","legs":"M"},"action":"harvest","summary":"bad-harvest","bonus":1.3800000000000008},{"rt":1843.1000000238419,"stimulus":"\n                    <p><b>Action: <em>harvest</em></b></p>\n                    <p>This is the bee that you just saw.</p>\n                    <img src=\"bees-with-color/bee-A1SM.svg\" width=\"200\">\n                    <p><span class=\"redText\">Bad choice, the bee was angry.</span><br><b>You have been stung!</b><br>Your pay has been decreased by $0.10. Your bonus pay is now $0.70.</p>\n            ","response":0,"trial_type":"html-button-response","trial_index":70,"time_elapsed":372270,"internal_node_id":"0.0-4.0-1.31","subject_id":"614fb54a636d939d60da5818","study_id":"6197b3f67c2b5cd3b6d9596a","session_id":"6197b9ee4c1af4d577c279a0","condition":"full-information","relevant_dimensions":["pattern","legs"],"bee_group":{"antennae":"X","wings":"X","pattern":"S","legs":"M"},"bonus":1.3800000000000008},{"rt":1371,"stimulus":"bees-with-color/bee-B1SF.svg","response":0,"trial_type":"image-button-response","trial_index":71,"time_elapsed":373642,"internal_node_id":"0.0-4.0-0.32","subject_id":"614fb54a636d939d60da5818","study_id":"6197b3f67c2b5cd3b6d9596a","session_id":"6197b9ee4c1af4d577c279a0","condition":"full-information","relevant_dimensions":["pattern","legs"],"bee_group":{"antennae":"X","wings":"X","pattern":"S","legs":"M"},"action":"harvest","summary":"good-harvest","bonus":1.3800000000000008},{"rt":777.3000000119209,"stimulus":"\n                    <p><b>Action: <em>harvest</em></b></p>\n                    <p>This is the bee that you just saw.</p>\n                    <img src=\"bees-with-color/bee-B1SF.svg\" width=\"200\">\n                    <p><span class=\"greenText\"><b>Successful harvest!</b></span><br>Your pay has increased by $0.02. Your bonus pay is now $0.72.</p>\n            ","response":0,"trial_type":"html-button-response","trial_index":72,"time_elapsed":374420,"internal_node_id":"0.0-4.0-1.32","subject_id":"614fb54a636d939d60da5818","study_id":"6197b3f67c2b5cd3b6d9596a","session_id":"6197b9ee4c1af4d577c279a0","condition":"full-information","relevant_dimensions":["pattern","legs"],"bee_group":{"antennae":"X","wings":"X","pattern":"S","legs":"M"},"bonus":1.3800000000000008},{"rt":4603.100000023842,"stimulus":"bees-with-color/bee-A1DM.svg","response":0,"trial_type":"image-button-response","trial_index":73,"time_elapsed":379024,"internal_node_id":"0.0-4.0-0.33","subject_id":"614fb54a636d939d60da5818","study_id":"6197b3f67c2b5cd3b6d9596a","session_id":"6197b9ee4c1af4d577c279a0","condition":"full-information","relevant_dimensions":["pattern","legs"],"bee_group":{"antennae":"X","wings":"X","pattern":"S","legs":"M"},"action":"harvest","summary":"good-harvest","bonus":1.3800000000000008},{"rt":827.1000000238419,"stimulus":"\n                    <p><b>Action: <em>harvest</em></b></p>\n                    <p>This is the bee that you just saw.</p>\n                    <img src=\"bees-with-color/bee-A1DM.svg\" width=\"200\">\n                    <p><span class=\"greenText\"><b>Successful harvest!</b></span><br>Your pay has increased by $0.02. Your bonus pay is now $0.74.</p>\n            ","response":0,"trial_type":"html-button-response","trial_index":74,"time_elapsed":379852,"internal_node_id":"0.0-4.0-1.33","subject_id":"614fb54a636d939d60da5818","study_id":"6197b3f67c2b5cd3b6d9596a","session_id":"6197b9ee4c1af4d577c279a0","condition":"full-information","relevant_dimensions":["pattern","legs"],"bee_group":{"antennae":"X","wings":"X","pattern":"S","legs":"M"},"bonus":1.3800000000000008},{"rt":1618.8999999761581,"stimulus":"bees-with-color/bee-B2SM.svg","response":1,"trial_type":"image-button-response","trial_index":75,"time_elapsed":381472,"internal_node_id":"0.0-4.0-0.34","subject_id":"614fb54a636d939d60da5818","study_id":"6197b3f67c2b5cd3b6d9596a","session_id":"6197b9ee4c1af4d577c279a0","condition":"full-information","relevant_dimensions":["pattern","legs"],"bee_group":{"antennae":"X","wings":"X","pattern":"S","legs":"M"},"action":"avoid","summary":"good-avoid","bonus":1.3800000000000008},{"rt":609,"stimulus":"\n                    <p><b>Action: <em>avoid</em></b></p>\n                    <p>This is the bee that you just saw.</p>\n                    <img src=\"bees-with-color/bee-B2SM.svg\" width=\"200\">\n                    <p><span class=\"greenText\">Good choice!</span>  This bee would have stung you.<br>Your bonus pay is unchanged, and remains at $0.74.</p>\n            ","response":0,"trial_type":"html-button-response","trial_index":76,"time_elapsed":382082,"internal_node_id":"0.0-4.0-1.34","subject_id":"614fb54a636d939d60da5818","study_id":"6197b3f67c2b5cd3b6d9596a","session_id":"6197b9ee4c1af4d577c279a0","condition":"full-information","relevant_dimensions":["pattern","legs"],"bee_group":{"antennae":"X","wings":"X","pattern":"S","legs":"M"},"bonus":1.3800000000000008},{"rt":1895.300000011921,"stimulus":"bees-with-color/bee-A2DM.svg","response":0,"trial_type":"image-button-response","trial_index":77,"time_elapsed":383978,"internal_node_id":"0.0-4.0-0.35","subject_id":"614fb54a636d939d60da5818","study_id":"6197b3f67c2b5cd3b6d9596a","session_id":"6197b9ee4c1af4d577c279a0","condition":"full-information","relevant_dimensions":["pattern","legs"],"bee_group":{"antennae":"X","wings":"X","pattern":"S","legs":"M"},"action":"harvest","summary":"good-harvest","bonus":1.3800000000000008},{"rt":737.2000000476837,"stimulus":"\n                    <p><b>Action: <em>harvest</em></b></p>\n                    <p>This is the bee that you just saw.</p>\n                    <img src=\"bees-with-color/bee-A2DM.svg\" width=\"200\">\n                    <p><span class=\"greenText\"><b>Successful harvest!</b></span><br>Your pay has increased by $0.02. Your bonus pay is now $0.76.</p>\n            ","response":0,"trial_type":"html-button-response","trial_index":78,"time_elapsed":384717,"internal_node_id":"0.0-4.0-1.35","subject_id":"614fb54a636d939d60da5818","study_id":"6197b3f67c2b5cd3b6d9596a","session_id":"6197b9ee4c1af4d577c279a0","condition":"full-information","relevant_dimensions":["pattern","legs"],"bee_group":{"antennae":"X","wings":"X","pattern":"S","legs":"M"},"bonus":1.3800000000000008},{"rt":1406.699999988079,"stimulus":"bees-with-color/bee-A1SF.svg","response":0,"trial_type":"image-button-response","trial_index":79,"time_elapsed":386124,"internal_node_id":"0.0-4.0-0.36","subject_id":"614fb54a636d939d60da5818","study_id":"6197b3f67c2b5cd3b6d9596a","session_id":"6197b9ee4c1af4d577c279a0","condition":"full-information","relevant_dimensions":["pattern","legs"],"bee_group":{"antennae":"X","wings":"X","pattern":"S","legs":"M"},"action":"harvest","summary":"good-harvest","bonus":1.3800000000000008},{"rt":603.1000000238419,"stimulus":"\n                    <p><b>Action: <em>harvest</em></b></p>\n                    <p>This is the bee that you just saw.</p>\n                    <img src=\"bees-with-color/bee-A1SF.svg\" width=\"200\">\n                    <p><span class=\"greenText\"><b>Successful harvest!</b></span><br>Your pay has increased by $0.02. Your bonus pay is now $0.78.</p>\n            ","response":0,"trial_type":"html-button-response","trial_index":80,"time_elapsed":386728,"internal_node_id":"0.0-4.0-1.36","subject_id":"614fb54a636d939d60da5818","study_id":"6197b3f67c2b5cd3b6d9596a","session_id":"6197b9ee4c1af4d577c279a0","condition":"full-information","relevant_dimensions":["pattern","legs"],"bee_group":{"antennae":"X","wings":"X","pattern":"S","legs":"M"},"bonus":1.3800000000000008},{"rt":1319.1000000238419,"stimulus":"bees-with-color/bee-A2SM.svg","response":1,"trial_type":"image-button-response","trial_index":81,"time_elapsed":388048,"internal_node_id":"0.0-4.0-0.37","subject_id":"614fb54a636d939d60da5818","study_id":"6197b3f67c2b5cd3b6d9596a","session_id":"6197b9ee4c1af4d577c279a0","condition":"full-information","relevant_dimensions":["pattern","legs"],"bee_group":{"antennae":"X","wings":"X","pattern":"S","legs":"M"},"action":"avoid","summary":"good-avoid","bonus":1.3800000000000008},{"rt":685.2000000476837,"stimulus":"\n                    <p><b>Action: <em>avoid</em></b></p>\n                    <p>This is the bee that you just saw.</p>\n                    <img src=\"bees-with-color/bee-A2SM.svg\" width=\"200\">\n                    <p><span class=\"greenText\">Good choice!</span>  This bee would have stung you.<br>Your bonus pay is unchanged, and remains at $0.78.</p>\n            ","response":0,"trial_type":"html-button-response","trial_index":82,"time_elapsed":388734,"internal_node_id":"0.0-4.0-1.37","subject_id":"614fb54a636d939d60da5818","study_id":"6197b3f67c2b5cd3b6d9596a","session_id":"6197b9ee4c1af4d577c279a0","condition":"full-information","relevant_dimensions":["pattern","legs"],"bee_group":{"antennae":"X","wings":"X","pattern":"S","legs":"M"},"bonus":1.3800000000000008},{"rt":1781.2999999523163,"stimulus":"bees-with-color/bee-A2SF.svg","response":1,"trial_type":"image-button-response","trial_index":83,"time_elapsed":390517,"internal_node_id":"0.0-4.0-0.38","subject_id":"614fb54a636d939d60da5818","study_id":"6197b3f67c2b5cd3b6d9596a","session_id":"6197b9ee4c1af4d577c279a0","condition":"full-information","relevant_dimensions":["pattern","legs"],"bee_group":{"antennae":"X","wings":"X","pattern":"S","legs":"M"},"action":"avoid","summary":"bad-avoid","bonus":1.3800000000000008},{"rt":660.8000000119209,"stimulus":"\n                    <p><b>Action: <em>avoid</em></b></p>\n                    <p>This is the bee that you just saw.</p>\n                    <img src=\"bees-with-color/bee-A2SF.svg\" width=\"200\">\n                    <p><span class=\"redText\">Bad choice,</span> the bee was friendly.<br>Your bonus pay is unchanged, and remains at $0.78.</p>\n            ","response":0,"trial_type":"html-button-response","trial_index":84,"time_elapsed":391178,"internal_node_id":"0.0-4.0-1.38","subject_id":"614fb54a636d939d60da5818","study_id":"6197b3f67c2b5cd3b6d9596a","session_id":"6197b9ee4c1af4d577c279a0","condition":"full-information","relevant_dimensions":["pattern","legs"],"bee_group":{"antennae":"X","wings":"X","pattern":"S","legs":"M"},"bonus":1.3800000000000008},{"rt":2012.8999999761581,"stimulus":"bees-with-color/bee-B1DF.svg","response":1,"trial_type":"image-button-response","trial_index":85,"time_elapsed":393192,"internal_node_id":"0.0-4.0-0.39","subject_id":"614fb54a636d939d60da5818","study_id":"6197b3f67c2b5cd3b6d9596a","session_id":"6197b9ee4c1af4d577c279a0","condition":"full-information","relevant_dimensions":["pattern","legs"],"bee_group":{"antennae":"X","wings":"X","pattern":"S","legs":"M"},"action":"avoid","summary":"bad-avoid","bonus":1.3800000000000008},{"rt":656.8999999761581,"stimulus":"\n                    <p><b>Action: <em>avoid</em></b></p>\n                    <p>This is the bee that you just saw.</p>\n                    <img src=\"bees-with-color/bee-B1DF.svg\" width=\"200\">\n                    <p><span class=\"redText\">Bad choice,</span> the bee was friendly.<br>Your bonus pay is unchanged, and remains at $0.78.</p>\n            ","response":0,"trial_type":"html-button-response","trial_index":86,"time_elapsed":393850,"internal_node_id":"0.0-4.0-1.39","subject_id":"614fb54a636d939d60da5818","study_id":"6197b3f67c2b5cd3b6d9596a","session_id":"6197b9ee4c1af4d577c279a0","condition":"full-information","relevant_dimensions":["pattern","legs"],"bee_group":{"antennae":"X","wings":"X","pattern":"S","legs":"M"},"bonus":1.3800000000000008},{"rt":2397.100000023842,"stimulus":"bees-with-color/bee-A1DF.svg","response":1,"trial_type":"image-button-response","trial_index":87,"time_elapsed":396248,"internal_node_id":"0.0-4.0-0.40","subject_id":"614fb54a636d939d60da5818","study_id":"6197b3f67c2b5cd3b6d9596a","session_id":"6197b9ee4c1af4d577c279a0","condition":"full-information","relevant_dimensions":["pattern","legs"],"bee_group":{"antennae":"X","wings":"X","pattern":"S","legs":"M"},"action":"avoid","summary":"bad-avoid","bonus":1.3800000000000008},{"rt":641.1000000238419,"stimulus":"\n                    <p><b>Action: <em>avoid</em></b></p>\n                    <p>This is the bee that you just saw.</p>\n                    <img src=\"bees-with-color/bee-A1DF.svg\" width=\"200\">\n                    <p><span class=\"redText\">Bad choice,</span> the bee was friendly.<br>Your bonus pay is unchanged, and remains at $0.78.</p>\n            ","response":0,"trial_type":"html-button-response","trial_index":88,"time_elapsed":396890,"internal_node_id":"0.0-4.0-1.40","subject_id":"614fb54a636d939d60da5818","study_id":"6197b3f67c2b5cd3b6d9596a","session_id":"6197b9ee4c1af4d577c279a0","condition":"full-information","relevant_dimensions":["pattern","legs"],"bee_group":{"antennae":"X","wings":"X","pattern":"S","legs":"M"},"bonus":1.3800000000000008},{"rt":2169,"stimulus":"bees-with-color/bee-B2SF.svg","response":1,"trial_type":"image-button-response","trial_index":89,"time_elapsed":399060,"internal_node_id":"0.0-4.0-0.41","subject_id":"614fb54a636d939d60da5818","study_id":"6197b3f67c2b5cd3b6d9596a","session_id":"6197b9ee4c1af4d577c279a0","condition":"full-information","relevant_dimensions":["pattern","legs"],"bee_group":{"antennae":"X","wings":"X","pattern":"S","legs":"M"},"action":"avoid","summary":"bad-avoid","bonus":1.3800000000000008},{"rt":770.6999999880791,"stimulus":"\n                    <p><b>Action: <em>avoid</em></b></p>\n                    <p>This is the bee that you just saw.</p>\n                    <img src=\"bees-with-color/bee-B2SF.svg\" width=\"200\">\n                    <p><span class=\"redText\">Bad choice,</span> the bee was friendly.<br>Your bonus pay is unchanged, and remains at $0.78.</p>\n            ","response":0,"trial_type":"html-button-response","trial_index":90,"time_elapsed":399832,"internal_node_id":"0.0-4.0-1.41","subject_id":"614fb54a636d939d60da5818","study_id":"6197b3f67c2b5cd3b6d9596a","session_id":"6197b9ee4c1af4d577c279a0","condition":"full-information","relevant_dimensions":["pattern","legs"],"bee_group":{"antennae":"X","wings":"X","pattern":"S","legs":"M"},"bonus":1.3800000000000008},{"rt":2255.100000023842,"stimulus":"bees-with-color/bee-B1SM.svg","response":1,"trial_type":"image-button-response","trial_index":91,"time_elapsed":402088,"internal_node_id":"0.0-4.0-0.42","subject_id":"614fb54a636d939d60da5818","study_id":"6197b3f67c2b5cd3b6d9596a","session_id":"6197b9ee4c1af4d577c279a0","condition":"full-information","relevant_dimensions":["pattern","legs"],"bee_group":{"antennae":"X","wings":"X","pattern":"S","legs":"M"},"action":"avoid","summary":"good-avoid","bonus":1.3800000000000008},{"rt":586.7999999523163,"stimulus":"\n                    <p><b>Action: <em>avoid</em></b></p>\n                    <p>This is the bee that you just saw.</p>\n                    <img src=\"bees-with-color/bee-B1SM.svg\" width=\"200\">\n                    <p><span class=\"greenText\">Good choice!</span>  This bee would have stung you.<br>Your bonus pay is unchanged, and remains at $0.78.</p>\n            ","response":0,"trial_type":"html-button-response","trial_index":92,"time_elapsed":402676,"internal_node_id":"0.0-4.0-1.42","subject_id":"614fb54a636d939d60da5818","study_id":"6197b3f67c2b5cd3b6d9596a","session_id":"6197b9ee4c1af4d577c279a0","condition":"full-information","relevant_dimensions":["pattern","legs"],"bee_group":{"antennae":"X","wings":"X","pattern":"S","legs":"M"},"bonus":1.3800000000000008},{"rt":1079.4000000357628,"stimulus":"bees-with-color/bee-B2DF.svg","response":0,"trial_type":"image-button-response","trial_index":93,"time_elapsed":403756,"internal_node_id":"0.0-4.0-0.43","subject_id":"614fb54a636d939d60da5818","study_id":"6197b3f67c2b5cd3b6d9596a","session_id":"6197b9ee4c1af4d577c279a0","condition":"full-information","relevant_dimensions":["pattern","legs"],"bee_group":{"antennae":"X","wings":"X","pattern":"S","legs":"M"},"action":"harvest","summary":"good-harvest","bonus":1.3800000000000008},{"rt":603.1000000238419,"stimulus":"\n                    <p><b>Action: <em>harvest</em></b></p>\n                    <p>This is the bee that you just saw.</p>\n                    <img src=\"bees-with-color/bee-B2DF.svg\" width=\"200\">\n                    <p><span class=\"greenText\"><b>Successful harvest!</b></span><br>Your pay has increased by $0.02. Your bonus pay is now $0.80.</p>\n            ","response":0,"trial_type":"html-button-response","trial_index":94,"time_elapsed":404360,"internal_node_id":"0.0-4.0-1.43","subject_id":"614fb54a636d939d60da5818","study_id":"6197b3f67c2b5cd3b6d9596a","session_id":"6197b9ee4c1af4d577c279a0","condition":"full-information","relevant_dimensions":["pattern","legs"],"bee_group":{"antennae":"X","wings":"X","pattern":"S","legs":"M"},"bonus":1.3800000000000008},{"rt":1427.1000000238419,"stimulus":"bees-with-color/bee-B2DM.svg","response":0,"trial_type":"image-button-response","trial_index":95,"time_elapsed":405788,"internal_node_id":"0.0-4.0-0.44","subject_id":"614fb54a636d939d60da5818","study_id":"6197b3f67c2b5cd3b6d9596a","session_id":"6197b9ee4c1af4d577c279a0","condition":"full-information","relevant_dimensions":["pattern","legs"],"bee_group":{"antennae":"X","wings":"X","pattern":"S","legs":"M"},"action":"harvest","summary":"good-harvest","bonus":1.3800000000000008},{"rt":701.1999999880791,"stimulus":"\n                    <p><b>Action: <em>harvest</em></b></p>\n                    <p>This is the bee that you just saw.</p>\n                    <img src=\"bees-with-color/bee-B2DM.svg\" width=\"200\">\n                    <p><span class=\"greenText\"><b>Successful harvest!</b></span><br>Your pay has increased by $0.02. Your bonus pay is now $0.82.</p>\n            ","response":0,"trial_type":"html-button-response","trial_index":96,"time_elapsed":406490,"internal_node_id":"0.0-4.0-1.44","subject_id":"614fb54a636d939d60da5818","study_id":"6197b3f67c2b5cd3b6d9596a","session_id":"6197b9ee4c1af4d577c279a0","condition":"full-information","relevant_dimensions":["pattern","legs"],"bee_group":{"antennae":"X","wings":"X","pattern":"S","legs":"M"},"bonus":1.3800000000000008},{"rt":2337.100000023842,"stimulus":"bees-with-color/bee-B1DM.svg","response":1,"trial_type":"image-button-response","trial_index":97,"time_elapsed":408828,"internal_node_id":"0.0-4.0-0.45","subject_id":"614fb54a636d939d60da5818","study_id":"6197b3f67c2b5cd3b6d9596a","session_id":"6197b9ee4c1af4d577c279a0","condition":"full-information","relevant_dimensions":["pattern","legs"],"bee_group":{"antennae":"X","wings":"X","pattern":"S","legs":"M"},"action":"avoid","summary":"bad-avoid","bonus":1.3800000000000008},{"rt":682.8999999761581,"stimulus":"\n                    <p><b>Action: <em>avoid</em></b></p>\n                    <p>This is the bee that you just saw.</p>\n                    <img src=\"bees-with-color/bee-B1DM.svg\" width=\"200\">\n                    <p><span class=\"redText\">Bad choice,</span> the bee was friendly.<br>Your bonus pay is unchanged, and remains at $0.82.</p>\n            ","response":0,"trial_type":"html-button-response","trial_index":98,"time_elapsed":409512,"internal_node_id":"0.0-4.0-1.45","subject_id":"614fb54a636d939d60da5818","study_id":"6197b3f67c2b5cd3b6d9596a","session_id":"6197b9ee4c1af4d577c279a0","condition":"full-information","relevant_dimensions":["pattern","legs"],"bee_group":{"antennae":"X","wings":"X","pattern":"S","legs":"M"},"bonus":1.3800000000000008},{"rt":1287.2000000476837,"stimulus":"bees-with-color/bee-A1SM.svg","response":1,"trial_type":"image-button-response","trial_index":99,"time_elapsed":410800,"internal_node_id":"0.0-4.0-0.46","subject_id":"614fb54a636d939d60da5818","study_id":"6197b3f67c2b5cd3b6d9596a","session_id":"6197b9ee4c1af4d577c279a0","condition":"full-information","relevant_dimensions":["pattern","legs"],"bee_group":{"antennae":"X","wings":"X","pattern":"S","legs":"M"},"action":"avoid","summary":"good-avoid","bonus":1.3800000000000008},{"rt":567,"stimulus":"\n                    <p><b>Action: <em>avoid</em></b></p>\n                    <p>This is the bee that you just saw.</p>\n                    <img src=\"bees-with-color/bee-A1SM.svg\" width=\"200\">\n                    <p><span class=\"greenText\">Good choice!</span>  This bee would have stung you.<br>Your bonus pay is unchanged, and remains at $0.82.</p>\n            ","response":0,"trial_type":"html-button-response","trial_index":100,"time_elapsed":411368,"internal_node_id":"0.0-4.0-1.46","subject_id":"614fb54a636d939d60da5818","study_id":"6197b3f67c2b5cd3b6d9596a","session_id":"6197b9ee4c1af4d577c279a0","condition":"full-information","relevant_dimensions":["pattern","legs"],"bee_group":{"antennae":"X","wings":"X","pattern":"S","legs":"M"},"bonus":1.3800000000000008},{"rt":855.2000000476837,"stimulus":"bees-with-color/bee-A2DF.svg","response":0,"trial_type":"image-button-response","trial_index":101,"time_elapsed":412224,"internal_node_id":"0.0-4.0-0.47","subject_id":"614fb54a636d939d60da5818","study_id":"6197b3f67c2b5cd3b6d9596a","session_id":"6197b9ee4c1af4d577c279a0","condition":"full-information","relevant_dimensions":["pattern","legs"],"bee_group":{"antennae":"X","wings":"X","pattern":"S","legs":"M"},"action":"harvest","summary":"good-harvest","bonus":1.3800000000000008},{"rt":939.1000000238419,"stimulus":"\n                    <p><b>Action: <em>harvest</em></b></p>\n                    <p>This is the bee that you just saw.</p>\n                    <img src=\"bees-with-color/bee-A2DF.svg\" width=\"200\">\n                    <p><span class=\"greenText\"><b>Successful harvest!</b></span><br>Your pay has increased by $0.02. Your bonus pay is now $0.84.</p>\n            ","response":0,"trial_type":"html-button-response","trial_index":102,"time_elapsed":413164,"internal_node_id":"0.0-4.0-1.47","subject_id":"614fb54a636d939d60da5818","study_id":"6197b3f67c2b5cd3b6d9596a","session_id":"6197b9ee4c1af4d577c279a0","condition":"full-information","relevant_dimensions":["pattern","legs"],"bee_group":{"antennae":"X","wings":"X","pattern":"S","legs":"M"},"bonus":1.3800000000000008},{"rt":1648.8999999761581,"stimulus":"bees-with-color/bee-B1SM.svg","response":1,"trial_type":"image-button-response","trial_index":103,"time_elapsed":414814,"internal_node_id":"0.0-4.0-0.48","subject_id":"614fb54a636d939d60da5818","study_id":"6197b3f67c2b5cd3b6d9596a","session_id":"6197b9ee4c1af4d577c279a0","condition":"full-information","relevant_dimensions":["pattern","legs"],"bee_group":{"antennae":"X","wings":"X","pattern":"S","legs":"M"},"action":"avoid","summary":"good-avoid","bonus":1.3800000000000008},{"rt":651.1000000238419,"stimulus":"\n                    <p><b>Action: <em>avoid</em></b></p>\n                    <p>This is the bee that you just saw.</p>\n                    <img src=\"bees-with-color/bee-B1SM.svg\" width=\"200\">\n                    <p><span class=\"greenText\">Good choice!</span>  This bee would have stung you.<br>Your bonus pay is unchanged, and remains at $0.84.</p>\n            ","response":0,"trial_type":"html-button-response","trial_index":104,"time_elapsed":415466,"internal_node_id":"0.0-4.0-1.48","subject_id":"614fb54a636d939d60da5818","study_id":"6197b3f67c2b5cd3b6d9596a","session_id":"6197b9ee4c1af4d577c279a0","condition":"full-information","relevant_dimensions":["pattern","legs"],"bee_group":{"antennae":"X","wings":"X","pattern":"S","legs":"M"},"bonus":1.3800000000000008},{"rt":1555.199999988079,"stimulus":"bees-with-color/bee-B1DF.svg","response":0,"trial_type":"image-button-response","trial_index":105,"time_elapsed":417022,"internal_node_id":"0.0-4.0-0.49","subject_id":"614fb54a636d939d60da5818","study_id":"6197b3f67c2b5cd3b6d9596a","session_id":"6197b9ee4c1af4d577c279a0","condition":"full-information","relevant_dimensions":["pattern","legs"],"bee_group":{"antennae":"X","wings":"X","pattern":"S","legs":"M"},"action":"harvest","summary":"good-harvest","bonus":1.3800000000000008},{"rt":679,"stimulus":"\n                    <p><b>Action: <em>harvest</em></b></p>\n                    <p>This is the bee that you just saw.</p>\n                    <img src=\"bees-with-color/bee-B1DF.svg\" width=\"200\">\n                    <p><span class=\"greenText\"><b>Successful harvest!</b></span><br>Your pay has increased by $0.02. Your bonus pay is now $0.86.</p>\n            ","response":0,"trial_type":"html-button-response","trial_index":106,"time_elapsed":417702,"internal_node_id":"0.0-4.0-1.49","subject_id":"614fb54a636d939d60da5818","study_id":"6197b3f67c2b5cd3b6d9596a","session_id":"6197b9ee4c1af4d577c279a0","condition":"full-information","relevant_dimensions":["pattern","legs"],"bee_group":{"antennae":"X","wings":"X","pattern":"S","legs":"M"},"bonus":1.3800000000000008},{"rt":1267.3999999761581,"stimulus":"bees-with-color/bee-A1DM.svg","response":0,"trial_type":"image-button-response","trial_index":107,"time_elapsed":418970,"internal_node_id":"0.0-4.0-0.50","subject_id":"614fb54a636d939d60da5818","study_id":"6197b3f67c2b5cd3b6d9596a","session_id":"6197b9ee4c1af4d577c279a0","condition":"full-information","relevant_dimensions":["pattern","legs"],"bee_group":{"antennae":"X","wings":"X","pattern":"S","legs":"M"},"action":"harvest","summary":"good-harvest","bonus":1.3800000000000008},{"rt":683,"stimulus":"\n                    <p><b>Action: <em>harvest</em></b></p>\n                    <p>This is the bee that you just saw.</p>\n                    <img src=\"bees-with-color/bee-A1DM.svg\" width=\"200\">\n                    <p><span class=\"greenText\"><b>Successful harvest!</b></span><br>Your pay has increased by $0.02. Your bonus pay is now $0.88.</p>\n            ","response":0,"trial_type":"html-button-response","trial_index":108,"time_elapsed":419654,"internal_node_id":"0.0-4.0-1.50","subject_id":"614fb54a636d939d60da5818","study_id":"6197b3f67c2b5cd3b6d9596a","session_id":"6197b9ee4c1af4d577c279a0","condition":"full-information","relevant_dimensions":["pattern","legs"],"bee_group":{"antennae":"X","wings":"X","pattern":"S","legs":"M"},"bonus":1.3800000000000008},{"rt":1283.1000000238419,"stimulus":"bees-with-color/bee-B1SF.svg","response":1,"trial_type":"image-button-response","trial_index":109,"time_elapsed":420938,"internal_node_id":"0.0-4.0-0.51","subject_id":"614fb54a636d939d60da5818","study_id":"6197b3f67c2b5cd3b6d9596a","session_id":"6197b9ee4c1af4d577c279a0","condition":"full-information","relevant_dimensions":["pattern","legs"],"bee_group":{"antennae":"X","wings":"X","pattern":"S","legs":"M"},"action":"avoid","summary":"bad-avoid","bonus":1.3800000000000008},{"rt":661.3000000119209,"stimulus":"\n                    <p><b>Action: <em>avoid</em></b></p>\n                    <p>This is the bee that you just saw.</p>\n                    <img src=\"bees-with-color/bee-B1SF.svg\" width=\"200\">\n                    <p><span class=\"redText\">Bad choice,</span> the bee was friendly.<br>Your bonus pay is unchanged, and remains at $0.88.</p>\n            ","response":0,"trial_type":"html-button-response","trial_index":110,"time_elapsed":421600,"internal_node_id":"0.0-4.0-1.51","subject_id":"614fb54a636d939d60da5818","study_id":"6197b3f67c2b5cd3b6d9596a","session_id":"6197b9ee4c1af4d577c279a0","condition":"full-information","relevant_dimensions":["pattern","legs"],"bee_group":{"antennae":"X","wings":"X","pattern":"S","legs":"M"},"bonus":1.3800000000000008},{"rt":1108.800000011921,"stimulus":"bees-with-color/bee-A2DM.svg","response":0,"trial_type":"image-button-response","trial_index":111,"time_elapsed":422710,"internal_node_id":"0.0-4.0-0.52","subject_id":"614fb54a636d939d60da5818","study_id":"6197b3f67c2b5cd3b6d9596a","session_id":"6197b9ee4c1af4d577c279a0","condition":"full-information","relevant_dimensions":["pattern","legs"],"bee_group":{"antennae":"X","wings":"X","pattern":"S","legs":"M"},"action":"harvest","summary":"good-harvest","bonus":1.3800000000000008},{"rt":661,"stimulus":"\n                    <p><b>Action: <em>harvest</em></b></p>\n                    <p>This is the bee that you just saw.</p>\n                    <img src=\"bees-with-color/bee-A2DM.svg\" width=\"200\">\n                    <p><span class=\"greenText\"><b>Successful harvest!</b></span><br>Your pay has increased by $0.02. Your bonus pay is now $0.90.</p>\n            ","response":0,"trial_type":"html-button-response","trial_index":112,"time_elapsed":423372,"internal_node_id":"0.0-4.0-1.52","subject_id":"614fb54a636d939d60da5818","study_id":"6197b3f67c2b5cd3b6d9596a","session_id":"6197b9ee4c1af4d577c279a0","condition":"full-information","relevant_dimensions":["pattern","legs"],"bee_group":{"antennae":"X","wings":"X","pattern":"S","legs":"M"},"bonus":1.3800000000000008},{"rt":1193,"stimulus":"bees-with-color/bee-A1SF.svg","response":1,"trial_type":"image-button-response","trial_index":113,"time_elapsed":424566,"internal_node_id":"0.0-4.0-0.53","subject_id":"614fb54a636d939d60da5818","study_id":"6197b3f67c2b5cd3b6d9596a","session_id":"6197b9ee4c1af4d577c279a0","condition":"full-information","relevant_dimensions":["pattern","legs"],"bee_group":{"antennae":"X","wings":"X","pattern":"S","legs":"M"},"action":"avoid","summary":"bad-avoid","bonus":1.3800000000000008},{"rt":592.5,"stimulus":"\n                    <p><b>Action: <em>avoid</em></b></p>\n                    <p>This is the bee that you just saw.</p>\n                    <img src=\"bees-with-color/bee-A1SF.svg\" width=\"200\">\n                    <p><span class=\"redText\">Bad choice,</span> the bee was friendly.<br>Your bonus pay is unchanged, and remains at $0.90.</p>\n            ","response":0,"trial_type":"html-button-response","trial_index":114,"time_elapsed":425161,"internal_node_id":"0.0-4.0-1.53","subject_id":"614fb54a636d939d60da5818","study_id":"6197b3f67c2b5cd3b6d9596a","session_id":"6197b9ee4c1af4d577c279a0","condition":"full-information","relevant_dimensions":["pattern","legs"],"bee_group":{"antennae":"X","wings":"X","pattern":"S","legs":"M"},"bonus":1.3800000000000008},{"rt":1429,"stimulus":"bees-with-color/bee-A2DF.svg","response":0,"trial_type":"image-button-response","trial_index":115,"time_elapsed":426590,"internal_node_id":"0.0-4.0-0.54","subject_id":"614fb54a636d939d60da5818","study_id":"6197b3f67c2b5cd3b6d9596a","session_id":"6197b9ee4c1af4d577c279a0","condition":"full-information","relevant_dimensions":["pattern","legs"],"bee_group":{"antennae":"X","wings":"X","pattern":"S","legs":"M"},"action":"harvest","summary":"good-harvest","bonus":1.3800000000000008},{"rt":695,"stimulus":"\n                    <p><b>Action: <em>harvest</em></b></p>\n                    <p>This is the bee that you just saw.</p>\n                    <img src=\"bees-with-color/bee-A2DF.svg\" width=\"200\">\n                    <p><span class=\"greenText\"><b>Successful harvest!</b></span><br>Your pay has increased by $0.02. Your bonus pay is now $0.92.</p>\n            ","response":0,"trial_type":"html-button-response","trial_index":116,"time_elapsed":427286,"internal_node_id":"0.0-4.0-1.54","subject_id":"614fb54a636d939d60da5818","study_id":"6197b3f67c2b5cd3b6d9596a","session_id":"6197b9ee4c1af4d577c279a0","condition":"full-information","relevant_dimensions":["pattern","legs"],"bee_group":{"antennae":"X","wings":"X","pattern":"S","legs":"M"},"bonus":1.3800000000000008},{"rt":10855.5,"stimulus":"bees-with-color/bee-A1SM.svg","response":1,"trial_type":"image-button-response","trial_index":117,"time_elapsed":438142,"internal_node_id":"0.0-4.0-0.55","subject_id":"614fb54a636d939d60da5818","study_id":"6197b3f67c2b5cd3b6d9596a","session_id":"6197b9ee4c1af4d577c279a0","condition":"full-information","relevant_dimensions":["pattern","legs"],"bee_group":{"antennae":"X","wings":"X","pattern":"S","legs":"M"},"action":"avoid","summary":"good-avoid","bonus":1.3800000000000008},{"rt":1129.199999988079,"stimulus":"\n                    <p><b>Action: <em>avoid</em></b></p>\n                    <p>This is the bee that you just saw.</p>\n                    <img src=\"bees-with-color/bee-A1SM.svg\" width=\"200\">\n                    <p><span class=\"greenText\">Good choice!</span>  This bee would have stung you.<br>Your bonus pay is unchanged, and remains at $0.92.</p>\n            ","response":0,"trial_type":"html-button-response","trial_index":118,"time_elapsed":439272,"internal_node_id":"0.0-4.0-1.55","subject_id":"614fb54a636d939d60da5818","study_id":"6197b3f67c2b5cd3b6d9596a","session_id":"6197b9ee4c1af4d577c279a0","condition":"full-information","relevant_dimensions":["pattern","legs"],"bee_group":{"antennae":"X","wings":"X","pattern":"S","legs":"M"},"bonus":1.3800000000000008},{"rt":1204.8999999761581,"stimulus":"bees-with-color/bee-B2DF.svg","response":0,"trial_type":"image-button-response","trial_index":119,"time_elapsed":440478,"internal_node_id":"0.0-4.0-0.56","subject_id":"614fb54a636d939d60da5818","study_id":"6197b3f67c2b5cd3b6d9596a","session_id":"6197b9ee4c1af4d577c279a0","condition":"full-information","relevant_dimensions":["pattern","legs"],"bee_group":{"antennae":"X","wings":"X","pattern":"S","legs":"M"},"action":"harvest","summary":"good-harvest","bonus":1.3800000000000008},{"rt":639.1999999880791,"stimulus":"\n                    <p><b>Action: <em>harvest</em></b></p>\n                    <p>This is the bee that you just saw.</p>\n                    <img src=\"bees-with-color/bee-B2DF.svg\" width=\"200\">\n                    <p><span class=\"greenText\"><b>Successful harvest!</b></span><br>Your pay has increased by $0.02. Your bonus pay is now $0.94.</p>\n            ","response":0,"trial_type":"html-button-response","trial_index":120,"time_elapsed":441118,"internal_node_id":"0.0-4.0-1.56","subject_id":"614fb54a636d939d60da5818","study_id":"6197b3f67c2b5cd3b6d9596a","session_id":"6197b9ee4c1af4d577c279a0","condition":"full-information","relevant_dimensions":["pattern","legs"],"bee_group":{"antennae":"X","wings":"X","pattern":"S","legs":"M"},"bonus":1.3800000000000008},{"rt":1717.300000011921,"stimulus":"bees-with-color/bee-B2SF.svg","response":1,"trial_type":"image-button-response","trial_index":121,"time_elapsed":442836,"internal_node_id":"0.0-4.0-0.57","subject_id":"614fb54a636d939d60da5818","study_id":"6197b3f67c2b5cd3b6d9596a","session_id":"6197b9ee4c1af4d577c279a0","condition":"full-information","relevant_dimensions":["pattern","legs"],"bee_group":{"antennae":"X","wings":"X","pattern":"S","legs":"M"},"action":"avoid","summary":"bad-avoid","bonus":1.3800000000000008},{"rt":633.1000000238419,"stimulus":"\n                    <p><b>Action: <em>avoid</em></b></p>\n                    <p>This is the bee that you just saw.</p>\n                    <img src=\"bees-with-color/bee-B2SF.svg\" width=\"200\">\n                    <p><span class=\"redText\">Bad choice,</span> the bee was friendly.<br>Your bonus pay is unchanged, and remains at $0.94.</p>\n            ","response":0,"trial_type":"html-button-response","trial_index":122,"time_elapsed":443470,"internal_node_id":"0.0-4.0-1.57","subject_id":"614fb54a636d939d60da5818","study_id":"6197b3f67c2b5cd3b6d9596a","session_id":"6197b9ee4c1af4d577c279a0","condition":"full-information","relevant_dimensions":["pattern","legs"],"bee_group":{"antennae":"X","wings":"X","pattern":"S","legs":"M"},"bonus":1.3800000000000008},{"rt":1643.2000000476837,"stimulus":"bees-with-color/bee-B1DM.svg","response":0,"trial_type":"image-button-response","trial_index":123,"time_elapsed":445114,"internal_node_id":"0.0-4.0-0.58","subject_id":"614fb54a636d939d60da5818","study_id":"6197b3f67c2b5cd3b6d9596a","session_id":"6197b9ee4c1af4d577c279a0","condition":"full-information","relevant_dimensions":["pattern","legs"],"bee_group":{"antennae":"X","wings":"X","pattern":"S","legs":"M"},"action":"harvest","summary":"good-harvest","bonus":1.3800000000000008},{"rt":829.5,"stimulus":"\n                    <p><b>Action: <em>harvest</em></b></p>\n                    <p>This is the bee that you just saw.</p>\n                    <img src=\"bees-with-color/bee-B1DM.svg\" width=\"200\">\n                    <p><span class=\"greenText\"><b>Successful harvest!</b></span><br>Your pay has increased by $0.02. Your bonus pay is now $0.96.</p>\n            ","response":0,"trial_type":"html-button-response","trial_index":124,"time_elapsed":445945,"internal_node_id":"0.0-4.0-1.58","subject_id":"614fb54a636d939d60da5818","study_id":"6197b3f67c2b5cd3b6d9596a","session_id":"6197b9ee4c1af4d577c279a0","condition":"full-information","relevant_dimensions":["pattern","legs"],"bee_group":{"antennae":"X","wings":"X","pattern":"S","legs":"M"},"bonus":1.3800000000000008},{"rt":2134.800000011921,"stimulus":"bees-with-color/bee-A2SM.svg","response":1,"trial_type":"image-button-response","trial_index":125,"time_elapsed":448081,"internal_node_id":"0.0-4.0-0.59","subject_id":"614fb54a636d939d60da5818","study_id":"6197b3f67c2b5cd3b6d9596a","session_id":"6197b9ee4c1af4d577c279a0","condition":"full-information","relevant_dimensions":["pattern","legs"],"bee_group":{"antennae":"X","wings":"X","pattern":"S","legs":"M"},"action":"avoid","summary":"good-avoid","bonus":1.3800000000000008},{"rt":1008.9000000357628,"stimulus":"\n                    <p><b>Action: <em>avoid</em></b></p>\n                    <p>This is the bee that you just saw.</p>\n                    <img src=\"bees-with-color/bee-A2SM.svg\" width=\"200\">\n                    <p><span class=\"greenText\">Good choice!</span>  This bee would have stung you.<br>Your bonus pay is unchanged, and remains at $0.96.</p>\n            ","response":0,"trial_type":"html-button-response","trial_index":126,"time_elapsed":449090,"internal_node_id":"0.0-4.0-1.59","subject_id":"614fb54a636d939d60da5818","study_id":"6197b3f67c2b5cd3b6d9596a","session_id":"6197b9ee4c1af4d577c279a0","condition":"full-information","relevant_dimensions":["pattern","legs"],"bee_group":{"antennae":"X","wings":"X","pattern":"S","legs":"M"},"bonus":1.3800000000000008},{"rt":1154.800000011921,"stimulus":"bees-with-color/bee-B2SM.svg","response":1,"trial_type":"image-button-response","trial_index":127,"time_elapsed":450246,"internal_node_id":"0.0-4.0-0.60","subject_id":"614fb54a636d939d60da5818","study_id":"6197b3f67c2b5cd3b6d9596a","session_id":"6197b9ee4c1af4d577c279a0","condition":"full-information","relevant_dimensions":["pattern","legs"],"bee_group":{"antennae":"X","wings":"X","pattern":"S","legs":"M"},"action":"avoid","summary":"good-avoid","bonus":1.3800000000000008},{"rt":675,"stimulus":"\n                    <p><b>Action: <em>avoid</em></b></p>\n                    <p>This is the bee that you just saw.</p>\n                    <img src=\"bees-with-color/bee-B2SM.svg\" width=\"200\">\n                    <p><span class=\"greenText\">Good choice!</span>  This bee would have stung you.<br>Your bonus pay is unchanged, and remains at $0.96.</p>\n            ","response":0,"trial_type":"html-button-response","trial_index":128,"time_elapsed":450922,"internal_node_id":"0.0-4.0-1.60","subject_id":"614fb54a636d939d60da5818","study_id":"6197b3f67c2b5cd3b6d9596a","session_id":"6197b9ee4c1af4d577c279a0","condition":"full-information","relevant_dimensions":["pattern","legs"],"bee_group":{"antennae":"X","wings":"X","pattern":"S","legs":"M"},"bonus":1.3800000000000008},{"rt":1031.300000011921,"stimulus":"bees-with-color/bee-A1DF.svg","response":0,"trial_type":"image-button-response","trial_index":129,"time_elapsed":451954,"internal_node_id":"0.0-4.0-0.61","subject_id":"614fb54a636d939d60da5818","study_id":"6197b3f67c2b5cd3b6d9596a","session_id":"6197b9ee4c1af4d577c279a0","condition":"full-information","relevant_dimensions":["pattern","legs"],"bee_group":{"antennae":"X","wings":"X","pattern":"S","legs":"M"},"action":"harvest","summary":"good-harvest","bonus":1.3800000000000008},{"rt":625.1000000238419,"stimulus":"\n                    <p><b>Action: <em>harvest</em></b></p>\n                    <p>This is the bee that you just saw.</p>\n                    <img src=\"bees-with-color/bee-A1DF.svg\" width=\"200\">\n                    <p><span class=\"greenText\"><b>Successful harvest!</b></span><br>Your pay has increased by $0.02. Your bonus pay is now $0.98.</p>\n            ","response":0,"trial_type":"html-button-response","trial_index":130,"time_elapsed":452580,"internal_node_id":"0.0-4.0-1.61","subject_id":"614fb54a636d939d60da5818","study_id":"6197b3f67c2b5cd3b6d9596a","session_id":"6197b9ee4c1af4d577c279a0","condition":"full-information","relevant_dimensions":["pattern","legs"],"bee_group":{"antennae":"X","wings":"X","pattern":"S","legs":"M"},"bonus":1.3800000000000008},{"rt":2606.899999976158,"stimulus":"bees-with-color/bee-A2SF.svg","response":1,"trial_type":"image-button-response","trial_index":131,"time_elapsed":455188,"internal_node_id":"0.0-4.0-0.62","subject_id":"614fb54a636d939d60da5818","study_id":"6197b3f67c2b5cd3b6d9596a","session_id":"6197b9ee4c1af4d577c279a0","condition":"full-information","relevant_dimensions":["pattern","legs"],"bee_group":{"antennae":"X","wings":"X","pattern":"S","legs":"M"},"action":"avoid","summary":"bad-avoid","bonus":1.3800000000000008},{"rt":667,"stimulus":"\n                    <p><b>Action: <em>avoid</em></b></p>\n                    <p>This is the bee that you just saw.</p>\n                    <img src=\"bees-with-color/bee-A2SF.svg\" width=\"200\">\n                    <p><span class=\"redText\">Bad choice,</span> the bee was friendly.<br>Your bonus pay is unchanged, and remains at $0.98.</p>\n            ","response":0,"trial_type":"html-button-response","trial_index":132,"time_elapsed":455856,"internal_node_id":"0.0-4.0-1.62","subject_id":"614fb54a636d939d60da5818","study_id":"6197b3f67c2b5cd3b6d9596a","session_id":"6197b9ee4c1af4d577c279a0","condition":"full-information","relevant_dimensions":["pattern","legs"],"bee_group":{"antennae":"X","wings":"X","pattern":"S","legs":"M"},"bonus":1.3800000000000008},{"rt":1827,"stimulus":"bees-with-color/bee-B2DM.svg","response":0,"trial_type":"image-button-response","trial_index":133,"time_elapsed":457684,"internal_node_id":"0.0-4.0-0.63","subject_id":"614fb54a636d939d60da5818","study_id":"6197b3f67c2b5cd3b6d9596a","session_id":"6197b9ee4c1af4d577c279a0","condition":"full-information","relevant_dimensions":["pattern","legs"],"bee_group":{"antennae":"X","wings":"X","pattern":"S","legs":"M"},"action":"harvest","summary":"good-harvest","bonus":1.3800000000000008},{"rt":645.3000000119209,"stimulus":"\n                    <p><b>Action: <em>harvest</em></b></p>\n                    <p>This is the bee that you just saw.</p>\n                    <img src=\"bees-with-color/bee-B2DM.svg\" width=\"200\">\n                    <p><span class=\"greenText\"><b>Successful harvest!</b></span><br>Your pay has increased by $0.02. Your bonus pay is now $1.00.</p>\n            ","response":0,"trial_type":"html-button-response","trial_index":134,"time_elapsed":458331,"internal_node_id":"0.0-4.0-1.63","subject_id":"614fb54a636d939d60da5818","study_id":"6197b3f67c2b5cd3b6d9596a","session_id":"6197b9ee4c1af4d577c279a0","condition":"full-information","relevant_dimensions":["pattern","legs"],"bee_group":{"antennae":"X","wings":"X","pattern":"S","legs":"M"},"bonus":1.3800000000000008},{"rt":9082.900000035763,"stimulus":"You have completed the first part of this experiment.<br><br>You will now begin a shorter second part, in which you will receive no feedback.<br>The same rules regarding bonus pay apply.<br><br>Press any key to begin.","response":" ","trial_type":"html-keyboard-response","trial_index":135,"time_elapsed":467414,"internal_node_id":"0.0-5.0","subject_id":"614fb54a636d939d60da5818","study_id":"6197b3f67c2b5cd3b6d9596a","session_id":"6197b9ee4c1af4d577c279a0","condition":"full-information","relevant_dimensions":["pattern","legs"],"bee_group":{"antennae":"X","wings":"X","pattern":"S","legs":"M"},"bonus":1.3800000000000008},{"rt":6667.199999988079,"stimulus":"bees-with-color/bee-A2DF.svg","response":0,"trial_type":"image-button-response","trial_index":136,"time_elapsed":474088,"internal_node_id":"0.0-6.0-0.0","subject_id":"614fb54a636d939d60da5818","study_id":"6197b3f67c2b5cd3b6d9596a","session_id":"6197b9ee4c1af4d577c279a0","condition":"full-information","relevant_dimensions":["pattern","legs"],"bee_group":{"antennae":"X","wings":"X","pattern":"S","legs":"M"},"bonus":1.3800000000000008},{"rt":3984.7000000476837,"stimulus":"bees-with-color/bee-A1SF.svg","response":1,"trial_type":"image-button-response","trial_index":137,"time_elapsed":478074,"internal_node_id":"0.0-6.0-0.1","subject_id":"614fb54a636d939d60da5818","study_id":"6197b3f67c2b5cd3b6d9596a","session_id":"6197b9ee4c1af4d577c279a0","condition":"full-information","relevant_dimensions":["pattern","legs"],"bee_group":{"antennae":"X","wings":"X","pattern":"S","legs":"M"},"bonus":1.3800000000000008},{"rt":1562.3999999761581,"stimulus":"bees-with-color/bee-B1SM.svg","response":1,"trial_type":"image-button-response","trial_index":138,"time_elapsed":479638,"internal_node_id":"0.0-6.0-0.2","subject_id":"614fb54a636d939d60da5818","study_id":"6197b3f67c2b5cd3b6d9596a","session_id":"6197b9ee4c1af4d577c279a0","condition":"full-information","relevant_dimensions":["pattern","legs"],"bee_group":{"antennae":"X","wings":"X","pattern":"S","legs":"M"},"bonus":1.3800000000000008},{"rt":1438.8999999761581,"stimulus":"bees-with-color/bee-A2SF.svg","response":1,"trial_type":"image-button-response","trial_index":139,"time_elapsed":481078,"internal_node_id":"0.0-6.0-0.3","subject_id":"614fb54a636d939d60da5818","study_id":"6197b3f67c2b5cd3b6d9596a","session_id":"6197b9ee4c1af4d577c279a0","condition":"full-information","relevant_dimensions":["pattern","legs"],"bee_group":{"antennae":"X","wings":"X","pattern":"S","legs":"M"},"bonus":1.3800000000000008},{"rt":1422.800000011921,"stimulus":"bees-with-color/bee-B1SF.svg","response":0,"trial_type":"image-button-response","trial_index":140,"time_elapsed":482502,"internal_node_id":"0.0-6.0-0.4","subject_id":"614fb54a636d939d60da5818","study_id":"6197b3f67c2b5cd3b6d9596a","session_id":"6197b9ee4c1af4d577c279a0","condition":"full-information","relevant_dimensions":["pattern","legs"],"bee_group":{"antennae":"X","wings":"X","pattern":"S","legs":"M"},"bonus":1.3800000000000008},{"rt":2684.900000035763,"stimulus":"bees-with-color/bee-A1DM.svg","response":0,"trial_type":"image-button-response","trial_index":141,"time_elapsed":485188,"internal_node_id":"0.0-6.0-0.5","subject_id":"614fb54a636d939d60da5818","study_id":"6197b3f67c2b5cd3b6d9596a","session_id":"6197b9ee4c1af4d577c279a0","condition":"full-information","relevant_dimensions":["pattern","legs"],"bee_group":{"antennae":"X","wings":"X","pattern":"S","legs":"M"},"bonus":1.3800000000000008},{"rt":998.8000000119209,"stimulus":"bees-with-color/bee-B1DF.svg","response":0,"trial_type":"image-button-response","trial_index":142,"time_elapsed":486188,"internal_node_id":"0.0-6.0-0.6","subject_id":"614fb54a636d939d60da5818","study_id":"6197b3f67c2b5cd3b6d9596a","session_id":"6197b9ee4c1af4d577c279a0","condition":"full-information","relevant_dimensions":["pattern","legs"],"bee_group":{"antennae":"X","wings":"X","pattern":"S","legs":"M"},"bonus":1.3800000000000008},{"rt":982.7000000476837,"stimulus":"bees-with-color/bee-A2SM.svg","response":1,"trial_type":"image-button-response","trial_index":143,"time_elapsed":487173,"internal_node_id":"0.0-6.0-0.7","subject_id":"614fb54a636d939d60da5818","study_id":"6197b3f67c2b5cd3b6d9596a","session_id":"6197b9ee4c1af4d577c279a0","condition":"full-information","relevant_dimensions":["pattern","legs"],"bee_group":{"antennae":"X","wings":"X","pattern":"S","legs":"M"},"bonus":1.3800000000000008},{"rt":1298.6000000238419,"stimulus":"bees-with-color/bee-A2DM.svg","response":0,"trial_type":"image-button-response","trial_index":144,"time_elapsed":488472,"internal_node_id":"0.0-6.0-0.8","subject_id":"614fb54a636d939d60da5818","study_id":"6197b3f67c2b5cd3b6d9596a","session_id":"6197b9ee4c1af4d577c279a0","condition":"full-information","relevant_dimensions":["pattern","legs"],"bee_group":{"antennae":"X","wings":"X","pattern":"S","legs":"M"},"bonus":1.3800000000000008},{"rt":988.8000000119209,"stimulus":"bees-with-color/bee-B2DF.svg","response":0,"trial_type":"image-button-response","trial_index":145,"time_elapsed":489463,"internal_node_id":"0.0-6.0-0.9","subject_id":"614fb54a636d939d60da5818","study_id":"6197b3f67c2b5cd3b6d9596a","session_id":"6197b9ee4c1af4d577c279a0","condition":"full-information","relevant_dimensions":["pattern","legs"],"bee_group":{"antennae":"X","wings":"X","pattern":"S","legs":"M"},"bonus":1.3800000000000008},{"rt":1846.300000011921,"stimulus":"bees-with-color/bee-A1SM.svg","response":1,"trial_type":"image-button-response","trial_index":146,"time_elapsed":491310,"internal_node_id":"0.0-6.0-0.10","subject_id":"614fb54a636d939d60da5818","study_id":"6197b3f67c2b5cd3b6d9596a","session_id":"6197b9ee4c1af4d577c279a0","condition":"full-information","relevant_dimensions":["pattern","legs"],"bee_group":{"antennae":"X","wings":"X","pattern":"S","legs":"M"},"bonus":1.3800000000000008},{"rt":2107,"stimulus":"bees-with-color/bee-B2SM.svg","response":1,"trial_type":"image-button-response","trial_index":147,"time_elapsed":493419,"internal_node_id":"0.0-6.0-0.11","subject_id":"614fb54a636d939d60da5818","study_id":"6197b3f67c2b5cd3b6d9596a","session_id":"6197b9ee4c1af4d577c279a0","condition":"full-information","relevant_dimensions":["pattern","legs"],"bee_group":{"antennae":"X","wings":"X","pattern":"S","legs":"M"},"bonus":1.3800000000000008},{"rt":1524.699999988079,"stimulus":"bees-with-color/bee-B1DM.svg","response":0,"trial_type":"image-button-response","trial_index":148,"time_elapsed":494944,"internal_node_id":"0.0-6.0-0.12","subject_id":"614fb54a636d939d60da5818","study_id":"6197b3f67c2b5cd3b6d9596a","session_id":"6197b9ee4c1af4d577c279a0","condition":"full-information","relevant_dimensions":["pattern","legs"],"bee_group":{"antennae":"X","wings":"X","pattern":"S","legs":"M"},"bonus":1.3800000000000008},{"rt":1822.8999999761581,"stimulus":"bees-with-color/bee-B2DM.svg","response":0,"trial_type":"image-button-response","trial_index":149,"time_elapsed":496768,"internal_node_id":"0.0-6.0-0.13","subject_id":"614fb54a636d939d60da5818","study_id":"6197b3f67c2b5cd3b6d9596a","session_id":"6197b9ee4c1af4d577c279a0","condition":"full-information","relevant_dimensions":["pattern","legs"],"bee_group":{"antennae":"X","wings":"X","pattern":"S","legs":"M"},"bonus":1.3800000000000008},{"rt":1072.699999988079,"stimulus":"bees-with-color/bee-B2SF.svg","response":1,"trial_type":"image-button-response","trial_index":150,"time_elapsed":497842,"internal_node_id":"0.0-6.0-0.14","subject_id":"614fb54a636d939d60da5818","study_id":"6197b3f67c2b5cd3b6d9596a","session_id":"6197b9ee4c1af4d577c279a0","condition":"full-information","relevant_dimensions":["pattern","legs"],"bee_group":{"antennae":"X","wings":"X","pattern":"S","legs":"M"},"bonus":1.3800000000000008},{"rt":1420.8999999761581,"stimulus":"bees-with-color/bee-A1DF.svg","response":0,"trial_type":"image-button-response","trial_index":151,"time_elapsed":499264,"internal_node_id":"0.0-6.0-0.15","subject_id":"614fb54a636d939d60da5818","study_id":"6197b3f67c2b5cd3b6d9596a","session_id":"6197b9ee4c1af4d577c279a0","condition":"full-information","relevant_dimensions":["pattern","legs"],"bee_group":{"antennae":"X","wings":"X","pattern":"S","legs":"M"},"bonus":1.3800000000000008},{"rt":4393.199999988079,"stimulus":"bees-with-color/bee-A2SF.svg","response":0,"trial_type":"image-button-response","trial_index":152,"time_elapsed":503659,"internal_node_id":"0.0-6.0-0.16","subject_id":"614fb54a636d939d60da5818","study_id":"6197b3f67c2b5cd3b6d9596a","session_id":"6197b9ee4c1af4d577c279a0","condition":"full-information","relevant_dimensions":["pattern","legs"],"bee_group":{"antennae":"X","wings":"X","pattern":"S","legs":"M"},"bonus":1.3800000000000008},{"rt":1166.7000000476837,"stimulus":"bees-with-color/bee-A2SM.svg","response":1,"trial_type":"image-button-response","trial_index":153,"time_elapsed":504827,"internal_node_id":"0.0-6.0-0.17","subject_id":"614fb54a636d939d60da5818","study_id":"6197b3f67c2b5cd3b6d9596a","session_id":"6197b9ee4c1af4d577c279a0","condition":"full-information","relevant_dimensions":["pattern","legs"],"bee_group":{"antennae":"X","wings":"X","pattern":"S","legs":"M"},"bonus":1.3800000000000008},{"rt":2864.600000023842,"stimulus":"bees-with-color/bee-A1SF.svg","response":0,"trial_type":"image-button-response","trial_index":154,"time_elapsed":507692,"internal_node_id":"0.0-6.0-0.18","subject_id":"614fb54a636d939d60da5818","study_id":"6197b3f67c2b5cd3b6d9596a","session_id":"6197b9ee4c1af4d577c279a0","condition":"full-information","relevant_dimensions":["pattern","legs"],"bee_group":{"antennae":"X","wings":"X","pattern":"S","legs":"M"},"bonus":1.3800000000000008},{"rt":1018.6000000238419,"stimulus":"bees-with-color/bee-A1DM.svg","response":0,"trial_type":"image-button-response","trial_index":155,"time_elapsed":508712,"internal_node_id":"0.0-6.0-0.19","subject_id":"614fb54a636d939d60da5818","study_id":"6197b3f67c2b5cd3b6d9596a","session_id":"6197b9ee4c1af4d577c279a0","condition":"full-information","relevant_dimensions":["pattern","legs"],"bee_group":{"antennae":"X","wings":"X","pattern":"S","legs":"M"},"bonus":1.3800000000000008},{"rt":1506.800000011921,"stimulus":"bees-with-color/bee-B2DM.svg","response":0,"trial_type":"image-button-response","trial_index":156,"time_elapsed":510220,"internal_node_id":"0.0-6.0-0.20","subject_id":"614fb54a636d939d60da5818","study_id":"6197b3f67c2b5cd3b6d9596a","session_id":"6197b9ee4c1af4d577c279a0","condition":"full-information","relevant_dimensions":["pattern","legs"],"bee_group":{"antennae":"X","wings":"X","pattern":"S","legs":"M"},"bonus":1.3800000000000008},{"rt":1433,"stimulus":"bees-with-color/bee-B2DF.svg","response":0,"trial_type":"image-button-response","trial_index":157,"time_elapsed":511654,"internal_node_id":"0.0-6.0-0.21","subject_id":"614fb54a636d939d60da5818","study_id":"6197b3f67c2b5cd3b6d9596a","session_id":"6197b9ee4c1af4d577c279a0","condition":"full-information","relevant_dimensions":["pattern","legs"],"bee_group":{"antennae":"X","wings":"X","pattern":"S","legs":"M"},"bonus":1.3800000000000008},{"rt":785,"stimulus":"bees-with-color/bee-B2SM.svg","response":1,"trial_type":"image-button-response","trial_index":158,"time_elapsed":512440,"internal_node_id":"0.0-6.0-0.22","subject_id":"614fb54a636d939d60da5818