[{"success":true,"trial_type":"fullscreen","trial_index":0,"time_elapsed":2443,"internal_node_id":"0.0-0.0","subject_id":"5f8d5fc960f84702a6041945","study_id":"6197b3f67c2b5cd3b6d9596a","session_id":"6197bc6b9db5ad53d966d3c2","condition":"contingent","relevant_dimensions":["pattern","legs"],"bee_group":{"antennae":"X","wings":"X","pattern":"D","legs":"F"},"bonus":1.300000000000001},{"success":true,"timeout":false,"failed_images":[],"failed_audio":[],"failed_video":[],"trial_type":"preload","trial_index":1,"time_elapsed":4278,"internal_node_id":"0.0-1.0","subject_id":"5f8d5fc960f84702a6041945","study_id":"6197b3f67c2b5cd3b6d9596a","session_id":"6197bc6b9db5ad53d966d3c2","condition":"contingent","relevant_dimensions":["pattern","legs"],"bee_group":{"antennae":"X","wings":"X","pattern":"D","legs":"F"},"bonus":1.300000000000001},{"rt":2246.2000000476837,"stimulus":"Welcome! Press any key to begin.","response":" ","trial_type":"html-keyboard-response","trial_index":2,"time_elapsed":6525,"internal_node_id":"0.0-2.0","subject_id":"5f8d5fc960f84702a6041945","study_id":"6197b3f67c2b5cd3b6d9596a","session_id":"6197bc6b9db5ad53d966d3c2","condition":"contingent","relevant_dimensions":["pattern","legs"],"bee_group":{"antennae":"X","wings":"X","pattern":"D","legs":"F"},"bonus":1.300000000000001},{"view_history":[{"page_index":0,"viewing_time":1389},{"page_index":1,"viewing_time":5325.399999976158},{"page_index":2,"viewing_time":3618.600000023842},{"page_index":3,"viewing_time":5809.5},{"page_index":4,"viewing_time":2405.600000023842},{"page_index":5,"viewing_time":2310.899999976158},{"page_index":6,"viewing_time":3209.100000023842},{"page_index":7,"viewing_time":2432.5},{"page_index":8,"viewing_time":2630.199999988079},{"page_index":9,"viewing_time":1361.300000011921},{"page_index":10,"viewing_time":1107.8999999761581},{"page_index":11,"viewing_time":2808.699999988079},{"page_index":12,"viewing_time":2550.900000035763},{"page_index":13,"viewing_time":811.1999999880791},{"page_index":14,"viewing_time":747.8999999761581}],"rt":38519,"trial_type":"instructions","trial_index":3,"time_elapsed":45044,"internal_node_id":"0.0-3.0-0.0","subject_id":"5f8d5fc960f84702a6041945","study_id":"6197b3f67c2b5cd3b6d9596a","session_id":"6197bc6b9db5ad53d966d3c2","condition":"contingent","relevant_dimensions":["pattern","legs"],"bee_group":{"antennae":"X","wings":"X","pattern":"D","legs":"F"},"bonus":1.300000000000001},{"rt":5473.699999988079,"response":{"Q0":["Two or six legs","Stripes or spots on body","Single or double wings","Antennae or no antennae"]},"question_order":[0],"trial_type":"survey-multi-select","trial_index":4,"time_elapsed":50522,"internal_node_id":"0.0-3.0-1.0","subject_id":"5f8d5fc960f84702a6041945","study_id":"6197b3f67c2b5cd3b6d9596a","session_id":"6197bc6b9db5ad53d966d3c2","condition":"contingent","relevant_dimensions":["pattern","legs"],"bee_group":{"antennae":"X","wings":"X","pattern":"D","legs":"F"},"correct":true,"bonus":1.300000000000001},{"rt":7007.899999976158,"response":{"Q1":"No.","Q2":"Based on the four features of the bee.","Q3":"You do not learn if it was friendly or dangerous, and do not alter your bonus."},"question_order":[0,1,2],"trial_type":"survey-multi-choice","trial_index":5,"time_elapsed":57533,"internal_node_id":"0.0-3.0-2.0","subject_id":"5f8d5fc960f84702a6041945","study_id":"6197b3f67c2b5cd3b6d9596a","session_id":"6197bc6b9db5ad53d966d3c2","condition":"contingent","relevant_dimensions":["pattern","legs"],"bee_group":{"antennae":"X","wings":"X","pattern":"D","legs":"F"},"correct":true,"bonus":1.300000000000001},{"rt":3560.899999976158,"stimulus":"<p>Congrats, you got everything right<br>When you're ready, click the button below to continue to the experiment.</p>","response":0,"trial_type":"html-button-response","trial_index":6,"time_elapsed":61095,"internal_node_id":"0.0-3.0-3.0","subject_id":"5f8d5fc960f84702a6041945","study_id":"6197b3f67c2b5cd3b6d9596a","session_id":"6197bc6b9db5ad53d966d3c2","condition":"contingent","relevant_dimensions":["pattern","legs"],"bee_group":{"antennae":"X","wings":"X","pattern":"D","legs":"F"},"bonus":1.300000000000001},{"rt":21289.299999952316,"stimulus":"bees-with-color/bee-B2DM.svg","response":0,"trial_type":"image-button-response","trial_index":7,"time_elapsed":82388,"internal_node_id":"0.0-4.0-0.0","subject_id":"5f8d5fc960f84702a6041945","study_id":"6197b3f67c2b5cd3b6d9596a","session_id":"6197bc6b9db5ad53d966d3c2","condition":"contingent","relevant_dimensions":["pattern","legs"],"bee_group":{"antennae":"X","wings":"X","pattern":"D","legs":"F"},"action":"harvest","summary":"good-harvest","bonus":1.300000000000001},{"rt":4384.800000011921,"stimulus":"\n                    <p><b>Action: <em>harvest</em></b></p>\n                    <p>This is the bee that you just saw.</p>\n                    <img src=\"bees-with-color/bee-B2DM.svg\" width=\"200\">\n                    <p><span class=\"greenText\"><b>Successful harvest!</b></span><br>Your pay has increased by $0.02. Your bonus pay is now $0.56.</p>\n            ","response":0,"trial_type":"html-button-response","trial_index":8,"time_elapsed":86776,"internal_node_id":"0.0-4.0-1.0","subject_id":"5f8d5fc960f84702a6041945","study_id":"6197b3f67c2b5cd3b6d9596a","session_id":"6197bc6b9db5ad53d966d3c2","condition":"contingent","relevant_dimensions":["pattern","legs"],"bee_group":{"antennae":"X","wings":"X","pattern":"D","legs":"F"},"bonus":1.300000000000001},{"rt":4655.200000047684,"stimulus":"bees-with-color/bee-A1SF.svg","response":1,"trial_type":"image-button-response","trial_index":9,"time_elapsed":91434,"internal_node_id":"0.0-4.0-0.1","subject_id":"5f8d5fc960f84702a6041945","study_id":"6197b3f67c2b5cd3b6d9596a","session_id":"6197bc6b9db5ad53d966d3c2","condition":"contingent","relevant_dimensions":["pattern","legs"],"bee_group":{"antennae":"X","wings":"X","pattern":"D","legs":"F"},"action":"avoid","summary":"bad-avoid","bonus":1.300000000000001},{"rt":1593.1000000238419,"stimulus":"\n                    <p><b>Action: <em>avoid</em></b></p>\n                    <p>This is the bee that you just saw.</p>\n                    <img src=\"bees-with-color/bee-A1SF.svg\" width=\"200\">\n                    <p><br>Your bonus pay is unchanged, and remains at $0.56.</p>\n            ","response":0,"trial_type":"html-button-response","trial_index":10,"time_elapsed":93029,"internal_node_id":"0.0-4.0-1.1","subject_id":"5f8d5fc960f84702a6041945","study_id":"6197b3f67c2b5cd3b6d9596a","session_id":"6197bc6b9db5ad53d966d3c2","condition":"contingent","relevant_dimensions":["pattern","legs"],"bee_group":{"antennae":"X","wings":"X","pattern":"D","legs":"F"},"bonus":1.300000000000001},{"rt":2346.699999988079,"stimulus":"bees-with-color/bee-B1SM.svg","response":0,"trial_type":"image-button-response","trial_index":11,"time_elapsed":95378,"internal_node_id":"0.0-4.0-0.2","subject_id":"5f8d5fc960f84702a6041945","study_id":"6197b3f67c2b5cd3b6d9596a","session_id":"6197bc6b9db5ad53d966d3c2","condition":"contingent","relevant_dimensions":["pattern","legs"],"bee_group":{"antennae":"X","wings":"X","pattern":"D","legs":"F"},"action":"harvest","summary":"good-harvest","bonus":1.300000000000001},{"rt":5361.699999988079,"stimulus":"\n                    <p><b>Action: <em>harvest</em></b></p>\n                    <p>This is the bee that you just saw.</p>\n                    <img src=\"bees-with-color/bee-B1SM.svg\" width=\"200\">\n                    <p><span class=\"greenText\"><b>Successful harvest!</b></span><br>Your pay has increased by $0.02. Your bonus pay is now $0.58.</p>\n            ","response":0,"trial_type":"html-button-response","trial_index":12,"time_elapsed":100742,"internal_node_id":"0.0-4.0-1.2","subject_id":"5f8d5fc960f84702a6041945","study_id":"6197b3f67c2b5cd3b6d9596a","session_id":"6197bc6b9db5ad53d966d3c2","condition":"contingent","relevant_dimensions":["pattern","legs"],"bee_group":{"antennae":"X","wings":"X","pattern":"D","legs":"F"},"bonus":1.300000000000001},{"rt":3152.300000011921,"stimulus":"bees-with-color/bee-A2DM.svg","response":0,"trial_type":"image-button-response","trial_index":13,"time_elapsed":103896,"internal_node_id":"0.0-4.0-0.3","subject_id":"5f8d5fc960f84702a6041945","study_id":"6197b3f67c2b5cd3b6d9596a","session_id":"6197bc6b9db5ad53d966d3c2","condition":"contingent","relevant_dimensions":["pattern","legs"],"bee_group":{"antennae":"X","wings":"X","pattern":"D","legs":"F"},"action":"harvest","summary":"good-harvest","bonus":1.300000000000001},{"rt":3988.2000000476837,"stimulus":"\n                    <p><b>Action: <em>harvest</em></b></p>\n                    <p>This is the bee that you just saw.</p>\n                    <img src=\"bees-with-color/bee-A2DM.svg\" width=\"200\">\n                    <p><span class=\"greenText\"><b>Successful harvest!</b></span><br>Your pay has increased by $0.02. Your bonus pay is now $0.60.</p>\n            ","response":0,"trial_type":"html-button-response","trial_index":14,"time_elapsed":107885,"internal_node_id":"0.0-4.0-1.3","subject_id":"5f8d5fc960f84702a6041945","study_id":"6197b3f67c2b5cd3b6d9596a","session_id":"6197bc6b9db5ad53d966d3c2","condition":"contingent","relevant_dimensions":["pattern","legs"],"bee_group":{"antennae":"X","wings":"X","pattern":"D","legs":"F"},"bonus":1.300000000000001},{"rt":1732,"stimulus":"bees-with-color/bee-A2SF.svg","response":1,"trial_type":"image-button-response","trial_index":15,"time_elapsed":109619,"internal_node_id":"0.0-4.0-0.4","subject_id":"5f8d5fc960f84702a6041945","study_id":"6197b3f67c2b5cd3b6d9596a","session_id":"6197bc6b9db5ad53d966d3c2","condition":"contingent","relevant_dimensions":["pattern","legs"],"bee_group":{"antennae":"X","wings":"X","pattern":"D","legs":"F"},"action":"avoid","summary":"bad-avoid","bonus":1.300000000000001},{"rt":487.69999998807907,"stimulus":"\n                    <p><b>Action: <em>avoid</em></b></p>\n                    <p>This is the bee that you just saw.</p>\n                    <img src=\"bees-with-color/bee-A2SF.svg\" width=\"200\">\n                    <p><br>Your bonus pay is unchanged, and remains at $0.60.</p>\n            ","response":0,"trial_type":"html-button-response","trial_index":16,"time_elapsed":110108,"internal_node_id":"0.0-4.0-1.4","subject_id":"5f8d5fc960f84702a6041945","study_id":"6197b3f67c2b5cd3b6d9596a","session_id":"6197bc6b9db5ad53d966d3c2","condition":"contingent","relevant_dimensions":["pattern","legs"],"bee_group":{"antennae":"X","wings":"X","pattern":"D","legs":"F"},"bonus":1.300000000000001},{"rt":3717.199999988079,"stimulus":"bees-with-color/bee-B2DF.svg","response":0,"trial_type":"image-button-response","trial_index":17,"time_elapsed":113827,"internal_node_id":"0.0-4.0-0.5","subject_id":"5f8d5fc960f84702a6041945","study_id":"6197b3f67c2b5cd3b6d9596a","session_id":"6197bc6b9db5ad53d966d3c2","condition":"contingent","relevant_dimensions":["pattern","legs"],"bee_group":{"antennae":"X","wings":"X","pattern":"D","legs":"F"},"action":"harvest","summary":"bad-harvest","bonus":1.300000000000001},{"rt":5404.599999964237,"stimulus":"\n                    <p><b>Action: <em>harvest</em></b></p>\n                    <p>This is the bee that you just saw.</p>\n                    <img src=\"bees-with-color/bee-B2DF.svg\" width=\"200\">\n                    <p><span class=\"redText\">Bad choice, the bee was angry.</span><br><b>You have been stung!</b><br>Your pay has been decreased by $0.10. Your bonus pay is now $0.50.</p>\n            ","response":0,"trial_type":"html-button-response","trial_index":18,"time_elapsed":119233,"internal_node_id":"0.0-4.0-1.5","subject_id":"5f8d5fc960f84702a6041945","study_id":"6197b3f67c2b5cd3b6d9596a","session_id":"6197bc6b9db5ad53d966d3c2","condition":"contingent","relevant_dimensions":["pattern","legs"],"bee_group":{"antennae":"X","wings":"X","pattern":"D","legs":"F"},"bonus":1.300000000000001},{"rt":1436.800000011921,"stimulus":"bees-with-color/bee-B2SM.svg","response":0,"trial_type":"image-button-response","trial_index":19,"time_elapsed":120672,"internal_node_id":"0.0-4.0-0.6","subject_id":"5f8d5fc960f84702a6041945","study_id":"6197b3f67c2b5cd3b6d9596a","session_id":"6197bc6b9db5ad53d966d3c2","condition":"contingent","relevant_dimensions":["pattern","legs"],"bee_group":{"antennae":"X","wings":"X","pattern":"D","legs":"F"},"action":"harvest","summary":"good-harvest","bonus":1.300000000000001},{"rt":815.8999999761581,"stimulus":"\n                    <p><b>Action: <em>harvest</em></b></p>\n                    <p>This is the bee that you just saw.</p>\n                    <img src=\"bees-with-color/bee-B2SM.svg\" width=\"200\">\n                    <p><span class=\"greenText\"><b>Successful harvest!</b></span><br>Your pay has increased by $0.02. Your bonus pay is now $0.52.</p>\n            ","response":0,"trial_type":"html-button-response","trial_index":20,"time_elapsed":121490,"internal_node_id":"0.0-4.0-1.6","subject_id":"5f8d5fc960f84702a6041945","study_id":"6197b3f67c2b5cd3b6d9596a","session_id":"6197bc6b9db5ad53d966d3c2","condition":"contingent","relevant_dimensions":["pattern","legs"],"bee_group":{"antennae":"X","wings":"X","pattern":"D","legs":"F"},"bonus":1.300000000000001},{"rt":1201.5,"stimulus":"bees-with-color/bee-B1DF.svg","response":1,"trial_type":"image-button-response","trial_index":21,"time_elapsed":122693,"internal_node_id":"0.0-4.0-0.7","subject_id":"5f8d5fc960f84702a6041945","study_id":"6197b3f67c2b5cd3b6d9596a","session_id":"6197bc6b9db5ad53d966d3c2","condition":"contingent","relevant_dimensions":["pattern","legs"],"bee_group":{"antennae":"X","wings":"X","pattern":"D","legs":"F"},"action":"avoid","summary":"good-avoid","bonus":1.300000000000001},{"rt":1084.5,"stimulus":"\n                    <p><b>Action: <em>avoid</em></b></p>\n                    <p>This is the bee that you just saw.</p>\n                    <img src=\"bees-with-color/bee-B1DF.svg\" width=\"200\">\n                    <p><br>Your bonus pay is unchanged, and remains at $0.52.</p>\n            ","response":0,"trial_type":"html-button-response","trial_index":22,"time_elapsed":123779,"internal_node_id":"0.0-4.0-1.7","subject_id":"5f8d5fc960f84702a6041945","study_id":"6197b3f67c2b5cd3b6d9596a","session_id":"6197bc6b9db5ad53d966d3c2","condition":"contingent","relevant_dimensions":["pattern","legs"],"bee_group":{"antennae":"X","wings":"X","pattern":"D","legs":"F"},"bonus":1.300000000000001},{"rt":1295.5,"stimulus":"bees-with-color/bee-B1SF.svg","response":1,"trial_type":"image-button-response","trial_index":23,"time_elapsed":125076,"internal_node_id":"0.0-4.0-0.8","subject_id":"5f8d5fc960f84702a6041945","study_id":"6197b3f67c2b5cd3b6d9596a","session_id":"6197bc6b9db5ad53d966d3c2","condition":"contingent","relevant_dimensions":["pattern","legs"],"bee_group":{"antennae":"X","wings":"X","pattern":"D","legs":"F"},"action":"avoid","summary":"bad-avoid","bonus":1.300000000000001},{"rt":376.19999998807907,"stimulus":"\n                    <p><b>Action: <em>avoid</em></b></p>\n                    <p>This is the bee that you just saw.</p>\n                    <img src=\"bees-with-color/bee-B1SF.svg\" width=\"200\">\n                    <p><br>Your bonus pay is unchanged, and remains at $0.52.</p>\n            ","response":0,"trial_type":"html-button-response","trial_index":24,"time_elapsed":125454,"internal_node_id":"0.0-4.0-1.8","subject_id":"5f8d5fc960f84702a6041945","study_id":"6197b3f67c2b5cd3b6d9596a","session_id":"6197bc6b9db5ad53d966d3c2","condition":"contingent","relevant_dimensions":["pattern","legs"],"bee_group":{"antennae":"X","wings":"X","pattern":"D","legs":"F"},"bonus":1.300000000000001},{"rt":949.8999999761581,"stimulus":"bees-with-color/bee-A1SM.svg","response":0,"trial_type":"image-button-response","trial_index":25,"time_elapsed":126405,"internal_node_id":"0.0-4.0-0.9","subject_id":"5f8d5fc960f84702a6041945","study_id":"6197b3f67c2b5cd3b6d9596a","session_id":"6197bc6b9db5ad53d966d3c2","condition":"contingent","relevant_dimensions":["pattern","legs"],"bee_group":{"antennae":"X","wings":"X","pattern":"D","legs":"F"},"action":"harvest","summary":"good-harvest","bonus":1.300000000000001},{"rt":540.5,"stimulus":"\n                    <p><b>Action: <em>harvest</em></b></p>\n                    <p>This is the bee that you just saw.</p>\n                    <img src=\"bees-with-color/bee-A1SM.svg\" width=\"200\">\n                    <p><span class=\"greenText\"><b>Successful harvest!</b></span><br>Your pay has increased by $0.02. Your bonus pay is now $0.54.</p>\n            ","response":0,"trial_type":"html-button-response","trial_index":26,"time_elapsed":126947,"internal_node_id":"0.0-4.0-1.9","subject_id":"5f8d5fc960f84702a6041945","study_id":"6197b3f67c2b5cd3b6d9596a","session_id":"6197bc6b9db5ad53d966d3c2","condition":"contingent","relevant_dimensions":["pattern","legs"],"bee_group":{"antennae":"X","wings":"X","pattern":"D","legs":"F"},"bonus":1.300000000000001},{"rt":798.6000000238419,"stimulus":"bees-with-color/bee-A1DF.svg","response":1,"trial_type":"image-button-response","trial_index":27,"time_elapsed":127747,"internal_node_id":"0.0-4.0-0.10","subject_id":"5f8d5fc960f84702a6041945","study_id":"6197b3f67c2b5cd3b6d9596a","session_id":"6197bc6b9db5ad53d966d3c2","condition":"contingent","relevant_dimensions":["pattern","legs"],"bee_group":{"antennae":"X","wings":"X","pattern":"D","legs":"F"},"action":"avoid","summary":"good-avoid","bonus":1.300000000000001},{"rt":442.80000001192093,"stimulus":"\n                    <p><b>Action: <em>avoid</em></b></p>\n                    <p>This is the bee that you just saw.</p>\n                    <img src=\"bees-with-color/bee-A1DF.svg\" width=\"200\">\n                    <p><br>Your bonus pay is unchanged, and remains at $0.54.</p>\n            ","response":0,"trial_type":"html-button-response","trial_index":28,"time_elapsed":128191,"internal_node_id":"0.0-4.0-1.10","subject_id":"5f8d5fc960f84702a6041945","study_id":"6197b3f67c2b5cd3b6d9596a","session_id":"6197bc6b9db5ad53d966d3c2","condition":"contingent","relevant_dimensions":["pattern","legs"],"bee_group":{"antennae":"X","wings":"X","pattern":"D","legs":"F"},"bonus":1.300000000000001},{"rt":1413.699999988079,"stimulus":"bees-with-color/bee-B2SF.svg","response":1,"trial_type":"image-button-response","trial_index":29,"time_elapsed":129606,"internal_node_id":"0.0-4.0-0.11","subject_id":"5f8d5fc960f84702a6041945","study_id":"6197b3f67c2b5cd3b6d9596a","session_id":"6197bc6b9db5ad53d966d3c2","condition":"contingent","relevant_dimensions":["pattern","legs"],"bee_group":{"antennae":"X","wings":"X","pattern":"D","legs":"F"},"action":"avoid","summary":"bad-avoid","bonus":1.300000000000001},{"rt":647.3000000119209,"stimulus":"\n                    <p><b>Action: <em>avoid</em></b></p>\n                    <p>This is the bee that you just saw.</p>\n                    <img src=\"bees-with-color/bee-B2SF.svg\" width=\"200\">\n                    <p><br>Your bonus pay is unchanged, and remains at $0.54.</p>\n            ","response":0,"trial_type":"html-button-response","trial_index":30,"time_elapsed":130254,"internal_node_id":"0.0-4.0-1.11","subject_id":"5f8d5fc960f84702a6041945","study_id":"6197b3f67c2b5cd3b6d9596a","session_id":"6197bc6b9db5ad53d966d3c2","condition":"contingent","relevant_dimensions":["pattern","legs"],"bee_group":{"antennae":"X","wings":"X","pattern":"D","legs":"F"},"bonus":1.300000000000001},{"rt":3053,"stimulus":"bees-with-color/bee-A1DM.svg","response":0,"trial_type":"image-button-response","trial_index":31,"time_elapsed":133309,"internal_node_id":"0.0-4.0-0.12","subject_id":"5f8d5fc960f84702a6041945","study_id":"6197b3f67c2b5cd3b6d9596a","session_id":"6197bc6b9db5ad53d966d3c2","condition":"contingent","relevant_dimensions":["pattern","legs"],"bee_group":{"antennae":"X","wings":"X","pattern":"D","legs":"F"},"action":"harvest","summary":"good-harvest","bonus":1.300000000000001},{"rt":702.5,"stimulus":"\n                    <p><b>Action: <em>harvest</em></b></p>\n                    <p>This is the bee that you just saw.</p>\n                    <img src=\"bees-with-color/bee-A1DM.svg\" width=\"200\">\n                    <p><span class=\"greenText\"><b>Successful harvest!</b></span><br>Your pay has increased by $0.02. Your bonus pay is now $0.56.</p>\n            ","response":0,"trial_type":"html-button-response","trial_index":32,"time_elapsed":134013,"internal_node_id":"0.0-4.0-1.12","subject_id":"5f8d5fc960f84702a6041945","study_id":"6197b3f67c2b5cd3b6d9596a","session_id":"6197bc6b9db5ad53d966d3c2","condition":"contingent","relevant_dimensions":["pattern","legs"],"bee_group":{"antennae":"X","wings":"X","pattern":"D","legs":"F"},"bonus":1.300000000000001},{"rt":902.3000000119209,"stimulus":"bees-with-color/bee-B1DM.svg","response":0,"trial_type":"image-button-response","trial_index":33,"time_elapsed":134917,"internal_node_id":"0.0-4.0-0.13","subject_id":"5f8d5fc960f84702a6041945","study_id":"6197b3f67c2b5cd3b6d9596a","session_id":"6197bc6b9db5ad53d966d3c2","condition":"contingent","relevant_dimensions":["pattern","legs"],"bee_group":{"antennae":"X","wings":"X","pattern":"D","legs":"F"},"action":"harvest","summary":"good-harvest","bonus":1.300000000000001},{"rt":455.69999998807907,"stimulus":"\n                    <p><b>Action: <em>harvest</em></b></p>\n                    <p>This is the bee that you just saw.</p>\n                    <img src=\"bees-with-color/bee-B1DM.svg\" width=\"200\">\n                    <p><span class=\"greenText\"><b>Successful harvest!</b></span><br>Your pay has increased by $0.02. Your bonus pay is now $0.58.</p>\n            ","response":0,"trial_type":"html-button-response","trial_index":34,"time_elapsed":135374,"internal_node_id":"0.0-4.0-1.13","subject_id":"5f8d5fc960f84702a6041945","study_id":"6197b3f67c2b5cd3b6d9596a","session_id":"6197bc6b9db5ad53d966d3c2","condition":"contingent","relevant_dimensions":["pattern","legs"],"bee_group":{"antennae":"X","wings":"X","pattern":"D","legs":"F"},"bonus":1.300000000000001},{"rt":1210.9000000357628,"stimulus":"bees-with-color/bee-A2DF.svg","response":1,"trial_type":"image-button-response","trial_index":35,"time_elapsed":136586,"internal_node_id":"0.0-4.0-0.14","subject_id":"5f8d5fc960f84702a6041945","study_id":"6197b3f67c2b5cd3b6d9596a","session_id":"6197bc6b9db5ad53d966d3c2","condition":"contingent","relevant_dimensions":["pattern","legs"],"bee_group":{"antennae":"X","wings":"X","pattern":"D","legs":"F"},"action":"avoid","summary":"good-avoid","bonus":1.300000000000001},{"rt":546.5999999642372,"stimulus":"\n                    <p><b>Action: <em>avoid</em></b></p>\n                    <p>This is the bee that you just saw.</p>\n                    <img src=\"bees-with-color/bee-A2DF.svg\" width=\"200\">\n                    <p><br>Your bonus pay is unchanged, and remains at $0.58.</p>\n            ","response":0,"trial_type":"html-button-response","trial_index":36,"time_elapsed":137134,"internal_node_id":"0.0-4.0-1.14","subject_id":"5f8d5fc960f84702a6041945","study_id":"6197b3f67c2b5cd3b6d9596a","session_id":"6197bc6b9db5ad53d966d3c2","condition":"contingent","relevant_dimensions":["pattern","legs"],"bee_group":{"antennae":"X","wings":"X","pattern":"D","legs":"F"},"bonus":1.300000000000001},{"rt":480.4000000357628,"stimulus":"bees-with-color/bee-A2SM.svg","response":0,"trial_type":"image-button-response","trial_index":37,"time_elapsed":137616,"internal_node_id":"0.0-4.0-0.15","subject_id":"5f8d5fc960f84702a6041945","study_id":"6197b3f67c2b5cd3b6d9596a","session_id":"6197bc6b9db5ad53d966d3c2","condition":"contingent","relevant_dimensions":["pattern","legs"],"bee_group":{"antennae":"X","wings":"X","pattern":"D","legs":"F"},"action":"harvest","summary":"good-harvest","bonus":1.300000000000001},{"rt":489.60000002384186,"stimulus":"\n                    <p><b>Action: <em>harvest</em></b></p>\n                    <p>This is the bee that you just saw.</p>\n                    <img src=\"bees-with-color/bee-A2SM.svg\" width=\"200\">\n                    <p><span class=\"greenText\"><b>Successful harvest!</b></span><br>Your pay has increased by $0.02. Your bonus pay is now $0.60.</p>\n            ","response":0,"trial_type":"html-button-response","trial_index":38,"time_elapsed":138107,"internal_node_id":"0.0-4.0-1.15","subject_id":"5f8d5fc960f84702a6041945","study_id":"6197b3f67c2b5cd3b6d9596a","session_id":"6197bc6b9db5ad53d966d3c2","condition":"contingent","relevant_dimensions":["pattern","legs"],"bee_group":{"antennae":"X","wings":"X","pattern":"D","legs":"F"},"bonus":1.300000000000001},{"rt":720.0999999642372,"stimulus":"bees-with-color/bee-A2SF.svg","response":1,"trial_type":"image-button-response","trial_index":39,"time_elapsed":138828,"internal_node_id":"0.0-4.0-0.16","subject_id":"5f8d5fc960f84702a6041945","study_id":"6197b3f67c2b5cd3b6d9596a","session_id":"6197bc6b9db5ad53d966d3c2","condition":"contingent","relevant_dimensions":["pattern","legs"],"bee_group":{"antennae":"X","wings":"X","pattern":"D","legs":"F"},"action":"avoid","summary":"bad-avoid","bonus":1.300000000000001},{"rt":432.80000001192093,"stimulus":"\n                    <p><b>Action: <em>avoid</em></b></p>\n                    <p>This is the bee that you just saw.</p>\n                    <img src=\"bees-with-color/bee-A2SF.svg\" width=\"200\">\n                    <p><br>Your bonus pay is unchanged, and remains at $0.60.</p>\n            ","response":0,"trial_type":"html-button-response","trial_index":40,"time_elapsed":139263,"internal_node_id":"0.0-4.0-1.16","subject_id":"5f8d5fc960f84702a6041945","study_id":"6197b3f67c2b5cd3b6d9596a","session_id":"6197bc6b9db5ad53d966d3c2","condition":"contingent","relevant_dimensions":["pattern","legs"],"bee_group":{"antennae":"X","wings":"X","pattern":"D","legs":"F"},"bonus":1.300000000000001},{"rt":618.7000000476837,"stimulus":"bees-with-color/bee-B1SF.svg","response":1,"trial_type":"image-button-response","trial_index":41,"time_elapsed":139882,"internal_node_id":"0.0-4.0-0.17","subject_id":"5f8d5fc960f84702a6041945","study_id":"6197b3f67c2b5cd3b6d9596a","session_id":"6197bc6b9db5ad53d966d3c2","condition":"contingent","relevant_dimensions":["pattern","legs"],"bee_group":{"antennae":"X","wings":"X","pattern":"D","legs":"F"},"action":"avoid","summary":"bad-avoid","bonus":1.300000000000001},{"rt":330.5,"stimulus":"\n                    <p><b>Action: <em>avoid</em></b></p>\n                    <p>This is the bee that you just saw.</p>\n                    <img src=\"bees-with-color/bee-B1SF.svg\" width=\"200\">\n                    <p><br>Your bonus pay is unchanged, and remains at $0.60.</p>\n            ","response":0,"trial_type":"html-button-response","trial_index":42,"time_elapsed":140214,"internal_node_id":"0.0-4.0-1.17","subject_id":"5f8d5fc960f84702a6041945","study_id":"6197b3f67c2b5cd3b6d9596a","session_id":"6197bc6b9db5ad53d966d3c2","condition":"contingent","relevant_dimensions":["pattern","legs"],"bee_group":{"antennae":"X","wings":"X","pattern":"D","legs":"F"},"bonus":1.300000000000001},{"rt":2228.800000011921,"stimulus":"bees-with-color/bee-B2SF.svg","response":1,"trial_type":"image-button-response","trial_index":43,"time_elapsed":142444,"internal_node_id":"0.0-4.0-0.18","subject_id":"5f8d5fc960f84702a6041945","study_id":"6197b3f67c2b5cd3b6d9596a","session_id":"6197bc6b9db5ad53d966d3c2","condition":"contingent","relevant_dimensions":["pattern","legs"],"bee_group":{"antennae":"X","wings":"X","pattern":"D","legs":"F"},"action":"avoid","summary":"bad-avoid","bonus":1.300000000000001},{"rt":435.7000000476837,"stimulus":"\n                    <p><b>Action: <em>avoid</em></b></p>\n                    <p>This is the bee that you just saw.</p>\n                    <img src=\"bees-with-color/bee-B2SF.svg\" width=\"200\">\n                    <p><br>Your bonus pay is unchanged, and remains at $0.60.</p>\n            ","response":0,"trial_type":"html-button-response","trial_index":44,"time_elapsed":142881,"internal_node_id":"0.0-4.0-1.18","subject_id":"5f8d5fc960f84702a6041945","study_id":"6197b3f67c2b5cd3b6d9596a","session_id":"6197bc6b9db5ad53d966d3c2","condition":"contingent","relevant_dimensions":["pattern","legs"],"bee_group":{"antennae":"X","wings":"X","pattern":"D","legs":"F"},"bonus":1.300000000000001},{"rt":858.8000000119209,"stimulus":"bees-with-color/bee-A1DF.svg","response":1,"trial_type":"image-button-response","trial_index":45,"time_elapsed":143742,"internal_node_id":"0.0-4.0-0.19","subject_id":"5f8d5fc960f84702a6041945","study_id":"6197b3f67c2b5cd3b6d9596a","session_id":"6197bc6b9db5ad53d966d3c2","condition":"contingent","relevant_dimensions":["pattern","legs"],"bee_group":{"antennae":"X","wings":"X","pattern":"D","legs":"F"},"action":"avoid","summary":"good-avoid","bonus":1.300000000000001},{"rt":352.5,"stimulus":"\n                    <p><b>Action: <em>avoid</em></b></p>\n                    <p>This is the bee that you just saw.</p>\n                    <img src=\"bees-with-color/bee-A1DF.svg\" width=\"200\">\n                    <p><br>Your bonus pay is unchanged, and remains at $0.60.</p>\n            ","response":0,"trial_type":"html-button-response","trial_index":46,"time_elapsed":144096,"internal_node_id":"0.0-4.0-1.19","subject_id":"5f8d5fc960f84702a6041945","study_id":"6197b3f67c2b5cd3b6d9596a","session_id":"6197bc6b9db5ad53d966d3c2","condition":"contingent","relevant_dimensions":["pattern","legs"],"bee_group":{"antennae":"X","wings":"X","pattern":"D","legs":"F"},"bonus":1.300000000000001},{"rt":437.19999998807907,"stimulus":"bees-with-color/bee-A1SM.svg","response":0,"trial_type":"image-button-response","trial_index":47,"time_elapsed":144534,"internal_node_id":"0.0-4.0-0.20","subject_id":"5f8d5fc960f84702a6041945","study_id":"6197b3f67c2b5cd3b6d9596a","session_id":"6197bc6b9db5ad53d966d3c2","condition":"contingent","relevant_dimensions":["pattern","legs"],"bee_group":{"antennae":"X","wings":"X","pattern":"D","legs":"F"},"action":"harvest","summary":"good-harvest","bonus":1.300000000000001},{"rt":396.5999999642372,"stimulus":"\n                    <p><b>Action: <em>harvest</em></b></p>\n                    <p>This is the bee that you just saw.</p>\n                    <img src=\"bees-with-color/bee-A1SM.svg\" width=\"200\">\n                    <p><span class=\"greenText\"><b>Successful harvest!</b></span><br>Your pay has increased by $0.02. Your bonus pay is now $0.62.</p>\n            ","response":0,"trial_type":"html-button-response","trial_index":48,"time_elapsed":144932,"internal_node_id":"0.0-4.0-1.20","subject_id":"5f8d5fc960f84702a6041945","study_id":"6197b3f67c2b5cd3b6d9596a","session_id":"6197bc6b9db5ad53d966d3c2","condition":"contingent","relevant_dimensions":["pattern","legs"],"bee_group":{"antennae":"X","wings":"X","pattern":"D","legs":"F"},"bonus":1.300000000000001},{"rt":523.5,"stimulus":"bees-with-color/bee-B1SM.svg","response":0,"trial_type":"image-button-response","trial_index":49,"time_elapsed":145457,"internal_node_id":"0.0-4.0-0.21","subject_id":"5f8d5fc960f84702a6041945","study_id":"6197b3f67c2b5cd3b6d9596a","session_id":"6197bc6b9db5ad53d966d3c2","condition":"contingent","relevant_dimensions":["pattern","legs"],"bee_group":{"antennae":"X","wings":"X","pattern":"D","legs":"F"},"action":"harvest","summary":"good-harvest","bonus":1.300000000000001},{"rt":367.5999999642372,"stimulus":"\n                    <p><b>Action: <em>harvest</em></b></p>\n                    <p>This is the bee that you just saw.</p>\n                    <img src=\"bees-with-color/bee-B1SM.svg\" width=\"200\">\n                    <p><span class=\"greenText\"><b>Successful harvest!</b></span><br>Your pay has increased by $0.02. Your bonus pay is now $0.64.</p>\n            ","response":0,"trial_type":"html-button-response","trial_index":50,"time_elapsed":145826,"internal_node_id":"0.0-4.0-1.21","subject_id":"5f8d5fc960f84702a6041945","study_id":"6197b3f67c2b5cd3b6d9596a","session_id":"6197bc6b9db5ad53d966d3c2","condition":"contingent","relevant_dimensions":["pattern","legs"],"bee_group":{"antennae":"X","wings":"X","pattern":"D","legs":"F"},"bonus":1.300000000000001},{"rt":646.3000000119209,"stimulus":"bees-with-color/bee-A1DM.svg","response":0,"trial_type":"image-button-response","trial_index":51,"time_elapsed":146473,"internal_node_id":"0.0-4.0-0.22","subject_id":"5f8d5fc960f84702a6041945","study_id":"6197b3f67c2b5cd3b6d9596a","session_id":"6197bc6b9db5ad53d966d3c2","condition":"contingent","relevant_dimensions":["pattern","legs"],"bee_group":{"antennae":"X","wings":"X","pattern":"D","legs":"F"},"action":"harvest","summary":"good-harvest","bonus":1.300000000000001},{"rt":393.2999999523163,"stimulus":"\n                    <p><b>Action: <em>harvest</em></b></p>\n                    <p>This is the bee that you just saw.</p>\n                    <img src=\"bees-with-color/bee-A1DM.svg\" width=\"200\">\n                    <p><span class=\"greenText\"><b>Successful harvest!</b></span><br>Your pay has increased by $0.02. Your bonus pay is now $0.66.</p>\n            ","response":0,"trial_type":"html-button-response","trial_index":52,"time_elapsed":146868,"internal_node_id":"0.0-4.0-1.22","subject_id":"5f8d5fc960f84702a6041945","study_id":"6197b3f67c2b5cd3b6d9596a","session_id":"6197bc6b9db5ad53d966d3c2","condition":"contingent","relevant_dimensions":["pattern","legs"],"bee_group":{"antennae":"X","wings":"X","pattern":"D","legs":"F"},"bonus":1.300000000000001},{"rt":630.1999999880791,"stimulus":"bees-with-color/bee-B2DF.svg","response":1,"trial_type":"image-button-response","trial_index":53,"time_elapsed":147500,"internal_node_id":"0.0-4.0-0.23","subject_id":"5f8d5fc960f84702a6041945","study_id":"6197b3f67c2b5cd3b6d9596a","session_id":"6197bc6b9db5ad53d966d3c2","condition":"contingent","relevant_dimensions":["pattern","legs"],"bee_group":{"antennae":"X","wings":"X","pattern":"D","legs":"F"},"action":"avoid","summary":"good-avoid","bonus":1.300000000000001},{"rt":339.60000002384186,"stimulus":"\n                    <p><b>Action: <em>avoid</em></b></p>\n                    <p>This is the bee that you just saw.</p>\n                    <img src=\"bees-with-color/bee-B2DF.svg\" width=\"200\">\n                    <p><br>Your bonus pay is unchanged, and remains at $0.66.</p>\n            ","response":0,"trial_type":"html-button-response","trial_index":54,"time_elapsed":147841,"internal_node_id":"0.0-4.0-1.23","subject_id":"5f8d5fc960f84702a6041945","study_id":"6197b3f67c2b5cd3b6d9596a","session_id":"6197bc6b9db5ad53d966d3c2","condition":"contingent","relevant_dimensions":["pattern","legs"],"bee_group":{"antennae":"X","wings":"X","pattern":"D","legs":"F"},"bonus":1.300000000000001},{"rt":509.69999998807907,"stimulus":"bees-with-color/bee-B2DM.svg","response":0,"trial_type":"image-button-response","trial_index":55,"time_elapsed":148352,"internal_node_id":"0.0-4.0-0.24","subject_id":"5f8d5fc960f84702a6041945","study_id":"6197b3f67c2b5cd3b6d9596a","session_id":"6197bc6b9db5ad53d966d3c2","condition":"contingent","relevant_dimensions":["pattern","legs"],"bee_group":{"antennae":"X","wings":"X","pattern":"D","legs":"F"},"action":"harvest","summary":"good-harvest","bonus":1.300000000000001},{"rt":526.6999999880791,"stimulus":"\n                    <p><b>Action: <em>harvest</em></b></p>\n                    <p>This is the bee that you just saw.</p>\n                    <img src=\"bees-with-color/bee-B2DM.svg\" width=\"200\">\n                    <p><span class=\"greenText\"><b>Successful harvest!</b></span><br>Your pay has increased by $0.02. Your bonus pay is now $0.68.</p>\n            ","response":0,"trial_type":"html-button-response","trial_index":56,"time_elapsed":148880,"internal_node_id":"0.0-4.0-1.24","subject_id":"5f8d5fc960f84702a6041945","study_id":"6197b3f67c2b5cd3b6d9596a","session_id":"6197bc6b9db5ad53d966d3c2","condition":"contingent","relevant_dimensions":["pattern","legs"],"bee_group":{"antennae":"X","wings":"X","pattern":"D","legs":"F"},"bonus":1.300000000000001},{"rt":671,"stimulus":"bees-with-color/bee-B2SM.svg","response":0,"trial_type":"image-button-response","trial_index":57,"time_elapsed":149552,"internal_node_id":"0.0-4.0-0.25","subject_id":"5f8d5fc960f84702a6041945","study_id":"6197b3f67c2b5cd3b6d9596a","session_id":"6197bc6b9db5ad53d966d3c2","condition":"contingent","relevant_dimensions":["pattern","legs"],"bee_group":{"antennae":"X","wings":"X","pattern":"D","legs":"F"},"action":"harvest","summary":"good-harvest","bonus":1.300000000000001},{"rt":527.8000000119209,"stimulus":"\n                    <p><b>Action: <em>harvest</em></b></p>\n                    <p>This is the bee that you just saw.</p>\n                    <img src=\"bees-with-color/bee-B2SM.svg\" width=\"200\">\n                    <p><span class=\"greenText\"><b>Successful harvest!</b></span><br>Your pay has increased by $0.02. Your bonus pay is now $0.70.</p>\n            ","response":0,"trial_type":"html-button-response","trial_index":58,"time_elapsed":150081,"internal_node_id":"0.0-4.0-1.25","subject_id":"5f8d5fc960f84702a6041945","study_id":"6197b3f67c2b5cd3b6d9596a","session_id":"6197bc6b9db5ad53d966d3c2","condition":"contingent","relevant_dimensions":["pattern","legs"],"bee_group":{"antennae":"X","wings":"X","pattern":"D","legs":"F"},"bonus":1.300000000000001},{"rt":783.2000000476837,"stimulus":"bees-with-color/bee-A2DM.svg","response":0,"trial_type":"image-button-response","trial_index":59,"time_elapsed":150866,"internal_node_id":"0.0-4.0-0.26","subject_id":"5f8d5fc960f84702a6041945","study_id":"6197b3f67c2b5cd3b6d9596a","session_id":"6197bc6b9db5ad53d966d3c2","condition":"contingent","relevant_dimensions":["pattern","legs"],"bee_group":{"antennae":"X","wings":"X","pattern":"D","legs":"F"},"action":"harvest","summary":"good-harvest","bonus":1.300000000000001},{"rt":372.5,"stimulus":"\n                    <p><b>Action: <em>harvest</em></b></p>\n                    <p>This is the bee that you just saw.</p>\n                    <img src=\"bees-with-color/bee-A2DM.svg\" width=\"200\">\n                    <p><span class=\"greenText\"><b>Successful harvest!</b></span><br>Your pay has increased by $0.02. Your bonus pay is now $0.72.</p>\n            ","response":0,"trial_type":"html-button-response","trial_index":60,"time_elapsed":151240,"internal_node_id":"0.0-4.0-1.26","subject_id":"5f8d5fc960f84702a6041945","study_id":"6197b3f67c2b5cd3b6d9596a","session_id":"6197bc6b9db5ad53d966d3c2","condition":"contingent","relevant_dimensions":["pattern","legs"],"bee_group":{"antennae":"X","wings":"X","pattern":"D","legs":"F"},"bonus":1.300000000000001},{"rt":496.80000001192093,"stimulus":"bees-with-color/bee-A2SM.svg","response":0,"trial_type":"image-button-response","trial_index":61,"time_elapsed":151738,"internal_node_id":"0.0-4.0-0.27","subject_id":"5f8d5fc960f84702a6041945","study_id":"6197b3f67c2b5cd3b6d9596a","session_id":"6197bc6b9db5ad53d966d3c2","condition":"contingent","relevant_dimensions":["pattern","legs"],"bee_group":{"antennae":"X","wings":"X","pattern":"D","legs":"F"},"action":"harvest","summary":"good-harvest","bonus":1.300000000000001},{"rt":383.89999997615814,"stimulus":"\n                    <p><b>Action: <em>harvest</em></b></p>\n                    <p>This is the bee that you just saw.</p>\n                    <img src=\"bees-with-color/bee-A2SM.svg\" width=\"200\">\n                    <p><span class=\"greenText\"><b>Successful harvest!</b></span><br>Your pay has increased by $0.02. Your bonus pay is now $0.74.</p>\n            ","response":0,"trial_type":"html-button-response","trial_index":62,"time_elapsed":152123,"internal_node_id":"0.0-4.0-1.27","subject_id":"5f8d5fc960f84702a6041945","study_id":"6197b3f67c2b5cd3b6d9596a","session_id":"6197bc6b9db5ad53d966d3c2","condition":"contingent","relevant_dimensions":["pattern","legs"],"bee_group":{"antennae":"X","wings":"X","pattern":"D","legs":"F"},"bonus":1.300000000000001},{"rt":936.8999999761581,"stimulus":"bees-with-color/bee-B1DM.svg","response":0,"trial_type":"image-button-response","trial_index":63,"time_elapsed":153061,"internal_node_id":"0.0-4.0-0.28","subject_id":"5f8d5fc960f84702a6041945","study_id":"6197b3f67c2b5cd3b6d9596a","session_id":"6197bc6b9db5ad53d966d3c2","condition":"contingent","relevant_dimensions":["pattern","legs"],"bee_group":{"antennae":"X","wings":"X","pattern":"D","legs":"F"},"action":"harvest","summary":"good-harvest","bonus":1.300000000000001},{"rt":448.5,"stimulus":"\n                    <p><b>Action: <em>harvest</em></b></p>\n                    <p>This is the bee that you just saw.</p>\n                    <img src=\"bees-with-color/bee-B1DM.svg\" width=\"200\">\n                    <p><span class=\"greenText\"><b>Successful harvest!</b></span><br>Your pay has increased by $0.02. Your bonus pay is now $0.76.</p>\n            ","response":0,"trial_type":"html-button-response","trial_index":64,"time_elapsed":153511,"internal_node_id":"0.0-4.0-1.28","subject_id":"5f8d5fc960f84702a6041945","study_id":"6197b3f67c2b5cd3b6d9596a","session_id":"6197bc6b9db5ad53d966d3c2","condition":"contingent","relevant_dimensions":["pattern","legs"],"bee_group":{"antennae":"X","wings":"X","pattern":"D","legs":"F"},"bonus":1.300000000000001},{"rt":687.8000000119209,"stimulus":"bees-with-color/bee-A1SF.svg","response":1,"trial_type":"image-button-response","trial_index":65,"time_elapsed":154200,"internal_node_id":"0.0-4.0-0.29","subject_id":"5f8d5fc960f84702a6041945","study_id":"6197b3f67c2b5cd3b6d9596a","session_id":"6197bc6b9db5ad53d966d3c2","condition":"contingent","relevant_dimensions":["pattern","legs"],"bee_group":{"antennae":"X","wings":"X","pattern":"D","legs":"F"},"action":"avoid","summary":"bad-avoid","bonus":1.300000000000001},{"rt":347.69999998807907,"stimulus":"\n                    <p><b>Action: <em>avoid</em></b></p>\n                    <p>This is the bee that you just saw.</p>\n                    <img src=\"bees-with-color/bee-A1SF.svg\" width=\"200\">\n                    <p><br>Your bonus pay is unchanged, and remains at $0.76.</p>\n            ","response":0,"trial_type":"html-button-response","trial_index":66,"time_elapsed":154549,"internal_node_id":"0.0-4.0-1.29","subject_id":"5f8d5fc960f84702a6041945","study_id":"6197b3f67c2b5cd3b6d9596a","session_id":"6197bc6b9db5ad53d966d3c2","condition":"contingent","relevant_dimensions":["pattern","legs"],"bee_group":{"antennae":"X","wings":"X","pattern":"D","legs":"F"},"bonus":1.300000000000001},{"rt":1017.6999999880791,"stimulus":"bees-with-color/bee-A2DF.svg","response":1,"trial_type":"image-button-response","trial_index":67,"time_elapsed":155568,"internal_node_id":"0.0-4.0-0.30","subject_id":"5f8d5fc960f84702a6041945","study_id":"6197b3f67c2b5cd3b6d9596a","session_id":"6197bc6b9db5ad53d966d3c2","condition":"contingent","relevant_dimensions":["pattern","legs"],"bee_group":{"antennae":"X","wings":"X","pattern":"D","legs":"F"},"action":"avoid","summary":"good-avoid","bonus":1.300000000000001},{"rt":307.5999999642372,"stimulus":"\n                    <p><b>Action: <em>avoid</em></b></p>\n                    <p>This is the bee that you just saw.</p>\n                    <img src=\"bees-with-color/bee-A2DF.svg\" width=\"200\">\n                    <p><br>Your bonus pay is unchanged, and remains at $0.76.</p>\n            ","response":0,"trial_type":"html-button-response","trial_index":68,"time_elapsed":155877,"internal_node_id":"0.0-4.0-1.30","subject_id":"5f8d5fc960f84702a6041945","study_id":"6197b3f67c2b5cd3b6d9596a","session_id":"6197bc6b9db5ad53d966d3c2","condition":"contingent","relevant_dimensions":["pattern","legs"],"bee_group":{"antennae":"X","wings":"X","pattern":"D","legs":"F"},"bonus":1.300000000000001},{"rt":623.4000000357628,"stimulus":"bees-with-color/bee-B1DF.svg","response":1,"trial_type":"image-button-response","trial_index":69,"time_elapsed":156502,"internal_node_id":"0.0-4.0-0.31","subject_id":"5f8d5fc960f84702a6041945","study_id":"6197b3f67c2b5cd3b6d9596a","session_id":"6197bc6b9db5ad53d966d3c2","condition":"contingent","relevant_dimensions":["pattern","legs"],"bee_group":{"antennae":"X","wings":"X","pattern":"D","legs":"F"},"action":"avoid","summary":"good-avoid","bonus":1.300000000000001},{"rt":396.30000001192093,"stimulus":"\n                    <p><b>Action: <em>avoid</em></b></p>\n                    <p>This is the bee that you just saw.</p>\n                    <img src=\"bees-with-color/bee-B1DF.svg\" width=\"200\">\n                    <p><br>Your bonus pay is unchanged, and remains at $0.76.</p>\n            ","response":0,"trial_type":"html-button-response","trial_index":70,"time_elapsed":156900,"internal_node_id":"0.0-4.0-1.31","subject_id":"5f8d5fc960f84702a6041945","study_id":"6197b3f67c2b5cd3b6d9596a","session_id":"6197bc6b9db5ad53d966d3c2","condition":"contingent","relevant_dimensions":["pattern","legs"],"bee_group":{"antennae":"X","wings":"X","pattern":"D","legs":"F"},"bonus":1.300000000000001},{"rt":634,"stimulus":"bees-with-color/bee-A2SF.svg","response":1,"trial_type":"image-button-response","trial_index":71,"time_elapsed":157535,"internal_node_id":"0.0-4.0-0.32","subject_id":"5f8d5fc960f84702a6041945","study_id":"6197b3f67c2b5cd3b6d9596a","session_id":"6197bc6b9db5ad53d966d3c2","condition":"contingent","relevant_dimensions":["pattern","legs"],"bee_group":{"antennae":"X","wings":"X","pattern":"D","legs":"F"},"action":"avoid","summary":"bad-avoid","bonus":1.300000000000001},{"rt":355.39999997615814,"stimulus":"\n                    <p><b>Action: <em>avoid</em></b></p>\n                    <p>This is the bee that you just saw.</p>\n                    <img src=\"bees-with-color/bee-A2SF.svg\" width=\"200\">\n                    <p><br>Your bonus pay is unchanged, and remains at $0.76.</p>\n            ","response":0,"trial_type":"html-button-response","trial_index":72,"time_elapsed":157892,"internal_node_id":"0.0-4.0-1.32","subject_id":"5f8d5fc960f84702a6041945","study_id":"6197b3f67c2b5cd3b6d9596a","session_id":"6197bc6b9db5ad53d966d3c2","condition":"contingent","relevant_dimensions":["pattern","legs"],"bee_group":{"antennae":"X","wings":"X","pattern":"D","legs":"F"},"bonus":1.300000000000001},{"rt":522.0999999642372,"stimulus":"bees-with-color/bee-B1SM.svg","response":0,"trial_type":"image-button-response","trial_index":73,"time_elapsed":158415,"internal_node_id":"0.0-4.0-0.33","subject_id":"5f8d5fc960f84702a6041945","study_id":"6197b3f67c2b5cd3b6d9596a","session_id":"6197bc6b9db5ad53d966d3c2","condition":"contingent","relevant_dimensions":["pattern","legs"],"bee_group":{"antennae":"X","wings":"X","pattern":"D","legs":"F"},"action":"harvest","summary":"good-harvest","bonus":1.300000000000001},{"rt":345.69999998807907,"stimulus":"\n                    <p><b>Action: <em>harvest</em></b></p>\n                    <p>This is the bee that you just saw.</p>\n                    <img src=\"bees-with-color/bee-B1SM.svg\" width=\"200\">\n                    <p><span class=\"greenText\"><b>Successful harvest!</b></span><br>Your pay has increased by $0.02. Your bonus pay is now $0.78.</p>\n            ","response":0,"trial_type":"html-button-response","trial_index":74,"time_elapsed":158762,"internal_node_id":"0.0-4.0-1.33","subject_id":"5f8d5fc960f84702a6041945","study_id":"6197b3f67c2b5cd3b6d9596a","session_id":"6197bc6b9db5ad53d966d3c2","condition":"contingent","relevant_dimensions":["pattern","legs"],"bee_group":{"antennae":"X","wings":"X","pattern":"D","legs":"F"},"bonus":1.300000000000001},{"rt":587.8999999761581,"stimulus":"bees-with-color/bee-B1SF.svg","response":1,"trial_type":"image-button-response","trial_index":75,"time_elapsed":159351,"internal_node_id":"0.0-4.0-0.34","subject_id":"5f8d5fc960f84702a6041945","study_id":"6197b3f67c2b5cd3b6d9596a","session_id":"6197bc6b9db5ad53d966d3c2","condition":"contingent","relevant_dimensions":["pattern","legs"],"bee_group":{"antennae":"X","wings":"X","pattern":"D","legs":"F"},"action":"avoid","summary":"bad-avoid","bonus":1.300000000000001},{"rt":373,"stimulus":"\n                    <p><b>Action: <em>avoid</em></b></p>\n                    <p>This is the bee that you just saw.</p>\n                    <img src=\"bees-with-color/bee-B1SF.svg\" width=\"200\">\n                    <p><br>Your bonus pay is unchanged, and remains at $0.78.</p>\n            ","response":0,"trial_type":"html-button-response","trial_index":76,"time_elapsed":159726,"internal_node_id":"0.0-4.0-1.34","subject_id":"5f8d5fc960f84702a6041945","study_id":"6197b3f67c2b5cd3b6d9596a","session_id":"6197bc6b9db5ad53d966d3c2","condition":"contingent","relevant_dimensions":["pattern","legs"],"bee_group":{"antennae":"X","wings":"X","pattern":"D","legs":"F"},"bonus":1.300000000000001},{"rt":488.69999998807907,"stimulus":"bees-with-color/bee-B1DM.svg","response":0,"trial_type":"image-button-response","trial_index":77,"time_elapsed":160216,"internal_node_id":"0.0-4.0-0.35","subject_id":"5f8d5fc960f84702a6041945","study_id":"6197b3f67c2b5cd3b6d9596a","session_id":"6197bc6b9db5ad53d966d3c2","condition":"contingent","relevant_dimensions":["pattern","legs"],"bee_group":{"antennae":"X","wings":"X","pattern":"D","legs":"F"},"action":"harvest","summary":"good-harvest","bonus":1.300000000000001},{"rt":355.60000002384186,"stimulus":"\n                    <p><b>Action: <em>harvest</em></b></p>\n                    <p>This is the bee that you just saw.</p>\n                    <img src=\"bees-with-color/bee-B1DM.svg\" width=\"200\">\n                    <p><span class=\"greenText\"><b>Successful harvest!</b></span><br>Your pay has increased by $0.02. Your bonus pay is now $0.80.</p>\n            ","response":0,"trial_type":"html-button-response","trial_index":78,"time_elapsed":160573,"internal_node_id":"0.0-4.0-1.35","subject_id":"5f8d5fc960f84702a6041945","study_id":"6197b3f67c2b5cd3b6d9596a","session_id":"6197bc6b9db5ad53d966d3c2","condition":"contingent","relevant_dimensions":["pattern","legs"],"bee_group":{"antennae":"X","wings":"X","pattern":"D","legs":"F"},"bonus":1.300000000000001},{"rt":505.60000002384186,"stimulus":"bees-with-color/bee-B1DF.svg","response":1,"trial_type":"image-button-response","trial_index":79,"time_elapsed":161080,"internal_node_id":"0.0-4.0-0.36","subject_id":"5f8d5fc960f84702a6041945","study_id":"6197b3f67c2b5cd3b6d9596a","session_id":"6197bc6b9db5ad53d966d3c2","condition":"contingent","relevant_dimensions":["pattern","legs"],"bee_group":{"antennae":"X","wings":"X","pattern":"D","legs":"F"},"action":"avoid","summary":"good-avoid","bonus":1.300000000000001},{"rt":350.19999998807907,"stimulus":"\n                    <p><b>Action: <em>avoid</em></b></p>\n                    <p>This is the bee that you just saw.</p>\n                    <img src=\"bees-with-color/bee-B1DF.svg\" width=\"200\">\n                    <p><br>Your bonus pay is unchanged, and remains at $0.80.</p>\n            ","response":0,"trial_type":"html-button-response","trial_index":80,"time_elapsed":161431,"internal_node_id":"0.0-4.0-1.36","subject_id":"5f8d5fc960f84702a6041945","study_id":"6197b3f67c2b5cd3b6d9596a","session_id":"6197bc6b9db5ad53d966d3c2","condition":"contingent","relevant_dimensions":["pattern","legs"],"bee_group":{"antennae":"X","wings":"X","pattern":"D","legs":"F"},"bonus":1.300000000000001},{"rt":490.19999998807907,"stimulus":"bees-with-color/bee-A2DF.svg","response":0,"trial_type":"image-button-response","trial_index":81,"time_elapsed":161923,"internal_node_id":"0.0-4.0-0.37","subject_id":"5f8d5fc960f84702a6041945","study_id":"6197b3f67c2b5cd3b6d9596a","session_id":"6197bc6b9db5ad53d966d3c2","condition":"contingent","relevant_dimensions":["pattern","legs"],"bee_group":{"antennae":"X","wings":"X","pattern":"D","legs":"F"},"action":"harvest","summary":"bad-harvest","bonus":1.300000000000001},{"rt":780,"stimulus":"\n                    <p><b>Action: <em>harvest</em></b></p>\n                    <p>This is the bee that you just saw.</p>\n                    <img src=\"bees-with-color/bee-A2DF.svg\" width=\"200\">\n                    <p><span class=\"redText\">Bad choice, the bee was angry.</span><br><b>You have been stung!</b><br>Your pay has been decreased by $0.10. Your bonus pay is now $0.70.</p>\n            ","response":0,"trial_type":"html-button-response","trial_index":82,"time_elapsed":162704,"internal_node_id":"0.0-4.0-1.37","subject_id":"5f8d5fc960f84702a6041945","study_id":"6197b3f67c2b5cd3b6d9596a","session_id":"6197bc6b9db5ad53d966d3c2","condition":"contingent","relevant_dimensions":["pattern","legs"],"bee_group":{"antennae":"X","wings":"X","pattern":"D","legs":"F"},"bonus":1.300000000000001},{"rt":866.3000000119209,"stimulus":"bees-with-color/bee-A1DM.svg","response":0,"trial_type":"image-button-response","trial_index":83,"time_elapsed":163572,"internal_node_id":"0.0-4.0-0.38","subject_id":"5f8d5fc960f84702a6041945","study_id":"6197b3f67c2b5cd3b6d9596a","session_id":"6197bc6b9db5ad53d966d3c2","condition":"contingent","relevant_dimensions":["pattern","legs"],"bee_group":{"antennae":"X","wings":"X","pattern":"D","legs":"F"},"action":"harvest","summary":"good-harvest","bonus":1.300000000000001},{"rt":408.2999999523163,"stimulus":"\n                    <p><b>Action: <em>harvest</em></b></p>\n                    <p>This is the bee that you just saw.</p>\n                    <img src=\"bees-with-color/bee-A1DM.svg\" width=\"200\">\n                    <p><span class=\"greenText\"><b>Successful harvest!</b></span><br>Your pay has increased by $0.02. Your bonus pay is now $0.72.</p>\n            ","response":0,"trial_type":"html-button-response","trial_index":84,"time_elapsed":163982,"internal_node_id":"0.0-4.0-1.38","subject_id":"5f8d5fc960f84702a6041945","study_id":"6197b3f67c2b5cd3b6d9596a","session_id":"6197bc6b9db5ad53d966d3c2","condition":"contingent","relevant_dimensions":["pattern","legs"],"bee_group":{"antennae":"X","wings":"X","pattern":"D","legs":"F"},"bonus":1.300000000000001},{"rt":693.5999999642372,"stimulus":"bees-with-color/bee-A1SM.svg","response":0,"trial_type":"image-button-response","trial_index":85,"time_elapsed":164677,"internal_node_id":"0.0-4.0-0.39","subject_id":"5f8d5fc960f84702a6041945","study_id":"6197b3f67c2b5cd3b6d9596a","session_id":"6197bc6b9db5ad53d966d3c2","condition":"contingent","relevant_dimensions":["pattern","legs"],"bee_group":{"antennae":"X","wings":"X","pattern":"D","legs":"F"},"action":"harvest","summary":"good-harvest","bonus":1.300000000000001},{"rt":383.4000000357628,"stimulus":"\n                    <p><b>Action: <em>harvest</em></b></p>\n                    <p>This is the bee that you just saw.</p>\n                    <img src=\"bees-with-color/bee-A1SM.svg\" width=\"200\">\n                    <p><span class=\"greenText\"><b>Successful harvest!</b></span><br>Your pay has increased by $0.02. Your bonus pay is now $0.74.</p>\n            ","response":0,"trial_type":"html-button-response","trial_index":86,"time_elapsed":165062,"internal_node_id":"0.0-4.0-1.39","subject_id":"5f8d5fc960f84702a6041945","study_id":"6197b3f67c2b5cd3b6d9596a","session_id":"6197bc6b9db5ad53d966d3c2","condition":"contingent","relevant_dimensions":["pattern","legs"],"bee_group":{"antennae":"X","wings":"X","pattern":"D","legs":"F"},"bonus":1.300000000000001},{"rt":502.69999998807907,"stimulus":"bees-with-color/bee-A1SF.svg","response":1,"trial_type":"image-button-response","trial_index":87,"time_elapsed":165566,"internal_node_id":"0.0-4.0-0.40","subject_id":"5f8d5fc960f84702a6041945","study_id":"6197b3f67c2b5cd3b6d9596a","session_id":"6197bc6b9db5ad53d966d3c2","condition":"contingent","relevant_dimensions":["pattern","legs"],"bee_group":{"antennae":"X","wings":"X","pattern":"D","legs":"F"},"action":"avoid","summary":"bad-avoid","bonus":1.300000000000001},{"rt":396.7999999523163,"stimulus":"\n                    <p><b>Action: <em>avoid</em></b></p>\n                    <p>This is the bee that you just saw.</p>\n                    <img src=\"bees-with-color/bee-A1SF.svg\" width=\"200\">\n                    <p><br>Your bonus pay is unchanged, and remains at $0.74.</p>\n            ","response":0,"trial_type":"html-button-response","trial_index":88,"time_elapsed":165964,"internal_node_id":"0.0-4.0-1.40","subject_id":"5f8d5fc960f84702a6041945","study_id":"6197b3f67c2b5cd3b6d9596a","session_id":"6197bc6b9db5ad53d966d3c2","condition":"contingent","relevant_dimensions":["pattern","legs"],"bee_group":{"antennae":"X","wings":"X","pattern":"D","legs":"F"},"bonus":1.300000000000001},{"rt":695.6999999880791,"stimulus":"bees-with-color/bee-B2SM.svg","response":0,"trial_type":"image-button-response","trial_index":89,"time_elapsed":166661,"internal_node_id":"0.0-4.0-0.41","subject_id":"5f8d5fc960f84702a6041945","study_id":"6197b3f67c2b5cd3b6d9596a","session_id":"6197bc6b9db5ad53d966d3c2","condition":"contingent","relevant_dimensions":["pattern","legs"],"bee_group":{"antennae":"X","wings":"X","pattern":"D","legs":"F"},"action":"harvest","summary":"good-harvest","bonus":1.300000000000001},{"rt":379.19999998807907,"stimulus":"\n                    <p><b>Action: <em>harvest</em></b></p>\n                    <p>This is the bee that you just saw.</p>\n                    <img src=\"bees-with-color/bee-B2SM.svg\" width=\"200\">\n                    <p><span class=\"greenText\"><b>Successful harvest!</b></span><br>Your pay has increased by $0.02. Your bonus pay is now $0.76.</p>\n            ","response":0,"trial_type":"html-button-response","trial_index":90,"time_elapsed":167042,"internal_node_id":"0.0-4.0-1.41","subject_id":"5f8d5fc960f84702a6041945","study_id":"6197b3f67c2b5cd3b6d9596a","session_id":"6197bc6b9db5ad53d966d3c2","condition":"contingent","relevant_dimensions":["pattern","legs"],"bee_group":{"antennae":"X","wings":"X","pattern":"D","legs":"F"},"bonus":1.300000000000001},{"rt":524.4000000357628,"stimulus":"bees-with-color/bee-A1DF.svg","response":1,"trial_type":"image-button-response","trial_index":91,"time_elapsed":167568,"internal_node_id":"0.0-4.0-0.42","subject_id":"5f8d5fc960f84702a6041945","study_id":"6197b3f67c2b5cd3b6d9596a","session_id":"6197bc6b9db5ad53d966d3c2","condition":"contingent","relevant_dimensions":["pattern","legs"],"bee_group":{"antennae":"X","wings":"X","pattern":"D","legs":"F"},"action":"avoid","summary":"good-avoid","bonus":1.300000000000001},{"rt":664,"stimulus":"\n                    <p><b>Action: <em>avoid</em></b></p>\n                    <p>This is the bee that you just saw.</p>\n                    <img src=\"bees-with-color/bee-A1DF.svg\" width=\"200\">\n                    <p><br>Your bonus pay is unchanged, and remains at $0.76.</p>\n            ","response":0,"trial_type":"html-button-response","trial_index":92,"time_elapsed":168233,"internal_node_id":"0.0-4.0-1.42","subject_id":"5f8d5fc960f84702a6041945","study_id":"6197b3f67c2b5cd3b6d9596a","session_id":"6197bc6b9db5ad53d966d3c2","condition":"contingent","relevant_dimensions":["pattern","legs"],"bee_group":{"antennae":"X","wings":"X","pattern":"D","legs":"F"},"bonus":1.300000000000001},{"rt":541.8000000119209,"stimulus":"bees-with-color/bee-B2DM.svg","response":0,"trial_type":"image-button-response","trial_index":93,"time_elapsed":168776,"internal_node_id":"0.0-4.0-0.43","subject_id":"5f8d5fc960f84702a6041945","study_id":"6197b3f67c2b5cd3b6d9596a","session_id":"6197bc6b9db5ad53d966d3c2","condition":"contingent","relevant_dimensions":["pattern","legs"],"bee_group":{"antennae":"X","wings":"X","pattern":"D","legs":"F"},"action":"harvest","summary":"good-harvest","bonus":1.300000000000001},{"rt":375,"stimulus":"\n                    <p><b>Action: <em>harvest</em></b></p>\n                    <p>This is the bee that you just saw.</p>\n                    <img src=\"bees-with-color/bee-B2DM.svg\" width=\"200\">\n                    <p><span class=\"greenText\"><b>Successful harvest!</b></span><br>Your pay has increased by $0.02. Your bonus pay is now $0.78.</p>\n            ","response":0,"trial_type":"html-button-response","trial_index":94,"time_elapsed":169153,"internal_node_id":"0.0-4.0-1.43","subject_id":"5f8d5fc960f84702a6041945","study_id":"6197b3f67c2b5cd3b6d9596a","session_id":"6197bc6b9db5ad53d966d3c2","condition":"contingent","relevant_dimensions":["pattern","legs"],"bee_group":{"antennae":"X","wings":"X","pattern":"D","legs":"F"},"bonus":1.300000000000001},{"rt":740.8000000119209,"stimulus":"bees-with-color/bee-B2SF.svg","response":1,"trial_type":"image-button-response","trial_index":95,"time_elapsed":169895,"internal_node_id":"0.0-4.0-0.44","subject_id":"5f8d5fc960f84702a6041945","study_id":"6197b3f67c2b5cd3b6d9596a","session_id":"6197bc6b9db5ad53d966d3c2","condition":"contingent","relevant_dimensions":["pattern","legs"],"bee_group":{"antennae":"X","wings":"X","pattern":"D","legs":"F"},"action":"avoid","summary":"bad-avoid","bonus":1.300000000000001},{"rt":334.39999997615814,"stimulus":"\n                    <p><b>Action: <em>avoid</em></b></p>\n                    <p>This is the bee that you just saw.</p>\n                    <img src=\"bees-with-color/bee-B2SF.svg\" width=\"200\">\n                    <p><br>Your bonus pay is unchanged, and remains at $0.78.</p>\n            ","response":0,"trial_type":"html-button-response","trial_index":96,"time_elapsed":170231,"internal_node_id":"0.0-4.0-1.44","subject_id":"5f8d5fc960f84702a6041945","study_id":"6197b3f67c2b5cd3b6d9596a","session_id":"6197bc6b9db5ad53d966d3c2","condition":"contingent","relevant_dimensions":["pattern","legs"],"bee_group":{"antennae":"X","wings":"X","pattern":"D","legs":"F"},"bonus":1.300000000000001},{"rt":634.8999999761581,"stimulus":"bees-with-color/bee-B2DF.svg","response":1,"trial_type":"image-button-response","trial_index":97,"time_elapsed":170867,"internal_node_id":"0.0-4.0-0.45","subject_id":"5f8d5fc960f84702a6041945","study_id":"6197b3f67c2b5cd3b6d9596a","session_id":"6197bc6b9db5ad53d966d3c2","condition":"contingent","relevant_dimensions":["pattern","legs"],"bee_group":{"antennae":"X","wings":"X","pattern":"D","legs":"F"},"action":"avoid","summary":"good-avoid","bonus":1.300000000000001},{"rt":307.89999997615814,"stimulus":"\n                    <p><b>Action: <em>avoid</em></b></p>\n                    <p>This is the bee that you just saw.</p>\n                    <img src=\"bees-with-color/bee-B2DF.svg\" width=\"200\">\n                    <p><br>Your bonus pay is unchanged, and remains at $0.78.</p>\n            ","response":0,"trial_type":"html-button-response","trial_index":98,"time_elapsed":171177,"internal_node_id":"0.0-4.0-1.45","subject_id":"5f8d5fc960f84702a6041945","study_id":"6197b3f67c2b5cd3b6d9596a","session_id":"6197bc6b9db5ad53d966d3c2","condition":"contingent","relevant_dimensions":["pattern","legs"],"bee_group":{"antennae":"X","wings":"X","pattern":"D","legs":"F"},"bonus":1.300000000000001},{"rt":533,"stimulus":"bees-with-color/bee-A2SM.svg","response":0,"trial_type":"image-button-response","trial_index":99,"time_elapsed":171711,"internal_node_id":"0.0-4.0-0.46","subject_id":"5f8d5fc960f84702a6041945","study_id":"6197b3f67c2b5cd3b6d9596a","session_id":"6197bc6b9db5ad53d966d3c2","condition":"contingent","relevant_dimensions":["pattern","legs"],"bee_group":{"antennae":"X","wings":"X","pattern":"D","legs":"F"},"action":"harvest","summary":"good-harvest","bonus":1.300000000000001},{"rt":318.4000000357628,"stimulus":"\n                    <p><b>Action: <em>harvest</em></b></p>\n                    <p>This is the bee that you just saw.</p>\n                    <img src=\"bees-with-color/bee-A2SM.svg\" width=\"200\">\n                    <p><span class=\"greenText\"><b>Successful harvest!</b></span><br>Your pay has increased by $0.02. Your bonus pay is now $0.80.</p>\n            ","response":0,"trial_type":"html-button-response","trial_index":100,"time_elapsed":172031,"internal_node_id":"0.0-4.0-1.46","subject_id":"5f8d5fc960f84702a6041945","study_id":"6197b3f67c2b5cd3b6d9596a","session_id":"6197bc6b9db5ad53d966d3c2","condition":"contingent","relevant_dimensions":["pattern","legs"],"bee_group":{"antennae":"X","wings":"X","pattern":"D","legs":"F"},"bonus":1.300000000000001},{"rt":748.5,"stimulus":"bees-with-color/bee-A2DM.svg","response":0,"trial_type":"image-button-response","trial_index":101,"time_elapsed":172781,"internal_node_id":"0.0-4.0-0.47","subject_id":"5f8d5fc960f84702a6041945","study_id":"6197b3f67c2b5cd3b6d9596a","session_id":"6197bc6b9db5ad53d966d3c2","condition":"contingent","relevant_dimensions":["pattern","legs"],"bee_group":{"antennae":"X","wings":"X","pattern":"D","legs":"F"},"action":"harvest","summary":"good-harvest","bonus":1.300000000000001},{"rt":307.60000002384186,"stimulus":"\n                    <p><b>Action: <em>harvest</em></b></p>\n                    <p>This is the bee that you just saw.</p>\n                    <img src=\"bees-with-color/bee-A2DM.svg\" width=\"200\">\n                    <p><span class=\"greenText\"><b>Successful harvest!</b></span><br>Your pay has increased by $0.02. Your bonus pay is now $0.82.</p>\n            ","response":0,"trial_type":"html-button-response","trial_index":102,"time_elapsed":173090,"internal_node_id":"0.0-4.0-1.47","subject_id":"5f8d5fc960f84702a6041945","study_id":"6197b3f67c2b5cd3b6d9596a","session_id":"6197bc6b9db5ad53d966d3c2","condition":"contingent","relevant_dimensions":["pattern","legs"],"bee_group":{"antennae":"X","wings":"X","pattern":"D","legs":"F"},"bonus":1.300000000000001},{"rt":563,"stimulus":"bees-with-color/bee-A1SF.svg","response":1,"trial_type":"image-button-response","trial_index":103,"time_elapsed":173654,"internal_node_id":"0.0-4.0-0.48","subject_id":"5f8d5fc960f84702a6041945","study_id":"6197b3f67c2b5cd3b6d9596a","session_id":"6197bc6b9db5ad53d966d3c2","condition":"contingent","relevant_dimensions":["pattern","legs"],"bee_group":{"antennae":"X","wings":"X","pattern":"D","legs":"F"},"action":"avoid","summary":"bad-avoid","bonus":1.300000000000001},{"rt":317.5,"stimulus":"\n                    <p><b>Action: <em>avoid</em></b></p>\n                    <p>This is the bee that you just saw.</p>\n                    <img src=\"bees-with-color/bee-A1SF.svg\" width=\"200\">\n                    <p><br>Your bonus pay is unchanged, and remains at $0.82.</p>\n            ","response":0,"trial_type":"html-button-response","trial_index":104,"time_elapsed":173973,"internal_node_id":"0.0-4.0-1.48","subject_id":"5f8d5fc960f84702a6041945","study_id":"6197b3f67c2b5cd3b6d9596a","session_id":"6197bc6b9db5ad53d966d3c2","condition":"contingent","relevant_dimensions":["pattern","legs"],"bee_group":{"antennae":"X","wings":"X","pattern":"D","legs":"F"},"bonus":1.300000000000001},{"rt":574.8000000119209,"stimulus":"bees-with-color/bee-B2SF.svg","response":1,"trial_type":"image-button-response","trial_index":105,"time_elapsed":174549,"internal_node_id":"0.0-4.0-0.49","subject_id":"5f8d5fc960f84702a6041945","study_id":"6197b3f67c2b5cd3b6d9596a","session_id":"6197bc6b9db5ad53d966d3c2","condition":"contingent","relevant_dimensions":["pattern","legs"],"bee_group":{"antennae":"X","wings":"X","pattern":"D","legs":"F"},"action":"avoid","summary":"bad-avoid","bonus":1.300000000000001},{"rt":329.10000002384186,"stimulus":"\n                    <p><b>Action: <em>avoid</em></b></p>\n                    <p>This is the bee that you just saw.</p>\n                    <img src=\"bees-with-color/bee-B2SF.svg\" width=\"200\">\n                    <p><br>Your bonus pay is unchanged, and remains at $0.82.</p>\n            ","response":0,"trial_type":"html-button-response","trial_index":106,"time_elapsed":174880,"internal_node_id":"0.0-4.0-1.49","subject_id":"5f8d5fc960f84702a6041945","study_id":"6197b3f67c2b5cd3b6d9596a","session_id":"6197bc6b9db5ad53d966d3c2","condition":"contingent","relevant_dimensions":["pattern","legs"],"bee_group":{"antennae":"X","wings":"X","pattern":"D","legs":"F"},"bonus":1.300000000000001},{"rt":525.5,"stimulus":"bees-with-color/bee-B1DF.svg","response":1,"trial_type":"image-button-response","trial_index":107,"time_elapsed":175407,"internal_node_id":"0.0-4.0-0.50","subject_id":"5f8d5fc960f84702a6041945","study_id":"6197b3f67c2b5cd3b6d9596a","session_id":"6197bc6b9db5ad53d966d3c2","condition":"contingent","relevant_dimensions":["pattern","legs"],"bee_group":{"antennae":"X","wings":"X","pattern":"D","legs":"F"},"action":"avoid","summary":"good-avoid","bonus":1.300000000000001},{"rt":349.5,"stimulus":"\n                    <p><b>Action: <em>avoid</em></b></p>\n                    <p>This is the bee that you just saw.</p>\n                    <img src=\"bees-with-color/bee-B1DF.svg\" width=\"200\">\n                    <p><br>Your bonus pay is unchanged, and remains at $0.82.</p>\n            ","response":0,"trial_type":"html-button-response","trial_index":108,"time_elapsed":175758,"internal_node_id":"0.0-4.0-1.50","subject_id":"5f8d5fc960f84702a6041945","study_id":"6197b3f67c2b5cd3b6d9596a","session_id":"6197bc6b9db5ad53d966d3c2","condition":"contingent","relevant_dimensions":["pattern","legs"],"bee_group":{"antennae":"X","wings":"X","pattern":"D","legs":"F"},"bonus":1.300000000000001},{"rt":531.8999999761581,"stimulus":"bees-with-color/bee-B1DM.svg","response":0,"trial_type":"image-button-response","trial_index":109,"time_elapsed":176291,"internal_node_id":"0.0-4.0-0.51","subject_id":"5f8d5fc960f84702a6041945","study_id":"6197b3f67c2b5cd3b6d9596a","session_id":"6197bc6b9db5ad53d966d3c2","condition":"contingent","relevant_dimensions":["pattern","legs"],"bee_group":{"antennae":"X","wings":"X","pattern":"D","legs":"F"},"action":"harvest","summary":"good-harvest","bonus":1.300000000000001},{"rt":743.1999999880791,"stimulus":"\n                    <p><b>Action: <em>harvest</em></b></p>\n                    <p>This is the bee that you just saw.</p>\n                    <img src=\"bees-with-color/bee-B1DM.svg\" width=\"200\">\n                    <p><span class=\"greenText\"><b>Successful harvest!</b></span><br>Your pay has increased by $0.02. Your bonus pay is now $0.84.</p>\n            ","response":0,"trial_type":"html-button-response","trial_index":110,"time_elapsed":177036,"internal_node_id":"0.0-4.0-1.51","subject_id":"5f8d5fc960f84702a6041945","study_id":"6197b3f67c2b5cd3b6d9596a","session_id":"6197bc6b9db5ad53d966d3c2","condition":"contingent","relevant_dimensions":["pattern","legs"],"bee_group":{"antennae":"X","wings":"X","pattern":"D","legs":"F"},"bonus":1.300000000000001},{"rt":572.5,"stimulus":"bees-with-color/bee-A2SF.svg","response":1,"trial_type":"image-button-response","trial_index":111,"time_elapsed":177609,"internal_node_id":"0.0-4.0-0.52","subject_id":"5f8d5fc960f84702a6041945","study_id":"6197b3f67c2b5cd3b6d9596a","session_id":"6197bc6b9db5ad53d966d3c2","condition":"contingent","relevant_dimensions":["pattern","legs"],"bee_group":{"antennae":"X","wings":"X","pattern":"D","legs":"F"},"action":"avoid","summary":"bad-avoid","bonus":1.300000000000001},{"rt":357,"stimulus":"\n                    <p><b>Action: <em>avoid</em></b></p>\n                    <p>This is the bee that you just saw.</p>\n                    <img src=\"bees-with-color/bee-A2SF.svg\" width=\"200\">\n                    <p><br>Your bonus pay is unchanged, and remains at $0.84.</p>\n            ","response":0,"trial_type":"html-button-response","trial_index":112,"time_elapsed":177967,"internal_node_id":"0.0-4.0-1.52","subject_id":"5f8d5fc960f84702a6041945","study_id":"6197b3f67c2b5cd3b6d9596a","session_id":"6197bc6b9db5ad53d966d3c2","condition":"contingent","relevant_dimensions":["pattern","legs"],"bee_group":{"antennae":"X","wings":"X","pattern":"D","legs":"F"},"bonus":1.300000000000001},{"rt":879.6999999880791,"stimulus":"bees-with-color/bee-A2SM.svg","response":0,"trial_type":"image-button-response","trial_index":113,"time_elapsed":178849,"internal_node_id":"0.0-4.0-0.53","subject_id":"5f8d5fc960f84702a6041945","study_id":"6197b3f67c2b5cd3b6d9596a","session_id":"6197bc6b9db5ad53d966d3c2","condition":"contingent","relevant_dimensions":["pattern","legs"],"bee_group":{"antennae":"X","wings":"X","pattern":"D","legs":"F"},"action":"harvest","summary":"good-harvest","bonus":1.300000000000001},{"rt":397.39999997615814,"stimulus":"\n                    <p><b>Action: <em>harvest</em></b></p>\n                    <p>This is the bee that you just saw.</p>\n                    <img src=\"bees-with-color/bee-A2SM.svg\" width=\"200\">\n                    <p><span class=\"greenText\"><b>Successful harvest!</b></span><br>Your pay has increased by $0.02. Your bonus pay is now $0.86.</p>\n            ","response":0,"trial_type":"html-button-response","trial_index":114,"time_elapsed":179247,"internal_node_id":"0.0-4.0-1.53","subject_id":"5f8d5fc960f84702a6041945","study_id":"6197b3f67c2b5cd3b6d9596a","session_id":"6197bc6b9db5ad53d966d3c2","condition":"contingent","relevant_dimensions":["pattern","legs"],"bee_group":{"antennae":"X","wings":"X","pattern":"D","legs":"F"},"bonus":1.300000000000001},{"rt":633.1000000238419,"stimulus":"bees-with-color/bee-A2DF.svg","response":1,"trial_type":"image-button-response","trial_index":115,"time_elapsed":179882,"internal_node_id":"0.0-4.0-0.54","subject_id":"5f8d5fc960f84702a6041945","study_id":"6197b3f67c2b5cd3b6d9596a","session_id":"6197bc6b9db5ad53d966d3c2","condition":"contingent","relevant_dimensions":["pattern","legs"],"bee_group":{"antennae":"X","wings":"X","pattern":"D","legs":"F"},"action":"avoid","summary":"good-avoid","bonus":1.300000000000001},{"rt":308.39999997615814,"stimulus":"\n                    <p><b>Action: <em>avoid</em></b></p>\n                    <p>This is the bee that you just saw.</p>\n                    <img src=\"bees-with-color/bee-A2DF.svg\" width=\"200\">\n                    <p><br>Your bonus pay is unchanged, and remains at $0.86.</p>\n            ","response":0,"trial_type":"html-button-response","trial_index":116,"time_elapsed":180192,"internal_node_id":"0.0-4.0-1.54","subject_id":"5f8d5fc960f84702a6041945","study_id":"6197b3f67c2b5cd3b6d9596a","session_id":"6197bc6b9db5ad53d966d3c2","condition":"contingent","relevant_dimensions":["pattern","legs"],"bee_group":{"antennae":"X","wings":"X","pattern":"D","legs":"F"},"bonus":1.300000000000001},{"rt":496.30000001192093,"stimulus":"bees-with-color/bee-B2SM.svg","response":0,"trial_type":"image-button-response","trial_index":117,"time_elapsed":180689,"internal_node_id":"0.0-4.0-0.55","subject_id":"5f8d5fc960f84702a6041945","study_id":"6197b3f67c2b5cd3b6d9596a","session_id":"6197bc6b9db5ad53d966d3c2","condition":"contingent","relevant_dimensions":["pattern","legs"],"bee_group":{"antennae":"X","wings":"X","pattern":"D","legs":"F"},"action":"harvest","summary":"good-harvest","bonus":1.300000000000001},{"rt":340.89999997615814,"stimulus":"\n                    <p><b>Action: <em>harvest</em></b></p>\n                    <p>This is the bee that you just saw.</p>\n                    <img src=\"bees-with-color/bee-B2SM.svg\" width=\"200\">\n                    <p><span class=\"greenText\"><b>Successful harvest!</b></span><br>Your pay has increased by $0.02. Your bonus pay is now $0.88.</p>\n            ","response":0,"trial_type":"html-button-response","trial_index":118,"time_elapsed":181031,"internal_node_id":"0.0-4.0-1.55","subject_id":"5f8d5fc960f84702a6041945","study_id":"6197b3f67c2b5cd3b6d9596a","session_id":"6197bc6b9db5ad53d966d3c2","condition":"contingent","relevant_dimensions":["pattern","legs"],"bee_group":{"antennae":"X","wings":"X","pattern":"D","legs":"F"},"bonus":1.300000000000001},{"rt":704.6999999880791,"stimulus":"bees-with-color/bee-B1SM.svg","response":0,"trial_type":"image-button-response","trial_index":119,"time_elapsed":181737,"internal_node_id":"0.0-4.0-0.56","subject_id":"5f8d5fc960f84702a6041945","study_id":"6197b3f67c2b5cd3b6d9596a","session_id":"6197bc6b9db5ad53d966d3c2","condition":"contingent","relevant_dimensions":["pattern","legs"],"bee_group":{"antennae":"X","wings":"X","pattern":"D","legs":"F"},"action":"harvest","summary":"good-harvest","bonus":1.300000000000001},{"rt":321.80000001192093,"stimulus":"\n                    <p><b>Action: <em>harvest</em></b></p>\n                    <p>This is the bee that you just saw.</p>\n                    <img src=\"bees-with-color/bee-B1SM.svg\" width=\"200\">\n                    <p><span class=\"greenText\"><b>Successful harvest!</b></span><br>Your pay has increased by $0.02. Your bonus pay is now $0.90.</p>\n            ","response":0,"trial_type":"html-button-response","trial_index":120,"time_elapsed":182061,"internal_node_id":"0.0-4.0-1.56","subject_id":"5f8d5fc960f84702a6041945","study_id":"6197b3f67c2b5cd3b6d9596a","session_id":"6197bc6b9db5ad53d966d3c2","condition":"contingent","relevant_dimensions":["pattern","legs"],"bee_group":{"antennae":"X","wings":"X","pattern":"D","legs":"F"},"bonus":1.300000000000001},{"rt":547.8000000119209,"stimulus":"bees-with-color/bee-A1DM.svg","response":0,"trial_type":"image-button-response","trial_index":121,"time_elapsed":182610,"internal_node_id":"0.0-4.0-0.57","subject_id":"5f8d5fc960f84702a6041945","study_id":"6197b3f67c2b5cd3b6d9596a","session_id":"6197bc6b9db5ad53d966d3c2","condition":"contingent","relevant_dimensions":["pattern","legs"],"bee_group":{"antennae":"X","wings":"X","pattern":"D","legs":"F"},"action":"harvest","summary":"good-harvest","bonus":1.300000000000001},{"rt":403.5,"stimulus":"\n                    <p><b>Action: <em>harvest</em></b></p>\n                    <p>This is the bee that you just saw.</p>\n                    <img src=\"bees-with-color/bee-A1DM.svg\" width=\"200\">\n                    <p><span class=\"greenText\"><b>Successful harvest!</b></span><br>Your pay has increased by $0.02. Your bonus pay is now $0.92.</p>\n            ","response":0,"trial_type":"html-button-response","trial_index":122,"time_elapsed":183015,"internal_node_id":"0.0-4.0-1.57","subject_id":"5f8d5fc960f84702a6041945","study_id":"6197b3f67c2b5cd3b6d9596a","session_id":"6197bc6b9db5ad53d966d3c2","condition":"contingent","relevant_dimensions":["pattern","legs"],"bee_group":{"antennae":"X","wings":"X","pattern":"D","legs":"F"},"bonus":1.300000000000001},{"rt":676.5999999642372,"stimulus":"bees-with-color/bee-B2DF.svg","response":1,"trial_type":"image-button-response","trial_index":123,"time_elapsed":183693,"internal_node_id":"0.0-4.0-0.58","subject_id":"5f8d5fc960f84702a6041945","study_id":"6197b3f67c2b5cd3b6d9596a","session_id":"6197bc6b9db5ad53d966d3c2","condition":"contingent","relevant_dimensions":["pattern","legs"],"bee_group":{"antennae":"X","wings":"X","pattern":"D","legs":"F"},"action":"avoid","summary":"good-avoid","bonus":1.300000000000001},{"rt":386.69999998807907,"stimulus":"\n                    <p><b>Action: <em>avoid</em></b></p>\n                    <p>This is the bee that you just saw.</p>\n                    <img src=\"bees-with-color/bee-B2DF.svg\" width=\"200\">\n                    <p><br>Your bonus pay is unchanged, and remains at $0.92.</p>\n            ","response":0,"trial_type":"html-button-response","trial_index":124,"time_elapsed":184081,"internal_node_id":"0.0-4.0-1.58","subject_id":"5f8d5fc960f84702a6041945","study_id":"6197b3f67c2b5cd3b6d9596a","session_id":"6197bc6b9db5ad53d966d3c2","condition":"contingent","relevant_dimensions":["pattern","legs"],"bee_group":{"antennae":"X","wings":"X","pattern":"D","legs":"F"},"bonus":1.300000000000001},{"rt":1605.300000011921,"stimulus":"bees-with-color/bee-A2DM.svg","response":0,"trial_type":"image-button-response","trial_index":125,"time_elapsed":185688,"internal_node_id":"0.0-4.0-0.59","subject_id":"5f8d5fc960f84702a6041945","study_id":"6197b3f67c2b5cd3b6d9596a","session_id":"6197bc6b9db5ad53d966d3c2","condition":"contingent","relevant_dimensions":["pattern","legs"],"bee_group":{"antennae":"X","wings":"X","pattern":"D","legs":"F"},"action":"harvest","summary":"good-harvest","bonus":1.300000000000001},{"rt":660.5,"stimulus":"\n                    <p><b>Action: <em>harvest</em></b></p>\n                    <p>This is the bee that you just saw.</p>\n                    <img src=\"bees-with-color/bee-A2DM.svg\" width=\"200\">\n                    <p><span class=\"greenText\"><b>Successful harvest!</b></span><br>Your pay has increased by $0.02. Your bonus pay is now $0.94.</p>\n            ","response":0,"trial_type":"html-button-response","trial_index":126,"time_elapsed":186350,"internal_node_id":"0.0-4.0-1.59","subject_id":"5f8d5fc960f84702a6041945","study_id":"6197b3f67c2b5cd3b6d9596a","session_id":"6197bc6b9db5ad53d966d3c2","condition":"contingent","relevant_dimensions":["pattern","legs"],"bee_group":{"antennae":"X","wings":"X","pattern":"D","legs":"F"},"bonus":1.300000000000001},{"rt":486.89999997615814,"stimulus":"bees-with-color/bee-B2DM.svg","response":0,"trial_type":"image-button-response","trial_index":127,"time_elapsed":186838,"internal_node_id":"0.0-4.0-0.60","subject_id":"5f8d5fc960f84702a6041945","study_id":"6197b3f67c2b5cd3b6d9596a","session_id":"6197bc6b9db5ad53d966d3c2","condition":"contingent","relevant_dimensions":["pattern","legs"],"bee_group":{"antennae":"X","wings":"X","pattern":"D","legs":"F"},"action":"harvest","summary":"good-harvest","bonus":1.300000000000001},{"rt":738.4000000357628,"stimulus":"\n                    <p><b>Action: <em>harvest</em></b></p>\n                    <p>This is the bee that you just saw.</p>\n                    <img src=\"bees-with-color/bee-B2DM.svg\" width=\"200\">\n                    <p><span class=\"greenText\"><b>Successful harvest!</b></span><br>Your pay has increased by $0.02. Your bonus pay is now $0.96.</p>\n            ","response":0,"trial_type":"html-button-response","trial_index":128,"time_elapsed":187578,"internal_node_id":"0.0-4.0-1.60","subject_id":"5f8d5fc960f84702a6041945","study_id":"6197b3f67c2b5cd3b6d9596a","session_id":"6197bc6b9db5ad53d966d3c2","condition":"contingent","relevant_dimensions":["pattern","legs"],"bee_group":{"antennae":"X","wings":"X","pattern":"D","legs":"F"},"bonus":1.300000000000001},{"rt":1168.199999988079,"stimulus":"bees-with-color/bee-A1DF.svg","response":1,"trial_type":"image-button-response","trial_index":129,"time_elapsed":188747,"internal_node_id":"0.0-4.0-0.61","subject_id":"5f8d5fc960f84702a6041945","study_id":"6197b3f67c2b5cd3b6d9596a","session_id":"6197bc6b9db5ad53d966d3c2","condition":"contingent","relevant_dimensions":["pattern","legs"],"bee_group":{"antennae":"X","wings":"X","pattern":"D","legs":"F"},"action":"avoid","summary":"good-avoid","bonus":1.300000000000001},{"rt":454.39999997615814,"stimulus":"\n                    <p><b>Action: <em>avoid</em></b></p>\n                    <p>This is the bee that you just saw.</p>\n                    <img src=\"bees-with-color/bee-A1DF.svg\" width=\"200\">\n                    <p><br>Your bonus pay is unchanged, and remains at $0.96.</p>\n            ","response":0,"trial_type":"html-button-response","trial_index":130,"time_elapsed":189203,"internal_node_id":"0.0-4.0-1.61","subject_id":"5f8d5fc960f84702a6041945","study_id":"6197b3f67c2b5cd3b6d9596a","session_id":"6197bc6b9db5ad53d966d3c2","condition":"contingent","relevant_dimensions":["pattern","legs"],"bee_group":{"antennae":"X","wings":"X","pattern":"D","legs":"F"},"bonus":1.300000000000001},{"rt":1007.1999999880791,"stimulus":"bees-with-color/bee-A1SM.svg","response":0,"trial_type":"image-button-response","trial_index":131,"time_elapsed":190211,"internal_node_id":"0.0-4.0-0.62","subject_id":"5f8d5fc960f84702a6041945","study_id":"6197b3f67c2b5cd3b6d9596a","session_id":"6197bc6b9db5ad53d966d3c2","condition":"contingent","relevant_dimensions":["pattern","legs"],"bee_group":{"antennae":"X","wings":"X","pattern":"D","legs":"F"},"action":"harvest","summary":"good-harvest","bonus":1.300000000000001},{"rt":505.80000001192093,"stimulus":"\n                    <p><b>Action: <em>harvest</em></b></p>\n                    <p>This is the bee that you just saw.</p>\n                    <img src=\"bees-with-color/bee-A1SM.svg\" width=\"200\">\n                    <p><span class=\"greenText\"><b>Successful harvest!</b></span><br>Your pay has increased by $0.02. Your bonus pay is now $0.98.</p>\n            ","response":0,"trial_type":"html-button-response","trial_index":132,"time_elapsed":190718,"internal_node_id":"0.0-4.0-1.62","subject_id":"5f8d5fc960f84702a6041945","study_id":"6197b3f67c2b5cd3b6d9596a","session_id":"6197bc6b9db5ad53d966d3c2","condition":"contingent","relevant_dimensions":["pattern","legs"],"bee_group":{"antennae":"X","wings":"X","pattern":"D","legs":"F"},"bonus":1.300000000000001},{"rt":893.6000000238419,"stimulus":"bees-with-color/bee-B1SF.svg","response":1,"trial_type":"image-button-response","trial_index":133,"time_elapsed":191613,"internal_node_id":"0.0-4.0-0.63","subject_id":"5f8d5fc960f84702a6041945","study_id":"6197b3f67c2b5cd3b6d9596a","session_id":"6197bc6b9db5ad53d966d3c2","condition":"contingent","relevant_dimensions":["pattern","legs"],"bee_group":{"antennae":"X","wings":"X","pattern":"D","legs":"F"},"action":"avoid","summary":"bad-avoid","bonus":1.300000000000001},{"rt":318.69999998807907,"stimulus":"\n                    <p><b>Action: <em>avoid</em></b></p>\n                    <p>This is the bee that you just saw.</p>\n                    <img src=\"bees-with-color/bee-B1SF.svg\" width=\"200\">\n                    <p><br>Your bonus pay is unchanged, and remains at $0.98.</p>\n            ","response":0,"trial_type":"html-button-response","trial_index":134,"time_elapsed":191933,"internal_node_id":"0.0-4.0-1.63","subject_id":"5f8d5fc960f84702a6041945","study_id":"6197b3f67c2b5cd3b6d9596a","session_id":"6197bc6b9db5ad53d966d3c2","condition":"contingent","relevant_dimensions":["pattern","legs"],"bee_group":{"antennae":"X","wings":"X","pattern":"D","legs":"F"},"bonus":1.300000000000001},{"rt":4233.5,"stimulus":"You have completed the first part of this experiment.<br><br>You will now begin a shorter second part, in which you will receive no feedback.<br>The same rules regarding bonus pay apply.<br><br>Press any key to begin.","response":" ","trial_type":"html-keyboard-response","trial_index":135,"time_elapsed":196169,"internal_node_id":"0.0-5.0","subject_id":"5f8d5fc960f84702a6041945","study_id":"6197b3f67c2b5cd3b6d9596a","session_id":"6197bc6b9db5ad53d966d3c2","condition":"contingent","relevant_dimensions":["pattern","legs"],"bee_group":{"antennae":"X","wings":"X","pattern":"D","legs":"F"},"bonus":1.300000000000001},{"rt":1475.5999999642372,"stimulus":"bees-with-color/bee-B2SM.svg","response":0,"trial_type":"image-button-response","trial_index":136,"time_elapsed":197653,"internal_node_id":"0.0-6.0-0.0","subject_id":"5f8d5fc960f84702a6041945","study_id":"6197b3f67c2b5cd3b6d9596a","session_id":"6197bc6b9db5ad53d966d3c2","condition":"contingent","relevant_dimensions":["pattern","legs"],"bee_group":{"antennae":"X","wings":"X","pattern":"D","legs":"F"},"bonus":1.300000000000001},{"rt":2522.899999976158,"stimulus":"bees-with-color/bee-A2DM.svg","response":0,"trial_type":"image-button-response","trial_index":137,"time_elapsed":200178,"internal_node_id":"0.0-6.0-0.1","subject_id":"5f8d5fc960f84702a6041945","study_id":"6197b3f67c2b5cd3b6d9596a","session_id":"6197bc6b9db5ad53d966d3c2","condition":"contingent","relevant_dimensions":["pattern","legs"],"bee_group":{"antennae":"X","wings":"X","pattern":"D","legs":"F"},"bonus":1.300000000000001},{"rt":634.3000000119209,"stimulus":"bees-with-color/bee-B2SF.svg","response":1,"trial_type":"image-button-response","trial_index":138,"time_elapsed":200815,"internal_node_id":"0.0-6.0-0.2","subject_id":"5f8d5fc960f84702a6041945","study_id":"6197b3f67c2b5cd3b6d9596a","session_id":"6197bc6b9db5ad53d966d3c2","condition":"contingent","relevant_dimensions":["pattern","legs"],"bee_group":{"antennae":"X","wings":"X","pattern":"D","legs":"F"},"bonus":1.300000000000001},{"rt":813.9000000357628,"stimulus":"bees-with-color/bee-B1DM.svg","response":0,"trial_type":"image-button-response","trial_index":139,"time_elapsed":201631,"internal_node_id":"0.0-6.0-0.3","subject_id":"5f8d5fc960f84702a6041945","study_id":"6197b3f67c2b5cd3b6d9596a","session_id":"6197bc6b9db5ad53d966d3c2","condition":"contingent","relevant_dimensions":["pattern","legs"],"bee_group":{"antennae":"X","wings":"X","pattern":"D","legs":"F"},"bonus":1.300000000000001},{"rt":790.5,"stimulus":"bees-with-color/bee-A2SM.svg","response":0,"trial_type":"image-button-response","trial_index":140,"time_elapsed":202424,"internal_node_id":"0.0-6.0-0.4","subject_id":"5f8d5fc960f84702a6041945","study_id":"6197b3f67c2b5cd3b6d9596a","session_id":"6197bc6b9db5ad53d966d3c2","condition":"contingent","relevant_dimensions":["pattern","legs"],"bee_group":{"antennae":"X","wings":"X","pattern":"D","legs":"F"},"bonus":1.300000000000001},{"rt":639.4000000357628,"stimulus":"bees-with-color/bee-B2DF.svg","response":1,"trial_type":"image-button-response","trial_index":141,"time_elapsed":203065,"internal_node_id":"0.0-6.0-0.5","subject_id":"5f8d5fc960f84702a6041945","study_id":"6197b3f67c2b5cd3b6d9596a","session_id":"6197bc6b9db5ad53d966d3c2","condition":"contingent","relevant_dimensions":["pattern","legs"],"bee_group":{"antennae":"X","wings":"X","pattern":"D","legs":"F"},"bonus":1.300000000000001},{"rt":479.9000000357628,"stimulus":"bees-with-color/bee-A1SF.svg","response":1,"trial_type":"image-button-response","trial_index":142,"time_elapsed":203547,"internal_node_id":"0.0-6.0-0.6","subject_id":"5f8d5fc960f84702a6041945","study_id":"6197b3f67c2b5cd3b6d9596a","session_id":"6197bc6b9db5ad53d966d3c2","condition":"contingent","relevant_dimensions":["pattern","legs"],"bee_group":{"antennae":"X","wings":"X","pattern":"D","legs":"F"},"bonus":1.300000000000001},{"rt":432.30000001192093,"stimulus":"bees-with-color/bee-A1DF.svg","response":1,"trial_type":"image-button-response","trial_index":143,"time_elapsed":203982,"internal_node_id":"0.0-6.0-0.7","subject_id":"5f8d5fc960f84702a6041945","study_id":"6197b3f67c2b5cd3b6d9596a","session_id":"6197bc6b9db5ad53d966d3c2","condition":"contingent","relevant_dimensions":["pattern","legs"],"bee_group":{"antennae":"X","wings":"X","pattern":"D","legs":"F"},"bonus":1.300000000000001},{"rt":491.80000001192093,"stimulus":"bees-with-color/bee-B1SM.svg","response":0,"trial_type":"image-button-response","trial_index":144,"time_elapsed":204476,"internal_node_id":"0.0-6.0-0.8","subject_id":"5f8d5fc960f84702a6041945","study_id":"6197b3f67c2b5cd3b6d9596a","session_id":"6197bc6b9db5ad53d966d3c2","condition":"contingent","relevant_dimensions":["pattern","legs"],"bee_group":{"antennae":"X","wings":"X","pattern":"D","legs":"F"},"bonus":1.300000000000001},{"rt":621,"stimulus":"bees-with-color/bee-B1DF.svg","response":1,"trial_type":"image-button-response","trial_index":145,"time_elapsed":205099,"internal_node_id":"0.0-6.0-0.9","subject_id":"5f8d5fc960f84702a6041945","study_id":"6197b3f67c2b5cd3b6d9596a","session_id":"6197bc6b9db5ad53d966d3c2","condition":"contingent","relevant_dimensions":["pattern","legs"],"bee_group":{"antennae":"X","wings":"X","pattern":"D","legs":"F"},"bonus":1.300000000000001},{"rt":561.0999999642372,"stimulus":"bees-with-color/bee-A1SM.svg","response":0,"trial_type":"image-button-response","trial_index":146,"time_elapsed":205662,"internal_node_id":"0.0-6.0-0.10","subject_id":"5f8d5fc960f84702a6041945","study_id":"6197b3f67c2b5cd3b6d9596a","session_id":"6197bc6b9db5ad53d966d3c2","condition":"contingent","relevant_dimensions":["pattern","legs"],"bee_group":{"antennae":"X","wings":"X","pattern":"D","legs":"F"},"bonus":1.300000000000001},{"rt":510.30000001192093,"stimulus":"bees-with-color/bee-A2SF.svg","response":1,"trial_type":"image-button-response","trial_index":147,"time_elapsed":206174,"internal_node_id":"0.0-6.0-0.11","subject_id":"5f8d5fc960f84702a6041945","study_id":"6197b3f67c2b5cd3b6d9596a","session_id":"6197bc6b9db5ad53d966d3c2","condition":"contingent","relevant_dimensions":["pattern","legs"],"bee_group":{"antennae":"X","wings":"X","pattern":"D","legs":"F"},"bonus":1.300000000000001},{"rt":611.5,"stimulus":"bees-with-color/bee-A1DM.svg","response":0,"trial_type":"image-button-response","trial_index":148,"time_elapsed":206787,"internal_node_id":"0.0-6.0-0.12","subject_id":"5f8d5fc960f84702a6041945","study_id":"6197b3f67c2b5cd3b6d9596a","session_id":"6197bc6b9db5ad53d966d3c2","condition":"contingent","relevant_dimensions":["pattern","legs"],"bee_group":{"antennae":"X","wings":"X","pattern":"D","legs":"F"},"bonus":1.300000000000001},{"rt":465.7999999523163,"stimulus":"bees-with-color/bee-B1SF.svg","response":1,"trial_type":"image-button-response","trial_index":149,"time_elapsed":207254,"internal_node_id":"0.0-6.0-0.13","subject_id":"5f8d5fc960f84702a6041945","study_id":"6197b3f67c2b5cd3b6d9596a","session_id":"6197bc6b9db5ad53d966d3c2","condition":"contingent","relevant_dimensions":["pattern","legs"],"bee_group":{"antennae":"X","wings":"X","pattern":"D","legs":"F"},"bonus":1.300000000000001},{"rt":829.6000000238419,"stimulus":"bees-with-color/bee-A2DF.svg","response":1,"trial_type":"image-button-response","trial_index":150,"time_elapsed":208086,"internal_node_id":"0.0-6.0-0.14","subject_id":"5f8d5fc960f84702a6041945","study_id":"6197b3f67c2b5cd3b6d9596a","session_id":"6197bc6b9db5ad53d966d3c2","condition":"contingent","relevant_dimensions":["pattern","legs"],"bee_group":{"antennae":"X","wings":"X","pattern":"D","legs":"F"},"bonus":1.300000000000001},{"rt":479.60000002384186,"stimulus":"bees-with-color/bee-B2DM.svg","response":0,"trial_type":"image-button-response","trial_index":151,"time_elapsed":208567,"internal_node_id":"0.0-6.0-0.15","subject_id":"5f8d5fc960f84702a6041945","study_id":"6197b3f67c2b5cd3b6d9596a","session_id":"6197bc6b9db5ad53d966d3c2","condition":"contingent","relevant_dimensions":["pattern","legs"],"bee_group":{"antennae":"X","wings":"X","pattern":"D","legs":"F"},"bonus":1.300000000000001},{"rt":572.1000000238419,"stimulus":"bees-with-color/bee-B1DM.svg","response":0,"trial_type":"image-button-response","trial_index":152,"time_elapsed":209141,"internal_node_id":"0.0-6.0-0.16","subject_id":"5f8d5fc960f84702a6041945","study_id":"6197b3f67c2b5cd3b6d9596a","session_id":"6197bc6b9db5ad53d966d3c2","condition":"contingent","relevant_dimensions":["pattern","legs"],"bee_group":{"antennae":"X","wings":"X","pattern":"D","legs":"F"},"bonus":1.300000000000001},{"rt":554,"stimulus":"bees-with-color/bee-A1DF.svg","response":1,"trial_type":"image-button-response","trial_index":153,"time_elapsed":209697,"internal_node_id":"0.0-6.0-0.17","subject_id":"5f8d5fc960f84702a6041945","study_id":"6197b3f67c2b5cd3b6d9596a","session_id":"6197bc6b9db5ad53d966d3c2","condition":"contingent","relevant_dimensions":["pattern","legs"],"bee_group":{"antennae":"X","wings":"X","pattern":"D","legs":"F"},"bonus":1.300000000000001},{"rt":624.5,"stimulus":"bees-with-color/bee-B2SM.svg","response":0,"trial_type":"image-button-response","trial_index":154,"time_elapsed":210323,"internal_node_id":"0.0-6.0-0.18","subject_id":"5f8d5fc960f84702a6041945","study_id":"6197b3f67c2b5cd3b6d9596a","session_id":"6197bc6b9db5ad53d966d3c2","condition":"contingent","relevant_dimensions":["pattern","legs"],"bee_group":{"antennae":"X","wings":"X","pattern":"D","legs":"F"},"bonus":1.300000000000001},{"rt":736.6999999880791,"stimulus":"bees-with-color/bee-B2DM.svg","response":0,"trial_type":"image-button-response","trial_index":155,"time_elapsed":211061,"internal_node_id":"0.0-6.0-0.19","subject_id":"5f8d5fc960f84702a6041945","study_id":"6197b3f67c2b5cd3b6d9596a","session_id":"6197bc6b9db5ad53d966d3c2","condition":"contingent","relevant_dimensions":["pattern","legs"],"bee_group":{"antennae":"X","wings":"X","pattern":"D","legs":"F"},"bonus":1.300000000000001},{"rt":602,"stimulus":"bees-with-color/bee-B2DF.svg","response":1,"trial_type":"image-button-response","trial_index":156,"time_elapsed":211664,"internal_node_id":"0.0-6.0-0.20","subject_id":"5f8d5fc960f84702a6041945","study_id":"6197b3f67c2b5cd3b6d9596a","session_id":"6197bc6b9db5ad53d966d3c2","condition":"contingent","relevant_dimensions":["pattern","legs"],"bee_group":{"antennae":"X","wings":"X","pattern":"D","legs":"F"},"bonus":1.300000000000001},{"rt":609.5999999642372,"stimulus":"bees-with-color/bee-A1SM.svg","response":0,"trial_type":"image-button-response","trial_index":157,"time_elapsed":212276,"internal_node_id":"0.0-6.0-0.21","subject_id":"5f8d5fc960f84702a6041945","study_id":"6197b3f67c2b5cd3b6d9596a","session_id":"6197bc6b9db5ad53d966d3c2","condition":"contingent","relevant_dimensions":["pattern","legs"],"bee_group":{"antennae":"X","wings":"X","pattern":"D","legs":"F"},"bonus":1.300000000000001},{"rt":640.7000000476837,"stimulus":"bees-with-color/bee-A1DM.svg","response":0,"trial_type":"image-button-response","trial_index":158,"time_elapsed":212918,"internal_node_id":"0.0-6.0-0.22","subject_id":"5f8d5fc960f84702a6041945","study_id":"6197b3f67c2b5cd3b6d9596a","session_id":"6197bc6b9db5ad53d966d3c2","condition":"contingent","relevant_dimensions":["pattern","legs"],"bee_group":{"antennae":"X","wings":"X","pattern":"D","legs":"F"},"bonus":1.300000000000001},{"rt":469.30000001192093,"stimulus":"bees-with-color/bee-B1SF.svg","response":1,"trial_type":"image-button-response","trial_index":159,"time_elapsed":213389,"internal_node_id":"0.0-6.0-0.23","subject_id":"5f8d5fc960f84702a6041945","study_id":"6197b3f67c2b5cd3b6d9596a","session_id":"6197bc6b9db5ad53d966d3c2","condition":"contingent","relevant_dimensions":["pattern","legs"],"bee_group":{"antennae":"X","wings":"X","pattern":"D","legs":"F"},"bonus":1.300000000000001},{"rt":618.6000000238419,"stimulus":"bees-with-color/bee-B1DF.svg","response":1,"trial_type":"image-button-response","trial_index":160,"time_elapsed":214009,"internal_node_id":"0.0-6.0-0.24","subject_id":"5f8d5fc960f84702a6041945","study_id":"6197b3f67c2b5cd3b6d9596a","session_id":"6197bc6b9db5ad53d966d3c2","condition":"contingent","relevant_dimensions":["pattern","legs"],"bee_group":{"antennae":"X","wings":"X","pattern":"D","legs":"F"},"bonus":1.300000000000001},{"rt":470,"stimulus":"bees-with-color/bee-A2SM.svg","response":0,"trial_type":"image-button-response","trial_index":161,"time_elapsed":214481,"internal_node_id":"0.0-6.0-0.25","subject_id":"5f8d5fc960f84702a6041945","study_id":"6197b3f67c2b5cd3b6d9596a","session_id":"6197bc6b9db5ad53d966d3c2","condition":"contingent","relevant_dimensions":["pattern","legs"],"bee_group":{"antennae":"X","wings":"X","pattern":"D","legs":"F"},"bonus":1.300000000000001},{"rt":470.30000001192093,"stimulus":"bees-with-color/bee-A2SF.svg","response":1,"trial_type":"image-button-response","trial_index":162,"time_elapsed":214953,"internal_node_id":"0.0-6.0-0.26","subject_id":"5f8d5fc960f84702a6041945","study_id":"6197b3f67c2b5cd3b6d9596a","session_id":"6197bc6b9db5ad53d966d3c2","condition":"contingent","relevant_dimensions":["pattern","legs"],"bee_group":{"antennae":"X","wings":"X","pattern":"D","legs":"F"},"bonus":1.300000000000001},{"rt":470.4000000357628,"stimulus":"bees-with-color/bee-B1SM.svg","response":0,"trial_type":"image-button-response","trial_index":163,"time_elapsed":215425,"internal_node_id":"0.0-6.0-0.27","subject_id":"5f8d5fc960f84702a6041945","study_id":"6197b3f67c2b5cd3b6d9596a","session_id":"6197bc6b9db5ad53d966d3c2","condition":"contingent","relevant_dimensions":["pattern","legs"],"bee_group":{"antennae":"X","wings":"X","pattern":"D","legs":"F"},"bonus":1.300000000000001},{"rt":600.1000000238419,"stimulus":"bees-with-color/bee-A1SF.svg","response":1,"trial_type":"image-button-response","trial_index":164,"time_elapsed":216026,"internal_node_id":"0.0-6.0-0.28","subject_id":"5f8d5fc960f84702a6041945","study_id":"6197b3f67c2b5cd3b6d9596a","session_id":"6197bc6b9db5ad53d966d3c2","condition":"contingent","relevant_dimensions":["pattern","legs"],"bee_group":{"antennae":"X","wings":"X","pattern":"D","legs":"F"},"bonus":1.300000000000001},{"rt":741,"stimulus":"bees-with-color/bee-A2DF.svg","response":1,"trial_type":"image-button-response","trial_index":165,"time_elapsed":2