[{"success":true,"trial_type":"fullscreen","trial_index":0,"time_elapsed":12758,"internal_node_id":"0.0-0.0","subject_id":"5e2d08e41f0add31f6221c2b","study_id":"6197b3f67c2b5cd3b6d9596a","session_id":"6197b9f0b968f774b3c7c4d2","condition":"contingent","relevant_dimensions":["antennae","wings"],"bee_group":{"antennae":"A","wings":"1","pattern":"X","legs":"X"},"bonus":1.3800000000000008},{"success":true,"timeout":false,"failed_images":[],"failed_audio":[],"failed_video":[],"trial_type":"preload","trial_index":1,"time_elapsed":15356,"internal_node_id":"0.0-1.0","subject_id":"5e2d08e41f0add31f6221c2b","study_id":"6197b3f67c2b5cd3b6d9596a","session_id":"6197b9f0b968f774b3c7c4d2","condition":"contingent","relevant_dimensions":["antennae","wings"],"bee_group":{"antennae":"A","wings":"1","pattern":"X","legs":"X"},"bonus":1.3800000000000008},{"rt":83458.19999998808,"stimulus":"Welcome! Press any key to begin.","response":"enter","trial_type":"html-keyboard-response","trial_index":2,"time_elapsed":98813,"internal_node_id":"0.0-2.0","subject_id":"5e2d08e41f0add31f6221c2b","study_id":"6197b3f67c2b5cd3b6d9596a","session_id":"6197b9f0b968f774b3c7c4d2","condition":"contingent","relevant_dimensions":["antennae","wings"],"bee_group":{"antennae":"A","wings":"1","pattern":"X","legs":"X"},"bonus":1.3800000000000008},{"view_history":[{"page_index":0,"viewing_time":76171.60000002384},{"page_index":1,"viewing_time":11969.5},{"page_index":2,"viewing_time":10600.399999976158},{"page_index":3,"viewing_time":15666.5},{"page_index":4,"viewing_time":5533.100000023842},{"page_index":5,"viewing_time":6549.800000011921},{"page_index":6,"viewing_time":7786.399999976158},{"page_index":7,"viewing_time":5915.5},{"page_index":8,"viewing_time":6041.800000011921},{"page_index":9,"viewing_time":5349.300000011921},{"page_index":10,"viewing_time":2792.099999964237},{"page_index":11,"viewing_time":7819.800000011921},{"page_index":12,"viewing_time":7043.100000023842},{"page_index":13,"viewing_time":2152.699999988079},{"page_index":14,"viewing_time":2025.3999999761581}],"rt":173417.5,"trial_type":"instructions","trial_index":3,"time_elapsed":272232,"internal_node_id":"0.0-3.0-0.0","subject_id":"5e2d08e41f0add31f6221c2b","study_id":"6197b3f67c2b5cd3b6d9596a","session_id":"6197b9f0b968f774b3c7c4d2","condition":"contingent","relevant_dimensions":["antennae","wings"],"bee_group":{"antennae":"A","wings":"1","pattern":"X","legs":"X"},"bonus":1.3800000000000008},{"rt":13411.600000023842,"response":{"Q0":["Two or six legs","Stripes or spots on body","Single or double wings","Antennae or no antennae"]},"question_order":[0],"trial_type":"survey-multi-select","trial_index":4,"time_elapsed":285649,"internal_node_id":"0.0-3.0-1.0","subject_id":"5e2d08e41f0add31f6221c2b","study_id":"6197b3f67c2b5cd3b6d9596a","session_id":"6197b9f0b968f774b3c7c4d2","condition":"contingent","relevant_dimensions":["antennae","wings"],"bee_group":{"antennae":"A","wings":"1","pattern":"X","legs":"X"},"correct":true,"bonus":1.3800000000000008},{"rt":17883.30000001192,"response":{"Q1":"No.","Q2":"Based on the four features of the bee.","Q3":"You do not learn if it was friendly or dangerous, and do not alter your bonus."},"question_order":[0,1,2],"trial_type":"survey-multi-choice","trial_index":5,"time_elapsed":303538,"internal_node_id":"0.0-3.0-2.0","subject_id":"5e2d08e41f0add31f6221c2b","study_id":"6197b3f67c2b5cd3b6d9596a","session_id":"6197b9f0b968f774b3c7c4d2","condition":"contingent","relevant_dimensions":["antennae","wings"],"bee_group":{"antennae":"A","wings":"1","pattern":"X","legs":"X"},"correct":true,"bonus":1.3800000000000008},{"rt":2511.5,"stimulus":"<p>Congrats, you got everything right<br>When you're ready, click the button below to continue to the experiment.</p>","response":0,"trial_type":"html-button-response","trial_index":6,"time_elapsed":306052,"internal_node_id":"0.0-3.0-3.0","subject_id":"5e2d08e41f0add31f6221c2b","study_id":"6197b3f67c2b5cd3b6d9596a","session_id":"6197b9f0b968f774b3c7c4d2","condition":"contingent","relevant_dimensions":["antennae","wings"],"bee_group":{"antennae":"A","wings":"1","pattern":"X","legs":"X"},"bonus":1.3800000000000008},{"rt":5336.400000035763,"stimulus":"bees-with-color/bee-B2DF.svg","response":1,"trial_type":"image-button-response","trial_index":7,"time_elapsed":311393,"internal_node_id":"0.0-4.0-0.0","subject_id":"5e2d08e41f0add31f6221c2b","study_id":"6197b3f67c2b5cd3b6d9596a","session_id":"6197b9f0b968f774b3c7c4d2","condition":"contingent","relevant_dimensions":["antennae","wings"],"bee_group":{"antennae":"A","wings":"1","pattern":"X","legs":"X"},"action":"avoid","summary":"bad-avoid","bonus":1.3800000000000008},{"rt":7088.199999988079,"stimulus":"\n                    <p><b>Action: <em>avoid</em></b></p>\n                    <p>This is the bee that you just saw.</p>\n                    <img src=\"bees-with-color/bee-B2DF.svg\" width=\"200\">\n                    <p><br>Your bonus pay is unchanged, and remains at $0.54.</p>\n            ","response":0,"trial_type":"html-button-response","trial_index":8,"time_elapsed":318485,"internal_node_id":"0.0-4.0-1.0","subject_id":"5e2d08e41f0add31f6221c2b","study_id":"6197b3f67c2b5cd3b6d9596a","session_id":"6197b9f0b968f774b3c7c4d2","condition":"contingent","relevant_dimensions":["antennae","wings"],"bee_group":{"antennae":"A","wings":"1","pattern":"X","legs":"X"},"bonus":1.3800000000000008},{"rt":4091.800000011921,"stimulus":"bees-with-color/bee-A2SM.svg","response":0,"trial_type":"image-button-response","trial_index":9,"time_elapsed":322581,"internal_node_id":"0.0-4.0-0.1","subject_id":"5e2d08e41f0add31f6221c2b","study_id":"6197b3f67c2b5cd3b6d9596a","session_id":"6197b9f0b968f774b3c7c4d2","condition":"contingent","relevant_dimensions":["antennae","wings"],"bee_group":{"antennae":"A","wings":"1","pattern":"X","legs":"X"},"action":"harvest","summary":"good-harvest","bonus":1.3800000000000008},{"rt":5460.399999976158,"stimulus":"\n                    <p><b>Action: <em>harvest</em></b></p>\n                    <p>This is the bee that you just saw.</p>\n                    <img src=\"bees-with-color/bee-A2SM.svg\" width=\"200\">\n                    <p><span class=\"greenText\"><b>Successful harvest!</b></span><br>Your pay has increased by $0.02. Your bonus pay is now $0.56.</p>\n            ","response":0,"trial_type":"html-button-response","trial_index":10,"time_elapsed":328044,"internal_node_id":"0.0-4.0-1.1","subject_id":"5e2d08e41f0add31f6221c2b","study_id":"6197b3f67c2b5cd3b6d9596a","session_id":"6197b9f0b968f774b3c7c4d2","condition":"contingent","relevant_dimensions":["antennae","wings"],"bee_group":{"antennae":"A","wings":"1","pattern":"X","legs":"X"},"bonus":1.3800000000000008},{"rt":2956.699999988079,"stimulus":"bees-with-color/bee-A1DM.svg","response":1,"trial_type":"image-button-response","trial_index":11,"time_elapsed":331004,"internal_node_id":"0.0-4.0-0.2","subject_id":"5e2d08e41f0add31f6221c2b","study_id":"6197b3f67c2b5cd3b6d9596a","session_id":"6197b9f0b968f774b3c7c4d2","condition":"contingent","relevant_dimensions":["antennae","wings"],"bee_group":{"antennae":"A","wings":"1","pattern":"X","legs":"X"},"action":"avoid","summary":"good-avoid","bonus":1.3800000000000008},{"rt":5470.400000035763,"stimulus":"\n                    <p><b>Action: <em>avoid</em></b></p>\n                    <p>This is the bee that you just saw.</p>\n                    <img src=\"bees-with-color/bee-A1DM.svg\" width=\"200\">\n                    <p><br>Your bonus pay is unchanged, and remains at $0.56.</p>\n            ","response":0,"trial_type":"html-button-response","trial_index":12,"time_elapsed":336476,"internal_node_id":"0.0-4.0-1.2","subject_id":"5e2d08e41f0add31f6221c2b","study_id":"6197b3f67c2b5cd3b6d9596a","session_id":"6197b9f0b968f774b3c7c4d2","condition":"contingent","relevant_dimensions":["antennae","wings"],"bee_group":{"antennae":"A","wings":"1","pattern":"X","legs":"X"},"bonus":1.3800000000000008},{"rt":2686.399999976158,"stimulus":"bees-with-color/bee-B2DM.svg","response":1,"trial_type":"image-button-response","trial_index":13,"time_elapsed":339165,"internal_node_id":"0.0-4.0-0.3","subject_id":"5e2d08e41f0add31f6221c2b","study_id":"6197b3f67c2b5cd3b6d9596a","session_id":"6197b9f0b968f774b3c7c4d2","condition":"contingent","relevant_dimensions":["antennae","wings"],"bee_group":{"antennae":"A","wings":"1","pattern":"X","legs":"X"},"action":"avoid","summary":"bad-avoid","bonus":1.3800000000000008},{"rt":1818.8999999761581,"stimulus":"\n                    <p><b>Action: <em>avoid</em></b></p>\n                    <p>This is the bee that you just saw.</p>\n                    <img src=\"bees-with-color/bee-B2DM.svg\" width=\"200\">\n                    <p><br>Your bonus pay is unchanged, and remains at $0.56.</p>\n            ","response":0,"trial_type":"html-button-response","trial_index":14,"time_elapsed":340986,"internal_node_id":"0.0-4.0-1.3","subject_id":"5e2d08e41f0add31f6221c2b","study_id":"6197b3f67c2b5cd3b6d9596a","session_id":"6197b9f0b968f774b3c7c4d2","condition":"contingent","relevant_dimensions":["antennae","wings"],"bee_group":{"antennae":"A","wings":"1","pattern":"X","legs":"X"},"bonus":1.3800000000000008},{"rt":2005.5,"stimulus":"bees-with-color/bee-A2DM.svg","response":0,"trial_type":"image-button-response","trial_index":15,"time_elapsed":342994,"internal_node_id":"0.0-4.0-0.4","subject_id":"5e2d08e41f0add31f6221c2b","study_id":"6197b3f67c2b5cd3b6d9596a","session_id":"6197b9f0b968f774b3c7c4d2","condition":"contingent","relevant_dimensions":["antennae","wings"],"bee_group":{"antennae":"A","wings":"1","pattern":"X","legs":"X"},"action":"harvest","summary":"good-harvest","bonus":1.3800000000000008},{"rt":2380.2999999523163,"stimulus":"\n                    <p><b>Action: <em>harvest</em></b></p>\n                    <p>This is the bee that you just saw.</p>\n                    <img src=\"bees-with-color/bee-A2DM.svg\" width=\"200\">\n                    <p><span class=\"greenText\"><b>Successful harvest!</b></span><br>Your pay has increased by $0.02. Your bonus pay is now $0.58.</p>\n            ","response":0,"trial_type":"html-button-response","trial_index":16,"time_elapsed":345377,"internal_node_id":"0.0-4.0-1.4","subject_id":"5e2d08e41f0add31f6221c2b","study_id":"6197b3f67c2b5cd3b6d9596a","session_id":"6197b9f0b968f774b3c7c4d2","condition":"contingent","relevant_dimensions":["antennae","wings"],"bee_group":{"antennae":"A","wings":"1","pattern":"X","legs":"X"},"bonus":1.3800000000000008},{"rt":4175.800000011921,"stimulus":"bees-with-color/bee-B2SF.svg","response":0,"trial_type":"image-button-response","trial_index":17,"time_elapsed":349555,"internal_node_id":"0.0-4.0-0.5","subject_id":"5e2d08e41f0add31f6221c2b","study_id":"6197b3f67c2b5cd3b6d9596a","session_id":"6197b9f0b968f774b3c7c4d2","condition":"contingent","relevant_dimensions":["antennae","wings"],"bee_group":{"antennae":"A","wings":"1","pattern":"X","legs":"X"},"action":"harvest","summary":"good-harvest","bonus":1.3800000000000008},{"rt":3644.199999988079,"stimulus":"\n                    <p><b>Action: <em>harvest</em></b></p>\n                    <p>This is the bee that you just saw.</p>\n                    <img src=\"bees-with-color/bee-B2SF.svg\" width=\"200\">\n                    <p><span class=\"greenText\"><b>Successful harvest!</b></span><br>Your pay has increased by $0.02. Your bonus pay is now $0.60.</p>\n            ","response":0,"trial_type":"html-button-response","trial_index":18,"time_elapsed":353202,"internal_node_id":"0.0-4.0-1.5","subject_id":"5e2d08e41f0add31f6221c2b","study_id":"6197b3f67c2b5cd3b6d9596a","session_id":"6197b9f0b968f774b3c7c4d2","condition":"contingent","relevant_dimensions":["antennae","wings"],"bee_group":{"antennae":"A","wings":"1","pattern":"X","legs":"X"},"bonus":1.3800000000000008},{"rt":4613.100000023842,"stimulus":"bees-with-color/bee-A1DF.svg","response":1,"trial_type":"image-button-response","trial_index":19,"time_elapsed":357817,"internal_node_id":"0.0-4.0-0.6","subject_id":"5e2d08e41f0add31f6221c2b","study_id":"6197b3f67c2b5cd3b6d9596a","session_id":"6197b9f0b968f774b3c7c4d2","condition":"contingent","relevant_dimensions":["antennae","wings"],"bee_group":{"antennae":"A","wings":"1","pattern":"X","legs":"X"},"action":"avoid","summary":"good-avoid","bonus":1.3800000000000008},{"rt":1448.800000011921,"stimulus":"\n                    <p><b>Action: <em>avoid</em></b></p>\n                    <p>This is the bee that you just saw.</p>\n                    <img src=\"bees-with-color/bee-A1DF.svg\" width=\"200\">\n                    <p><br>Your bonus pay is unchanged, and remains at $0.60.</p>\n            ","response":0,"trial_type":"html-button-response","trial_index":20,"time_elapsed":359267,"internal_node_id":"0.0-4.0-1.6","subject_id":"5e2d08e41f0add31f6221c2b","study_id":"6197b3f67c2b5cd3b6d9596a","session_id":"6197b9f0b968f774b3c7c4d2","condition":"contingent","relevant_dimensions":["antennae","wings"],"bee_group":{"antennae":"A","wings":"1","pattern":"X","legs":"X"},"bonus":1.3800000000000008},{"rt":3947.2999999523163,"stimulus":"bees-with-color/bee-B1SF.svg","response":0,"trial_type":"image-button-response","trial_index":21,"time_elapsed":363217,"internal_node_id":"0.0-4.0-0.7","subject_id":"5e2d08e41f0add31f6221c2b","study_id":"6197b3f67c2b5cd3b6d9596a","session_id":"6197b9f0b968f774b3c7c4d2","condition":"contingent","relevant_dimensions":["antennae","wings"],"bee_group":{"antennae":"A","wings":"1","pattern":"X","legs":"X"},"action":"harvest","summary":"good-harvest","bonus":1.3800000000000008},{"rt":2114.599999964237,"stimulus":"\n                    <p><b>Action: <em>harvest</em></b></p>\n                    <p>This is the bee that you just saw.</p>\n                    <img src=\"bees-with-color/bee-B1SF.svg\" width=\"200\">\n                    <p><span class=\"greenText\"><b>Successful harvest!</b></span><br>Your pay has increased by $0.02. Your bonus pay is now $0.62.</p>\n            ","response":0,"trial_type":"html-button-response","trial_index":22,"time_elapsed":365334,"internal_node_id":"0.0-4.0-1.7","subject_id":"5e2d08e41f0add31f6221c2b","study_id":"6197b3f67c2b5cd3b6d9596a","session_id":"6197b9f0b968f774b3c7c4d2","condition":"contingent","relevant_dimensions":["antennae","wings"],"bee_group":{"antennae":"A","wings":"1","pattern":"X","legs":"X"},"bonus":1.3800000000000008},{"rt":2425.300000011921,"stimulus":"bees-with-color/bee-A2SF.svg","response":0,"trial_type":"image-button-response","trial_index":23,"time_elapsed":367762,"internal_node_id":"0.0-4.0-0.8","subject_id":"5e2d08e41f0add31f6221c2b","study_id":"6197b3f67c2b5cd3b6d9596a","session_id":"6197b9f0b968f774b3c7c4d2","condition":"contingent","relevant_dimensions":["antennae","wings"],"bee_group":{"antennae":"A","wings":"1","pattern":"X","legs":"X"},"action":"harvest","summary":"good-harvest","bonus":1.3800000000000008},{"rt":1670.7000000476837,"stimulus":"\n                    <p><b>Action: <em>harvest</em></b></p>\n                    <p>This is the bee that you just saw.</p>\n                    <img src=\"bees-with-color/bee-A2SF.svg\" width=\"200\">\n                    <p><span class=\"greenText\"><b>Successful harvest!</b></span><br>Your pay has increased by $0.02. Your bonus pay is now $0.64.</p>\n            ","response":0,"trial_type":"html-button-response","trial_index":24,"time_elapsed":369435,"internal_node_id":"0.0-4.0-1.8","subject_id":"5e2d08e41f0add31f6221c2b","study_id":"6197b3f67c2b5cd3b6d9596a","session_id":"6197b9f0b968f774b3c7c4d2","condition":"contingent","relevant_dimensions":["antennae","wings"],"bee_group":{"antennae":"A","wings":"1","pattern":"X","legs":"X"},"bonus":1.3800000000000008},{"rt":4304.100000023842,"stimulus":"bees-with-color/bee-A1SM.svg","response":1,"trial_type":"image-button-response","trial_index":25,"time_elapsed":373742,"internal_node_id":"0.0-4.0-0.9","subject_id":"5e2d08e41f0add31f6221c2b","study_id":"6197b3f67c2b5cd3b6d9596a","session_id":"6197b9f0b968f774b3c7c4d2","condition":"contingent","relevant_dimensions":["antennae","wings"],"bee_group":{"antennae":"A","wings":"1","pattern":"X","legs":"X"},"action":"avoid","summary":"good-avoid","bonus":1.3800000000000008},{"rt":2290,"stimulus":"\n                    <p><b>Action: <em>avoid</em></b></p>\n                    <p>This is the bee that you just saw.</p>\n                    <img src=\"bees-with-color/bee-A1SM.svg\" width=\"200\">\n                    <p><br>Your bonus pay is unchanged, and remains at $0.64.</p>\n            ","response":0,"trial_type":"html-button-response","trial_index":26,"time_elapsed":376034,"internal_node_id":"0.0-4.0-1.9","subject_id":"5e2d08e41f0add31f6221c2b","study_id":"6197b3f67c2b5cd3b6d9596a","session_id":"6197b9f0b968f774b3c7c4d2","condition":"contingent","relevant_dimensions":["antennae","wings"],"bee_group":{"antennae":"A","wings":"1","pattern":"X","legs":"X"},"bonus":1.3800000000000008},{"rt":2122,"stimulus":"bees-with-color/bee-A1SF.svg","response":0,"trial_type":"image-button-response","trial_index":27,"time_elapsed":378158,"internal_node_id":"0.0-4.0-0.10","subject_id":"5e2d08e41f0add31f6221c2b","study_id":"6197b3f67c2b5cd3b6d9596a","session_id":"6197b9f0b968f774b3c7c4d2","condition":"contingent","relevant_dimensions":["antennae","wings"],"bee_group":{"antennae":"A","wings":"1","pattern":"X","legs":"X"},"action":"harvest","summary":"bad-harvest","bonus":1.3800000000000008},{"rt":2016,"stimulus":"\n                    <p><b>Action: <em>harvest</em></b></p>\n                    <p>This is the bee that you just saw.</p>\n                    <img src=\"bees-with-color/bee-A1SF.svg\" width=\"200\">\n                    <p><span class=\"redText\">Bad choice, the bee was angry.</span><br><b>You have been stung!</b><br>Your pay has been decreased by $0.10. Your bonus pay is now $0.54.</p>\n            ","response":0,"trial_type":"html-button-response","trial_index":28,"time_elapsed":380176,"internal_node_id":"0.0-4.0-1.10","subject_id":"5e2d08e41f0add31f6221c2b","study_id":"6197b3f67c2b5cd3b6d9596a","session_id":"6197b9f0b968f774b3c7c4d2","condition":"contingent","relevant_dimensions":["antennae","wings"],"bee_group":{"antennae":"A","wings":"1","pattern":"X","legs":"X"},"bonus":1.3800000000000008},{"rt":3496.399999976158,"stimulus":"bees-with-color/bee-B1SM.svg","response":1,"trial_type":"image-button-response","trial_index":29,"time_elapsed":383675,"internal_node_id":"0.0-4.0-0.11","subject_id":"5e2d08e41f0add31f6221c2b","study_id":"6197b3f67c2b5cd3b6d9596a","session_id":"6197b9f0b968f774b3c7c4d2","condition":"contingent","relevant_dimensions":["antennae","wings"],"bee_group":{"antennae":"A","wings":"1","pattern":"X","legs":"X"},"action":"avoid","summary":"bad-avoid","bonus":1.3800000000000008},{"rt":1508.800000011921,"stimulus":"\n                    <p><b>Action: <em>avoid</em></b></p>\n                    <p>This is the bee that you just saw.</p>\n                    <img src=\"bees-with-color/bee-B1SM.svg\" width=\"200\">\n                    <p><br>Your bonus pay is unchanged, and remains at $0.54.</p>\n            ","response":0,"trial_type":"html-button-response","trial_index":30,"time_elapsed":385185,"internal_node_id":"0.0-4.0-1.11","subject_id":"5e2d08e41f0add31f6221c2b","study_id":"6197b3f67c2b5cd3b6d9596a","session_id":"6197b9f0b968f774b3c7c4d2","condition":"contingent","relevant_dimensions":["antennae","wings"],"bee_group":{"antennae":"A","wings":"1","pattern":"X","legs":"X"},"bonus":1.3800000000000008},{"rt":1812.699999988079,"stimulus":"bees-with-color/bee-B1DM.svg","response":1,"trial_type":"image-button-response","trial_index":31,"time_elapsed":387001,"internal_node_id":"0.0-4.0-0.12","subject_id":"5e2d08e41f0add31f6221c2b","study_id":"6197b3f67c2b5cd3b6d9596a","session_id":"6197b9f0b968f774b3c7c4d2","condition":"contingent","relevant_dimensions":["antennae","wings"],"bee_group":{"antennae":"A","wings":"1","pattern":"X","legs":"X"},"action":"avoid","summary":"bad-avoid","bonus":1.3800000000000008},{"rt":1298.6000000238419,"stimulus":"\n                    <p><b>Action: <em>avoid</em></b></p>\n                    <p>This is the bee that you just saw.</p>\n                    <img src=\"bees-with-color/bee-B1DM.svg\" width=\"200\">\n                    <p><br>Your bonus pay is unchanged, and remains at $0.54.</p>\n            ","response":0,"trial_type":"html-button-response","trial_index":32,"time_elapsed":388301,"internal_node_id":"0.0-4.0-1.12","subject_id":"5e2d08e41f0add31f6221c2b","study_id":"6197b3f67c2b5cd3b6d9596a","session_id":"6197b9f0b968f774b3c7c4d2","condition":"contingent","relevant_dimensions":["antennae","wings"],"bee_group":{"antennae":"A","wings":"1","pattern":"X","legs":"X"},"bonus":1.3800000000000008},{"rt":1839.300000011921,"stimulus":"bees-with-color/bee-A2DF.svg","response":0,"trial_type":"image-button-response","trial_index":33,"time_elapsed":390143,"internal_node_id":"0.0-4.0-0.13","subject_id":"5e2d08e41f0add31f6221c2b","study_id":"6197b3f67c2b5cd3b6d9596a","session_id":"6197b9f0b968f774b3c7c4d2","condition":"contingent","relevant_dimensions":["antennae","wings"],"bee_group":{"antennae":"A","wings":"1","pattern":"X","legs":"X"},"action":"harvest","summary":"good-harvest","bonus":1.3800000000000008},{"rt":1398.199999988079,"stimulus":"\n                    <p><b>Action: <em>harvest</em></b></p>\n                    <p>This is the bee that you just saw.</p>\n                    <img src=\"bees-with-color/bee-A2DF.svg\" width=\"200\">\n                    <p><span class=\"greenText\"><b>Successful harvest!</b></span><br>Your pay has increased by $0.02. Your bonus pay is now $0.56.</p>\n            ","response":0,"trial_type":"html-button-response","trial_index":34,"time_elapsed":391542,"internal_node_id":"0.0-4.0-1.13","subject_id":"5e2d08e41f0add31f6221c2b","study_id":"6197b3f67c2b5cd3b6d9596a","session_id":"6197b9f0b968f774b3c7c4d2","condition":"contingent","relevant_dimensions":["antennae","wings"],"bee_group":{"antennae":"A","wings":"1","pattern":"X","legs":"X"},"bonus":1.3800000000000008},{"rt":3715,"stimulus":"bees-with-color/bee-B2SM.svg","response":0,"trial_type":"image-button-response","trial_index":35,"time_elapsed":395260,"internal_node_id":"0.0-4.0-0.14","subject_id":"5e2d08e41f0add31f6221c2b","study_id":"6197b3f67c2b5cd3b6d9596a","session_id":"6197b9f0b968f774b3c7c4d2","condition":"contingent","relevant_dimensions":["antennae","wings"],"bee_group":{"antennae":"A","wings":"1","pattern":"X","legs":"X"},"action":"harvest","summary":"good-harvest","bonus":1.3800000000000008},{"rt":1430.5,"stimulus":"\n                    <p><b>Action: <em>harvest</em></b></p>\n                    <p>This is the bee that you just saw.</p>\n                    <img src=\"bees-with-color/bee-B2SM.svg\" width=\"200\">\n                    <p><span class=\"greenText\"><b>Successful harvest!</b></span><br>Your pay has increased by $0.02. Your bonus pay is now $0.58.</p>\n            ","response":0,"trial_type":"html-button-response","trial_index":36,"time_elapsed":396692,"internal_node_id":"0.0-4.0-1.14","subject_id":"5e2d08e41f0add31f6221c2b","study_id":"6197b3f67c2b5cd3b6d9596a","session_id":"6197b9f0b968f774b3c7c4d2","condition":"contingent","relevant_dimensions":["antennae","wings"],"bee_group":{"antennae":"A","wings":"1","pattern":"X","legs":"X"},"bonus":1.3800000000000008},{"rt":2884.099999964237,"stimulus":"bees-with-color/bee-B1DF.svg","response":1,"trial_type":"image-button-response","trial_index":37,"time_elapsed":399577,"internal_node_id":"0.0-4.0-0.15","subject_id":"5e2d08e41f0add31f6221c2b","study_id":"6197b3f67c2b5cd3b6d9596a","session_id":"6197b9f0b968f774b3c7c4d2","condition":"contingent","relevant_dimensions":["antennae","wings"],"bee_group":{"antennae":"A","wings":"1","pattern":"X","legs":"X"},"action":"avoid","summary":"bad-avoid","bonus":1.3800000000000008},{"rt":1512.800000011921,"stimulus":"\n                    <p><b>Action: <em>avoid</em></b></p>\n                    <p>This is the bee that you just saw.</p>\n                    <img src=\"bees-with-color/bee-B1DF.svg\" width=\"200\">\n                    <p><br>Your bonus pay is unchanged, and remains at $0.58.</p>\n            ","response":0,"trial_type":"html-button-response","trial_index":38,"time_elapsed":401092,"internal_node_id":"0.0-4.0-1.15","subject_id":"5e2d08e41f0add31f6221c2b","study_id":"6197b3f67c2b5cd3b6d9596a","session_id":"6197b9f0b968f774b3c7c4d2","condition":"contingent","relevant_dimensions":["antennae","wings"],"bee_group":{"antennae":"A","wings":"1","pattern":"X","legs":"X"},"bonus":1.3800000000000008},{"rt":1743.7999999523163,"stimulus":"bees-with-color/bee-B1DF.svg","response":1,"trial_type":"image-button-response","trial_index":39,"time_elapsed":402838,"internal_node_id":"0.0-4.0-0.16","subject_id":"5e2d08e41f0add31f6221c2b","study_id":"6197b3f67c2b5cd3b6d9596a","session_id":"6197b9f0b968f774b3c7c4d2","condition":"contingent","relevant_dimensions":["antennae","wings"],"bee_group":{"antennae":"A","wings":"1","pattern":"X","legs":"X"},"action":"avoid","summary":"bad-avoid","bonus":1.3800000000000008},{"rt":1367.300000011921,"stimulus":"\n                    <p><b>Action: <em>avoid</em></b></p>\n                    <p>This is the bee that you just saw.</p>\n                    <img src=\"bees-with-color/bee-B1DF.svg\" width=\"200\">\n                    <p><br>Your bonus pay is unchanged, and remains at $0.58.</p>\n            ","response":0,"trial_type":"html-button-response","trial_index":40,"time_elapsed":404207,"internal_node_id":"0.0-4.0-1.16","subject_id":"5e2d08e41f0add31f6221c2b","study_id":"6197b3f67c2b5cd3b6d9596a","session_id":"6197b9f0b968f774b3c7c4d2","condition":"contingent","relevant_dimensions":["antennae","wings"],"bee_group":{"antennae":"A","wings":"1","pattern":"X","legs":"X"},"bonus":1.3800000000000008},{"rt":6914.899999976158,"stimulus":"bees-with-color/bee-B1SF.svg","response":1,"trial_type":"image-button-response","trial_index":41,"time_elapsed":411125,"internal_node_id":"0.0-4.0-0.17","subject_id":"5e2d08e41f0add31f6221c2b","study_id":"6197b3f67c2b5cd3b6d9596a","session_id":"6197b9f0b968f774b3c7c4d2","condition":"contingent","relevant_dimensions":["antennae","wings"],"bee_group":{"antennae":"A","wings":"1","pattern":"X","legs":"X"},"action":"avoid","summary":"bad-avoid","bonus":1.3800000000000008},{"rt":1941.5,"stimulus":"\n                    <p><b>Action: <em>avoid</em></b></p>\n                    <p>This is the bee that you just saw.</p>\n                    <img src=\"bees-with-color/bee-B1SF.svg\" width=\"200\">\n                    <p><br>Your bonus pay is unchanged, and remains at $0.58.</p>\n            ","response":0,"trial_type":"html-button-response","trial_index":42,"time_elapsed":413068,"internal_node_id":"0.0-4.0-1.17","subject_id":"5e2d08e41f0add31f6221c2b","study_id":"6197b3f67c2b5cd3b6d9596a","session_id":"6197b9f0b968f774b3c7c4d2","condition":"contingent","relevant_dimensions":["antennae","wings"],"bee_group":{"antennae":"A","wings":"1","pattern":"X","legs":"X"},"bonus":1.3800000000000008},{"rt":1797.6000000238419,"stimulus":"bees-with-color/bee-B2DF.svg","response":0,"trial_type":"image-button-response","trial_index":43,"time_elapsed":414868,"internal_node_id":"0.0-4.0-0.18","subject_id":"5e2d08e41f0add31f6221c2b","study_id":"6197b3f67c2b5cd3b6d9596a","session_id":"6197b9f0b968f774b3c7c4d2","condition":"contingent","relevant_dimensions":["antennae","wings"],"bee_group":{"antennae":"A","wings":"1","pattern":"X","legs":"X"},"action":"harvest","summary":"good-harvest","bonus":1.3800000000000008},{"rt":1588.4000000357628,"stimulus":"\n                    <p><b>Action: <em>harvest</em></b></p>\n                    <p>This is the bee that you just saw.</p>\n                    <img src=\"bees-with-color/bee-B2DF.svg\" width=\"200\">\n                    <p><span class=\"greenText\"><b>Successful harvest!</b></span><br>Your pay has increased by $0.02. Your bonus pay is now $0.60.</p>\n            ","response":0,"trial_type":"html-button-response","trial_index":44,"time_elapsed":416458,"internal_node_id":"0.0-4.0-1.18","subject_id":"5e2d08e41f0add31f6221c2b","study_id":"6197b3f67c2b5cd3b6d9596a","session_id":"6197b9f0b968f774b3c7c4d2","condition":"contingent","relevant_dimensions":["antennae","wings"],"bee_group":{"antennae":"A","wings":"1","pattern":"X","legs":"X"},"bonus":1.3800000000000008},{"rt":1308,"stimulus":"bees-with-color/bee-B1DM.svg","response":1,"trial_type":"image-button-response","trial_index":45,"time_elapsed":417768,"internal_node_id":"0.0-4.0-0.19","subject_id":"5e2d08e41f0add31f6221c2b","study_id":"6197b3f67c2b5cd3b6d9596a","session_id":"6197b9f0b968f774b3c7c4d2","condition":"contingent","relevant_dimensions":["antennae","wings"],"bee_group":{"antennae":"A","wings":"1","pattern":"X","legs":"X"},"action":"avoid","summary":"bad-avoid","bonus":1.3800000000000008},{"rt":1272.300000011921,"stimulus":"\n                    <p><b>Action: <em>avoid</em></b></p>\n                    <p>This is the bee that you just saw.</p>\n                    <img src=\"bees-with-color/bee-B1DM.svg\" width=\"200\">\n                    <p><br>Your bonus pay is unchanged, and remains at $0.60.</p>\n            ","response":0,"trial_type":"html-button-response","trial_index":46,"time_elapsed":419042,"internal_node_id":"0.0-4.0-1.19","subject_id":"5e2d08e41f0add31f6221c2b","study_id":"6197b3f67c2b5cd3b6d9596a","session_id":"6197b9f0b968f774b3c7c4d2","condition":"contingent","relevant_dimensions":["antennae","wings"],"bee_group":{"antennae":"A","wings":"1","pattern":"X","legs":"X"},"bonus":1.3800000000000008},{"rt":1671.5999999642372,"stimulus":"bees-with-color/bee-A2DF.svg","response":0,"trial_type":"image-button-response","trial_index":47,"time_elapsed":420715,"internal_node_id":"0.0-4.0-0.20","subject_id":"5e2d08e41f0add31f6221c2b","study_id":"6197b3f67c2b5cd3b6d9596a","session_id":"6197b9f0b968f774b3c7c4d2","condition":"contingent","relevant_dimensions":["antennae","wings"],"bee_group":{"antennae":"A","wings":"1","pattern":"X","legs":"X"},"action":"harvest","summary":"good-harvest","bonus":1.3800000000000008},{"rt":1288.1000000238419,"stimulus":"\n                    <p><b>Action: <em>harvest</em></b></p>\n                    <p>This is the bee that you just saw.</p>\n                    <img src=\"bees-with-color/bee-A2DF.svg\" width=\"200\">\n                    <p><span class=\"greenText\"><b>Successful harvest!</b></span><br>Your pay has increased by $0.02. Your bonus pay is now $0.62.</p>\n            ","response":0,"trial_type":"html-button-response","trial_index":48,"time_elapsed":422005,"internal_node_id":"0.0-4.0-1.20","subject_id":"5e2d08e41f0add31f6221c2b","study_id":"6197b3f67c2b5cd3b6d9596a","session_id":"6197b9f0b968f774b3c7c4d2","condition":"contingent","relevant_dimensions":["antennae","wings"],"bee_group":{"antennae":"A","wings":"1","pattern":"X","legs":"X"},"bonus":1.3800000000000008},{"rt":2444.199999988079,"stimulus":"bees-with-color/bee-B2DM.svg","response":0,"trial_type":"image-button-response","trial_index":49,"time_elapsed":424450,"internal_node_id":"0.0-4.0-0.21","subject_id":"5e2d08e41f0add31f6221c2b","study_id":"6197b3f67c2b5cd3b6d9596a","session_id":"6197b9f0b968f774b3c7c4d2","condition":"contingent","relevant_dimensions":["antennae","wings"],"bee_group":{"antennae":"A","wings":"1","pattern":"X","legs":"X"},"action":"harvest","summary":"good-harvest","bonus":1.3800000000000008},{"rt":1298.699999988079,"stimulus":"\n                    <p><b>Action: <em>harvest</em></b></p>\n                    <p>This is the bee that you just saw.</p>\n                    <img src=\"bees-with-color/bee-B2DM.svg\" width=\"200\">\n                    <p><span class=\"greenText\"><b>Successful harvest!</b></span><br>Your pay has increased by $0.02. Your bonus pay is now $0.64.</p>\n            ","response":0,"trial_type":"html-button-response","trial_index":50,"time_elapsed":425751,"internal_node_id":"0.0-4.0-1.21","subject_id":"5e2d08e41f0add31f6221c2b","study_id":"6197b3f67c2b5cd3b6d9596a","session_id":"6197b9f0b968f774b3c7c4d2","condition":"contingent","relevant_dimensions":["antennae","wings"],"bee_group":{"antennae":"A","wings":"1","pattern":"X","legs":"X"},"bonus":1.3800000000000008},{"rt":1777.6000000238419,"stimulus":"bees-with-color/bee-A1DF.svg","response":1,"trial_type":"image-button-response","trial_index":51,"time_elapsed":427531,"internal_node_id":"0.0-4.0-0.22","subject_id":"5e2d08e41f0add31f6221c2b","study_id":"6197b3f67c2b5cd3b6d9596a","session_id":"6197b9f0b968f774b3c7c4d2","condition":"contingent","relevant_dimensions":["antennae","wings"],"bee_group":{"antennae":"A","wings":"1","pattern":"X","legs":"X"},"action":"avoid","summary":"good-avoid","bonus":1.3800000000000008},{"rt":1477.6000000238419,"stimulus":"\n                    <p><b>Action: <em>avoid</em></b></p>\n                    <p>This is the bee that you just saw.</p>\n                    <img src=\"bees-with-color/bee-A1DF.svg\" width=\"200\">\n                    <p><br>Your bonus pay is unchanged, and remains at $0.64.</p>\n            ","response":0,"trial_type":"html-button-response","trial_index":52,"time_elapsed":429010,"internal_node_id":"0.0-4.0-1.22","subject_id":"5e2d08e41f0add31f6221c2b","study_id":"6197b3f67c2b5cd3b6d9596a","session_id":"6197b9f0b968f774b3c7c4d2","condition":"contingent","relevant_dimensions":["antennae","wings"],"bee_group":{"antennae":"A","wings":"1","pattern":"X","legs":"X"},"bonus":1.3800000000000008},{"rt":1862.6000000238419,"stimulus":"bees-with-color/bee-A1SM.svg","response":1,"trial_type":"image-button-response","trial_index":53,"time_elapsed":430874,"internal_node_id":"0.0-4.0-0.23","subject_id":"5e2d08e41f0add31f6221c2b","study_id":"6197b3f67c2b5cd3b6d9596a","session_id":"6197b9f0b968f774b3c7c4d2","condition":"contingent","relevant_dimensions":["antennae","wings"],"bee_group":{"antennae":"A","wings":"1","pattern":"X","legs":"X"},"action":"avoid","summary":"good-avoid","bonus":1.3800000000000008},{"rt":2166.5,"stimulus":"\n                    <p><b>Action: <em>avoid</em></b></p>\n                    <p>This is the bee that you just saw.</p>\n                    <img src=\"bees-with-color/bee-A1SM.svg\" width=\"200\">\n                    <p><br>Your bonus pay is unchanged, and remains at $0.64.</p>\n            ","response":0,"trial_type":"html-button-response","trial_index":54,"time_elapsed":433043,"internal_node_id":"0.0-4.0-1.23","subject_id":"5e2d08e41f0add31f6221c2b","study_id":"6197b3f67c2b5cd3b6d9596a","session_id":"6197b9f0b968f774b3c7c4d2","condition":"contingent","relevant_dimensions":["antennae","wings"],"bee_group":{"antennae":"A","wings":"1","pattern":"X","legs":"X"},"bonus":1.3800000000000008},{"rt":2069.699999988079,"stimulus":"bees-with-color/bee-A1DM.svg","response":1,"trial_type":"image-button-response","trial_index":55,"time_elapsed":435115,"internal_node_id":"0.0-4.0-0.24","subject_id":"5e2d08e41f0add31f6221c2b","study_id":"6197b3f67c2b5cd3b6d9596a","session_id":"6197b9f0b968f774b3c7c4d2","condition":"contingent","relevant_dimensions":["antennae","wings"],"bee_group":{"antennae":"A","wings":"1","pattern":"X","legs":"X"},"action":"avoid","summary":"good-avoid","bonus":1.3800000000000008},{"rt":1342.1000000238419,"stimulus":"\n                    <p><b>Action: <em>avoid</em></b></p>\n                    <p>This is the bee that you just saw.</p>\n                    <img src=\"bees-with-color/bee-A1DM.svg\" width=\"200\">\n                    <p><br>Your bonus pay is unchanged, and remains at $0.64.</p>\n            ","response":0,"trial_type":"html-button-response","trial_index":56,"time_elapsed":436459,"internal_node_id":"0.0-4.0-1.24","subject_id":"5e2d08e41f0add31f6221c2b","study_id":"6197b3f67c2b5cd3b6d9596a","session_id":"6197b9f0b968f774b3c7c4d2","condition":"contingent","relevant_dimensions":["antennae","wings"],"bee_group":{"antennae":"A","wings":"1","pattern":"X","legs":"X"},"bonus":1.3800000000000008},{"rt":1673.9000000357628,"stimulus":"bees-with-color/bee-B2SF.svg","response":0,"trial_type":"image-button-response","trial_index":57,"time_elapsed":438135,"internal_node_id":"0.0-4.0-0.25","subject_id":"5e2d08e41f0add31f6221c2b","study_id":"6197b3f67c2b5cd3b6d9596a","session_id":"6197b9f0b968f774b3c7c4d2","condition":"contingent","relevant_dimensions":["antennae","wings"],"bee_group":{"antennae":"A","wings":"1","pattern":"X","legs":"X"},"action":"harvest","summary":"good-harvest","bonus":1.3800000000000008},{"rt":1224.300000011921,"stimulus":"\n                    <p><b>Action: <em>harvest</em></b></p>\n                    <p>This is the bee that you just saw.</p>\n                    <img src=\"bees-with-color/bee-B2SF.svg\" width=\"200\">\n                    <p><span class=\"greenText\"><b>Successful harvest!</b></span><br>Your pay has increased by $0.02. Your bonus pay is now $0.66.</p>\n            ","response":0,"trial_type":"html-button-response","trial_index":58,"time_elapsed":439361,"internal_node_id":"0.0-4.0-1.25","subject_id":"5e2d08e41f0add31f6221c2b","study_id":"6197b3f67c2b5cd3b6d9596a","session_id":"6197b9f0b968f774b3c7c4d2","condition":"contingent","relevant_dimensions":["antennae","wings"],"bee_group":{"antennae":"A","wings":"1","pattern":"X","legs":"X"},"bonus":1.3800000000000008},{"rt":2326.800000011921,"stimulus":"bees-with-color/bee-A2DM.svg","response":0,"trial_type":"image-button-response","trial_index":59,"time_elapsed":441690,"internal_node_id":"0.0-4.0-0.26","subject_id":"5e2d08e41f0add31f6221c2b","study_id":"6197b3f67c2b5cd3b6d9596a","session_id":"6197b9f0b968f774b3c7c4d2","condition":"contingent","relevant_dimensions":["antennae","wings"],"bee_group":{"antennae":"A","wings":"1","pattern":"X","legs":"X"},"action":"harvest","summary":"good-harvest","bonus":1.3800000000000008},{"rt":1126.0999999642372,"stimulus":"\n                    <p><b>Action: <em>harvest</em></b></p>\n                    <p>This is the bee that you just saw.</p>\n                    <img src=\"bees-with-color/bee-A2DM.svg\" width=\"200\">\n                    <p><span class=\"greenText\"><b>Successful harvest!</b></span><br>Your pay has increased by $0.02. Your bonus pay is now $0.68.</p>\n            ","response":0,"trial_type":"html-button-response","trial_index":60,"time_elapsed":442818,"internal_node_id":"0.0-4.0-1.26","subject_id":"5e2d08e41f0add31f6221c2b","study_id":"6197b3f67c2b5cd3b6d9596a","session_id":"6197b9f0b968f774b3c7c4d2","condition":"contingent","relevant_dimensions":["antennae","wings"],"bee_group":{"antennae":"A","wings":"1","pattern":"X","legs":"X"},"bonus":1.3800000000000008},{"rt":1338.5999999642372,"stimulus":"bees-with-color/bee-A1SF.svg","response":1,"trial_type":"image-button-response","trial_index":61,"time_elapsed":444159,"internal_node_id":"0.0-4.0-0.27","subject_id":"5e2d08e41f0add31f6221c2b","study_id":"6197b3f67c2b5cd3b6d9596a","session_id":"6197b9f0b968f774b3c7c4d2","condition":"contingent","relevant_dimensions":["antennae","wings"],"bee_group":{"antennae":"A","wings":"1","pattern":"X","legs":"X"},"action":"avoid","summary":"good-avoid","bonus":1.3800000000000008},{"rt":1207.5,"stimulus":"\n                    <p><b>Action: <em>avoid</em></b></p>\n                    <p>This is the bee that you just saw.</p>\n                    <img src=\"bees-with-color/bee-A1SF.svg\" width=\"200\">\n                    <p><br>Your bonus pay is unchanged, and remains at $0.68.</p>\n            ","response":0,"trial_type":"html-button-response","trial_index":62,"time_elapsed":445368,"internal_node_id":"0.0-4.0-1.27","subject_id":"5e2d08e41f0add31f6221c2b","study_id":"6197b3f67c2b5cd3b6d9596a","session_id":"6197b9f0b968f774b3c7c4d2","condition":"contingent","relevant_dimensions":["antennae","wings"],"bee_group":{"antennae":"A","wings":"1","pattern":"X","legs":"X"},"bonus":1.3800000000000008},{"rt":2330.600000023842,"stimulus":"bees-with-color/bee-A2SF.svg","response":0,"trial_type":"image-button-response","trial_index":63,"time_elapsed":447701,"internal_node_id":"0.0-4.0-0.28","subject_id":"5e2d08e41f0add31f6221c2b","study_id":"6197b3f67c2b5cd3b6d9596a","session_id":"6197b9f0b968f774b3c7c4d2","condition":"contingent","relevant_dimensions":["antennae","wings"],"bee_group":{"antennae":"A","wings":"1","pattern":"X","legs":"X"},"action":"harvest","summary":"good-harvest","bonus":1.3800000000000008},{"rt":1148.5,"stimulus":"\n                    <p><b>Action: <em>harvest</em></b></p>\n                    <p>This is the bee that you just saw.</p>\n                    <img src=\"bees-with-color/bee-A2SF.svg\" width=\"200\">\n                    <p><span class=\"greenText\"><b>Successful harvest!</b></span><br>Your pay has increased by $0.02. Your bonus pay is now $0.70.</p>\n            ","response":0,"trial_type":"html-button-response","trial_index":64,"time_elapsed":448851,"internal_node_id":"0.0-4.0-1.28","subject_id":"5e2d08e41f0add31f6221c2b","study_id":"6197b3f67c2b5cd3b6d9596a","session_id":"6197b9f0b968f774b3c7c4d2","condition":"contingent","relevant_dimensions":["antennae","wings"],"bee_group":{"antennae":"A","wings":"1","pattern":"X","legs":"X"},"bonus":1.3800000000000008},{"rt":2125.5,"stimulus":"bees-with-color/bee-B2SM.svg","response":0,"trial_type":"image-button-response","trial_index":65,"time_elapsed":450979,"internal_node_id":"0.0-4.0-0.29","subject_id":"5e2d08e41f0add31f6221c2b","study_id":"6197b3f67c2b5cd3b6d9596a","session_id":"6197b9f0b968f774b3c7c4d2","condition":"contingent","relevant_dimensions":["antennae","wings"],"bee_group":{"antennae":"A","wings":"1","pattern":"X","legs":"X"},"action":"harvest","summary":"good-harvest","bonus":1.3800000000000008},{"rt":1255.5,"stimulus":"\n                    <p><b>Action: <em>harvest</em></b></p>\n                    <p>This is the bee that you just saw.</p>\n                    <img src=\"bees-with-color/bee-B2SM.svg\" width=\"200\">\n                    <p><span class=\"greenText\"><b>Successful harvest!</b></span><br>Your pay has increased by $0.02. Your bonus pay is now $0.72.</p>\n            ","response":0,"trial_type":"html-button-response","trial_index":66,"time_elapsed":452236,"internal_node_id":"0.0-4.0-1.29","subject_id":"5e2d08e41f0add31f6221c2b","study_id":"6197b3f67c2b5cd3b6d9596a","session_id":"6197b9f0b968f774b3c7c4d2","condition":"contingent","relevant_dimensions":["antennae","wings"],"bee_group":{"antennae":"A","wings":"1","pattern":"X","legs":"X"},"bonus":1.3800000000000008},{"rt":1369.800000011921,"stimulus":"bees-with-color/bee-B1SM.svg","response":1,"trial_type":"image-button-response","trial_index":67,"time_elapsed":453608,"internal_node_id":"0.0-4.0-0.30","subject_id":"5e2d08e41f0add31f6221c2b","study_id":"6197b3f67c2b5cd3b6d9596a","session_id":"6197b9f0b968f774b3c7c4d2","condition":"contingent","relevant_dimensions":["antennae","wings"],"bee_group":{"antennae":"A","wings":"1","pattern":"X","legs":"X"},"action":"avoid","summary":"bad-avoid","bonus":1.3800000000000008},{"rt":1240.0999999642372,"stimulus":"\n                    <p><b>Action: <em>avoid</em></b></p>\n                    <p>This is the bee that you just saw.</p>\n                    <img src=\"bees-with-color/bee-B1SM.svg\" width=\"200\">\n                    <p><br>Your bonus pay is unchanged, and remains at $0.72.</p>\n            ","response":0,"trial_type":"html-button-response","trial_index":68,"time_elapsed":454850,"internal_node_id":"0.0-4.0-1.30","subject_id":"5e2d08e41f0add31f6221c2b","study_id":"6197b3f67c2b5cd3b6d9596a","session_id":"6197b9f0b968f774b3c7c4d2","condition":"contingent","relevant_dimensions":["antennae","wings"],"bee_group":{"antennae":"A","wings":"1","pattern":"X","legs":"X"},"bonus":1.3800000000000008},{"rt":1343.4000000357628,"stimulus":"bees-with-color/bee-A2SM.svg","response":0,"trial_type":"image-button-response","trial_index":69,"time_elapsed":456195,"internal_node_id":"0.0-4.0-0.31","subject_id":"5e2d08e41f0add31f6221c2b","study_id":"6197b3f67c2b5cd3b6d9596a","session_id":"6197b9f0b968f774b3c7c4d2","condition":"contingent","relevant_dimensions":["antennae","wings"],"bee_group":{"antennae":"A","wings":"1","pattern":"X","legs":"X"},"action":"harvest","summary":"good-harvest","bonus":1.3800000000000008},{"rt":1278.9000000357628,"stimulus":"\n                    <p><b>Action: <em>harvest</em></b></p>\n                    <p>This is the bee that you just saw.</p>\n                    <img src=\"bees-with-color/bee-A2SM.svg\" width=\"200\">\n                    <p><span class=\"greenText\"><b>Successful harvest!</b></span><br>Your pay has increased by $0.02. Your bonus pay is now $0.74.</p>\n            ","response":0,"trial_type":"html-button-response","trial_index":70,"time_elapsed":457475,"internal_node_id":"0.0-4.0-1.31","subject_id":"5e2d08e41f0add31f6221c2b","study_id":"6197b3f67c2b5cd3b6d9596a","session_id":"6197b9f0b968f774b3c7c4d2","condition":"contingent","relevant_dimensions":["antennae","wings"],"bee_group":{"antennae":"A","wings":"1","pattern":"X","legs":"X"},"bonus":1.3800000000000008},{"rt":1815.800000011921,"stimulus":"bees-with-color/bee-A2SF.svg","response":0,"trial_type":"image-button-response","trial_index":71,"time_elapsed":459293,"internal_node_id":"0.0-4.0-0.32","subject_id":"5e2d08e41f0add31f6221c2b","study_id":"6197b3f67c2b5cd3b6d9596a","session_id":"6197b9f0b968f774b3c7c4d2","condition":"contingent","relevant_dimensions":["antennae","wings"],"bee_group":{"antennae":"A","wings":"1","pattern":"X","legs":"X"},"action":"harvest","summary":"good-harvest","bonus":1.3800000000000008},{"rt":1193.300000011921,"stimulus":"\n                    <p><b>Action: <em>harvest</em></b></p>\n                    <p>This is the bee that you just saw.</p>\n                    <img src=\"bees-with-color/bee-A2SF.svg\" width=\"200\">\n                    <p><span class=\"greenText\"><b>Successful harvest!</b></span><br>Your pay has increased by $0.02. Your bonus pay is now $0.76.</p>\n            ","response":0,"trial_type":"html-button-response","trial_index":72,"time_elapsed":460488,"internal_node_id":"0.0-4.0-1.32","subject_id":"5e2d08e41f0add31f6221c2b","study_id":"6197b3f67c2b5cd3b6d9596a","session_id":"6197b9f0b968f774b3c7c4d2","condition":"contingent","relevant_dimensions":["antennae","wings"],"bee_group":{"antennae":"A","wings":"1","pattern":"X","legs":"X"},"bonus":1.3800000000000008},{"rt":3137,"stimulus":"bees-with-color/bee-A1SM.svg","response":1,"trial_type":"image-button-response","trial_index":73,"time_elapsed":463626,"internal_node_id":"0.0-4.0-0.33","subject_id":"5e2d08e41f0add31f6221c2b","study_id":"6197b3f67c2b5cd3b6d9596a","session_id":"6197b9f0b968f774b3c7c4d2","condition":"contingent","relevant_dimensions":["antennae","wings"],"bee_group":{"antennae":"A","wings":"1","pattern":"X","legs":"X"},"action":"avoid","summary":"good-avoid","bonus":1.3800000000000008},{"rt":1589.800000011921,"stimulus":"\n                    <p><b>Action: <em>avoid</em></b></p>\n                    <p>This is the bee that you just saw.</p>\n                    <img src=\"bees-with-color/bee-A1SM.svg\" width=\"200\">\n                    <p><br>Your bonus pay is unchanged, and remains at $0.76.</p>\n            ","response":0,"trial_type":"html-button-response","trial_index":74,"time_elapsed":465218,"internal_node_id":"0.0-4.0-1.33","subject_id":"5e2d08e41f0add31f6221c2b","study_id":"6197b3f67c2b5cd3b6d9596a","session_id":"6197b9f0b968f774b3c7c4d2","condition":"contingent","relevant_dimensions":["antennae","wings"],"bee_group":{"antennae":"A","wings":"1","pattern":"X","legs":"X"},"bonus":1.3800000000000008},{"rt":1382.3999999761581,"stimulus":"bees-with-color/bee-A2DM.svg","response":0,"trial_type":"image-button-response","trial_index":75,"time_elapsed":466602,"internal_node_id":"0.0-4.0-0.34","subject_id":"5e2d08e41f0add31f6221c2b","study_id":"6197b3f67c2b5cd3b6d9596a","session_id":"6197b9f0b968f774b3c7c4d2","condition":"contingent","relevant_dimensions":["antennae","wings"],"bee_group":{"antennae":"A","wings":"1","pattern":"X","legs":"X"},"action":"harvest","summary":"good-harvest","bonus":1.3800000000000008},{"rt":1137.800000011921,"stimulus":"\n                    <p><b>Action: <em>harvest</em></b></p>\n                    <p>This is the bee that you just saw.</p>\n                    <img src=\"bees-with-color/bee-A2DM.svg\" width=\"200\">\n                    <p><span class=\"greenText\"><b>Successful harvest!</b></span><br>Your pay has increased by $0.02. Your bonus pay is now $0.78.</p>\n            ","response":0,"trial_type":"html-button-response","trial_index":76,"time_elapsed":467742,"internal_node_id":"0.0-4.0-1.34","subject_id":"5e2d08e41f0add31f6221c2b","study_id":"6197b3f67c2b5cd3b6d9596a","session_id":"6197b9f0b968f774b3c7c4d2","condition":"contingent","relevant_dimensions":["antennae","wings"],"bee_group":{"antennae":"A","wings":"1","pattern":"X","legs":"X"},"bonus":1.3800000000000008},{"rt":1380.8999999761581,"stimulus":"bees-with-color/bee-A1DM.svg","response":1,"trial_type":"image-button-response","trial_index":77,"time_elapsed":469125,"internal_node_id":"0.0-4.0-0.35","subject_id":"5e2d08e41f0add31f6221c2b","study_id":"6197b3f67c2b5cd3b6d9596a","session_id":"6197b9f0b968f774b3c7c4d2","condition":"contingent","relevant_dimensions":["antennae","wings"],"bee_group":{"antennae":"A","wings":"1","pattern":"X","legs":"X"},"action":"avoid","summary":"good-avoid","bonus":1.3800000000000008},{"rt":1123.800000011921,"stimulus":"\n                    <p><b>Action: <em>avoid</em></b></p>\n                    <p>This is the bee that you just saw.</p>\n                    <img src=\"bees-with-color/bee-A1DM.svg\" width=\"200\">\n                    <p><br>Your bonus pay is unchanged, and remains at $0.78.</p>\n            ","response":0,"trial_type":"html-button-response","trial_index":78,"time_elapsed":470251,"internal_node_id":"0.0-4.0-1.35","subject_id":"5e2d08e41f0add31f6221c2b","study_id":"6197b3f67c2b5cd3b6d9596a","session_id":"6197b9f0b968f774b3c7c4d2","condition":"contingent","relevant_dimensions":["antennae","wings"],"bee_group":{"antennae":"A","wings":"1","pattern":"X","legs":"X"},"bonus":1.3800000000000008},{"rt":1556.2999999523163,"stimulus":"bees-with-color/bee-B2DF.svg","response":0,"trial_type":"image-button-response","trial_index":79,"time_elapsed":471809,"internal_node_id":"0.0-4.0-0.36","subject_id":"5e2d08e41f0add31f6221c2b","study_id":"6197b3f67c2b5cd3b6d9596a","session_id":"6197b9f0b968f774b3c7c4d2","condition":"contingent","relevant_dimensions":["antennae","wings"],"bee_group":{"antennae":"A","wings":"1","pattern":"X","legs":"X"},"action":"harvest","summary":"good-harvest","bonus":1.3800000000000008},{"rt":1292.699999988079,"stimulus":"\n                    <p><b>Action: <em>harvest</em></b></p>\n                    <p>This is the bee that you just saw.</p>\n                    <img src=\"bees-with-color/bee-B2DF.svg\" width=\"200\">\n                    <p><span class=\"greenText\"><b>Successful harvest!</b></span><br>Your pay has increased by $0.02. Your bonus pay is now $0.80.</p>\n            ","response":0,"trial_type":"html-button-response","trial_index":80,"time_elapsed":473103,"internal_node_id":"0.0-4.0-1.36","subject_id":"5e2d08e41f0add31f6221c2b","study_id":"6197b3f67c2b5cd3b6d9596a","session_id":"6197b9f0b968f774b3c7c4d2","condition":"contingent","relevant_dimensions":["antennae","wings"],"bee_group":{"antennae":"A","wings":"1","pattern":"X","legs":"X"},"bonus":1.3800000000000008},{"rt":1532.800000011921,"stimulus":"bees-with-color/bee-B2DM.svg","response":0,"trial_type":"image-button-response","trial_index":81,"time_elapsed":474638,"internal_node_id":"0.0-4.0-0.37","subject_id":"5e2d08e41f0add31f6221c2b","study_id":"6197b3f67c2b5cd3b6d9596a","session_id":"6197b9f0b968f774b3c7c4d2","condition":"contingent","relevant_dimensions":["antennae","wings"],"bee_group":{"antennae":"A","wings":"1","pattern":"X","legs":"X"},"action":"harvest","summary":"good-harvest","bonus":1.3800000000000008},{"rt":1195.300000011921,"stimulus":"\n                    <p><b>Action: <em>harvest</em></b></p>\n                    <p>This is the bee that you just saw.</p>\n                    <img src=\"bees-with-color/bee-B2DM.svg\" width=\"200\">\n                    <p><span class=\"greenText\"><b>Successful harvest!</b></span><br>Your pay has increased by $0.02. Your bonus pay is now $0.82.</p>\n            ","response":0,"trial_type":"html-button-response","trial_index":82,"time_elapsed":475835,"internal_node_id":"0.0-4.0-1.37","subject_id":"5e2d08e41f0add31f6221c2b","study_id":"6197b3f67c2b5cd3b6d9596a","session_id":"6197b9f0b968f774b3c7c4d2","condition":"contingent","relevant_dimensions":["antennae","wings"],"bee_group":{"antennae":"A","wings":"1","pattern":"X","legs":"X"},"bonus":1.3800000000000008},{"rt":2021.699999988079,"stimulus":"bees-with-color/bee-B2SM.svg","response":0,"trial_type":"image-button-response","trial_index":83,"time_elapsed":477861,"internal_node_id":"0.0-4.0-0.38","subject_id":"5e2d08e41f0add31f6221c2b","study_id":"6197b3f67c2b5cd3b6d9596a","session_id":"6197b9f0b968f774b3c7c4d2","condition":"contingent","relevant_dimensions":["antennae","wings"],"bee_group":{"antennae":"A","wings":"1","pattern":"X","legs":"X"},"action":"harvest","summary":"good-harvest","bonus":1.3800000000000008},{"rt":1107.3999999761581,"stimulus":"\n                    <p><b>Action: <em>harvest</em></b></p>\n                    <p>This is the bee that you just saw.</p>\n                    <img src=\"bees-with-color/bee-B2SM.svg\" width=\"200\">\n                    <p><span class=\"greenText\"><b>Successful harvest!</b></span><br>Your pay has increased by $0.02. Your bonus pay is now $0.84.</p>\n            ","response":0,"trial_type":"html-button-response","trial_index":84,"time_elapsed":478970,"internal_node_id":"0.0-4.0-1.38","subject_id":"5e2d08e41f0add31f6221c2b","study_id":"6197b3f67c2b5cd3b6d9596a","session_id":"6197b9f0b968f774b3c7c4d2","condition":"contingent","relevant_dimensions":["antennae","wings"],"bee_group":{"antennae":"A","wings":"1","pattern":"X","legs":"X"},"bonus":1.3800000000000008},{"rt":1354.5,"stimulus":"bees-with-color/bee-B1SF.svg","response":1,"trial_type":"image-button-response","trial_index":85,"time_elapsed":480327,"internal_node_id":"0.0-4.0-0.39","subject_id":"5e2d08e41f0add31f6221c2b","study_id":"6197b3f67c2b5cd3b6d9596a","session_id":"6197b9f0b968f774b3c7c4d2","condition":"contingent","relevant_dimensions":["antennae","wings"],"bee_group":{"antennae":"A","wings":"1","pattern":"X","legs":"X"},"action":"avoid","summary":"bad-avoid","bonus":1.3800000000000008},{"rt":1036.5,"stimulus":"\n                    <p><b>Action: <em>avoid</em></b></p>\n                    <p>This is the bee that you just saw.</p>\n                    <img src=\"bees-with-color/bee-B1SF.svg\" width=\"200\">\n                    <p><br>Your bonus pay is unchanged, and remains at $0.84.</p>\n            ","response":0,"trial_type":"html-button-response","trial_index":86,"time_elapsed":481365,"internal_node_id":"0.0-4.0-1.39","subject_id":"5e2d08e41f0add31f6221c2b","study_id":"6197b3f67c2b5cd3b6d9596a","session_id":"6197b9f0b968f774b3c7c4d2","condition":"contingent","relevant_dimensions":["antennae","wings"],"bee_group":{"antennae":"A","wings":"1","pattern":"X","legs":"X"},"bonus":1.3800000000000008},{"rt":1119.699999988079,"stimulus":"bees-with-color/bee-B1DF.svg","response":1,"trial_type":"image-button-response","trial_index":87,"time_elapsed":482487,"internal_node_id":"0.0-4.0-0.40","subject_id":"5e2d08e41f0add31f6221c2b","study_id":"6197b3f67c2b5cd3b6d9596a","session_id":"6197b9f0b968f774b3c7c4d2","condition":"contingent","relevant_dimensions":["antennae","wings"],"bee_group":{"antennae":"A","wings":"1","pattern":"X","legs":"X"},"action":"avoid","summary":"bad-avoid","bonus":1.3800000000000008},{"rt":919.6999999880791,"stimulus":"\n                    <p><b>Action: <em>avoid</em></b></p>\n                    <p>This is the bee that you just saw.</p>\n                    <img src=\"bees-with-color/bee-B1DF.svg\" width=\"200\">\n                    <p><br>Your bonus pay is unchanged, and remains at $0.84.</p>\n            ","response":0,"trial_type":"html-button-response","trial_index":88,"time_elapsed":483408,"internal_node_id":"0.0-4.0-1.40","subject_id":"5e2d08e41f0add31f6221c2b","study_id":"6197b3f67c2b5cd3b6d9596a","session_id":"6197b9f0b968f774b3c7c4d2","condition":"contingent","relevant_dimensions":["antennae","wings"],"bee_group":{"antennae":"A","wings":"1","pattern":"X","legs":"X"},"bonus":1.3800000000000008},{"rt":1543.800000011921,"stimulus":"bees-with-color/bee-B1DM.svg","response":1,"trial_type":"image-button-response","trial_index":89,"time_elapsed":484953,"internal_node_id":"0.0-4.0-0.41","subject_id":"5e2d08e41f0add31f6221c2b","study_id":"6197b3f67c2b5cd3b6d9596a","session_id":"6197b9f0b968f774b3c7c4d2","condition":"contingent","relevant_dimensions":["antennae","wings"],"bee_group":{"antennae":"A","wings":"1","pattern":"X","legs":"X"},"action":"avoid","summary":"bad-avoid","bonus":1.3800000000000008},{"rt":947.6999999880791,"stimulus":"\n                    <p><b>Action: <em>avoid</em></b></p>\n                    <p>This is the bee that you just saw.</p>\n                    <img src=\"bees-with-color/bee-B1DM.svg\" width=\"200\">\n                    <p><br>Your bonus pay is unchanged, and remains at $0.84.</p>\n            ","response":0,"trial_type":"html-button-response","trial_index":90,"time_elapsed":485903,"internal_node_id":"0.0-4.0-1.41","subject_id":"5e2d08e41f0add31f6221c2b","study_id":"6197b3f67c2b5cd3b6d9596a","session_id":"6197b9f0b968f774b3c7c4d2","condition":"contingent","relevant_dimensions":["antennae","wings"],"bee_group":{"antennae":"A","wings":"1","pattern":"X","legs":"X"},"bonus":1.3800000000000008},{"rt":1190.0999999642372,"stimulus":"bees-with-color/bee-A2DF.svg","response":0,"trial_type":"image-button-response","trial_index":91,"time_elapsed":487094,"internal_node_id":"0.0-4.0-0.42","subject_id":"5e2d08e41f0add31f6221c2b","study_id":"6197b3f67c2b5cd3b6d9596a","session_id":"6197b9f0b968f774b3c7c4d2","condition":"contingent","relevant_dimensions":["antennae","wings"],"bee_group":{"antennae":"A","wings":"1","pattern":"X","legs":"X"},"action":"harvest","summary":"good-harvest","bonus":1.3800000000000008},{"rt":1694.5,"stimulus":"\n                    <p><b>Action: <em>harvest</em></b></p>\n                    <p>This is the bee that you just saw.</p>\n                    <img src=\"bees-with-color/bee-A2DF.svg\" width=\"200\">\n                    <p><span class=\"greenText\"><b>Successful harvest!</b></span><br>Your pay has increased by $0.02. Your bonus pay is now $0.86.</p>\n            ","response":0,"trial_type":"html-button-response","trial_index":92,"time_elapsed":488791,"internal_node_id":"0.0-4.0-1.42","subject_id":"5e2d08e41f0add31f6221c2b","study_id":"6197b3f67c2b5cd3b6d9596a","session_id":"6197b9f0b968f774b3c7c4d2","condition":"contingent","relevant_dimensions":["antennae","wings"],"bee_group":{"antennae":"A","wings":"1","pattern":"X","legs":"X"},"bonus":1.3800000000000008},{"rt":1356.5,"stimulus":"bees-with-color/bee-A1SF.svg","response":1,"trial_type":"image-button-response","trial_index":93,"time_elapsed":490149,"internal_node_id":"0.0-4.0-0.43","subject_id":"5e2d08e41f0add31f6221c2b","study_id":"6197b3f67c2b5cd3b6d9596a","session_id":"6197b9f0b968f774b3c7c4d2","condition":"contingent","relevant_dimensions":["antennae","wings"],"bee_group":{"antennae":"A","wings":"1","pattern":"X","legs":"X"},"action":"avoid","summary":"good-avoid","bonus":1.3800000000000008},{"rt":1077.300000011921,"stimulus":"\n                    <p><b>Action: <em>avoid</em></b></p>\n                    <p>This is the bee that you just saw.</p>\n                    <img src=\"bees-with-color/bee-A1SF.svg\" width=\"200\">\n                    <p><br>Your bonus pay is unchanged, and remains at $0.86.</p>\n            ","response":0,"trial_type":"html-button-response","trial_index":94,"time_elapsed":491228,"internal_node_id":"0.0-4.0-1.43","subject_id":"5e2d08e41f0add31f6221c2b","study_id":"6197b3f67c2b5cd3b6d9596a","session_id":"6197b9f0b968f774b3c7c4d2","condition":"contingent","relevant_dimensions":["antennae","wings"],"bee_group":{"antennae":"A","wings":"1","pattern":"X","legs":"X"},"bonus":1.3800000000000008},{"rt":1637.300000011921,"stimulus":"bees-with-color/bee-B1SM.svg","response":1,"trial_type":"image-button-response","trial_index":95,"time_elapsed":492867,"internal_node_id":"0.0-4.0-0.44","subject_id":"5e2d08e41f0add31f6221c2b","study_id":"6197b3f67c2b5cd3b6d9596a","session_id":"6197b9f0b968f774b3c7c4d2","condition":"contingent","relevant_dimensions":["antennae","wings"],"bee_group":{"antennae":"A","wings":"1","pattern":"X","legs":"X"},"action":"avoid","summary":"bad-avoid","bonus":1.3800000000000008},{"rt":1050.5,"stimulus":"\n                    <p><b>Action: <em>avoid</em></b></p>\n                    <p>This is the bee that you just saw.</p>\n                    <img src=\"bees-with-color/bee-B1SM.svg\" width=\"200\">\n                    <p><br>Your bonus pay is unchanged, and remains at $0.86.</p>\n            ","response":0,"trial_type":"html-button-response","trial_index":96,"time_elapsed":493918,"internal_node_id":"0.0-4.0-1.44","subject_id":"5e2d08e41f0add31f6221c2b","study_id":"6197b3f67c2b5cd3b6d9596a","session_id":"6197b9f0b968f774b3c7c4d2","condition":"contingent","relevant_dimensions":["antennae","wings"],"bee_group":{"antennae":"A","wings":"1","pattern":"X","legs":"X"},"bonus":1.3800000000000008},{"rt":2066.600000023842,"stimulus":"bees-with-color/bee-A1DF.svg","response":1,"trial_type":"image-button-response","trial_index":97,"time_elapsed":495987,"internal_node_id":"0.0-4.0-0.45","subject_id":"5e2d08e41f0add31f6221c2b","study_id":"6197b3f67c2b5cd3b6d9596a","session_id":"6197b9f0b968f774b3c7c4d2","condition":"contingent","relevant_dimensions":["antennae","wings"],"bee_group":{"antennae":"A","wings":"1","pattern":"X","legs":"X"},"action":"avoid","summary":"good-avoid","bonus":1.3800000000000008},{"rt":1815.199999988079,"stimulus":"\n                    <p><b>Action: <em>avoid</em></b></p>\n                    <p>This is the bee that you just saw.</p>\n                    <img src=\"bees-with-color/bee-A1DF.svg\" width=\"200\">\n                    <p><br>Your bonus pay is unchanged, and remains at $0.86.</p>\n            ","response":0,"trial_type":"html-button-response","trial_index":98,"time_elapsed":497804,"internal_node_id":"0.0-4.0-1.45","subject_id":"5e2d08e41f0add31f6221c2b","study_id":"6197b3f67c2b5cd3b6d9596a","session_id":"6197b9f0b968f774b3c7c4d2","condition":"contingent","relevant_dimensions":["antennae","wings"],"bee_group":{"antennae":"A","wings":"1","pattern":"X","legs":"X"},"bonus":1.3800000000000008},{"rt":1889.4000000357628,"stimulus":"bees-with-color/bee-A2SM.svg","response":0,"trial_type":"image-button-response","trial_index":99,"time_elapsed":499696,"internal_node_id":"0.0-4.0-0.46","subject_id":"5e2d08e41f0add31f6221c2b","study_id":"6197b3f67c2b5cd3b6d9596a","session_id":"6197b9f0b968f774b3c7c4d2","condition":"contingent","relevant_dimensions":["antennae","wings"],"bee_group":{"antennae":"A","wings":"1","pattern":"X","legs":"X"},"action":"harvest","summary":"good-harvest","bonus":1.3800000000000008},{"rt":1096.1000000238419,"stimulus":"\n                    <p><b>Action: <em>harvest</em></b></p>\n                    <p>This is the bee that you just saw.</p>\n                    <img src=\"bees-with-color/bee-A2SM.svg\" width=\"200\">\n                    <p><span class=\"greenText\"><b>Successful harvest!</b></span><br>Your pay has increased by $0.02. Your bonus pay is now $0.88.</p>\n            ","response":0,"trial_type":"html-button-response","trial_index":100,"time_elapsed":500794,"internal_node_id":"0.0-4.0-1.46","subject_id":"5e2d08e41f0add31f6221c2b","study_id":"6197b3f67c2b5cd3b6d9596a","session_id":"6197b9f0b968f774b3c7c4d2","condition":"contingent","relevant_dimensions":["antennae","wings"],"bee_group":{"antennae":"A","wings":"1","pattern":"X","legs":"X"},"bonus":1.3800000000000008},{"rt":1445.199999988079,"stimulus":"bees-with-color/bee-B2SF.svg","response":0,"trial_type":"image-button-response","trial_index":101,"time_elapsed":502241,"internal_node_id":"0.0-4.0-0.47","subject_id":"5e2d08e41f0add31f6221c2b","study_id":"6197b3f67c2b5cd3b6d9596a","session_id":"6197b9f0b968f774b3c7c4d2","condition":"contingent","relevant_dimensions":["antennae","wings"],"bee_group":{"antennae":"A","wings":"1","pattern":"X","legs":"X"},"action":"harvest","summary":"good-harvest","bonus":1.3800000000000008},{"rt":1323.8999999761581,"stimulus":"\n                    <p><b>Action: <em>harvest</em></b></p>\n                    <p>This is the bee that you just saw.</p>\n                    <img src=\"bees-with-color/bee-B2SF.svg\" width=\"200\">\n                    <p><span class=\"greenText\"><b>Successful harvest!</b></span><br>Your pay has increased by $0.02. Your bonus pay is now $0.90.</p>\n            ","response":0,"trial_type":"html-button-response","trial_index":102,"time_elapsed":503566,"internal_node_id":"0.0-4.0-1.47","subject_id":"5e2d08e41f0add31f6221c2b","study_id":"6197b3f67c2b5cd3b6d9596a","session_id":"6197b9f0b968f774b3c7c4d2","condition":"contingent","relevant_dimensions":["antennae","wings"],"bee_group":{"antennae":"A","wings":"1","pattern":"X","legs":"X"},"bonus":1.3800000000000008},{"rt":1455.699999988079,"stimulus":"bees-with-color/bee-B2DF.svg","response":0,"trial_type":"image-button-response","trial_index":103,"time_elapsed":505024,"internal_node_id":"0.0-4.0-0.48","subject_id":"5e2d08e41f0add31f6221c2b","study_id":"6197b3f67c2b5cd3b6d9596a","session_id":"6197b9f0b968f774b3c7c4d2","condition":"contingent","relevant_dimensions":["antennae","wings"],"bee_group":{"antennae":"A","wings":"1","pattern":"X","legs":"X"},"action":"harvest","summary":"good-harvest","bonus":1.3800000000000008},{"rt":1134,"stimulus":"\n                    <p><b>Action: <em>harvest</em></b></p>\n                    <p>This is the bee that you just saw.</p>\n                    <img src=\"bees-with-color/bee-B2DF.svg\" width=\"200\">\n                    <p><span class=\"greenText\"><b>Successful harvest!</b></span><br>Your pay has increased by $0.02. Your bonus pay is now $0.92.</p>\n            ","response":0,"trial_type":"html-button-response","trial_index":104,"time_elapsed":506161,"internal_node_id":"0.0-4.0-1.48","subject_id":"5e2d08e41f0add31f6221c2b","study_id":"6197b3f67c2b5cd3b6d9596a","session_id":"6197b9f0b968f774b3c7c4d2","condition":"contingent","relevant_dimensions":["antennae","wings"],"bee_group":{"antennae":"A","wings":"1","pattern":"X","legs":"X"},"bonus":1.3800000000000008},{"rt":1374.9000000357628,"stimulus":"bees-with-color/bee-A1DF.svg","response":1,"trial_type":"image-button-response","trial_index":105,"time_elapsed":507537,"internal_node_id":"0.0-4.0-0.49","subject_id":"5e2d08e41f0add31f6221c2b","study_id":"6197b3f67c2b5cd3b6d9596a","session_id":"6197b9f0b968f774b3c7c4d2","condition":"contingent","relevant_dimensions":["antennae","wings"],"bee_group":{"antennae":"A","wings":"1","pattern":"X","legs":"X"},"action":"avoid","summary":"good-avoid","bonus":1.3800000000000008},{"rt":1130.8999999761581,"stimulus":"\n                    <p><b>Action: <em>avoid</em></b></p>\n                    <p>This is the bee that you just saw.</p>\n                    <img src=\"bees-with-color/bee-A1DF.svg\" width=\"200\">\n                    <p><br>Your bonus pay is unchanged, and remains at $0.92.</p>\n            ","response":0,"trial_type":"html-button-response","trial_index":106,"time_elapsed":508670,"internal_node_id":"0.0-4.0-1.49","subject_id":"5e2d08e41f0add31f6221c2b","study_id":"6197b3f67c2b5cd3b6d9596a","session_id":"6197b9f0b968f774b3c7c4d2","condition":"contingent","relevant_dimensions":["antennae","wings"],"bee_group":{"antennae":"A","wings":"1","pattern":"X","legs":"X"},"bonus":1.3800000000000008},{"rt":1303,"stimulus":"bees-with-color/bee-A1DM.svg","response":1,"trial_type":"image-button-response","trial_index":107,"time_elapsed":509975,"internal_node_id":"0.0-4.0-0.50","subject_id":"5e2d08e41f0add31f6221c2b","study_id":"6197b3f67c2b5cd3b6d9596a","session_id":"6197b9f0b968f774b3c7c4d2","condition":"contingent","relevant_dimensions":["antennae","wings"],"bee_group":{"antennae":"A","wings":"1","pattern":"X","legs":"X"},"action":"avoid","summary":"good-avoid","bonus":1.3800000000000008},{"rt":1334.6000000238419,"stimulus":"\n                    <p><b>Action: <em>avoid</em></b></p>\n                    <p>This is the bee that you just saw.</p>\n                    <img src=\"bees-with-color/bee-A1DM.svg\" width=\"200\">\n                    <p><br>Your bonus pay is unchanged, and remains at $0.92.</p>\n            ","response":0,"trial_type":"html-button-response","trial_index":108,"time_elapsed":511312,"internal_node_id":"0.0-4.0-1.50","subject_id":"5e2d08e41f0add31f6221c2b","study_id":"6197b3f67c2b5cd3b6d9596a","session_id":"6197b9f0b968f774b3c7c4d2","condition":"contingent","relevant_dimensions":["antennae","wings"],"bee_group":{"antennae":"A","wings":"1","pattern":"X","legs":"X"},"bonus":1.3800000000000008},{"rt":1339.699999988079,"stimulus":"bees-with-color/bee-B1SF.svg","response":1,"trial_type":"image-button-response","trial_index":109,"time_elapsed":512653,"internal_node_id":"0.0-4.0-0.51","subject_id":"5e2d08e41f0add31f6221c2b","study_id":"6197b3f67c2b5cd3b6d9596a","session_id":"6197b9f0b968f774b3c7c4d2","condition":"contingent","relevant_dimensions":["antennae","wings"],"bee_group":{"antennae":"A","wings":"1","pattern":"X","legs":"X"},"action":"avoid","summary":"bad-avoid","bonus":1.3800000000000008},{"rt":1098.699999988079,"stimulus":"\n                    <p><b>Action: <em>avoid</em></b></p>\n                    <p>This is the bee that you just saw.</p>\n                    <img src=\"bees-with-color/bee-B1SF.svg\" width=\"200\">\n                    <p><br>Your bonus pay is unchanged, and remains at $0.92.</p>\n            ","response":0,"trial_type":"html-button-response","trial_index":110,"time_elapsed":513754,"internal_node_id":"0.0-4.0-1.51","subject_id":"5e2d08e41f0add31f6221c2b","study_id":"6197b3f67c2b5cd3b6d9596a","session_id":"6197b9f0b968f774b3c7c4d2","condition":"contingent","relevant_dimensions":["antennae","wings"],"bee_group":{"antennae":"A","wings":"1","pattern":"X","legs":"X"},"bonus":1.3800000000000008},{"rt":90196.60000002384,"stimulus":"bees-with-color/bee-A2SM.svg","response":0,"trial_type":"image-button-response","trial_index":111,"time_elapsed":603952,"internal_node_id":"0.0-4.0-0.52","subject_id":"5e2d08e41f0add31f6221c2b","study_id":"6197b3f67c2b5cd3b6d9596a","session_id":"6197b9f0b968f774b3c7c4d2","condition":"contingent","relevant_dimensions":["antennae","wings"],"bee_group":{"antennae":"A","wings":"1","pattern":"X","legs":"X"},"action":"harvest","summary":"good-harvest","bonus":1.3800000000000008},{"rt":958.5,"stimulus":"\n                    <p><b>Action: <em>harvest</em></b></p>\n                    <p>This is the bee that you just saw.</p>\n                    <img src=\"bees-with-color/bee-A2SM.svg\" width=\"200\">\n                    <p><span class=\"greenText\"><b>Successful harvest!</b></span><br>Your pay has increased by $0.02. Your bonus pay is now $0.94.</p>\n            ","response":0,"trial_type":"html-button-response","trial_index":112,"time_elapsed":604912,"internal_node_id":"0.0-4.0-1.52","subject_id":"5e2d08e41f0add31f6221c2b","study_id":"6197b3f67c2b5cd3b6d9596a","session_id":"6197b9f0b968f774b3c7c4d2","condition":"contingent","relevant_dimensions":["antennae","wings"],"bee_group":{"antennae":"A","wings":"1","pattern":"X","legs":"X"},"bonus":1.3800000000000008},{"rt":1888.300000011921,"stimulus":"bees-with-color/bee-A2SF.svg","response":0,"trial_type":"image-button-response","trial_index":113,"time_elapsed":606803,"internal_node_id":"0.0-4.0-0.53","subject_id":"5e2d08e41f0add31f6221c2b","study_id":"6197b3f67c2b5cd3b6d9596a","session_id":"6197b9f0b968f774b3c7c4d2","condition":"contingent","relevant_dimensions":["antennae","wings"],"bee_group":{"antennae":"A","wings":"1","pattern":"X","legs":"X"},"action":"harvest","summary":"good-harvest","bonus":1.3800000000000008},{"rt":1149.800000011921,"stimulus":"\n                    <p><b>Action: <em>harvest</em></b></p>\n                    <p>This is the bee that you just saw.</p>\n                    <img src=\"bees-with-color/bee-A2SF.svg\" width=\"200\">\n                    <p><span class=\"greenText\"><b>Successful harvest!</b></span><br>Your pay has increased by $0.02. Your bonus pay is now $0.96.</p>\n            ","response":0,"trial_type":"html-button-response","trial_index":114,"time_elapsed":607955,"internal_node_id":"0.0-4.0-1.53","subject_id":"5e2d08e41f0add31f6221c2b","study_id":"6197b3f67c2b5cd3b6d9596a","session_id":"6197b9f0b968f774b3c7c4d2","condition":"contingent","relevant_dimensions":["antennae","wings"],"bee_group":{"antennae":"A","wings":"1","pattern":"X","legs":"X"},"bonus":1.3800000000000008},{"rt":1296.199999988079,"stimulus":"bees-with-color/bee-B1SM.svg","response":1,"trial_type":"image-button-response","trial_index":115,"time_elapsed":609254,"internal_node_id":"0.0-4.0-0.54","subject_id":"5e2d08e41f0add31f6221c2b","study_id":"6197b3f67c2b5cd3b6d9596a","session_id":"6197b9f0b968f774b3c7c4d2","condition":"contingent","relevant_dimensions":["antennae","wings"],"bee_group":{"antennae":"A","wings":"1","pattern":"X","legs":"X"},"action":"avoid","summary":"bad-avoid","bonus":1.3800000000000008},{"rt":1484.7999999523163,"stimulus":"\n                    <p><b>Action: <em>avoid</em></b></p>\n                    <p>This is the bee that you just saw.</p>\n                    <img src=\"bees-with-color/bee-B1SM.svg\" width=\"200\">\n                    <p><br>Your bonus pay is unchanged, and remains at $0.96.</p>\n            ","response":0,"trial_type":"html-button-response","trial_index":116,"time_elapsed":610741,"internal_node_id":"0.0-4.0-1.54","subject_id":"5e2d08e41f0add31f6221c2b","study_id":"6197b3f67c2b5cd3b6d9596a","session_id":"6197b9f0b968f774b3c7c4d2","condition":"contingent","relevant_dimensions":["antennae","wings"],"bee_group":{"antennae":"A","wings":"1","pattern":"X","legs":"X"},"bonus":1.3800000000000008},{"rt":1092.4000000357628,"stimulus":"bees-with-color/bee-A2DF.svg","response":0,"trial_type":"image-button-response","trial_index":117,"time_elapsed":611835,"internal_node_id":"0.0-4.0-0.55","subject_id":"5e2d08e41f0add31f6221c2b","study_id":"6197b3f67c2b5cd3b6d9596a","session_id":"6197b9f0b968f774b3c7c4d2","condition":"contingent","relevant_dimensions":["antennae","wings"],"bee_group":{"antennae":"A","wings":"1","pattern":"X","legs":"X"},"action":"harvest","summary":"good-harvest","bonus":1.3800000000000008},{"rt":1070.800000011921,"stimulus":"\n                    <p><b>Action: <em>harvest</em></b></p>\n                    <p>This is the bee that you just saw.</p>\n                    <img src=\"bees-with-color/bee-A2DF.svg\" width=\"200\">\n                    <p><span class=\"greenText\"><b>Successful harvest!</b></span><br>Your pay has increased by $0.02. Your bonus pay is now $0.98.</p>\n            ","response":0,"trial_type":"html-button-response","trial_index":118,"time_elapsed":612908,"internal_node_id":"0.0-4.0-1.55","subject_id":"5e2d08e41f0add31f6221c2b","study_id":"6197b3f67c2b5cd3b6d9596a","session_id":"6197b9f0b968f774b3c7c4d2","condition":"contingent","relevant_dimensions":["antennae","wings"],"bee_group":{"antennae":"A","wings":"1","pattern":"X","legs":"X"},"bonus":1.3800000000000008},{"rt":1118.800000011921,"stimulus":"bees-with-color/bee-B2DM.svg","response":0,"trial_type":"image-button-response","trial_index":119,"time_elapsed":614029,"internal_node_id":"0.0-4.0-0.56","subject_id":"5e2d08e41f0add31f6221c2b","study_id":"6197b3f67c2b5cd3b6d9596a","session_id":"6197b9f0b968f774b3c7c4d2","condition":"contingent","relevant_dimensions":["antennae","wings"],"bee_group":{"antennae":"A","wings":"1","pattern":"X","legs":"X"},"action":"harvest","summary":"good-harvest","bonus":1.3800000000000008},{"rt":751.3000000119209,"stimulus":"\n                    <p><b>Action: <em>harvest</em></b></p>\n                    <p>This is the bee that you just saw.</p>\n                    <img src=\"bees-with-color/bee-B2DM.svg\" width=\"200\">\n                    <p><span class=\"greenText\"><b>Successful harvest!</b></span><br>Your pay has increased by $0.02. Your bonus pay is now $1.00.</p>\n            ","response":0,"trial_type":"html-button-response","trial_index":120,"time_elapsed":614783,"internal_node_id":"0.0-4.0-1.56","subject_id":"5e2d08e41f0add31f6221c2b","study_id":"6197b3f67c2b5cd3b6d9596a","session_id":"6197b9f0b968f774b3c7c4d2","condition":"contingent","relevant_dimensions":["antennae","wings"],"bee_group":{"antennae":"A","wings":"1","pattern":"X","legs":"X"},"bonus":1.3800000000000008},{"rt":1314.8999999761581,"stimulus":"bees-with-color/bee-B2SF.svg","response":0,"trial_type":"image-button-response","trial_index":121,"time_elapsed":616100,"internal_node_id":"0.0-4.0-0.57","subject_id":"5e2d08e41f0add31f6221c2b","study_id":"6197b3f67c2b5cd3b6d9596a","session_id":"6197b9f0b968f774b3c7c4d2","condition":"contingent","relevant_dimensions":["antennae","wings"],"bee_group":{"antennae":"A","wings":"1","pattern":"X","legs":"X"},"action":"harvest","summary":"good-harvest","bonus":1.3800000000000008},{"rt":649.4000000357628,"stimulus":"\n                    <p><b>Action: <em>harvest</em></b></p>\n                    <p>This is the bee that you just saw.</p>\n                    <img src=\"bees-with-color/bee-B2SF.svg\" width=\"200\">\n                    <p><span class=\"greenText\"><b>Successful harvest!</b></span><br>Your pay has increased by $0.02. Your bonus pay is now $1.02.</p>\n            ","response":0,"trial_type":"html-button-response","trial_index":122,"time_elapsed":616751,"internal_node_id":"0.0-4.0-1.57","subject_id":"5e2d08e41f0add31f6221c2b","study_id":"6197b3f67c2b5cd3b6d9596a","session_id":"6197b9f0b968f774b3c7c4d2","condition":"contingent","relevant_dimensions":["antennae","wings"],"bee_group":{"antennae":"A","wings":"1","pattern":"X","legs":"X"},"bonus":1.3800000000000008},{"rt":1737,"stimulus":"bees-with-color/bee-A1SM.svg","response":1,"trial_type":"image-button-response","trial_index":123,"time_elapsed":618490,"internal_node_id":"0.0-4.0-0.58","subject_id":"5e2d08e41f0add31f6221c2b","study_id":"6197b3f67c2b5cd3b6d9596a","session_id":"6197b9f0b968f774b3c7c4d2","condition":"contingent","relevant_dimensions":["antennae","wings"],"bee_group":{"antennae":"A","wings":"1","pattern":"X","legs":"X"},"action":"avoid","summary":"good-avoid","bonus":1.3800000000000008},{"rt":719.6000000238419,"stimulus":"\n                    <p><b>Action: <em>avoid</em></b></p>\n                    <p>This is the bee that you just saw.</p>\n                    <img src=\"bees-with-color/bee-A1SM.svg\" width=\"200\">\n                    <p><br>Your bonus pay is unchanged, and remains at $1.02.</p>\n            ","response":0,"trial_type":"html-button-response","trial_index":124,"time_elapsed":619212,"internal_node_id":"0.0-4.0-1.58","subject_id":"5e2d08e41f0add31f6221c2b","study_id":"6197b3f67c2b5cd3b6d9596a","session_id":"6197b9f0b968f774b3c7c4d2","condition":"contingent","relevant_dimensions":["antennae","wings"],"bee_group":{"antennae":"A","wings":"1","pattern":"X","legs":"X"},"bonus":1.3800000000000008},{"rt":960.1000000238419,"stimulus":"bees-with-color/bee-A2DM.svg","response":0,"trial_type":"image-button-response","trial_index":125,"time_elapsed":620175,"internal_node_id":"0.0-4.0-0.59","subject_id":"5e2d08e41f0add31f6221c2b","study_id":"6197b3f67c2b5cd3b6d9596a","session_id":"6197b9f0b968f774b3c7c4d2","condition":"contingent","relevant_dimensions":["antennae","wings"],"bee_group":{"antennae":"A","wings":"1","pattern":"X","legs":"X"},"action":"harvest","summary":"good-harvest","bonus":1.3800000000000008},{"rt":684.5999999642372,"stimulus":"\n                    <p><b>Action: <em>harvest</em></b></p>\n                    <p>This is the bee that you just saw.</p>\n                    <img src=\"bees-with-color/bee-A2DM.svg\" width=\"200\">\n                    <p><span class=\"greenText\"><b>Successful harvest!</b></span><br>Your pay has increased by $0.02. Your bonus pay is now $1.04.</p>\n            ","response":0,"trial_type":"html-button-response","trial_index":126,"time_elapsed":620862,"internal_node_id":"0.0-4.0-1.59","subject_id":"5e2d08e41f0add31f6221c2b","study_id":"6197b3f67c2b5cd3b6d9596a","session_id":"6197b9f0b968f774b3c7c4d2","condition":"contingent","relevant_dimensions":["antennae","wings"],"bee_group":{"antennae":"A","wings":"1","pattern":"X","legs":"X"},"bonus":1.3800000000000008},{"rt":873.6999999880791,"stimulus":"bees-with-color/bee-B2SM.svg","response":0,"trial_type":"image-button-response","trial_index":127,"time_elapsed":621737,"internal_node_id":"0.0-4.0-0.60","subject_id":"5e2d08e41f0add31f6221c2b","study_id":"6197b3f67c2b5cd3b6d9596a","session_id":"6197b9f0b968f774b3c7c4d2","condition":"contingent","relevant_dimensions":["antennae","wings"],"bee_group":{"antennae":"A","wings":"1","pattern":"X","legs":"X"},"action":"harvest","summary":"good-harvest","bonus":1.3800000000000008},{"rt":819.1000000238419,"stimulus":"\n                    <p><b>Action: <em>harvest</em></b></p>\n                    <p>This is the bee that you just saw.</p>\n                    <img src=\"bees-with-color/bee-B2SM.svg\" width=\"200\">\n                    <p><span class=\"greenText\"><b>Successful harvest!</b></span><br>Your pay has increased by $0.02. Your bonus pay is now $1.06.</p>\n            ","response":0,"trial_type":"html-button-response","trial_index":128,"time_elapsed":622559,"internal_node_id":"0.0-4.0-1.60","subject_id":"5e2d08e41f0add31f6221c2b","study_id":"6197b3f67c2b5cd3b6d9596a","session_id":"6197b9f0b968f774b3c7c4d2","condition":"contingent","relevant_dimensions":["antennae","wings"],"bee_group":{"antennae":"A","wings":"1","pattern":"X","legs":"X"},"bonus":1.3800000000000008},{"rt":881.5,"stimulus":"bees-with-color/bee-A1SF.svg","response":1,"trial_type":"image-button-response","trial_index":129,"time_elapsed":623443,"internal_node_id":"0.0-4.0-0.61","subject_id":"5e2d08e41f0add31f6221c2b","study_id":"6197b3f67c2b5cd3b6d9596a","session_id":"6197b9f0b968f774b3c7c4d2","condition":"contingent","relevant_dimensions":["antennae","wings"],"bee_group":{"antennae":"A","wings":"1","pattern":"X","legs":"X"},"action":"avoid","summary":"good-avoid","bonus":1.3800000000000008},{"rt":713,"stimulus":"\n                    <p><b>Action: <em>avoid</em></b></p>\n                    <p>This is the bee that you just saw.</p>\n                    <img src=\"bees-with-color/bee-A1SF.svg\" width=\"200\">\n                    <p><br>Your bonus pay is unchanged, and remains at $1.06.</p>\n            ","response":0,"trial_type":"html-button-response","trial_index":130,"time_elapsed":624158,"internal_node_id":"0.0-4.0-1.61","subject_id":"5e2d08e41f0add31f6221c2b","study_id":"6197b3f67c2b5cd3b6d9596a","session_id":"6197b9f0b968f774b3c7c4d2","condition":"contingent","relevant_dimensions":["antennae","wings"],"bee_group":{"antennae":"A","wings":"1","pattern":"X","legs":"X"},"bonus":1.3800000000000008},{"rt":804.1999999880791,"stimulus":"bees-with-color/bee-B1DM.svg","response":1,"trial_type":"image-button-response","trial_index":131,"time_elapsed":624964,"internal_node_id":"0.0-4.0-0.62","subject_id":"5e2d08e41f0add31f6221c2b","study_id":"6197b3f67c2b5cd3b6d9596a","session_id":"6197b9f0b968f774b3c7c4d2","condition":"contingent","relevant_dimensions":["antennae","wings"],"bee_group":{"antennae":"A","wings":"1","pattern":"X","legs":"X"},"action":"avoid","summary":"bad-avoid","bonus":1.3800000000000008},{"rt":587.5,"stimulus":"\n                    <p><b>Action: <em>avoid</em></b></p>\n                    <p>This is the bee that you just saw.</p>\n                    <img src=\"bees-with-color/bee-B1DM.svg\" width=\"200\">\n                    <p><br>Your bonus pay is unchanged, and remains at $1.06.</p>\n            ","response":0,"trial_type":"html-button-response","trial_index":132,"time_elapsed":625554,"internal_node_id":"0.0-4.0-1.62","subject_id":"5e2d08e41f0add31f6221c2b","study_id":"6197b3f67c2b5cd3b6d9596a","session_id":"6197b9f0b968f774b3c7c4d2","condition":"contingent","relevant_dimensions":["antennae","wings"],"bee_group":{"antennae":"A","wings":"1","pattern":"X","legs":"X"},"bonus":1.3800000000000008},{"rt":930.1999999880791,"stimulus":"bees-with-color/bee-B1DF.svg","response":1,"trial_type":"image-button-response","trial_index":133,"time_elapsed":626486,"internal_node_id":"0.0-4.0-0.63","subject_id":"5e2d08e41f0add31f6221c2b","study_id":"6197b3f67c2b5cd3b6d9596a","session_id":"6197b9f0b968f774b3c7c4d2","condition":"contingent","relevant_dimensions":["antennae","wings"],"bee_group":{"antennae":"A","wings":"1","pattern":"X","legs":"X"},"action":"avoid","summary":"bad-avoid","bonus":1.3800000000000008},{"rt":587.8999999761581,"stimulus":"\n                    <p><b>Action: <em>avoid</em></b></p>\n                    <p>This is the bee that you just saw.</p>\n                    <img src=\"bees-with-color/bee-B1DF.svg\" width=\"200\">\n                    <p><br>Your bonus pay is unchanged, and remains at $1.06.</p>\n            ","response":0,"trial_type":"html-button-response","trial_index":134,"time_elapsed":627075,"internal_node_id":"0.0-4.0-1.63","subject_id":"5e2d08e41f0add31f6221c2b","study_id":"6197b3f67c2b5cd3b6d9596a","session_id":"6197b9f0b968f774b3c7c4d2","condition":"contingent","relevant_dimensions":["antennae","wings"],"bee_group":{"antennae":"A","wings":"1","pattern":"X","legs":"X"},"bonus":1.3800000000000008},{"rt":6996.699999988079,"stimulus":"You have completed the first part of this experiment.<br><br>You will now begin a shorter second part, in which you will receive no feedback.<br>The same rules regarding bonus pay apply.<br><br>Press any key to begin.","response":" ","trial_type":"html-keyboard-response","trial_index":135,"time_elapsed":634075,"internal_node_id":"0.0-5.0","subject_id":"5e2d08e41f0add31f6221c2b","study_id":"6197b3f67c2b5cd3b6d9596a","session_id":"6197b9f0b968f774b3c7c4d2","condition":"contingent","relevant_dimensions":["antennae","wings"],"bee_group":{"antennae":"A","wings":"1","pattern":"X","legs":"X"},"bonus":1.3800000000000008},{"rt":1891.199999988079,"stimulus":"bees-with-color/bee-A2DF.svg","response":0,"trial_type":"image-button-response","trial_index":136,"time_elapsed":635981,"internal_node_id":"0.0-6.0-0.0","subject_id":"5e2d08e41f0add31f6221c2b","study_id":"6197b3f67c2b5cd3b6d9596a","session_id":"6197b9f0b968f774b3c7c4d2","condition":"contingent","relevant_dimensions":["antennae","wings"],"bee_group":{"antennae":"A","wings":"1","pattern":"X","legs":"X"},"bonus":1.3800000000000008},{"rt":1210.8999999761581,"stimulus":"bees-with-color/bee-B1SF.svg","response":1,"trial_type":"image-button-response","trial_index":137,"time_elapsed":637195,"internal_node_id":"0.0-6.0-0.1","subject_id":"5e2d08e41f0add31f6221c2b","study_id":"6197b3f67c2b5cd3b6d9596a","session_id":"6197b9f0b968f774b3c7c4d2","condition":"contingent","relevant_dimensions":["antennae","wings"],"bee_group":{"antennae":"A","wings":"1","pattern":"X","legs":"X"},"bonus":1.3800000000000008},{"rt":1202,"stimulus":"bees-with-color/bee-A1SM.svg","response":1,"trial_type":"image-button-response","trial_index":138,"time_elapsed":638400,"internal_node_id":"0.0-6.0-0.2","subject_id":"5e2d08e41f0add31f6221c2b","study_id":"6197b3f67c2b5cd3b6d9596a","session_id":"6197b9f0b968f774b3c7c4d2","condition":"contingent","relevant_dimensions":["antennae","wings"],"bee_group":{"antennae":"A","wings":"1","pattern":"X","legs":"X"},"bonus":1.3800000000000008},{"rt":812.2000000476837,"stimulus":"bees-with-color/bee-A1DF.svg","response":1,"trial_type":"image-button-response","trial_index":139,"time_elapsed":639215,"internal_node_id":"0.0-6.0-0.3","subject_id":"5e2d08e41f0add31f6221c2b","study_id":"6197b3f67c2b5cd3b6d9596a","session_id":"6197b9f0b968f774b3c7c4d2","condition":"contingent","relevant_dimensions":["antennae","wings"],"bee_group":{"antennae":"A","wings":"1","pattern":"X","legs":"X"},"bonus":1.3800000000000008},{"rt":993.5999999642372,"stimulus":"bees-with-color/bee-B2DF.svg","response":0,"trial_type":"image-button-response","trial_index":140,"time_elapsed":640212,"internal_node_id":"0.0-6.0-0.4","subject_id":"5e2d08e41f0add31f6221c2b","study_id":"6197b3f67c2b5cd3b6d9596a","session_id":"6197b9f0b968f774b3c7c4d2","condition":"contingent","relevant_dimensions":["antennae","wings"],"bee_group":{"antennae":"A","wings":"1","pattern":"X","legs":"X"},"bonus":1.3800000000000008},{"rt":1391.5,"stimulus":"bees-with-color/bee-A2SF.svg","response":0,"trial_type":"image-button-response","trial_index":141,"time_elapsed":641607,"internal_node_id":"0.0-6.0-0.5","subject_id":"5e2d08e41f0add31f6221c2b","study_id":"6197b3f67c2b5cd3b6d9596a","session_id":"6197b9f0b968f774b3c7c4d2","condition":"contingent","relevant_dimensions":["antennae","wings"],"bee_group":{"antennae":"A","wings":"1","pattern":"X","legs":"X"},"bonus":1.3800000000000008},{"rt":775.5999999642372,"stimulus":"bees-with-color/bee-B1DF.svg","response":1,"trial_type":"image-button-response","trial_index":142,"time_elapsed":642386,"internal_node_id":"0.0-6.0-0.6","subject_id":"5e2d08e41f0add31f6221c2b","study_id":"6197b3f67c2b5cd3b6d9596a","session_id":"6197b9f0b968f774b3c7c4d2","condition":"contingent","relevant_dimensions":["antennae","wings"],"bee_group":{"antennae":"A","wings":"1","pattern":"X","legs":"X"},"bonus":1.3800000000000008},{"rt":1064.699999988079,"stimulus":"bees-with-color/bee-A2SM.svg","response":0,"trial_type":"image-button-response","trial_index":143,"time_elapsed":643454,"internal_node_id":"0.0-6.0-0.7","subject_id":"5e2d08e41f0add31f6221c2b","study_id":"6197b3f67c2b5cd3b6d9596a","session_id":"6197b9f0b968f774b3c7c4d2","condition":"contingent","relevant_dimensions":["antennae","wings"],"bee_group":{"antennae":"A","wings":"1","pattern":"X","legs":"X"},"bonus":1.3800000000000008},{"rt":857.3000000119209,"stimulus":"bees-with-color/bee-A1DM.svg","response":1,"trial_type":"image-button-response","trial_index":144,"time_elapsed":644314,"internal_node_id":"0.0-6.0-0.8","subject_id":"5e2d08e41f0add31f6221c2b","study_id":"6197b3f67c2b5cd3b6d9596a","session_id":"6197b9f0b968f774b3c7c4d2","condition":"contingent","relevant_dimensions":["antennae","wings"],"bee_group":{"antennae":"A","wings":"1","pattern":"X","legs":"X"},"bonus":1.3800000000000008},{"rt":1006.7000000476837,"stimulus":"bees-with-color/bee-B1SM.svg","response":1,"trial_type":"image-button-response","trial_index":145,"time_elapsed":645324,"internal_node_id":"0.0-6.0-0.9","subject_id":"5e2d08e41f0add31f6221c2b","study_id":"6197b3f67c2b5cd3b6d9596a","session_id":"6197b9f0b968f774b3c7c4d2","condition":"contingent","relevant_dimensions":["antennae","wings"],"bee_group":{"antennae":"A","wings":"1","pattern":"X","legs":"X"},"bonus":1.3800000000000008},{"rt":838,"stimulus":"bees-with-color/bee-A2DM.svg","response":0,"trial_type":"image-button-response","trial_index":146,"time_elapsed":646166,"internal_node_id":"0.0-6.0-0.10","subject_id":"5e2d08e41f0add31f6221c2b","study_id":"6197b3f67c2b5cd3b6d9596a","session_id":"6197b9f0b968f774b3c7c4d2","condition":"contingent","relevant_dimensions":["antennae","wings"],"bee_group":{"antennae":"A","wings":"1","pattern":"X","legs":"X"},"bonus":1.3800000000000008},{"rt":782.1999999880791,"stimulus":"bees-with-color/bee-B1DM.svg","response":1,"trial_type":"image-button-response","trial_index":147,"time_elapsed":646952,"internal_node_id":"0.0-6.0-0.11","subject_id":"5e2d08e41f0add31f6221c2b","study_id":"6197b3f67c2b5cd3b6d9596a","session_id":"6197b9f0b968f774b3c7c4d2","condition":"contingent","relevant_dimensions":["antennae","wings"],"bee_group":{"antennae":"A","wings":"1","pattern":"X","legs":"X"},"bonus":1.3800000000000008},{"rt":774.6999999880791,"stimulus":"bees-with-color/bee-B2DM.svg","response":0,"trial_type":"image-button-response","trial_index":148,"time_elapsed":647729,"internal_node_id":"0.0-6.0-0.12","subject_id":"5e2d08e41f0add31f6221c2b","study_id":"6197b3f67c2b5cd3b6d9596a","session_id":"6197b9f0b968f774b3c7c4d2","condition":"contingent","relevant_dimensions":["antennae","wings"],"bee_group":{"antennae":"A","wings":"1","pattern":"X","legs":"X"},"bonus":1.3800000000000008},{"rt":937.0999999642372,"stimulus":"bees-with-color/bee-B2SM.svg","response":0,"trial_type":"image-button-response","trial_index":149,"time_elapsed":648669,"internal_node_id":"0.0-6.0-0.13","subject_id":"5e2d08e41f0add31f6221c2b","study_id":"6197b3f67c2b5cd3b6d9596a","session_id":"6197b9f0b968f774b3c7c4d2","condition":"contingent","relevant_dimensions":["antennae","wings"],"bee_group":{"antennae":"A","wings":"1","pattern":"X","legs":"X"},"bonus":1.3800000000000008},{"rt":637.2000000476837,"stimulus":"bees-with-color/bee-B2SF.svg","response":0,"trial_type":"image-button-response","trial_index":150,"time_elapsed":649310,"internal_node_id":"0.0-6.0-0.14","subject_id":"5e2d08e41f0add31f6221c2b","study_id":"6197b3f67c2b5cd3b6d9596a","session_id":"6197b9f0b968f774b3c7c4d2","condition":"contingent","relevant_dimensions":["antennae","wings"],"bee_group":{"antennae":"A","wings":"1","pattern":"X","legs":"X"},"bonus":1.3800000000000008},{"rt":998,"stimulus":"bees-with-color/bee-A1SF.svg","response":1,"trial_type":"image-button-response","trial_index":151,"time_elapsed":650311,"internal_node_id":"0.0-6.0-0.15","subject_id":"5e2d08e41f0add31f6221c2b","study_id":"6197b3f67c2b5cd3b6d9596a","session_id":"6197b9f0b968f774b3c7c4d2","condition":"contingent","relevant_dimensions":["antennae","wings"],"bee_group":{"antennae":"A","wings":"1","pattern":"X","legs":"X"},"bonus":1.3800000000000008},{"rt":1133.1000000238419,"stimulus":"bees-with-color/bee-A2DM.svg","response":0,"trial_type":"image-button-response","trial_index":152,"time_elapsed":651446,"internal_node_id":"0.0-6.0-0.16","subject_id":"5e2d08e41f0add31f6221c2b","study_id":"6197b3f67c2b5cd3b6d9596a","session_id":"6197b9f0b968f774b3c7c4d2","condition":"contingent","relevant_dimensions":["antennae","wings"],"bee_group":{"antennae":"A","wings":"1","pattern":"X","legs":"X"},"bonus":1.3800000000000008},{"rt":699.5,"stimulus":"bees-with-color/bee-A1SF.svg","response":1,"trial_type":"image-button-response","trial_index":153,"time_elapsed":652148,"internal_node_id":"0.0-6.0-0.17","subject_id":"5e2d08e41f0add31f6221c2b","study_id":"6197b3f67c2b5cd3b6d9596a","session_id":"6197b9f0b968f774b3c7c4d2","condition":"contingent","relevant_dimensions":["antennae","wings"],"bee_group":{"antennae":"A","wings":"1","pattern":"X","legs":"X"},"bonus":1.3800000000000008},{"rt":754.8999999761581,"stimulus":"bees-with-color/bee-B2SF.svg","response":0,"trial_type":"image-button-response","trial_index":154,"time_elapsed":652905,"internal_node_id":"0.0-6.0-0.18","subject_id":"5e2d08e41f0add31f6221c2b","study_id":"6197b3f67c2b5cd3b6d9596a","session_id":"6197b9f0b968f774b3c7c4d2","condition":"contingent","relevant_dimensions":["antennae","wings"],"bee_group":{"antennae":"A","wings":"1","pattern":"X","legs":"X"},"bonus":1.3800000000000008},{"rt":1028.800000011921,"stimulus":"bees-with-color/bee-B2SM.svg","response":0,"trial_type":"image-button-response","trial_index":155,"time_elapsed":653936,"internal_node_id":"0.0-6.0-0.19","subject_id":"5e2d08e41f0add31f6221c2b","study_id":"6197b3f67c2b5cd3b6d9596a","session_id":"6197b9f0b968f774b3c7c4d2","condition":"contingent","relevant_dimensions":["antennae","wings"],"bee_group":{"antennae":"A","wings":"1","pattern":"X","legs":"X"},"bonus":1.3800000000000008},{"rt":880.5,"stimulus":"bees-with-color/bee-B1SM.svg","response":1,"trial_type":"image-button-response","trial_index":156,"time_elapsed":654820,"internal_node_id":"0.0-6.0-0.20","subject_id":"5e2d08e41f0add31f6221c2b","study_id":"6197b3f67c2b5cd3b6d9596a","session_id":"6197b9f0b968f774b3c7c4d2","condition":"contingent","relevant_dimensions":["antennae","wings"],"bee_group":{"antennae":"A","wings":"1","pattern":"X","legs":"X"},"bonus":1.3800000000000008},{"rt":930.0999999642372,"stimulus":"bees-with-color/bee-B2DM.svg","response":0,"trial_type":"image-button-response","trial_index":157,"time_elapsed":655752,"internal_node_id":"0.0-6.0-0.21","subject_id":"5e2d08e41f0add31f6221c2b","study_id":"6197b3f67c2b5cd3b6d9596a","session_id":"6197b9f0b968f774b3c7c4d2","condition":"contingent","relevant_dimensions":["antennae","wings"],"bee_group":{"antennae":"A","wings":"1","pattern":"X","legs":"X"},"bonus":1.3800000000000008},{"rt":748.1000000238419,"stimulus":"bees-with-color/bee-B1DM.svg","response":1,"trial_type":"image-button-response","trial_index":158,"time_elapsed":656503,"internal_node_id":"0.0-6.0-0.22","subject_id":"5e2d08e41f0add31f6221c2b","study_id":"6197b3f67c2b5cd3b6d9596a","session_id":"6197b9f0b968f774b3c7c4d2","condition":"contingent","relevant_dimensions":["antennae","wings"],"bee_group":{"antennae":"A","wings":"1","pattern":"X","legs":"X"},"bonus":1.3800000000000008},{"rt":670.3999999761581,"stimulus":"bees-with-color/bee-A1SM.svg","response":1,"trial_type":"image-button-response","trial_index":159,"time_elapsed":657176,"internal_node_id":"0.0-6.0-0.23","subject_id":"5e2d08e41f0add31f6221c2b","study_id":"6197b3f67c2b5cd3b6d9596a","session_id":"6197b9f0b968f774b3c7c4d2","condition":"contingent","relevant_dimensions":["antennae","wings"],"bee_group":{"antennae":"A","wings":"1","pattern":"X","legs":"X"},"bonus":1.3800000000000008},{"rt":810.8999999761581,"stimulus":"bees-with-color/bee-B2DF.svg","response":0,"trial_type":"image-button-response","trial_index":160,"time_elapsed":657989,"internal_node_id":"0.0-6.0-0.24","subject_id":"5e2d08e41f0add31f6221c2b","study_id":"6197b3f67c2b5cd3b6d9596a","session_id":"6197b9f0b968f774b3c7c4d2","condition":"contingent","relevant_dimensions":["antennae","wings"],"bee_group":{"antennae":"A","wings":"1","pattern":"X","legs":"X"},"bonus":1.3800000000000008},{"rt":684.5,"stimulus":"bees-with-color/bee-B1DF.svg","response":1,"trial_type":"image-button-response","trial_index":161,"time_elapsed":658676,"internal_node_id":"0.0-6.0-0.25","subject_id":"5e2d08e41f0add31f6221c2b","study_id":"6197b3f67c2b5cd3b6d9596a","session_id":"6197b9f0b968f774b3c7c4d2","condition":"contingent","relevant_dimensions":["antennae","wings"],"bee_group":{"antennae":"A","wings":"1","pattern":"X","legs":"X"},"bonus":1.3800000000000008},{"rt":775.9000000357628,"stimulus":"bees-with-color/bee-A2SM.svg","response":0,"trial_type":"image-button-response","trial_index":162,"time_elapsed":659455,"internal_node_id":"0.0-6.0-0.26","subject_id":"5e2d08e41f0add31f6221c2b","study_id":"6197b3f67c2b5cd3b6d9596a","session_id":"6197b9f0b968f774b3c7c4d2","condition":"contingent","relevant_dimensions":["antennae","wings"],"bee_group":{"antennae":"A","wings":"1","pattern":"X","legs":"X"},"bonus":1.3800000000000008},{"rt":579.5,"stimulus":"bees-with-color/bee-A1DM.svg","response":1,"trial_type":"image-button-response","trial_index":163,"time_elapsed":660037,"internal_node_id":"0.0-6.0-0.27","subject_id":"5e2d08e41f0add31f6221c2b","study_id":"6197b3f67c2b5cd3b6d9596a","session_id":"6197b9f0b968f774b3c7c4d2","condition":"contingent","relevant_dimensions":["antennae","wings"],"bee_group":{"antennae":"A","wings":"1","pattern":"X","legs":"X"},"bonus":1.3800000000000008},{"rt":1041.0999999642372,"stimulus":"bees-with-color/bee-A2DF.svg","response":0,"trial_type":"image-button-response","trial_index":164,"time_elapsed":661080,"internal_node_id":"0.0-6.0-0.28","subject_id":"5e2d08e41f0add31f6221c2b","study_id":"6197b3f67c2