[{"success":true,"trial_type":"fullscreen","trial_index":0,"time_elapsed":3917,"internal_node_id":"0.0-0.0","subject_id":"5e92f26b444572122fdfe44d","study_id":"6197b3f67c2b5cd3b6d9596a","session_id":"619be9227f09a045ba1b9423","condition":"full-information","relevant_dimensions":["pattern","legs"],"bee_group":{"antennae":"X","wings":"X","pattern":"S","legs":"M"},"bonus":1.5400000000000011},{"success":true,"timeout":false,"failed_images":[],"failed_audio":[],"failed_video":[],"trial_type":"preload","trial_index":1,"time_elapsed":5500,"internal_node_id":"0.0-1.0","subject_id":"5e92f26b444572122fdfe44d","study_id":"6197b3f67c2b5cd3b6d9596a","session_id":"619be9227f09a045ba1b9423","condition":"full-information","relevant_dimensions":["pattern","legs"],"bee_group":{"antennae":"X","wings":"X","pattern":"S","legs":"M"},"bonus":1.5400000000000011},{"rt":4119.199999988079,"stimulus":"Welcome! Press any key to begin.","response":"mediastop","trial_type":"html-keyboard-response","trial_index":2,"time_elapsed":9621,"internal_node_id":"0.0-2.0","subject_id":"5e92f26b444572122fdfe44d","study_id":"6197b3f67c2b5cd3b6d9596a","session_id":"619be9227f09a045ba1b9423","condition":"full-information","relevant_dimensions":["pattern","legs"],"bee_group":{"antennae":"X","wings":"X","pattern":"S","legs":"M"},"bonus":1.5400000000000011},{"view_history":[{"page_index":0,"viewing_time":61607.40000000596},{"page_index":1,"viewing_time":38037.89999999106},{"page_index":2,"viewing_time":41191.5},{"page_index":3,"viewing_time":34710.10000000894},{"page_index":4,"viewing_time":22611.5},{"page_index":5,"viewing_time":23290.09999999404},{"page_index":6,"viewing_time":23140.10000000894},{"page_index":7,"viewing_time":17844.39999999106},{"page_index":8,"viewing_time":21030},{"page_index":9,"viewing_time":15538},{"page_index":10,"viewing_time":18095.60000000894},{"page_index":11,"viewing_time":17536.69999998808},{"page_index":12,"viewing_time":53901.40000000596},{"page_index":13,"viewing_time":2017.5999999940395},{"page_index":14,"viewing_time":1866.9000000059605}],"rt":392420.299999997,"trial_type":"instructions","trial_index":3,"time_elapsed":402042,"internal_node_id":"0.0-3.0-0.0","subject_id":"5e92f26b444572122fdfe44d","study_id":"6197b3f67c2b5cd3b6d9596a","session_id":"619be9227f09a045ba1b9423","condition":"full-information","relevant_dimensions":["pattern","legs"],"bee_group":{"antennae":"X","wings":"X","pattern":"S","legs":"M"},"bonus":1.5400000000000011},{"rt":15264.300000011921,"response":{"Q0":["Two or six legs","Stripes or spots on body","Single or double wings","Antennae or no antennae"]},"question_order":[0],"trial_type":"survey-multi-select","trial_index":4,"time_elapsed":417312,"internal_node_id":"0.0-3.0-1.0","subject_id":"5e92f26b444572122fdfe44d","study_id":"6197b3f67c2b5cd3b6d9596a","session_id":"619be9227f09a045ba1b9423","condition":"full-information","relevant_dimensions":["pattern","legs"],"bee_group":{"antennae":"X","wings":"X","pattern":"S","legs":"M"},"correct":true,"bonus":1.5400000000000011},{"rt":21593.09999999404,"response":{"Q1":"No.","Q2":"Based on the four features of the bee.","Q3":"You learn if it was friendly or dangerous, but do not alter your bonus."},"question_order":[0,1,2],"trial_type":"survey-multi-choice","trial_index":5,"time_elapsed":438907,"internal_node_id":"0.0-3.0-2.0","subject_id":"5e92f26b444572122fdfe44d","study_id":"6197b3f67c2b5cd3b6d9596a","session_id":"619be9227f09a045ba1b9423","condition":"full-information","relevant_dimensions":["pattern","legs"],"bee_group":{"antennae":"X","wings":"X","pattern":"S","legs":"M"},"correct":true,"bonus":1.5400000000000011},{"rt":1648,"stimulus":"<p>Congrats, you got everything right<br>When you're ready, click the button below to continue to the experiment.</p>","response":0,"trial_type":"html-button-response","trial_index":6,"time_elapsed":440558,"internal_node_id":"0.0-3.0-3.0","subject_id":"5e92f26b444572122fdfe44d","study_id":"6197b3f67c2b5cd3b6d9596a","session_id":"619be9227f09a045ba1b9423","condition":"full-information","relevant_dimensions":["pattern","legs"],"bee_group":{"antennae":"X","wings":"X","pattern":"S","legs":"M"},"bonus":1.5400000000000011},{"rt":17846.59999999404,"stimulus":"bees-with-color/bee-A1SF.svg","response":0,"trial_type":"image-button-response","trial_index":7,"time_elapsed":458408,"internal_node_id":"0.0-4.0-0.0","subject_id":"5e92f26b444572122fdfe44d","study_id":"6197b3f67c2b5cd3b6d9596a","session_id":"619be9227f09a045ba1b9423","condition":"full-information","relevant_dimensions":["pattern","legs"],"bee_group":{"antennae":"X","wings":"X","pattern":"S","legs":"M"},"action":"harvest","summary":"good-harvest","bonus":1.5400000000000011},{"rt":5491.20000000298,"stimulus":"\n                    <p><b>Action: <em>harvest</em></b></p>\n                    <p>This is the bee that you just saw.</p>\n                    <img src=\"bees-with-color/bee-A1SF.svg\" width=\"200\">\n                    <p><span class=\"greenText\"><b>Successful harvest!</b></span><br>Your pay has increased by $0.02. Your bonus pay is now $0.56.</p>\n            ","response":0,"trial_type":"html-button-response","trial_index":8,"time_elapsed":463903,"internal_node_id":"0.0-4.0-1.0","subject_id":"5e92f26b444572122fdfe44d","study_id":"6197b3f67c2b5cd3b6d9596a","session_id":"619be9227f09a045ba1b9423","condition":"full-information","relevant_dimensions":["pattern","legs"],"bee_group":{"antennae":"X","wings":"X","pattern":"S","legs":"M"},"bonus":1.5400000000000011},{"rt":9875.300000011921,"stimulus":"bees-with-color/bee-B1SM.svg","response":0,"trial_type":"image-button-response","trial_index":9,"time_elapsed":473781,"internal_node_id":"0.0-4.0-0.1","subject_id":"5e92f26b444572122fdfe44d","study_id":"6197b3f67c2b5cd3b6d9596a","session_id":"619be9227f09a045ba1b9423","condition":"full-information","relevant_dimensions":["pattern","legs"],"bee_group":{"antennae":"X","wings":"X","pattern":"S","legs":"M"},"action":"harvest","summary":"bad-harvest","bonus":1.5400000000000011},{"rt":4605.79999999702,"stimulus":"\n                    <p><b>Action: <em>harvest</em></b></p>\n                    <p>This is the bee that you just saw.</p>\n                    <img src=\"bees-with-color/bee-B1SM.svg\" width=\"200\">\n                    <p><span class=\"redText\">Bad choice, the bee was angry.</span><br><b>You have been stung!</b><br>Your pay has been decreased by $0.10. Your bonus pay is now $0.46.</p>\n            ","response":0,"trial_type":"html-button-response","trial_index":10,"time_elapsed":478389,"internal_node_id":"0.0-4.0-1.1","subject_id":"5e92f26b444572122fdfe44d","study_id":"6197b3f67c2b5cd3b6d9596a","session_id":"619be9227f09a045ba1b9423","condition":"full-information","relevant_dimensions":["pattern","legs"],"bee_group":{"antennae":"X","wings":"X","pattern":"S","legs":"M"},"bonus":1.5400000000000011},{"rt":6672.20000000298,"stimulus":"bees-with-color/bee-A2SF.svg","response":0,"trial_type":"image-button-response","trial_index":11,"time_elapsed":485065,"internal_node_id":"0.0-4.0-0.2","subject_id":"5e92f26b444572122fdfe44d","study_id":"6197b3f67c2b5cd3b6d9596a","session_id":"619be9227f09a045ba1b9423","condition":"full-information","relevant_dimensions":["pattern","legs"],"bee_group":{"antennae":"X","wings":"X","pattern":"S","legs":"M"},"action":"harvest","summary":"good-harvest","bonus":1.5400000000000011},{"rt":10291.60000000894,"stimulus":"\n                    <p><b>Action: <em>harvest</em></b></p>\n                    <p>This is the bee that you just saw.</p>\n                    <img src=\"bees-with-color/bee-A2SF.svg\" width=\"200\">\n                    <p><span class=\"greenText\"><b>Successful harvest!</b></span><br>Your pay has increased by $0.02. Your bonus pay is now $0.48.</p>\n            ","response":0,"trial_type":"html-button-response","trial_index":12,"time_elapsed":495358,"internal_node_id":"0.0-4.0-1.2","subject_id":"5e92f26b444572122fdfe44d","study_id":"6197b3f67c2b5cd3b6d9596a","session_id":"619be9227f09a045ba1b9423","condition":"full-information","relevant_dimensions":["pattern","legs"],"bee_group":{"antennae":"X","wings":"X","pattern":"S","legs":"M"},"bonus":1.5400000000000011},{"rt":8075.70000000298,"stimulus":"bees-with-color/bee-B1DF.svg","response":0,"trial_type":"image-button-response","trial_index":13,"time_elapsed":503437,"internal_node_id":"0.0-4.0-0.3","subject_id":"5e92f26b444572122fdfe44d","study_id":"6197b3f67c2b5cd3b6d9596a","session_id":"619be9227f09a045ba1b9423","condition":"full-information","relevant_dimensions":["pattern","legs"],"bee_group":{"antennae":"X","wings":"X","pattern":"S","legs":"M"},"action":"harvest","summary":"good-harvest","bonus":1.5400000000000011},{"rt":2472.2000000029802,"stimulus":"\n                    <p><b>Action: <em>harvest</em></b></p>\n                    <p>This is the bee that you just saw.</p>\n                    <img src=\"bees-with-color/bee-B1DF.svg\" width=\"200\">\n                    <p><span class=\"greenText\"><b>Successful harvest!</b></span><br>Your pay has increased by $0.02. Your bonus pay is now $0.50.</p>\n            ","response":0,"trial_type":"html-button-response","trial_index":14,"time_elapsed":505911,"internal_node_id":"0.0-4.0-1.3","subject_id":"5e92f26b444572122fdfe44d","study_id":"6197b3f67c2b5cd3b6d9596a","session_id":"619be9227f09a045ba1b9423","condition":"full-information","relevant_dimensions":["pattern","legs"],"bee_group":{"antennae":"X","wings":"X","pattern":"S","legs":"M"},"bonus":1.5400000000000011},{"rt":2034.2000000029802,"stimulus":"bees-with-color/bee-B1DM.svg","response":1,"trial_type":"image-button-response","trial_index":15,"time_elapsed":507947,"internal_node_id":"0.0-4.0-0.4","subject_id":"5e92f26b444572122fdfe44d","study_id":"6197b3f67c2b5cd3b6d9596a","session_id":"619be9227f09a045ba1b9423","condition":"full-information","relevant_dimensions":["pattern","legs"],"bee_group":{"antennae":"X","wings":"X","pattern":"S","legs":"M"},"action":"avoid","summary":"bad-avoid","bonus":1.5400000000000011},{"rt":4124,"stimulus":"\n                    <p><b>Action: <em>avoid</em></b></p>\n                    <p>This is the bee that you just saw.</p>\n                    <img src=\"bees-with-color/bee-B1DM.svg\" width=\"200\">\n                    <p><span class=\"redText\">Bad choice,</span> the bee was friendly.<br>Your bonus pay is unchanged, and remains at $0.50.</p>\n            ","response":0,"trial_type":"html-button-response","trial_index":16,"time_elapsed":512073,"internal_node_id":"0.0-4.0-1.4","subject_id":"5e92f26b444572122fdfe44d","study_id":"6197b3f67c2b5cd3b6d9596a","session_id":"619be9227f09a045ba1b9423","condition":"full-information","relevant_dimensions":["pattern","legs"],"bee_group":{"antennae":"X","wings":"X","pattern":"S","legs":"M"},"bonus":1.5400000000000011},{"rt":2568.9000000059605,"stimulus":"bees-with-color/bee-B2SM.svg","response":1,"trial_type":"image-button-response","trial_index":17,"time_elapsed":514644,"internal_node_id":"0.0-4.0-0.5","subject_id":"5e92f26b444572122fdfe44d","study_id":"6197b3f67c2b5cd3b6d9596a","session_id":"619be9227f09a045ba1b9423","condition":"full-information","relevant_dimensions":["pattern","legs"],"bee_group":{"antennae":"X","wings":"X","pattern":"S","legs":"M"},"action":"avoid","summary":"good-avoid","bonus":1.5400000000000011},{"rt":2072.3999999910593,"stimulus":"\n                    <p><b>Action: <em>avoid</em></b></p>\n                    <p>This is the bee that you just saw.</p>\n                    <img src=\"bees-with-color/bee-B2SM.svg\" width=\"200\">\n                    <p><span class=\"greenText\">Good choice!</span>  This bee would have stung you.<br>Your bonus pay is unchanged, and remains at $0.50.</p>\n            ","response":0,"trial_type":"html-button-response","trial_index":18,"time_elapsed":516719,"internal_node_id":"0.0-4.0-1.5","subject_id":"5e92f26b444572122fdfe44d","study_id":"6197b3f67c2b5cd3b6d9596a","session_id":"619be9227f09a045ba1b9423","condition":"full-information","relevant_dimensions":["pattern","legs"],"bee_group":{"antennae":"X","wings":"X","pattern":"S","legs":"M"},"bonus":1.5400000000000011},{"rt":5117.29999999702,"stimulus":"bees-with-color/bee-A2DM.svg","response":0,"trial_type":"image-button-response","trial_index":19,"time_elapsed":521838,"internal_node_id":"0.0-4.0-0.6","subject_id":"5e92f26b444572122fdfe44d","study_id":"6197b3f67c2b5cd3b6d9596a","session_id":"619be9227f09a045ba1b9423","condition":"full-information","relevant_dimensions":["pattern","legs"],"bee_group":{"antennae":"X","wings":"X","pattern":"S","legs":"M"},"action":"harvest","summary":"good-harvest","bonus":1.5400000000000011},{"rt":1272.6000000089407,"stimulus":"\n                    <p><b>Action: <em>harvest</em></b></p>\n                    <p>This is the bee that you just saw.</p>\n                    <img src=\"bees-with-color/bee-A2DM.svg\" width=\"200\">\n                    <p><span class=\"greenText\"><b>Successful harvest!</b></span><br>Your pay has increased by $0.02. Your bonus pay is now $0.52.</p>\n            ","response":0,"trial_type":"html-button-response","trial_index":20,"time_elapsed":523113,"internal_node_id":"0.0-4.0-1.6","subject_id":"5e92f26b444572122fdfe44d","study_id":"6197b3f67c2b5cd3b6d9596a","session_id":"619be9227f09a045ba1b9423","condition":"full-information","relevant_dimensions":["pattern","legs"],"bee_group":{"antennae":"X","wings":"X","pattern":"S","legs":"M"},"bonus":1.5400000000000011},{"rt":2359.800000011921,"stimulus":"bees-with-color/bee-B2DF.svg","response":0,"trial_type":"image-button-response","trial_index":21,"time_elapsed":525475,"internal_node_id":"0.0-4.0-0.7","subject_id":"5e92f26b444572122fdfe44d","study_id":"6197b3f67c2b5cd3b6d9596a","session_id":"619be9227f09a045ba1b9423","condition":"full-information","relevant_dimensions":["pattern","legs"],"bee_group":{"antennae":"X","wings":"X","pattern":"S","legs":"M"},"action":"harvest","summary":"good-harvest","bonus":1.5400000000000011},{"rt":1056.199999988079,"stimulus":"\n                    <p><b>Action: <em>harvest</em></b></p>\n                    <p>This is the bee that you just saw.</p>\n                    <img src=\"bees-with-color/bee-B2DF.svg\" width=\"200\">\n                    <p><span class=\"greenText\"><b>Successful harvest!</b></span><br>Your pay has increased by $0.02. Your bonus pay is now $0.54.</p>\n            ","response":0,"trial_type":"html-button-response","trial_index":22,"time_elapsed":526533,"internal_node_id":"0.0-4.0-1.7","subject_id":"5e92f26b444572122fdfe44d","study_id":"6197b3f67c2b5cd3b6d9596a","session_id":"619be9227f09a045ba1b9423","condition":"full-information","relevant_dimensions":["pattern","legs"],"bee_group":{"antennae":"X","wings":"X","pattern":"S","legs":"M"},"bonus":1.5400000000000011},{"rt":6181.100000008941,"stimulus":"bees-with-color/bee-A1DM.svg","response":0,"trial_type":"image-button-response","trial_index":23,"time_elapsed":532717,"internal_node_id":"0.0-4.0-0.8","subject_id":"5e92f26b444572122fdfe44d","study_id":"6197b3f67c2b5cd3b6d9596a","session_id":"619be9227f09a045ba1b9423","condition":"full-information","relevant_dimensions":["pattern","legs"],"bee_group":{"antennae":"X","wings":"X","pattern":"S","legs":"M"},"action":"harvest","summary":"good-harvest","bonus":1.5400000000000011},{"rt":1072.4000000059605,"stimulus":"\n                    <p><b>Action: <em>harvest</em></b></p>\n                    <p>This is the bee that you just saw.</p>\n                    <img src=\"bees-with-color/bee-A1DM.svg\" width=\"200\">\n                    <p><span class=\"greenText\"><b>Successful harvest!</b></span><br>Your pay has increased by $0.02. Your bonus pay is now $0.56.</p>\n            ","response":0,"trial_type":"html-button-response","trial_index":24,"time_elapsed":533791,"internal_node_id":"0.0-4.0-1.8","subject_id":"5e92f26b444572122fdfe44d","study_id":"6197b3f67c2b5cd3b6d9596a","session_id":"619be9227f09a045ba1b9423","condition":"full-information","relevant_dimensions":["pattern","legs"],"bee_group":{"antennae":"X","wings":"X","pattern":"S","legs":"M"},"bonus":1.5400000000000011},{"rt":1687.1000000089407,"stimulus":"bees-with-color/bee-B2DM.svg","response":0,"trial_type":"image-button-response","trial_index":25,"time_elapsed":535481,"internal_node_id":"0.0-4.0-0.9","subject_id":"5e92f26b444572122fdfe44d","study_id":"6197b3f67c2b5cd3b6d9596a","session_id":"619be9227f09a045ba1b9423","condition":"full-information","relevant_dimensions":["pattern","legs"],"bee_group":{"antennae":"X","wings":"X","pattern":"S","legs":"M"},"action":"harvest","summary":"good-harvest","bonus":1.5400000000000011},{"rt":984.2000000029802,"stimulus":"\n                    <p><b>Action: <em>harvest</em></b></p>\n                    <p>This is the bee that you just saw.</p>\n                    <img src=\"bees-with-color/bee-B2DM.svg\" width=\"200\">\n                    <p><span class=\"greenText\"><b>Successful harvest!</b></span><br>Your pay has increased by $0.02. Your bonus pay is now $0.58.</p>\n            ","response":0,"trial_type":"html-button-response","trial_index":26,"time_elapsed":536467,"internal_node_id":"0.0-4.0-1.9","subject_id":"5e92f26b444572122fdfe44d","study_id":"6197b3f67c2b5cd3b6d9596a","session_id":"619be9227f09a045ba1b9423","condition":"full-information","relevant_dimensions":["pattern","legs"],"bee_group":{"antennae":"X","wings":"X","pattern":"S","legs":"M"},"bonus":1.5400000000000011},{"rt":1495.3999999910593,"stimulus":"bees-with-color/bee-A2SM.svg","response":1,"trial_type":"image-button-response","trial_index":27,"time_elapsed":537965,"internal_node_id":"0.0-4.0-0.10","subject_id":"5e92f26b444572122fdfe44d","study_id":"6197b3f67c2b5cd3b6d9596a","session_id":"619be9227f09a045ba1b9423","condition":"full-information","relevant_dimensions":["pattern","legs"],"bee_group":{"antennae":"X","wings":"X","pattern":"S","legs":"M"},"action":"avoid","summary":"good-avoid","bonus":1.5400000000000011},{"rt":887.7999999970198,"stimulus":"\n                    <p><b>Action: <em>avoid</em></b></p>\n                    <p>This is the bee that you just saw.</p>\n                    <img src=\"bees-with-color/bee-A2SM.svg\" width=\"200\">\n                    <p><span class=\"greenText\">Good choice!</span>  This bee would have stung you.<br>Your bonus pay is unchanged, and remains at $0.58.</p>\n            ","response":0,"trial_type":"html-button-response","trial_index":28,"time_elapsed":538855,"internal_node_id":"0.0-4.0-1.10","subject_id":"5e92f26b444572122fdfe44d","study_id":"6197b3f67c2b5cd3b6d9596a","session_id":"619be9227f09a045ba1b9423","condition":"full-information","relevant_dimensions":["pattern","legs"],"bee_group":{"antennae":"X","wings":"X","pattern":"S","legs":"M"},"bonus":1.5400000000000011},{"rt":4843.9000000059605,"stimulus":"bees-with-color/bee-A1SM.svg","response":0,"trial_type":"image-button-response","trial_index":29,"time_elapsed":543700,"internal_node_id":"0.0-4.0-0.11","subject_id":"5e92f26b444572122fdfe44d","study_id":"6197b3f67c2b5cd3b6d9596a","session_id":"619be9227f09a045ba1b9423","condition":"full-information","relevant_dimensions":["pattern","legs"],"bee_group":{"antennae":"X","wings":"X","pattern":"S","legs":"M"},"action":"harvest","summary":"bad-harvest","bonus":1.5400000000000011},{"rt":1272.7000000029802,"stimulus":"\n                    <p><b>Action: <em>harvest</em></b></p>\n                    <p>This is the bee that you just saw.</p>\n                    <img src=\"bees-with-color/bee-A1SM.svg\" width=\"200\">\n                    <p><span class=\"redText\">Bad choice, the bee was angry.</span><br><b>You have been stung!</b><br>Your pay has been decreased by $0.10. Your bonus pay is now $0.48.</p>\n            ","response":0,"trial_type":"html-button-response","trial_index":30,"time_elapsed":544975,"internal_node_id":"0.0-4.0-1.11","subject_id":"5e92f26b444572122fdfe44d","study_id":"6197b3f67c2b5cd3b6d9596a","session_id":"619be9227f09a045ba1b9423","condition":"full-information","relevant_dimensions":["pattern","legs"],"bee_group":{"antennae":"X","wings":"X","pattern":"S","legs":"M"},"bonus":1.5400000000000011},{"rt":2407.5999999940395,"stimulus":"bees-with-color/bee-B2SF.svg","response":0,"trial_type":"image-button-response","trial_index":31,"time_elapsed":547385,"internal_node_id":"0.0-4.0-0.12","subject_id":"5e92f26b444572122fdfe44d","study_id":"6197b3f67c2b5cd3b6d9596a","session_id":"619be9227f09a045ba1b9423","condition":"full-information","relevant_dimensions":["pattern","legs"],"bee_group":{"antennae":"X","wings":"X","pattern":"S","legs":"M"},"action":"harvest","summary":"good-harvest","bonus":1.5400000000000011},{"rt":1007.8999999910593,"stimulus":"\n                    <p><b>Action: <em>harvest</em></b></p>\n                    <p>This is the bee that you just saw.</p>\n                    <img src=\"bees-with-color/bee-B2SF.svg\" width=\"200\">\n                    <p><span class=\"greenText\"><b>Successful harvest!</b></span><br>Your pay has increased by $0.02. Your bonus pay is now $0.50.</p>\n            ","response":0,"trial_type":"html-button-response","trial_index":32,"time_elapsed":548395,"internal_node_id":"0.0-4.0-1.12","subject_id":"5e92f26b444572122fdfe44d","study_id":"6197b3f67c2b5cd3b6d9596a","session_id":"619be9227f09a045ba1b9423","condition":"full-information","relevant_dimensions":["pattern","legs"],"bee_group":{"antennae":"X","wings":"X","pattern":"S","legs":"M"},"bonus":1.5400000000000011},{"rt":1815.199999988079,"stimulus":"bees-with-color/bee-A2DF.svg","response":0,"trial_type":"image-button-response","trial_index":33,"time_elapsed":550212,"internal_node_id":"0.0-4.0-0.13","subject_id":"5e92f26b444572122fdfe44d","study_id":"6197b3f67c2b5cd3b6d9596a","session_id":"619be9227f09a045ba1b9423","condition":"full-information","relevant_dimensions":["pattern","legs"],"bee_group":{"antennae":"X","wings":"X","pattern":"S","legs":"M"},"action":"harvest","summary":"good-harvest","bonus":1.5400000000000011},{"rt":816,"stimulus":"\n                    <p><b>Action: <em>harvest</em></b></p>\n                    <p>This is the bee that you just saw.</p>\n                    <img src=\"bees-with-color/bee-A2DF.svg\" width=\"200\">\n                    <p><span class=\"greenText\"><b>Successful harvest!</b></span><br>Your pay has increased by $0.02. Your bonus pay is now $0.52.</p>\n            ","response":0,"trial_type":"html-button-response","trial_index":34,"time_elapsed":551030,"internal_node_id":"0.0-4.0-1.13","subject_id":"5e92f26b444572122fdfe44d","study_id":"6197b3f67c2b5cd3b6d9596a","session_id":"619be9227f09a045ba1b9423","condition":"full-information","relevant_dimensions":["pattern","legs"],"bee_group":{"antennae":"X","wings":"X","pattern":"S","legs":"M"},"bonus":1.5400000000000011},{"rt":1520.5999999940395,"stimulus":"bees-with-color/bee-B1SF.svg","response":0,"trial_type":"image-button-response","trial_index":35,"time_elapsed":552552,"internal_node_id":"0.0-4.0-0.14","subject_id":"5e92f26b444572122fdfe44d","study_id":"6197b3f67c2b5cd3b6d9596a","session_id":"619be9227f09a045ba1b9423","condition":"full-information","relevant_dimensions":["pattern","legs"],"bee_group":{"antennae":"X","wings":"X","pattern":"S","legs":"M"},"action":"harvest","summary":"good-harvest","bonus":1.5400000000000011},{"rt":998.2999999970198,"stimulus":"\n                    <p><b>Action: <em>harvest</em></b></p>\n                    <p>This is the bee that you just saw.</p>\n                    <img src=\"bees-with-color/bee-B1SF.svg\" width=\"200\">\n                    <p><span class=\"greenText\"><b>Successful harvest!</b></span><br>Your pay has increased by $0.02. Your bonus pay is now $0.54.</p>\n            ","response":0,"trial_type":"html-button-response","trial_index":36,"time_elapsed":553552,"internal_node_id":"0.0-4.0-1.14","subject_id":"5e92f26b444572122fdfe44d","study_id":"6197b3f67c2b5cd3b6d9596a","session_id":"619be9227f09a045ba1b9423","condition":"full-information","relevant_dimensions":["pattern","legs"],"bee_group":{"antennae":"X","wings":"X","pattern":"S","legs":"M"},"bonus":1.5400000000000011},{"rt":1224.5,"stimulus":"bees-with-color/bee-A1DF.svg","response":0,"trial_type":"image-button-response","trial_index":37,"time_elapsed":554778,"internal_node_id":"0.0-4.0-0.15","subject_id":"5e92f26b444572122fdfe44d","study_id":"6197b3f67c2b5cd3b6d9596a","session_id":"619be9227f09a045ba1b9423","condition":"full-information","relevant_dimensions":["pattern","legs"],"bee_group":{"antennae":"X","wings":"X","pattern":"S","legs":"M"},"action":"harvest","summary":"good-harvest","bonus":1.5400000000000011},{"rt":896.7999999970198,"stimulus":"\n                    <p><b>Action: <em>harvest</em></b></p>\n                    <p>This is the bee that you just saw.</p>\n                    <img src=\"bees-with-color/bee-A1DF.svg\" width=\"200\">\n                    <p><span class=\"greenText\"><b>Successful harvest!</b></span><br>Your pay has increased by $0.02. Your bonus pay is now $0.56.</p>\n            ","response":0,"trial_type":"html-button-response","trial_index":38,"time_elapsed":555677,"internal_node_id":"0.0-4.0-1.15","subject_id":"5e92f26b444572122fdfe44d","study_id":"6197b3f67c2b5cd3b6d9596a","session_id":"619be9227f09a045ba1b9423","condition":"full-information","relevant_dimensions":["pattern","legs"],"bee_group":{"antennae":"X","wings":"X","pattern":"S","legs":"M"},"bonus":1.5400000000000011},{"rt":2298.2000000029802,"stimulus":"bees-with-color/bee-A2SM.svg","response":1,"trial_type":"image-button-response","trial_index":39,"time_elapsed":557976,"internal_node_id":"0.0-4.0-0.16","subject_id":"5e92f26b444572122fdfe44d","study_id":"6197b3f67c2b5cd3b6d9596a","session_id":"619be9227f09a045ba1b9423","condition":"full-information","relevant_dimensions":["pattern","legs"],"bee_group":{"antennae":"X","wings":"X","pattern":"S","legs":"M"},"action":"avoid","summary":"good-avoid","bonus":1.5400000000000011},{"rt":3571.8999999910593,"stimulus":"\n                    <p><b>Action: <em>avoid</em></b></p>\n                    <p>This is the bee that you just saw.</p>\n                    <img src=\"bees-with-color/bee-A2SM.svg\" width=\"200\">\n                    <p><span class=\"greenText\">Good choice!</span>  This bee would have stung you.<br>Your bonus pay is unchanged, and remains at $0.56.</p>\n            ","response":0,"trial_type":"html-button-response","trial_index":40,"time_elapsed":561550,"internal_node_id":"0.0-4.0-1.16","subject_id":"5e92f26b444572122fdfe44d","study_id":"6197b3f67c2b5cd3b6d9596a","session_id":"619be9227f09a045ba1b9423","condition":"full-information","relevant_dimensions":["pattern","legs"],"bee_group":{"antennae":"X","wings":"X","pattern":"S","legs":"M"},"bonus":1.5400000000000011},{"rt":2401.5999999940395,"stimulus":"bees-with-color/bee-A2DM.svg","response":1,"trial_type":"image-button-response","trial_index":41,"time_elapsed":563953,"internal_node_id":"0.0-4.0-0.17","subject_id":"5e92f26b444572122fdfe44d","study_id":"6197b3f67c2b5cd3b6d9596a","session_id":"619be9227f09a045ba1b9423","condition":"full-information","relevant_dimensions":["pattern","legs"],"bee_group":{"antennae":"X","wings":"X","pattern":"S","legs":"M"},"action":"avoid","summary":"bad-avoid","bonus":1.5400000000000011},{"rt":1456.5,"stimulus":"\n                    <p><b>Action: <em>avoid</em></b></p>\n                    <p>This is the bee that you just saw.</p>\n                    <img src=\"bees-with-color/bee-A2DM.svg\" width=\"200\">\n                    <p><span class=\"redText\">Bad choice,</span> the bee was friendly.<br>Your bonus pay is unchanged, and remains at $0.56.</p>\n            ","response":0,"trial_type":"html-button-response","trial_index":42,"time_elapsed":565411,"internal_node_id":"0.0-4.0-1.17","subject_id":"5e92f26b444572122fdfe44d","study_id":"6197b3f67c2b5cd3b6d9596a","session_id":"619be9227f09a045ba1b9423","condition":"full-information","relevant_dimensions":["pattern","legs"],"bee_group":{"antennae":"X","wings":"X","pattern":"S","legs":"M"},"bonus":1.5400000000000011},{"rt":3403.2999999970198,"stimulus":"bees-with-color/bee-B1DF.svg","response":0,"trial_type":"image-button-response","trial_index":43,"time_elapsed":568816,"internal_node_id":"0.0-4.0-0.18","subject_id":"5e92f26b444572122fdfe44d","study_id":"6197b3f67c2b5cd3b6d9596a","session_id":"619be9227f09a045ba1b9423","condition":"full-information","relevant_dimensions":["pattern","legs"],"bee_group":{"antennae":"X","wings":"X","pattern":"S","legs":"M"},"action":"harvest","summary":"good-harvest","bonus":1.5400000000000011},{"rt":856.9000000059605,"stimulus":"\n                    <p><b>Action: <em>harvest</em></b></p>\n                    <p>This is the bee that you just saw.</p>\n                    <img src=\"bees-with-color/bee-B1DF.svg\" width=\"200\">\n                    <p><span class=\"greenText\"><b>Successful harvest!</b></span><br>Your pay has increased by $0.02. Your bonus pay is now $0.58.</p>\n            ","response":0,"trial_type":"html-button-response","trial_index":44,"time_elapsed":569675,"internal_node_id":"0.0-4.0-1.18","subject_id":"5e92f26b444572122fdfe44d","study_id":"6197b3f67c2b5cd3b6d9596a","session_id":"619be9227f09a045ba1b9423","condition":"full-information","relevant_dimensions":["pattern","legs"],"bee_group":{"antennae":"X","wings":"X","pattern":"S","legs":"M"},"bonus":1.5400000000000011},{"rt":1159.8999999910593,"stimulus":"bees-with-color/bee-B2DF.svg","response":0,"trial_type":"image-button-response","trial_index":45,"time_elapsed":570836,"internal_node_id":"0.0-4.0-0.19","subject_id":"5e92f26b444572122fdfe44d","study_id":"6197b3f67c2b5cd3b6d9596a","session_id":"619be9227f09a045ba1b9423","condition":"full-information","relevant_dimensions":["pattern","legs"],"bee_group":{"antennae":"X","wings":"X","pattern":"S","legs":"M"},"action":"harvest","summary":"good-harvest","bonus":1.5400000000000011},{"rt":989.9000000059605,"stimulus":"\n                    <p><b>Action: <em>harvest</em></b></p>\n                    <p>This is the bee that you just saw.</p>\n                    <img src=\"bees-with-color/bee-B2DF.svg\" width=\"200\">\n                    <p><span class=\"greenText\"><b>Successful harvest!</b></span><br>Your pay has increased by $0.02. Your bonus pay is now $0.60.</p>\n            ","response":0,"trial_type":"html-button-response","trial_index":46,"time_elapsed":571828,"internal_node_id":"0.0-4.0-1.19","subject_id":"5e92f26b444572122fdfe44d","study_id":"6197b3f67c2b5cd3b6d9596a","session_id":"619be9227f09a045ba1b9423","condition":"full-information","relevant_dimensions":["pattern","legs"],"bee_group":{"antennae":"X","wings":"X","pattern":"S","legs":"M"},"bonus":1.5400000000000011},{"rt":1129.2999999970198,"stimulus":"bees-with-color/bee-B2DM.svg","response":0,"trial_type":"image-button-response","trial_index":47,"time_elapsed":572958,"internal_node_id":"0.0-4.0-0.20","subject_id":"5e92f26b444572122fdfe44d","study_id":"6197b3f67c2b5cd3b6d9596a","session_id":"619be9227f09a045ba1b9423","condition":"full-information","relevant_dimensions":["pattern","legs"],"bee_group":{"antennae":"X","wings":"X","pattern":"S","legs":"M"},"action":"harvest","summary":"good-harvest","bonus":1.5400000000000011},{"rt":734.4000000059605,"stimulus":"\n                    <p><b>Action: <em>harvest</em></b></p>\n                    <p>This is the bee that you just saw.</p>\n                    <img src=\"bees-with-color/bee-B2DM.svg\" width=\"200\">\n                    <p><span class=\"greenText\"><b>Successful harvest!</b></span><br>Your pay has increased by $0.02. Your bonus pay is now $0.62.</p>\n            ","response":0,"trial_type":"html-button-response","trial_index":48,"time_elapsed":573695,"internal_node_id":"0.0-4.0-1.20","subject_id":"5e92f26b444572122fdfe44d","study_id":"6197b3f67c2b5cd3b6d9596a","session_id":"619be9227f09a045ba1b9423","condition":"full-information","relevant_dimensions":["pattern","legs"],"bee_group":{"antennae":"X","wings":"X","pattern":"S","legs":"M"},"bonus":1.5400000000000011},{"rt":3222,"stimulus":"bees-with-color/bee-B1SM.svg","response":1,"trial_type":"image-button-response","trial_index":49,"time_elapsed":576918,"internal_node_id":"0.0-4.0-0.21","subject_id":"5e92f26b444572122fdfe44d","study_id":"6197b3f67c2b5cd3b6d9596a","session_id":"619be9227f09a045ba1b9423","condition":"full-information","relevant_dimensions":["pattern","legs"],"bee_group":{"antennae":"X","wings":"X","pattern":"S","legs":"M"},"action":"avoid","summary":"good-avoid","bonus":1.5400000000000011},{"rt":934.0999999940395,"stimulus":"\n                    <p><b>Action: <em>avoid</em></b></p>\n                    <p>This is the bee that you just saw.</p>\n                    <img src=\"bees-with-color/bee-B1SM.svg\" width=\"200\">\n                    <p><span class=\"greenText\">Good choice!</span>  This bee would have stung you.<br>Your bonus pay is unchanged, and remains at $0.62.</p>\n            ","response":0,"trial_type":"html-button-response","trial_index":50,"time_elapsed":577854,"internal_node_id":"0.0-4.0-1.21","subject_id":"5e92f26b444572122fdfe44d","study_id":"6197b3f67c2b5cd3b6d9596a","session_id":"619be9227f09a045ba1b9423","condition":"full-information","relevant_dimensions":["pattern","legs"],"bee_group":{"antennae":"X","wings":"X","pattern":"S","legs":"M"},"bonus":1.5400000000000011},{"rt":1177.199999988079,"stimulus":"bees-with-color/bee-A1SF.svg","response":0,"trial_type":"image-button-response","trial_index":51,"time_elapsed":579033,"internal_node_id":"0.0-4.0-0.22","subject_id":"5e92f26b444572122fdfe44d","study_id":"6197b3f67c2b5cd3b6d9596a","session_id":"619be9227f09a045ba1b9423","condition":"full-information","relevant_dimensions":["pattern","legs"],"bee_group":{"antennae":"X","wings":"X","pattern":"S","legs":"M"},"action":"harvest","summary":"good-harvest","bonus":1.5400000000000011},{"rt":701.8999999910593,"stimulus":"\n                    <p><b>Action: <em>harvest</em></b></p>\n                    <p>This is the bee that you just saw.</p>\n                    <img src=\"bees-with-color/bee-A1SF.svg\" width=\"200\">\n                    <p><span class=\"greenText\"><b>Successful harvest!</b></span><br>Your pay has increased by $0.02. Your bonus pay is now $0.64.</p>\n            ","response":0,"trial_type":"html-button-response","trial_index":52,"time_elapsed":579736,"internal_node_id":"0.0-4.0-1.22","subject_id":"5e92f26b444572122fdfe44d","study_id":"6197b3f67c2b5cd3b6d9596a","session_id":"619be9227f09a045ba1b9423","condition":"full-information","relevant_dimensions":["pattern","legs"],"bee_group":{"antennae":"X","wings":"X","pattern":"S","legs":"M"},"bonus":1.5400000000000011},{"rt":896.6999999880791,"stimulus":"bees-with-color/bee-A2DF.svg","response":0,"trial_type":"image-button-response","trial_index":53,"time_elapsed":580635,"internal_node_id":"0.0-4.0-0.23","subject_id":"5e92f26b444572122fdfe44d","study_id":"6197b3f67c2b5cd3b6d9596a","session_id":"619be9227f09a045ba1b9423","condition":"full-information","relevant_dimensions":["pattern","legs"],"bee_group":{"antennae":"X","wings":"X","pattern":"S","legs":"M"},"action":"harvest","summary":"good-harvest","bonus":1.5400000000000011},{"rt":719.7999999970198,"stimulus":"\n                    <p><b>Action: <em>harvest</em></b></p>\n                    <p>This is the bee that you just saw.</p>\n                    <img src=\"bees-with-color/bee-A2DF.svg\" width=\"200\">\n                    <p><span class=\"greenText\"><b>Successful harvest!</b></span><br>Your pay has increased by $0.02. Your bonus pay is now $0.66.</p>\n            ","response":0,"trial_type":"html-button-response","trial_index":54,"time_elapsed":581356,"internal_node_id":"0.0-4.0-1.23","subject_id":"5e92f26b444572122fdfe44d","study_id":"6197b3f67c2b5cd3b6d9596a","session_id":"619be9227f09a045ba1b9423","condition":"full-information","relevant_dimensions":["pattern","legs"],"bee_group":{"antennae":"X","wings":"X","pattern":"S","legs":"M"},"bonus":1.5400000000000011},{"rt":2168.5,"stimulus":"bees-with-color/bee-A1DM.svg","response":0,"trial_type":"image-button-response","trial_index":55,"time_elapsed":583526,"internal_node_id":"0.0-4.0-0.24","subject_id":"5e92f26b444572122fdfe44d","study_id":"6197b3f67c2b5cd3b6d9596a","session_id":"619be9227f09a045ba1b9423","condition":"full-information","relevant_dimensions":["pattern","legs"],"bee_group":{"antennae":"X","wings":"X","pattern":"S","legs":"M"},"action":"harvest","summary":"good-harvest","bonus":1.5400000000000011},{"rt":872.5,"stimulus":"\n                    <p><b>Action: <em>harvest</em></b></p>\n                    <p>This is the bee that you just saw.</p>\n                    <img src=\"bees-with-color/bee-A1DM.svg\" width=\"200\">\n                    <p><span class=\"greenText\"><b>Successful harvest!</b></span><br>Your pay has increased by $0.02. Your bonus pay is now $0.68.</p>\n            ","response":0,"trial_type":"html-button-response","trial_index":56,"time_elapsed":584401,"internal_node_id":"0.0-4.0-1.24","subject_id":"5e92f26b444572122fdfe44d","study_id":"6197b3f67c2b5cd3b6d9596a","session_id":"619be9227f09a045ba1b9423","condition":"full-information","relevant_dimensions":["pattern","legs"],"bee_group":{"antennae":"X","wings":"X","pattern":"S","legs":"M"},"bonus":1.5400000000000011},{"rt":1101.5999999940395,"stimulus":"bees-with-color/bee-B2SM.svg","response":1,"trial_type":"image-button-response","trial_index":57,"time_elapsed":585505,"internal_node_id":"0.0-4.0-0.25","subject_id":"5e92f26b444572122fdfe44d","study_id":"6197b3f67c2b5cd3b6d9596a","session_id":"619be9227f09a045ba1b9423","condition":"full-information","relevant_dimensions":["pattern","legs"],"bee_group":{"antennae":"X","wings":"X","pattern":"S","legs":"M"},"action":"avoid","summary":"good-avoid","bonus":1.5400000000000011},{"rt":823.7999999970198,"stimulus":"\n                    <p><b>Action: <em>avoid</em></b></p>\n                    <p>This is the bee that you just saw.</p>\n                    <img src=\"bees-with-color/bee-B2SM.svg\" width=\"200\">\n                    <p><span class=\"greenText\">Good choice!</span>  This bee would have stung you.<br>Your bonus pay is unchanged, and remains at $0.68.</p>\n            ","response":0,"trial_type":"html-button-response","trial_index":58,"time_elapsed":586330,"internal_node_id":"0.0-4.0-1.25","subject_id":"5e92f26b444572122fdfe44d","study_id":"6197b3f67c2b5cd3b6d9596a","session_id":"619be9227f09a045ba1b9423","condition":"full-information","relevant_dimensions":["pattern","legs"],"bee_group":{"antennae":"X","wings":"X","pattern":"S","legs":"M"},"bonus":1.5400000000000011},{"rt":1696,"stimulus":"bees-with-color/bee-A1SM.svg","response":0,"trial_type":"image-button-response","trial_index":59,"time_elapsed":588028,"internal_node_id":"0.0-4.0-0.26","subject_id":"5e92f26b444572122fdfe44d","study_id":"6197b3f67c2b5cd3b6d9596a","session_id":"619be9227f09a045ba1b9423","condition":"full-information","relevant_dimensions":["pattern","legs"],"bee_group":{"antennae":"X","wings":"X","pattern":"S","legs":"M"},"action":"harvest","summary":"bad-harvest","bonus":1.5400000000000011},{"rt":1576.0999999940395,"stimulus":"\n                    <p><b>Action: <em>harvest</em></b></p>\n                    <p>This is the bee that you just saw.</p>\n                    <img src=\"bees-with-color/bee-A1SM.svg\" width=\"200\">\n                    <p><span class=\"redText\">Bad choice, the bee was angry.</span><br><b>You have been stung!</b><br>Your pay has been decreased by $0.10. Your bonus pay is now $0.58.</p>\n            ","response":0,"trial_type":"html-button-response","trial_index":60,"time_elapsed":589606,"internal_node_id":"0.0-4.0-1.26","subject_id":"5e92f26b444572122fdfe44d","study_id":"6197b3f67c2b5cd3b6d9596a","session_id":"619be9227f09a045ba1b9423","condition":"full-information","relevant_dimensions":["pattern","legs"],"bee_group":{"antennae":"X","wings":"X","pattern":"S","legs":"M"},"bonus":1.5400000000000011},{"rt":3684.2000000029802,"stimulus":"bees-with-color/bee-B2SF.svg","response":0,"trial_type":"image-button-response","trial_index":61,"time_elapsed":593292,"internal_node_id":"0.0-4.0-0.27","subject_id":"5e92f26b444572122fdfe44d","study_id":"6197b3f67c2b5cd3b6d9596a","session_id":"619be9227f09a045ba1b9423","condition":"full-information","relevant_dimensions":["pattern","legs"],"bee_group":{"antennae":"X","wings":"X","pattern":"S","legs":"M"},"action":"harvest","summary":"good-harvest","bonus":1.5400000000000011},{"rt":704,"stimulus":"\n                    <p><b>Action: <em>harvest</em></b></p>\n                    <p>This is the bee that you just saw.</p>\n                    <img src=\"bees-with-color/bee-B2SF.svg\" width=\"200\">\n                    <p><span class=\"greenText\"><b>Successful harvest!</b></span><br>Your pay has increased by $0.02. Your bonus pay is now $0.60.</p>\n            ","response":0,"trial_type":"html-button-response","trial_index":62,"time_elapsed":593998,"internal_node_id":"0.0-4.0-1.27","subject_id":"5e92f26b444572122fdfe44d","study_id":"6197b3f67c2b5cd3b6d9596a","session_id":"619be9227f09a045ba1b9423","condition":"full-information","relevant_dimensions":["pattern","legs"],"bee_group":{"antennae":"X","wings":"X","pattern":"S","legs":"M"},"bonus":1.5400000000000011},{"rt":1375.8999999910593,"stimulus":"bees-with-color/bee-B1DM.svg","response":0,"trial_type":"image-button-response","trial_index":63,"time_elapsed":595376,"internal_node_id":"0.0-4.0-0.28","subject_id":"5e92f26b444572122fdfe44d","study_id":"6197b3f67c2b5cd3b6d9596a","session_id":"619be9227f09a045ba1b9423","condition":"full-information","relevant_dimensions":["pattern","legs"],"bee_group":{"antennae":"X","wings":"X","pattern":"S","legs":"M"},"action":"harvest","summary":"good-harvest","bonus":1.5400000000000011},{"rt":638.3999999910593,"stimulus":"\n                    <p><b>Action: <em>harvest</em></b></p>\n                    <p>This is the bee that you just saw.</p>\n                    <img src=\"bees-with-color/bee-B1DM.svg\" width=\"200\">\n                    <p><span class=\"greenText\"><b>Successful harvest!</b></span><br>Your pay has increased by $0.02. Your bonus pay is now $0.62.</p>\n            ","response":0,"trial_type":"html-button-response","trial_index":64,"time_elapsed":596017,"internal_node_id":"0.0-4.0-1.28","subject_id":"5e92f26b444572122fdfe44d","study_id":"6197b3f67c2b5cd3b6d9596a","session_id":"619be9227f09a045ba1b9423","condition":"full-information","relevant_dimensions":["pattern","legs"],"bee_group":{"antennae":"X","wings":"X","pattern":"S","legs":"M"},"bonus":1.5400000000000011},{"rt":880.0999999940395,"stimulus":"bees-with-color/bee-A2SF.svg","response":0,"trial_type":"image-button-response","trial_index":65,"time_elapsed":596899,"internal_node_id":"0.0-4.0-0.29","subject_id":"5e92f26b444572122fdfe44d","study_id":"6197b3f67c2b5cd3b6d9596a","session_id":"619be9227f09a045ba1b9423","condition":"full-information","relevant_dimensions":["pattern","legs"],"bee_group":{"antennae":"X","wings":"X","pattern":"S","legs":"M"},"action":"harvest","summary":"good-harvest","bonus":1.5400000000000011},{"rt":637.7000000029802,"stimulus":"\n                    <p><b>Action: <em>harvest</em></b></p>\n                    <p>This is the bee that you just saw.</p>\n                    <img src=\"bees-with-color/bee-A2SF.svg\" width=\"200\">\n                    <p><span class=\"greenText\"><b>Successful harvest!</b></span><br>Your pay has increased by $0.02. Your bonus pay is now $0.64.</p>\n            ","response":0,"trial_type":"html-button-response","trial_index":66,"time_elapsed":597538,"internal_node_id":"0.0-4.0-1.29","subject_id":"5e92f26b444572122fdfe44d","study_id":"6197b3f67c2b5cd3b6d9596a","session_id":"619be9227f09a045ba1b9423","condition":"full-information","relevant_dimensions":["pattern","legs"],"bee_group":{"antennae":"X","wings":"X","pattern":"S","legs":"M"},"bonus":1.5400000000000011},{"rt":704.2000000029802,"stimulus":"bees-with-color/bee-A1DF.svg","response":0,"trial_type":"image-button-response","trial_index":67,"time_elapsed":598244,"internal_node_id":"0.0-4.0-0.30","subject_id":"5e92f26b444572122fdfe44d","study_id":"6197b3f67c2b5cd3b6d9596a","session_id":"619be9227f09a045ba1b9423","condition":"full-information","relevant_dimensions":["pattern","legs"],"bee_group":{"antennae":"X","wings":"X","pattern":"S","legs":"M"},"action":"harvest","summary":"good-harvest","bonus":1.5400000000000011},{"rt":637.7000000029802,"stimulus":"\n                    <p><b>Action: <em>harvest</em></b></p>\n                    <p>This is the bee that you just saw.</p>\n                    <img src=\"bees-with-color/bee-A1DF.svg\" width=\"200\">\n                    <p><span class=\"greenText\"><b>Successful harvest!</b></span><br>Your pay has increased by $0.02. Your bonus pay is now $0.66.</p>\n            ","response":0,"trial_type":"html-button-response","trial_index":68,"time_elapsed":598884,"internal_node_id":"0.0-4.0-1.30","subject_id":"5e92f26b444572122fdfe44d","study_id":"6197b3f67c2b5cd3b6d9596a","session_id":"619be9227f09a045ba1b9423","condition":"full-information","relevant_dimensions":["pattern","legs"],"bee_group":{"antennae":"X","wings":"X","pattern":"S","legs":"M"},"bonus":1.5400000000000011},{"rt":1024.1000000089407,"stimulus":"bees-with-color/bee-B1SF.svg","response":0,"trial_type":"image-button-response","trial_index":69,"time_elapsed":599910,"internal_node_id":"0.0-4.0-0.31","subject_id":"5e92f26b444572122fdfe44d","study_id":"6197b3f67c2b5cd3b6d9596a","session_id":"619be9227f09a045ba1b9423","condition":"full-information","relevant_dimensions":["pattern","legs"],"bee_group":{"antennae":"X","wings":"X","pattern":"S","legs":"M"},"action":"harvest","summary":"good-harvest","bonus":1.5400000000000011},{"rt":574.2000000029802,"stimulus":"\n                    <p><b>Action: <em>harvest</em></b></p>\n                    <p>This is the bee that you just saw.</p>\n                    <img src=\"bees-with-color/bee-B1SF.svg\" width=\"200\">\n                    <p><span class=\"greenText\"><b>Successful harvest!</b></span><br>Your pay has increased by $0.02. Your bonus pay is now $0.68.</p>\n            ","response":0,"trial_type":"html-button-response","trial_index":70,"time_elapsed":600486,"internal_node_id":"0.0-4.0-1.31","subject_id":"5e92f26b444572122fdfe44d","study_id":"6197b3f67c2b5cd3b6d9596a","session_id":"619be9227f09a045ba1b9423","condition":"full-information","relevant_dimensions":["pattern","legs"],"bee_group":{"antennae":"X","wings":"X","pattern":"S","legs":"M"},"bonus":1.5400000000000011},{"rt":928.4000000059605,"stimulus":"bees-with-color/bee-B2SF.svg","response":0,"trial_type":"image-button-response","trial_index":71,"time_elapsed":601416,"internal_node_id":"0.0-4.0-0.32","subject_id":"5e92f26b444572122fdfe44d","study_id":"6197b3f67c2b5cd3b6d9596a","session_id":"619be9227f09a045ba1b9423","condition":"full-information","relevant_dimensions":["pattern","legs"],"bee_group":{"antennae":"X","wings":"X","pattern":"S","legs":"M"},"action":"harvest","summary":"good-harvest","bonus":1.5400000000000011},{"rt":590.7999999970198,"stimulus":"\n                    <p><b>Action: <em>harvest</em></b></p>\n                    <p>This is the bee that you just saw.</p>\n                    <img src=\"bees-with-color/bee-B2SF.svg\" width=\"200\">\n                    <p><span class=\"greenText\"><b>Successful harvest!</b></span><br>Your pay has increased by $0.02. Your bonus pay is now $0.70.</p>\n            ","response":0,"trial_type":"html-button-response","trial_index":72,"time_elapsed":602008,"internal_node_id":"0.0-4.0-1.32","subject_id":"5e92f26b444572122fdfe44d","study_id":"6197b3f67c2b5cd3b6d9596a","session_id":"619be9227f09a045ba1b9423","condition":"full-information","relevant_dimensions":["pattern","legs"],"bee_group":{"antennae":"X","wings":"X","pattern":"S","legs":"M"},"bonus":1.5400000000000011},{"rt":1112.7000000029802,"stimulus":"bees-with-color/bee-A1DM.svg","response":0,"trial_type":"image-button-response","trial_index":73,"time_elapsed":603122,"internal_node_id":"0.0-4.0-0.33","subject_id":"5e92f26b444572122fdfe44d","study_id":"6197b3f67c2b5cd3b6d9596a","session_id":"619be9227f09a045ba1b9423","condition":"full-information","relevant_dimensions":["pattern","legs"],"bee_group":{"antennae":"X","wings":"X","pattern":"S","legs":"M"},"action":"harvest","summary":"good-harvest","bonus":1.5400000000000011},{"rt":526.7000000029802,"stimulus":"\n                    <p><b>Action: <em>harvest</em></b></p>\n                    <p>This is the bee that you just saw.</p>\n                    <img src=\"bees-with-color/bee-A1DM.svg\" width=\"200\">\n                    <p><span class=\"greenText\"><b>Successful harvest!</b></span><br>Your pay has increased by $0.02. Your bonus pay is now $0.72.</p>\n            ","response":0,"trial_type":"html-button-response","trial_index":74,"time_elapsed":603651,"internal_node_id":"0.0-4.0-1.33","subject_id":"5e92f26b444572122fdfe44d","study_id":"6197b3f67c2b5cd3b6d9596a","session_id":"619be9227f09a045ba1b9423","condition":"full-information","relevant_dimensions":["pattern","legs"],"bee_group":{"antennae":"X","wings":"X","pattern":"S","legs":"M"},"bonus":1.5400000000000011},{"rt":928.2999999970198,"stimulus":"bees-with-color/bee-A2DF.svg","response":0,"trial_type":"image-button-response","trial_index":75,"time_elapsed":604580,"internal_node_id":"0.0-4.0-0.34","subject_id":"5e92f26b444572122fdfe44d","study_id":"6197b3f67c2b5cd3b6d9596a","session_id":"619be9227f09a045ba1b9423","condition":"full-information","relevant_dimensions":["pattern","legs"],"bee_group":{"antennae":"X","wings":"X","pattern":"S","legs":"M"},"action":"harvest","summary":"good-harvest","bonus":1.5400000000000011},{"rt":573.5999999940395,"stimulus":"\n                    <p><b>Action: <em>harvest</em></b></p>\n                    <p>This is the bee that you just saw.</p>\n                    <img src=\"bees-with-color/bee-A2DF.svg\" width=\"200\">\n                    <p><span class=\"greenText\"><b>Successful harvest!</b></span><br>Your pay has increased by $0.02. Your bonus pay is now $0.74.</p>\n            ","response":0,"trial_type":"html-button-response","trial_index":76,"time_elapsed":605155,"internal_node_id":"0.0-4.0-1.34","subject_id":"5e92f26b444572122fdfe44d","study_id":"6197b3f67c2b5cd3b6d9596a","session_id":"619be9227f09a045ba1b9423","condition":"full-information","relevant_dimensions":["pattern","legs"],"bee_group":{"antennae":"X","wings":"X","pattern":"S","legs":"M"},"bonus":1.5400000000000011},{"rt":1002.0999999940395,"stimulus":"bees-with-color/bee-B2DM.svg","response":0,"trial_type":"image-button-response","trial_index":77,"time_elapsed":606158,"internal_node_id":"0.0-4.0-0.35","subject_id":"5e92f26b444572122fdfe44d","study_id":"6197b3f67c2b5cd3b6d9596a","session_id":"619be9227f09a045ba1b9423","condition":"full-information","relevant_dimensions":["pattern","legs"],"bee_group":{"antennae":"X","wings":"X","pattern":"S","legs":"M"},"action":"harvest","summary":"good-harvest","bonus":1.5400000000000011},{"rt":526.2000000029802,"stimulus":"\n                    <p><b>Action: <em>harvest</em></b></p>\n                    <p>This is the bee that you just saw.</p>\n                    <img src=\"bees-with-color/bee-B2DM.svg\" width=\"200\">\n                    <p><span class=\"greenText\"><b>Successful harvest!</b></span><br>Your pay has increased by $0.02. Your bonus pay is now $0.76.</p>\n            ","response":0,"trial_type":"html-button-response","trial_index":78,"time_elapsed":606686,"internal_node_id":"0.0-4.0-1.35","subject_id":"5e92f26b444572122fdfe44d","study_id":"6197b3f67c2b5cd3b6d9596a","session_id":"619be9227f09a045ba1b9423","condition":"full-information","relevant_dimensions":["pattern","legs"],"bee_group":{"antennae":"X","wings":"X","pattern":"S","legs":"M"},"bonus":1.5400000000000011},{"rt":1481.4000000059605,"stimulus":"bees-with-color/bee-A2DM.svg","response":0,"trial_type":"image-button-response","trial_index":79,"time_elapsed":608168,"internal_node_id":"0.0-4.0-0.36","subject_id":"5e92f26b444572122fdfe44d","study_id":"6197b3f67c2b5cd3b6d9596a","session_id":"619be9227f09a045ba1b9423","condition":"full-information","relevant_dimensions":["pattern","legs"],"bee_group":{"antennae":"X","wings":"X","pattern":"S","legs":"M"},"action":"harvest","summary":"good-harvest","bonus":1.5400000000000011},{"rt":575.8999999910593,"stimulus":"\n                    <p><b>Action: <em>harvest</em></b></p>\n                    <p>This is the bee that you just saw.</p>\n                    <img src=\"bees-with-color/bee-A2DM.svg\" width=\"200\">\n                    <p><span class=\"greenText\"><b>Successful harvest!</b></span><br>Your pay has increased by $0.02. Your bonus pay is now $0.78.</p>\n            ","response":0,"trial_type":"html-button-response","trial_index":80,"time_elapsed":608746,"internal_node_id":"0.0-4.0-1.36","subject_id":"5e92f26b444572122fdfe44d","study_id":"6197b3f67c2b5cd3b6d9596a","session_id":"619be9227f09a045ba1b9423","condition":"full-information","relevant_dimensions":["pattern","legs"],"bee_group":{"antennae":"X","wings":"X","pattern":"S","legs":"M"},"bonus":1.5400000000000011},{"rt":3860.8999999910593,"stimulus":"bees-with-color/bee-A1SM.svg","response":1,"trial_type":"image-button-response","trial_index":81,"time_elapsed":612608,"internal_node_id":"0.0-4.0-0.37","subject_id":"5e92f26b444572122fdfe44d","study_id":"6197b3f67c2b5cd3b6d9596a","session_id":"619be9227f09a045ba1b9423","condition":"full-information","relevant_dimensions":["pattern","legs"],"bee_group":{"antennae":"X","wings":"X","pattern":"S","legs":"M"},"action":"avoid","summary":"good-avoid","bonus":1.5400000000000011},{"rt":864.2000000029802,"stimulus":"\n                    <p><b>Action: <em>avoid</em></b></p>\n                    <p>This is the bee that you just saw.</p>\n                    <img src=\"bees-with-color/bee-A1SM.svg\" width=\"200\">\n                    <p><span class=\"greenText\">Good choice!</span>  This bee would have stung you.<br>Your bonus pay is unchanged, and remains at $0.78.</p>\n            ","response":0,"trial_type":"html-button-response","trial_index":82,"time_elapsed":613474,"internal_node_id":"0.0-4.0-1.37","subject_id":"5e92f26b444572122fdfe44d","study_id":"6197b3f67c2b5cd3b6d9596a","session_id":"619be9227f09a045ba1b9423","condition":"full-information","relevant_dimensions":["pattern","legs"],"bee_group":{"antennae":"X","wings":"X","pattern":"S","legs":"M"},"bonus":1.5400000000000011},{"rt":766,"stimulus":"bees-with-color/bee-B2DF.svg","response":0,"trial_type":"image-button-response","trial_index":83,"time_elapsed":614242,"internal_node_id":"0.0-4.0-0.38","subject_id":"5e92f26b444572122fdfe44d","study_id":"6197b3f67c2b5cd3b6d9596a","session_id":"619be9227f09a045ba1b9423","condition":"full-information","relevant_dimensions":["pattern","legs"],"bee_group":{"antennae":"X","wings":"X","pattern":"S","legs":"M"},"action":"harvest","summary":"good-harvest","bonus":1.5400000000000011},{"rt":720.0999999940395,"stimulus":"\n                    <p><b>Action: <em>harvest</em></b></p>\n                    <p>This is the bee that you just saw.</p>\n                    <img src=\"bees-with-color/bee-B2DF.svg\" width=\"200\">\n                    <p><span class=\"greenText\"><b>Successful harvest!</b></span><br>Your pay has increased by $0.02. Your bonus pay is now $0.80.</p>\n            ","response":0,"trial_type":"html-button-response","trial_index":84,"time_elapsed":614964,"internal_node_id":"0.0-4.0-1.38","subject_id":"5e92f26b444572122fdfe44d","study_id":"6197b3f67c2b5cd3b6d9596a","session_id":"619be9227f09a045ba1b9423","condition":"full-information","relevant_dimensions":["pattern","legs"],"bee_group":{"antennae":"X","wings":"X","pattern":"S","legs":"M"},"bonus":1.5400000000000011},{"rt":2699.0999999940395,"stimulus":"bees-with-color/bee-A2SM.svg","response":1,"trial_type":"image-button-response","trial_index":85,"time_elapsed":617664,"internal_node_id":"0.0-4.0-0.39","subject_id":"5e92f26b444572122fdfe44d","study_id":"6197b3f67c2b5cd3b6d9596a","session_id":"619be9227f09a045ba1b9423","condition":"full-information","relevant_dimensions":["pattern","legs"],"bee_group":{"antennae":"X","wings":"X","pattern":"S","legs":"M"},"action":"avoid","summary":"good-avoid","bonus":1.5400000000000011},{"rt":672.6000000089407,"stimulus":"\n                    <p><b>Action: <em>avoid</em></b></p>\n                    <p>This is the bee that you just saw.</p>\n                    <img src=\"bees-with-color/bee-A2SM.svg\" width=\"200\">\n                    <p><span class=\"greenText\">Good choice!</span>  This bee would have stung you.<br>Your bonus pay is unchanged, and remains at $0.80.</p>\n            ","response":0,"trial_type":"html-button-response","trial_index":86,"time_elapsed":618338,"internal_node_id":"0.0-4.0-1.39","subject_id":"5e92f26b444572122fdfe44d","study_id":"6197b3f67c2b5cd3b6d9596a","session_id":"619be9227f09a045ba1b9423","condition":"full-information","relevant_dimensions":["pattern","legs"],"bee_group":{"antennae":"X","wings":"X","pattern":"S","legs":"M"},"bonus":1.5400000000000011},{"rt":798.7000000029802,"stimulus":"bees-with-color/bee-A1SF.svg","response":0,"trial_type":"image-button-response","trial_index":87,"time_elapsed":619138,"internal_node_id":"0.0-4.0-0.40","subject_id":"5e92f26b444572122fdfe44d","study_id":"6197b3f67c2b5cd3b6d9596a","session_id":"619be9227f09a045ba1b9423","condition":"full-information","relevant_dimensions":["pattern","legs"],"bee_group":{"antennae":"X","wings":"X","pattern":"S","legs":"M"},"action":"harvest","summary":"good-harvest","bonus":1.5400000000000011},{"rt":736.0999999940395,"stimulus":"\n                    <p><b>Action: <em>harvest</em></b></p>\n                    <p>This is the bee that you just saw.</p>\n                    <img src=\"bees-with-color/bee-A1SF.svg\" width=\"200\">\n                    <p><span class=\"greenText\"><b>Successful harvest!</b></span><br>Your pay has increased by $0.02. Your bonus pay is now $0.82.</p>\n            ","response":0,"trial_type":"html-button-response","trial_index":88,"time_elapsed":619876,"internal_node_id":"0.0-4.0-1.40","subject_id":"5e92f26b444572122fdfe44d","study_id":"6197b3f67c2b5cd3b6d9596a","session_id":"619be9227f09a045ba1b9423","condition":"full-information","relevant_dimensions":["pattern","legs"],"bee_group":{"antennae":"X","wings":"X","pattern":"S","legs":"M"},"bonus":1.5400000000000011},{"rt":815.2000000029802,"stimulus":"bees-with-color/bee-B1SF.svg","response":0,"trial_type":"image-button-response","trial_index":89,"time_elapsed":620692,"internal_node_id":"0.0-4.0-0.41","subject_id":"5e92f26b444572122fdfe44d","study_id":"6197b3f67c2b5cd3b6d9596a","session_id":"619be9227f09a045ba1b9423","condition":"full-information","relevant_dimensions":["pattern","legs"],"bee_group":{"antennae":"X","wings":"X","pattern":"S","legs":"M"},"action":"harvest","summary":"good-harvest","bonus":1.5400000000000011},{"rt":832.5,"stimulus":"\n                    <p><b>Action: <em>harvest</em></b></p>\n                    <p>This is the bee that you just saw.</p>\n                    <img src=\"bees-with-color/bee-B1SF.svg\" width=\"200\">\n                    <p><span class=\"greenText\"><b>Successful harvest!</b></span><br>Your pay has increased by $0.02. Your bonus pay is now $0.84.</p>\n            ","response":0,"trial_type":"html-button-response","trial_index":90,"time_elapsed":621526,"internal_node_id":"0.0-4.0-1.41","subject_id":"5e92f26b444572122fdfe44d","study_id":"6197b3f67c2b5cd3b6d9596a","session_id":"619be9227f09a045ba1b9423","condition":"full-information","relevant_dimensions":["pattern","legs"],"bee_group":{"antennae":"X","wings":"X","pattern":"S","legs":"M"},"bonus":1.5400000000000011},{"rt":1392.1000000089407,"stimulus":"bees-with-color/bee-B2SM.svg","response":1,"trial_type":"image-button-response","trial_index":91,"time_elapsed":622920,"internal_node_id":"0.0-4.0-0.42","subject_id":"5e92f26b444572122fdfe44d","study_id":"6197b3f67c2b5cd3b6d9596a","session_id":"619be9227f09a045ba1b9423","condition":"full-information","relevant_dimensions":["pattern","legs"],"bee_group":{"antennae":"X","wings":"X","pattern":"S","legs":"M"},"action":"avoid","summary":"good-avoid","bonus":1.5400000000000011},{"rt":590.1000000089407,"stimulus":"\n                    <p><b>Action: <em>avoid</em></b></p>\n                    <p>This is the bee that you just saw.</p>\n                    <img src=\"bees-with-color/bee-B2SM.svg\" width=\"200\">\n                    <p><span class=\"greenText\">Good choice!</span>  This bee would have stung you.<br>Your bonus pay is unchanged, and remains at $0.84.</p>\n            ","response":0,"trial_type":"html-button-response","trial_index":92,"time_elapsed":623512,"internal_node_id":"0.0-4.0-1.42","subject_id":"5e92f26b444572122fdfe44d","study_id":"6197b3f67c2b5cd3b6d9596a","session_id":"619be9227f09a045ba1b9423","condition":"full-information","relevant_dimensions":["pattern","legs"],"bee_group":{"antennae":"X","wings":"X","pattern":"S","legs":"M"},"bonus":1.5400000000000011},{"rt":816.3999999910593,"stimulus":"bees-with-color/bee-A2SF.svg","response":0,"trial_type":"image-button-response","trial_index":93,"time_elapsed":624330,"internal_node_id":"0.0-4.0-0.43","subject_id":"5e92f26b444572122fdfe44d","study_id":"6197b3f67c2b5cd3b6d9596a","session_id":"619be9227f09a045ba1b9423","condition":"full-information","relevant_dimensions":["pattern","legs"],"bee_group":{"antennae":"X","wings":"X","pattern":"S","legs":"M"},"action":"harvest","summary":"good-harvest","bonus":1.5400000000000011},{"rt":700.7000000029802,"stimulus":"\n                    <p><b>Action: <em>harvest</em></b></p>\n                    <p>This is the bee that you just saw.</p>\n                    <img src=\"bees-with-color/bee-A2SF.svg\" width=\"200\">\n                    <p><span class=\"greenText\"><b>Successful harvest!</b></span><br>Your pay has increased by $0.02. Your bonus pay is now $0.86.</p>\n            ","response":0,"trial_type":"html-button-response","trial_index":94,"time_elapsed":625034,"internal_node_id":"0.0-4.0-1.43","subject_id":"5e92f26b444572122fdfe44d","study_id":"6197b3f67c2b5cd3b6d9596a","session_id":"619be9227f09a045ba1b9423","condition":"full-information","relevant_dimensions":["pattern","legs"],"bee_group":{"antennae":"X","wings":"X","pattern":"S","legs":"M"},"bonus":1.5400000000000011},{"rt":896.2999999970198,"stimulus":"bees-with-color/bee-A1DF.svg","response":0,"trial_type":"image-button-response","trial_index":95,"time_elapsed":625932,"internal_node_id":"0.0-4.0-0.44","subject_id":"5e92f26b444572122fdfe44d","study_id":"6197b3f67c2b5cd3b6d9596a","session_id":"619be9227f09a045ba1b9423","condition":"full-information","relevant_dimensions":["pattern","legs"],"bee_group":{"antennae":"X","wings":"X","pattern":"S","legs":"M"},"action":"harvest","summary":"good-harvest","bonus":1.5400000000000011},{"rt":638.2999999970198,"stimulus":"\n                    <p><b>Action: <em>harvest</em></b></p>\n                    <p>This is the bee that you just saw.</p>\n                    <img src=\"bees-with-color/bee-A1DF.svg\" width=\"200\">\n                    <p><span class=\"greenText\"><b>Successful harvest!</b></span><br>Your pay has increased by $0.02. Your bonus pay is now $0.88.</p>\n            ","response":0,"trial_type":"html-button-response","trial_index":96,"time_elapsed":626573,"internal_node_id":"0.0-4.0-1.44","subject_id":"5e92f26b444572122fdfe44d","study_id":"6197b3f67c2b5cd3b6d9596a","session_id":"619be9227f09a045ba1b9423","condition":"full-information","relevant_dimensions":["pattern","legs"],"bee_group":{"antennae":"X","wings":"X","pattern":"S","legs":"M"},"bonus":1.5400000000000011},{"rt":5791.4000000059605,"stimulus":"bees-with-color/bee-B1SM.svg","response":1,"trial_type":"image-button-response","trial_index":97,"time_elapsed":632366,"internal_node_id":"0.0-4.0-0.45","subject_id":"5e92f26b444572122fdfe44d","study_id":"6197b3f67c2b5cd3b6d9596a","session_id":"619be9227f09a045ba1b9423","condition":"full-information","relevant_dimensions":["pattern","legs"],"bee_group":{"antennae":"X","wings":"X","pattern":"S","legs":"M"},"action":"avoid","summary":"good-avoid","bonus":1.5400000000000011},{"rt":3186.7999999970198,"stimulus":"\n                    <p><b>Action: <em>avoid</em></b></p>\n                    <p>This is the bee that you just saw.</p>\n                    <img src=\"bees-with-color/bee-B1SM.svg\" width=\"200\">\n                    <p><span class=\"greenText\">Good choice!</span>  This bee would have stung you.<br>Your bonus pay is unchanged, and remains at $0.88.</p>\n            ","response":0,"trial_type":"html-button-response","trial_index":98,"time_elapsed":635555,"internal_node_id":"0.0-4.0-1.45","subject_id":"5e92f26b444572122fdfe44d","study_id":"6197b3f67c2b5cd3b6d9596a","session_id":"619be9227f09a045ba1b9423","condition":"full-information","relevant_dimensions":["pattern","legs"],"bee_group":{"antennae":"X","wings":"X","pattern":"S","legs":"M"},"bonus":1.5400000000000011},{"rt":1311.5999999940395,"stimulus":"bees-with-color/bee-B1DM.svg","response":0,"trial_type":"image-button-response","trial_index":99,"time_elapsed":636869,"internal_node_id":"0.0-4.0-0.46","subject_id":"5e92f26b444572122fdfe44d","study_id":"6197b3f67c2b5cd3b6d9596a","session_id":"619be9227f09a045ba1b9423","condition":"full-information","relevant_dimensions":["pattern","legs"],"bee_group":{"antennae":"X","wings":"X","pattern":"S","legs":"M"},"action":"harvest","summary":"good-harvest","bonus":1.5400000000000011},{"rt":783.5,"stimulus":"\n                    <p><b>Action: <em>harvest</em></b></p>\n                    <p>This is the bee that you just saw.</p>\n                    <img src=\"bees-with-color/bee-B1DM.svg\" width=\"200\">\n                    <p><span class=\"greenText\"><b>Successful harvest!</b></span><br>Your pay has increased by $0.02. Your bonus pay is now $0.90.</p>\n            ","response":0,"trial_type":"html-button-response","trial_index":100,"time_elapsed":637654,"internal_node_id":"0.0-4.0-1.46","subject_id":"5e92f26b444572122fdfe44d","study_id":"6197b3f67c2b5cd3b6d9596a","session_id":"619be9227f09a045ba1b9423","condition":"full-information","relevant_dimensions":["pattern","legs"],"bee_group":{"antennae":"X","wings":"X","pattern":"S","legs":"M"},"bonus":1.5400000000000011},{"rt":1213.7999999970198,"stimulus":"bees-with-color/bee-B1DF.svg","response":0,"trial_type":"image-button-response","trial_index":101,"time_elapsed":638869,"internal_node_id":"0.0-4.0-0.47","subject_id":"5e92f26b444572122fdfe44d","study_id":"6197b3f67c2b5cd3b6d9596a","session_id":"619be9227f09a045ba1b9423","condition":"full-information","relevant_dimensions":["pattern","legs"],"bee_group":{"antennae":"X","wings":"X","pattern":"S","legs":"M"},"action":"harvest","summary":"good-harvest","bonus":1.5400000000000011},{"rt":832.5,"stimulus":"\n                    <p><b>Action: <em>harvest</em></b></p>\n                    <p>This is the bee that you just saw.</p>\n                    <img src=\"bees-with-color/bee-B1DF.svg\" width=\"200\">\n                    <p><span class=\"greenText\"><b>Successful harvest!</b></span><br>Your pay has increased by $0.02. Your bonus pay is now $0.92.</p>\n            ","response":0,"trial_type":"html-button-response","trial_index":102,"time_elapsed":639703,"internal_node_id":"0.0-4.0-1.47","subject_id":"5e92f26b444572122fdfe44d","study_id":"6197b3f67c2b5cd3b6d9596a","session_id":"619be9227f09a045ba1b9423","condition":"full-information","relevant_dimensions":["pattern","legs"],"bee_group":{"antennae":"X","wings":"X","pattern":"S","legs":"M"},"bonus":1.5400000000000011},{"rt":1250,"stimulus":"bees-with-color/bee-B2DM.svg","response":0,"trial_type":"image-button-response","trial_index":103,"time_elapsed":640954,"internal_node_id":"0.0-4.0-0.48","subject_id":"5e92f26b444572122fdfe44d","study_id":"6197b3f67c2b5cd3b6d9596a","session_id":"619be9227f09a045ba1b9423","condition":"full-information","relevant_dimensions":["pattern","legs"],"bee_group":{"antennae":"X","wings":"X","pattern":"S","legs":"M"},"action":"harvest","summary":"good-harvest","bonus":1.5400000000000011},{"rt":669.9000000059605,"stimulus":"\n                    <p><b>Action: <em>harvest</em></b></p>\n                    <p>This is the bee that you just saw.</p>\n                    <img src=\"bees-with-color/bee-B2DM.svg\" width=\"200\">\n                    <p><span class=\"greenText\"><b>Successful harvest!</b></span><br>Your pay has increased by $0.02. Your bonus pay is now $0.94.</p>\n            ","response":0,"trial_type":"html-button-response","trial_index":104,"time_elapsed":641626,"internal_node_id":"0.0-4.0-1.48","subject_id":"5e92f26b444572122fdfe44d","study_id":"6197b3f67c2b5cd3b6d9596a","session_id":"619be9227f09a045ba1b9423","condition":"full-information","relevant_dimensions":["pattern","legs"],"bee_group":{"antennae":"X","wings":"X","pattern":"S","legs":"M"},"bonus":1.5400000000000011},{"rt":848.5999999940395,"stimulus":"bees-with-color/bee-B1SF.svg","response":0,"trial_type":"image-button-response","trial_index":105,"time_elapsed":642477,"internal_node_id":"0.0-4.0-0.49","subject_id":"5e92f26b444572122fdfe44d","study_id":"6197b3f67c2b5cd3b6d9596a","session_id":"619be9227f09a045ba1b9423","condition":"full-information","relevant_dimensions":["pattern","legs"],"bee_group":{"antennae":"X","wings":"X","pattern":"S","legs":"M"},"action":"harvest","summary":"good-harvest","bonus":1.5400000000000011},{"rt":685.3999999910593,"stimulus":"\n                    <p><b>Action: <em>harvest</em></b></p>\n                    <p>This is the bee that you just saw.</p>\n                    <img src=\"bees-with-color/bee-B1SF.svg\" width=\"200\">\n                    <p><span class=\"greenText\"><b>Successful harvest!</b></span><br>Your pay has increased by $0.02. Your bonus pay is now $0.96.</p>\n            ","response":0,"trial_type":"html-button-response","trial_index":106,"time_elapsed":643164,"internal_node_id":"0.0-4.0-1.49","subject_id":"5e92f26b444572122fdfe44d","study_id":"6197b3f67c2b5cd3b6d9596a","session_id":"619be9227f09a045ba1b9423","condition":"full-information","relevant_dimensions":["pattern","legs"],"bee_group":{"antennae":"X","wings":"X","pattern":"S","legs":"M"},"bonus":1.5400000000000011},{"rt":735.7999999970198,"stimulus":"bees-with-color/bee-A2DF.svg","response":0,"trial_type":"image-button-response","trial_index":107,"time_elapsed":643902,"internal_node_id":"0.0-4.0-0.50","subject_id":"5e92f26b444572122fdfe44d","study_id":"6197b3f67c2b5cd3b6d9596a","session_id":"619be9227f09a045ba1b9423","condition":"full-information","relevant_dimensions":["pattern","legs"],"bee_group":{"antennae":"X","wings":"X","pattern":"S","legs":"M"},"action":"harvest","summary":"good-harvest","bonus":1.5400000000000011},{"rt":559.5999999940395,"stimulus":"\n                    <p><b>Action: <em>harvest</em></b></p>\n                    <p>This is the bee that you just saw.</p>\n                    <img src=\"bees-with-color/bee-A2DF.svg\" width=\"200\">\n                    <p><span class=\"greenText\"><b>Successful harvest!</b></span><br>Your pay has increased by $0.02. Your bonus pay is now $0.98.</p>\n            ","response":0,"trial_type":"html-button-response","trial_index":108,"time_elapsed":644462,"internal_node_id":"0.0-4.0-1.50","subject_id":"5e92f26b444572122fdfe44d","study_id":"6197b3f67c2b5cd3b6d9596a","session_id":"619be9227f09a045ba1b9423","condition":"full-information","relevant_dimensions":["pattern","legs"],"bee_group":{"antennae":"X","wings":"X","pattern":"S","legs":"M"},"bonus":1.5400000000000011},{"rt":1104.199999988079,"stimulus":"bees-with-color/bee-A1DM.svg","response":0,"trial_type":"image-button-response","trial_index":109,"time_elapsed":645568,"internal_node_id":"0.0-4.0-0.51","subject_id":"5e92f26b444572122fdfe44d","study_id":"6197b3f67c2b5cd3b6d9596a","session_id":"619be9227f09a045ba1b9423","condition":"full-information","relevant_dimensions":["pattern","legs"],"bee_group":{"antennae":"X","wings":"X","pattern":"S","legs":"M"},"action":"harvest","summary":"good-harvest","bonus":1.5400000000000011},{"rt":638.5,"stimulus":"\n                    <p><b>Action: <em>harvest</em></b></p>\n                    <p>This is the bee that you just saw.</p>\n                    <img src=\"bees-with-color/bee-A1DM.svg\" width=\"200\">\n                    <p><span class=\"greenText\"><b>Successful harvest!</b></span><br>Your pay has increased by $0.02. Your bonus pay is now $1.00.</p>\n            ","response":0,"trial_type":"html-button-response","trial_index":110,"time_elapsed":646208,"internal_node_id":"0.0-4.0-1.51","subject_id":"5e92f26b444572122fdfe44d","study_id":"6197b3f67c2b5cd3b6d9596a","session_id":"619be9227f09a045ba1b9423","condition":"full-information","relevant_dimensions":["pattern","legs"],"bee_group":{"antennae":"X","wings":"X","pattern":"S","legs":"M"},"bonus":1.5400000000000011},{"rt":2522.6000000089407,"stimulus":"bees-with-color/bee-B2SM.svg","response":1,"trial_type":"image-button-response","trial_index":111,"time_elapsed":648732,"internal_node_id":"0.0-4.0-0.52","subject_id":"5e92f26b444572122fdfe44d","study_id":"6197b3f67c2b5cd3b6d9596a","session_id":"619be9227f09a045ba1b9423","condition":"full-information","relevant_dimensions":["pattern","legs"],"bee_group":{"antennae":"X","wings":"X","pattern":"S","legs":"M"},"action":"avoid","summary":"good-avoid","bonus":1.5400000000000011},{"rt":912.7000000029802,"stimulus":"\n                    <p><b>Action: <em>avoid</em></b></p>\n                    <p>This is the bee that you just saw.</p>\n                    <img src=\"bees-with-color/bee-B2SM.svg\" width=\"200\">\n                    <p><span class=\"greenText\">Good choice!</span>  This bee would have stung you.<br>Your bonus pay is unchanged, and remains at $1.00.</p>\n            ","response":0,"trial_type":"html-button-response","trial_index":112,"time_elapsed":649646,"internal_node_id":"0.0-4.0-1.52","subject_id":"5e92f26b444572122fdfe44d","study_id":"6197b3f67c2b5cd3b6d9596a","session_id":"619be9227f09a045ba1b9423","condition":"full-information","relevant_dimensions":["pattern","legs"],"bee_group":{"antennae":"X","wings":"X","pattern":"S","legs":"M"},"bonus":1.5400000000000011},{"rt":720.2999999970198,"stimulus":"bees-with-color/bee-B1DM.svg","response":0,"trial_type":"image-button-response","trial_index":113,"time_elapsed":650368,"internal_node_id":"0.0-4.0-0.53","subject_id":"5e92f26b444572122fdfe44d","study_id":"6197b3f67c2b5cd3b6d9596a","session_id":"619be9227f09a045ba1b9423","condition":"full-information","relevant_dimensions":["pattern","legs"],"bee_group":{"antennae":"X","wings":"X","pattern":"S","legs":"M"},"action":"harvest","summary":"good-harvest","bonus":1.5400000000000011},{"rt":670.3999999910593,"stimulus":"\n                    <p><b>Action: <em>harvest</em></b></p>\n                    <p>This is the bee that you just saw.</p>\n                    <img src=\"bees-with-color/bee-B1DM.svg\" width=\"200\">\n                    <p><span class=\"greenText\"><b>Successful harvest!</b></span><br>Your pay has increased by $0.02. Your bonus pay is now $1.02.</p>\n            ","response":0,"trial_type":"html-button-response","trial_index":114,"time_elapsed":651040,"internal_node_id":"0.0-4.0-1.53","subject_id":"5e92f26b444572122fdfe44d","study_id":"6197b3f67c2b5cd3b6d9596a","session_id":"619be9227f09a045ba1b9423","condition":"full-information","relevant_dimensions":["pattern","legs"],"bee_group":{"antennae":"X","wings":"X","pattern":"S","legs":"M"},"bonus":1.5400000000000011},{"rt":1048.0999999940395,"stimulus":"bees-with-color/bee-A1DF.svg","response":0,"trial_type":"image-button-response","trial_index":115,"time_elapsed":652090,"internal_node_id":"0.0-4.0-0.54","subject_id":"5e92f26b444572122fdfe44d","study_id":"6197b3f67c2b5cd3b6d9596a","session_id":"619be9227f09a045ba1b9423","condition":"full-information","relevant_dimensions":["pattern","legs"],"bee_group":{"antennae":"X","wings":"X","pattern":"S","legs":"M"},"action":"harvest","summary":"good-harvest","bonus":1.5400000000000011},{"rt":527.1000000089407,"stimulus":"\n                    <p><b>Action: <em>harvest</em></b></p>\n                    <p>This is the bee that you just saw.</p>\n                    <img src=\"bees-with-color/bee-A1DF.svg\" width=\"200\">\n                    <p><span class=\"greenText\"><b>Successful harvest!</b></span><br>Your pay has increased by $0.02. Your bonus pay is now $1.04.</p>\n            ","response":0,"trial_type":"html-button-response","trial_index":116,"time_elapsed":652618,"internal_node_id":"0.0-4.0-1.54","subject_id":"5e92f26b444572122fdfe44d","study_id":"6197b3f67c2b5cd3b6d9596a","session_id":"619be9227f09a045ba1b9423","condition":"full-information","relevant_dimensions":["pattern","legs"],"bee_group":{"antennae":"X","wings":"X","pattern":"S","legs":"M"},"bonus":1.5400000000000011},{"rt":1136.5,"stimulus":"bees-with-color/bee-A2SM.svg","response":1,"trial_type":"image-button-response","trial_index":117,"time_elapsed":653756,"internal_node_id":"0.0-4.0-0.55","subject_id":"5e92f26b444572122fdfe44d","study_id":"6197b3f67c2b5cd3b6d9596a","session_id":"619be9227f09a045ba1b9423","condition":"full-information","relevant_dimensions":["pattern","legs"],"bee_group":{"antennae":"X","wings":"X","pattern":"S","legs":"M"},"action":"avoid","summary":"good-avoid","bonus":1.5400000000000011},{"rt":654.3999999910593,"stimulus":"\n                    <p><b>Action: <em>avoid</em></b></p>\n                    <p>This is the bee that you just saw.</p>\n                    <img src=\"bees-with-color/bee-A2SM.svg\" width=\"200\">\n                    <p><span class=\"greenText\">Good choice!</span>  This bee would have stung you.<br>Your bonus pay is unchanged, and remains at $1.04.</p>\n            ","response":0,"trial_type":"html-button-response","trial_index":118,"time_elapsed":654412,"internal_node_id":"0.0-4.0-1.55","subject_id":"5e92f26b444572122fdfe44d","study_id":"6197b3f67c2b5cd3b6d9596a","session_id":"619be9227f09a045ba1b9423","condition":"full-information","relevant_dimensions":["pattern","legs"],"bee_group":{"antennae":"X","wings":"X","pattern":"S","legs":"M"},"bonus":1.5400000000000011},{"rt":864.8999999910593,"stimulus":"bees-with-color/bee-B2SF.svg","response":0,"trial_type":"image-button-response","trial_index":119,"time_elapsed":655278,"internal_node_id":"0.0-4.0-0.56","subject_id":"5e92f26b444572122fdfe44d","study_id":"6197b3f67c2b5cd3b6d9596a","session_id":"619be9227f09a045ba1b9423","condition":"full-information","relevant_dimensions":["pattern","legs"],"bee_group":{"antennae":"X","wings":"X","pattern":"S","legs":"M"},"action":"harvest","summary":"good-harvest","bonus":1.5400000000000011},{"rt":606.1000000089407,"stimulus":"\n                    <p><b>Action: <em>harvest</em></b></p>\n                    <p>This is the bee that you just saw.</p>\n                    <img src=\"bees-with-color/bee-B2SF.svg\" width=\"200\">\n                    <p><span class=\"greenText\"><b>Successful harvest!</b></span><br>Your pay has increased by $0.02. Your bonus pay is now $1.06.</p>\n            ","response":0,"trial_type":"html-button-response","trial_index":120,"time_elapsed":655886,"internal_node_id":"0.0-4.0-1.56","subject_id":"5e92f26b444572122fdfe44d","study_id":"6197b3f67c2b5cd3b6d9596a","session_id":"619be9227f09a045ba1b9423","condition":"full-information","relevant_dimensions":["pattern","legs"],"bee_group":{"antennae":"X","wings":"X","pattern":"S","legs":"M"},"bonus":1.5400000000000011},{"rt":896.1999999880791,"stimulus":"bees-with-color/bee-A1SF.svg","response":0,"trial_type":"image-button-response","trial_index":121,"time_elapsed":656784,"internal_node_id":"0.0-4.0-0.57","subject_id":"5e92f26b444572122fdfe44d","study_id":"6197b3f67c2b5cd3b6d9596a","session_id":"619be9227f09a045ba1b9423","condition":"full-information","relevant_dimensions":["pattern","legs"],"bee_group":{"antennae":"X","wings":"X","pattern":"S","legs":"M"},"action":"harvest","summary":"good-harvest","bonus":1.5400000000000011},{"rt":926.2999999970198,"stimulus":"\n                    <p><b>Action: <em>harvest</em></b></p>\n                    <p>This is the bee that you just saw.</p>\n                    <img src=\"bees-with-color/bee-A1SF.svg\" width=\"200\">\n                    <p><span class=\"greenText\"><b>Successful harvest!</b></span><br>Your pay has increased by $0.02. Your bonus pay is now $1.08.</p>\n            ","response":0,"trial_type":"html-button-response","trial_index":122,"time_elapsed":657712,"internal_node_id":"0.0-4.0-1.57","subject_id":"5e92f26b444572122fdfe44d","study_id":"6197b3f67c2b5cd3b6d9596a","session_id":"619be9227f09a045ba1b9423","condition":"full-information","relevant_dimensions":["pattern","legs"],"bee_group":{"antennae":"X","wings":"X","pattern":"S","legs":"M"},"bonus":1.5400000000000011},{"rt":1771,"stimulus":"bees-with-color/bee-A2DM.svg","response":0,"trial_type":"image-button-response","trial_index":123,"time_elapsed":659485,"internal_node_id":"0.0-4.0-0.58","subject_id":"5e92f26b444572122fdfe44d","study_id":"6197b3f67c2b5cd3b6d9596a","session_id":"619be9227f09a045ba1b9423","condition":"full-information","relevant_dimensions":["pattern","legs"],"bee_group":{"antennae":"X","wings":"X","pattern":"S","legs":"M"},"action":"harvest","summary":"good-harvest","bonus":1.5400000000000011},{"rt":638.2999999970198,"stimulus":"\n                    <p><b>Action: <em>harvest</em></b></p>\n                    <p>This is the bee that you just saw.</p>\n                    <img src=\"bees-with-color/bee-A2DM.svg\" width=\"200\">\n                    <p><span class=\"greenText\"><b>Successful harvest!</b></span><br>Your pay has increased by $0.02. Your bonus pay is now $1.10.</p>\n            ","response":0,"trial_type":"html-button-response","trial_index":124,"time_elapsed":660124,"internal_node_id":"0.0-4.0-1.58","subject_id":"5e92f26b444572122fdfe44d","study_id":"6197b3f67c2b5cd3b6d9596a","session_id":"619be9227f09a045ba1b9423","condition":"full-information","relevant_dimensions":["pattern","legs"],"bee_group":{"antennae":"X","wings":"X","pattern":"S","legs":"M"},"bonus":1.5400000000000011},{"rt":4156.20000000298,"stimulus":"bees-with-color/bee-A1SM.svg","response":1,"trial_type":"image-button-response","trial_index":125,"time_elapsed":664282,"internal_node_id":"0.0-4.0-0.59","subject_id":"5e92f26b444572122fdfe44d","study_id":"6197b3f67c2b5cd3b6d9596a","session_id":"619be9227f09a045ba1b9423","condition":"full-information","relevant_dimensions":["pattern","legs"],"bee_group":{"antennae":"X","wings":"X","pattern":"S","legs":"M"},"action":"avoid","summary":"good-avoid","bonus":1.5400000000000011},{"rt":705.1999999880791,"stimulus":"\n                    <p><b>Action: <em>avoid</em></b></p>\n                    <p>This is the bee that you just saw.</p>\n                    <img src=\"bees-with-color/bee-A1SM.svg\" width=\"200\">\n                    <p><span class=\"greenText\">Good choice!</span>  This bee would have stung you.<br>Your bonus pay is unchanged, and remains at $1.10.</p>\n            ","response":0,"trial_type":"html-button-response","trial_index":126,"time_elapsed":664989,"internal_node_id":"0.0-4.0-1.59","subject_id":"5e92f26b444572122fdfe44d","study_id":"6197b3f67c2b5cd3b6d9596a","session_id":"619be9227f09a045ba1b9423","condition":"full-information","relevant_dimensions":["pattern","legs"],"bee_group":{"antennae":"X","wings":"X","pattern":"S","legs":"M"},"bonus":1.5400000000000011},{"rt":2511.2999999970198,"stimulus":"bees-with-color/bee-B1SM.svg","response":1,"trial_type":"image-button-response","trial_index":127,"time_elapsed":667502,"internal_node_id":"0.0-4.0-0.60","subject_id":"5e92f26b444572122fdfe44d","study_id":"6197b3f67c2b5cd3b6d9596a","session_id":"619be9227f09a045ba1b9423","condition":"full-information","relevant_dimensions":["pattern","legs"],"bee_group":{"antennae":"X","wings":"X","pattern":"S","legs":"M"},"action":"avoid","summary":"good-avoid","bonus":1.5400000000000011},{"rt":1280.0999999940395,"stimulus":"\n                    <p><b>Action: <em>avoid</em></b></p>\n                    <p>This is the bee that you just saw.</p>\n                    <img src=\"bees-with-color/bee-B1SM.svg\" width=\"200\">\n                    <p><span class=\"greenText\">Good choice!</span>  This bee would have stung you.<br>Your bonus pay is unchanged, and remains at $1.10.</p>\n            ","response":0,"trial_type":"html-button-response","trial_index":128,"time_elapsed":668784,"internal_node_id":"0.0-4.0-1.60","subject_id":"5e92f26b444572122fdfe44d","study_id":"6197b3f67c2b5cd3b6d9596a","session_id":"619be9227f09a045ba1b9423","condition":"full-information","relevant_dimensions":["pattern","legs"],"bee_group":{"antennae":"X","wings":"X","pattern":"S","legs":"M"},"bonus":1.5400000000000011},{"rt":927.7999999970198,"stimulus":"bees-with-color/bee-B1DF.svg","response":0,"trial_type":"image-button-response","trial_index":129,"time_elapsed":669714,"internal_node_id":"0.0-4.0-0.61","subject_id":"5e92f26b444572122fdfe44d","study_id":"6197b3f67c2b5cd3b6d9596a","session_id":"619be9227f09a045ba1b9423","condition":"full-information","relevant_dimensions":["pattern","legs"],"bee_group":{"antennae":"X","wings":"X","pattern":"S","legs":"M"},"action":"harvest","summary":"good-harvest","bonus":1.5400000000000011},{"rt":943.9000000059605,"stimulus":"\n                    <p><b>Action: <em>harvest</em></b></p>\n                    <p>This is the bee that you just saw.</p>\n                    <img src=\"bees-with-color/bee-B1DF.svg\" width=\"200\">\n                    <p><span class=\"greenText\"><b>Successful harvest!</b></span><br>Your pay has increased by $0.02. Your bonus pay is now $1.12.</p>\n            ","response":0,"trial_type":"html-button-response","trial_index":130,"time_elapsed":670660,"internal_node_id":"0.0-4.0-1.61","subject_id":"5e92f26b444572122fdfe44d","study_id":"6197b3f67c2b5cd3b6d9596a","session_id":"619be9227f09a045ba1b9423","condition":"full-information","relevant_dimensions":["pattern","legs"],"bee_group":{"antennae":"X","wings":"X","pattern":"S","legs":"M"},"bonus":1.5400000000000011},{"rt":1101.7999999970198,"stimulus":"bees-with-color/bee-B2DF.svg","response":0,"trial_type":"image-button-response","trial_index":131,"time_elapsed":671763,"internal_node_id":"0.0-4.0-0.62","subject_id":"5e92f26b444572122fdfe44d","study_id":"6197b3f67c2b5cd3b6d9596a","session_id":"619be9227f09a045ba1b9423","condition":"full-information","relevant_dimensions":["pattern","legs"],"bee_group":{"antennae":"X","wings":"X","pattern":"S","legs":"M"},"action":"harvest","summary":"good-harvest","bonus":1.5400000000000011},{"rt":946.1999999880791,"stimulus":"\n                    <p><b>Action: <em>harvest</em></b></p>\n                    <p>This is the bee that you just saw.</p>\n                    <img src=\"bees-with-color/bee-B2DF.svg\" width=\"200\">\n                    <p><span class=\"greenText\"><b>Successful harvest!</b></span><br>Your pay has increased by $0.02. Your bonus pay is now $1.14.</p>\n            ","response":0,"trial_type":"html-button-response","trial_index":132,"time_elapsed":672711,"internal_node_id":"0.0-4.0-1.62","subject_id":"5e92f26b444572122fdfe44d","study_id":"6197b3f67c2b5cd3b6d9596a","session_id":"619be9227f09a045ba1b9423","condition":"full-information","relevant_dimensions":["pattern","legs"],"bee_group":{"antennae":"X","wings":"X","pattern":"S","legs":"M"},"bonus":1.5400000000000011},{"rt":1384.0999999940395,"stimulus":"bees-with-color/bee-A2SF.svg","response":0,"trial_type":"image-button-response","trial_index":133,"time_elapsed":674097,"internal_node_id":"0.0-4.0-0.63","subject_id":"5e92f26b444572122fdfe44d","study_id":"6197b3f67c2b5cd3b6d9596a","session_id":"619be9227f09a045ba1b9423","condition":"full-information","relevant_dimensions":["pattern","legs"],"bee_group":{"antennae":"X","wings":"X","pattern":"S","legs":"M"},"action":"harvest","summary":"good-harvest","bonus":1.5400000000000011},{"rt":605.6000000089407,"stimulus":"\n                    <p><b>Action: <em>harvest</em></b></p>\n                    <p>This is the bee that you just saw.</p>\n                    <img src=\"bees-with-color/bee-A2SF.svg\" width=\"200\">\n                    <p><span class=\"greenText\"><b>Successful harvest!</b></span><br>Your pay has increased by $0.02. Your bonus pay is now $1.16.</p>\n            ","response":0,"trial_type":"html-button-response","trial_index":134,"time_elapsed":674704,"internal_node_id":"0.0-4.0-1.63","subject_id":"5e92f26b444572122fdfe44d","study_id":"6197b3f67c2b5cd3b6d9596a","session_id":"619be9227f09a045ba1b9423","condition":"full-information","relevant_dimensions":["pattern","legs"],"bee_group":{"antennae":"X","wings":"X","pattern":"S","legs":"M"},"bonus":1.5400000000000011},{"rt":7555.29999999702,"stimulus":"You have completed the first part of this experiment.<br><br>You will now begin a shorter second part, in which you will receive no feedback.<br>The same rules regarding bonus pay apply.<br><br>Press any key to begin.","response":"enter","trial_type":"html-keyboard-response","trial_index":135,"time_elapsed":682262,"internal_node_id":"0.0-5.0","subject_id":"5e92f26b444572122fdfe44d","study_id":"6197b3f67c2b5cd3b6d9596a","session_id":"619be9227f09a045ba1b9423","condition":"full-information","relevant_dimensions":["pattern","legs"],"bee_group":{"antennae":"X","wings":"X","pattern":"S","legs":"M"},"bonus":1.5400000000000011},{"rt":1952,"stimulus":"bees-with-color/bee-B1DF.svg","response":0,"trial_type":"image-button-response","trial_index":136,"time_elapsed":684226,"internal_node_id":"0.0-6.0-0.0","subject_id":"5e92f26b444572122fdfe44d","study_id":"6197b3f67c2b5cd3b6d9596a","session_id":"619be9227f09a045ba1b9423","condition":"full-information","relevant_dimensions":["pattern","legs"],"bee_group":{"antennae":"X","wings":"X","pattern":"S","legs":"M"},"bonus":1.5400000000000011},{"rt":3107,"stimulus":"bees-with-color/bee-B2DF.svg","response":0,"trial_type":"image-button-response","trial_index":137,"time_elapsed":687336,"internal_node_id":"0.0-6.0-0.1","subject_id":"5e92f26b444572122fdfe44d","study_id":"6197b3f67c2b5cd3b6d9596a","session_id":"619be9227f09a045ba1b9423","condition":"full-information","relevant_dimensions":["pattern","legs"],"bee_group":{"antennae":"X","wings":"X","pattern":"S","legs":"M"},"bonus":1.5400000000000011},{"rt":2856.7999999970198,"stimulus":"bees-with-color/bee-A1SM.svg","response":1,"trial_type":"image-button-response","trial_index":138,"time_elapsed":690196,"internal_node_id":"0.0-6.0-0.2","subject_id":"5e92f26b444572122fdfe44d","study_id":"6197b3f67c2b5cd3b6d9596a","session_id":"619be9227f09a045ba1b9423","condition":"full-information","relevant_dimensions":["pattern","legs"],"bee_group":{"antennae":"X","wings":"X","pattern":"S","legs":"M"},"bonus":1.5400000000000011},{"rt":2385.5,"stimulus":"bees-with-color/bee-B2DM.svg","response":0,"trial_type":"image-button-response","trial_index":139,"time_elapsed":692585,"internal_node_id":"0.0-6.0-0.3","subject_id":"5e92f26b444572122fdfe44d","study_id":"6197b3f67c2b5cd3b6d9596a","session_id":"619be9227f09a045ba1b9423","condition":"full-information","relevant_dimensions":["pattern","legs"],"bee_group":{"antennae":"X","wings":"X","pattern":"S","legs":"M"},"bonus":1.5400000000000011},{"rt":1334,"stimulus":"bees-with-color/bee-B1DM.svg","response":0,"trial_type":"image-button-response","trial_index":140,"time_elapsed":693922,"internal_node_id":"0.0-6.0-0.4","subject_id":"5e92f26b444572122fdfe44d","study_id":"6197b3f67c2b5cd3b6d9596a","session_id":"619be9227f09a045ba1b9423","condition":"full-information","relevant_dimensions":["pattern","legs"],"bee_group":{"antennae":"X","wings":"X","pattern":"S","legs":"M"},"bonus":1.5400000000000011},{"rt":1080.199999988079,"stimulus":"bees-with-color/bee-B2SM.svg","response":1,"trial_type":"image-button-response","trial_index":141,"time_elapsed":695004,"internal_node_id":"0.0-6.0-0.5","subject_id":"5e92f26b444572122fdfe44d","study_id":"6197b3f67c2b5cd3b6d9596a","session_id":"619be9227f09a045ba1b9423","condition":"full-information","relevant_dimensions":["pattern","legs"],"bee_group":{"antennae":"X","wings":"X","pattern":"S","legs":"M"},"bonus":1.5400000000000011},{"rt":735.2999999970198,"stimulus":"bees-with-color/bee-B2SF.svg","response":0,"trial_type":"image-button-response","trial_index":142,"time_elapsed":695742,"internal_node_id":"0.0-6.0-0.6","subject_id":"5e92f26b444572122fdfe44d","study_id":"6197b3f67c2b5cd3b6d9596a","session_id":"619be9227f09a045ba1b9423","condition":"full-information","relevant_dimensions":["pattern","legs"],"bee_group":{"antennae":"X","wings":"X","pattern":"S","legs":"M"},"bonus":1.5400000000000011},{"rt":1085.2999999970198,"stimulus":"bees-with-color/bee-A1DF.svg","response":0,"trial_type":"image-button-response","trial_index":143,"time_elapsed":696830,"internal_node_id":"0.0-6.0-0.7","subject_id":"5e92f26b444572122fdfe44d","study_id":"6197b3f67c2b5cd3b6d9596a","session_id":"619be9227f09a045ba1b9423","condition":"full-information","relevant_dimensions":["pattern","legs"],"bee_group":{"antennae":"X","wings":"X","pattern":"S","legs":"M"},"bonus":1.5400000000000011},{"rt":935.1000000089407,"stimulus":"bees-with-color/bee-A1SF.svg","response":0,"trial_type":"image-button-response","trial_index":144,"time_elapsed":697768,"internal_node_id":"0.0-6.0-0.8","subject_id":"5e92f26b444572122fdfe44d","study_id":"6197b3f67c2b5cd3b6d9596a","session_id":"619be9227f09a045ba1b9423","condition":"full-information","relevant_dimensions":["pattern","legs"],"bee_group":{"antennae":"X","wings":"X","pattern":"S","legs":"M"},"bonus":1.5400000000000011},{"rt":1239.699999988079,"stimulus":"bees-with-color/bee-A2SM.svg","response":1,"trial_type":"image-button-response","trial_index":145,"time_elapsed":699010,"internal_node_id":"0.0-6.0-0.9","subject_id":"5e92f26b444572122fdfe44d","study_id":"6197b3f67c2b5cd3b6d9596a","session_id":"619be9227f09a045ba1b9423","condition":"full-information","relevant_dimensions":["pattern","legs"],"bee_group":{"antennae":"X","wings":"X","pattern":"S","legs":"M"},"bonus":1.5400000000000011},{"rt":847.7999999970198,"stimulus":"bees-with-color/bee-A1DM.svg","response":0,"trial_type":"image-button-response","trial_index":146,"time_elapsed":699860,"internal_node_id":"0.0-6.0-0.10","subject_id":"5e92f26b444572122fdfe44d","study_id":"6197b3f67c2b5cd3b6d9596a","session_id":"619be9227f09a045ba1b9423","condition":"full-information","relevant_dimensions":["pattern","legs"],"bee_group":{"antennae":"X","wings":"X","pattern":"S","legs":"M"},"bonus":1.5400000000000011},{"rt":941.7999999970198,"stimulus":"bees-with-color/bee-A2DF.svg","response":0,"trial_type":"image-button-response","trial_index":147,"time_elapsed":700804,"internal_node_id":"0.0-6.0-0.11","subject_id":"5e92f26b444572122fdfe44d","study_id":"6197b3f67c2b5cd3b6d9596a","session_id":"619be9227f09a045ba1b9423","condition":"full-information","relevant_dimensions":["pattern","legs"],"bee_group":{"antennae":"X","wings":"X","pattern":"S","legs":"M"},"bonus":1.5400000000000011},{"rt":1319.8999999910593,"stimulus":"bees-with-color/bee-A2SF.svg","response":0,"trial_type":"image-button-response","trial_index":148,"time_elapsed":702126,"internal_node_id":"0.0-6.0-0.12","subject_id":"5e92f26b444572122fdfe44d","study_id":"6197b3f67c2b5cd3b6d9596a","session_id":"619be9227f09a045ba1b9423","condition":"full-information","relevant_dimensions":["pattern","legs"],"bee_group":{"antennae":"X","wings":"X","pattern":"S","legs":"M"},"bonus":1.5400000000000011},{"rt":1567.7999999970198,"stimulus":"bees-with-color/bee-A2DM.svg","response":0,"trial_type":"image-button-response","trial_index":149,"time_elapsed":703696,"internal_node_id":"0.0-6.0-0.13","subject_id":"5e92f26b444572122fdfe44d","study_id":"6197b3f67c2b5cd3b6d9596a","session_id":"619be9227f09a045ba1b9423","condition":"full-information","relevant_dimensions":["pattern","legs"],"bee_group":{"antennae":"X","wings":"X","pattern":"S","legs":"M"},"bonus":1.5400000000000011},{"rt":1007.2000000029802,"stimulus":"bees-with-color/bee-B1SF.svg","response":0,"trial_type":"image-button-response","trial_index":150,"time_elapsed":704706,"internal_node_id":"0.0-6.0-0.14","subject_id":"5e92f26b444572122fdfe44d","study_id":"6197b3f67c2b5cd3b6d9596a","session_id":"619be9227f09a045ba1b9423","condition":"full-information","relevant_dimensions":["pattern","legs"],"bee_group":{"antennae":"X","wings":"X","pattern":"S","legs":"M"},"bonus":1.5400000000000011},{"rt":1152.0999999940395,"stimulus":"bees-with-color/bee-B1SM.svg","response":0,"trial_type":"image-button-response","trial_index":151,"time_elapsed":705860,"internal_node_id":"0.0-6.0-0.15","subject_id":"5e92f26b444572122fdfe44d","study_id":"6197b3f67c2b5cd3b6d9596a","session_id":"619be9227f09a045ba1b9423","condition":"full-information","relevant_dimensions":["pattern","legs"],"bee_group":{"antennae":"X","wings":"X","pattern":"S","legs":"M"},"bonus":1.5400000000000011},{"rt":2700.0999999940395,"stimulus":"bees-with-color/bee-A1DM.svg","response":0,"trial_type":"image-button-response","trial_index":152,"time_elapsed":708562,"internal_node_id":"0.0-6.0-0.16","subject_id":"5e92f26b444572122fdfe44d","study_id":"6197b3f67c2b5cd3b6d9596a","session_id":"619be9227f09a045ba1b9423","condition":"full-information","relevant_dimensions":["pattern","legs"],"bee_group":{"antennae":"X","wings":"X","pattern":"S","legs":"M"},"bonus":1.5400000000000011},{"rt":1631.7999999970198,"stimulus":"bees-with-color/bee-A2SF.svg","response":0,"trial_type":"image-button-response","trial_index":153,"time_elapsed":710196,"internal_node_id":"0.0-6.0-0.17","subject_id":"5e92f26b444572122fdfe44d","study_id":"6197b3f67c2b5cd3b6d9596a","session_id":"619be9227f09a045ba1b9423","condition":"full-information","relevant_dimensions":["pattern","legs"],"bee_group":{"antennae":"X","wings":"X","pattern":"S","legs":"M"},"bonus":1.5400000000000011},{"rt":1394.699999988079,"stimulus":"bees-with-color/bee-B2SM.svg","response":1,"trial_type":"image-button-response","trial_index":154,"time_elapsed":711593,"internal_node_id":"0.0-6.0-0.18","subject_id":"5e92f26b444572122fdfe44d","study_id":"6197b3f67c2b5cd3b6d9596a","session_id":"619be9227f09a045ba1b9423","condition":"full-information","relevant_dimensions":["pattern","legs"],"bee_group":{"antennae":"X","wings":"X","pattern":"S","legs":"M"},"bonus":1.5400000000000011},{"rt":1663.5,"stimulus":"bees-with-color/bee-B1SM.svg","response":1,"trial_type":"image-button-response","trial_index":155,"time_elapsed":713258,"internal_node_id":"0.0-6.0-0.19","subject_id":"5e92f26b444572122fdfe44d","study_id":"6197b3f67c2b5cd3b6d9596a","session_id":"619be9227f09a045ba1b9423","condition":"full-information","relevant_dimensions":["pattern","legs"],"bee_group":{"antennae":"X","wings":"X","pattern":"S","legs":"M"},"bonus":1.5400000000000011},{"rt":718.2999999970198,"stimulus":"bees-with-color/bee-A1DF.svg","response":0,"trial_type":"image-button-response","trial_index":156,"time_elapsed":713978,"internal_node_id":"0.0-6.0-0.20","subject_id":"5e92f26b444572122fdfe44d","study_id":"6197b3f67c2b5cd3b6d9596a","session_id":"619be9227f09a045ba1b9423","condition":"full-information","relevant_dimensions":["pattern","legs"],"bee_group":{"antennae":"X","wings":"X","pattern":"S","legs":"M"},"bonus":1.5400000000000011},{"rt":1376.0999999940395,"stimulus":"bees-with-color/bee-A2DM.svg","response":0,"trial_type":"image-button-response","trial_index":157,"time_elapsed":715356,"internal_node_id":"0.0-6.0-0.21","subject_id":"5e92f26b444572122fdfe44d","study_id":"6197b3f67c2b5cd3b6d9596a","ses