[{"success":true,"trial_type":"fullscreen","trial_index":0,"time_elapsed":4237,"internal_node_id":"0.0-0.0","subject_id":"617186c68f898cccf15c1c3f","study_id":"6197b3f67c2b5cd3b6d9596a","session_id":"6197b571d9dfb5fe5025bf75","condition":"full-information","relevant_dimensions":["antennae","legs"],"bee_group":{"antennae":"A","wings":"X","pattern":"X","legs":"F"},"bonus":0.5000000000000008},{"success":true,"timeout":false,"failed_images":[],"failed_audio":[],"failed_video":[],"trial_type":"preload","trial_index":1,"time_elapsed":6855,"internal_node_id":"0.0-1.0","subject_id":"617186c68f898cccf15c1c3f","study_id":"6197b3f67c2b5cd3b6d9596a","session_id":"6197b571d9dfb5fe5025bf75","condition":"full-information","relevant_dimensions":["antennae","legs"],"bee_group":{"antennae":"A","wings":"X","pattern":"X","legs":"F"},"bonus":0.5000000000000008},{"rt":1339,"stimulus":"Welcome! Press any key to begin.","response":"s","trial_type":"html-keyboard-response","trial_index":2,"time_elapsed":8195,"internal_node_id":"0.0-2.0","subject_id":"617186c68f898cccf15c1c3f","study_id":"6197b3f67c2b5cd3b6d9596a","session_id":"6197b571d9dfb5fe5025bf75","condition":"full-information","relevant_dimensions":["antennae","legs"],"bee_group":{"antennae":"A","wings":"X","pattern":"X","legs":"F"},"bonus":0.5000000000000008},{"view_history":[{"page_index":0,"viewing_time":3263},{"page_index":1,"viewing_time":14286},{"page_index":2,"viewing_time":16428},{"page_index":3,"viewing_time":17499},{"page_index":4,"viewing_time":8558},{"page_index":5,"viewing_time":8135},{"page_index":6,"viewing_time":17551},{"page_index":7,"viewing_time":5208},{"page_index":8,"viewing_time":9966},{"page_index":9,"viewing_time":4969},{"page_index":10,"viewing_time":1794},{"page_index":11,"viewing_time":10899},{"page_index":12,"viewing_time":7591},{"page_index":13,"viewing_time":1114},{"page_index":14,"viewing_time":1445}],"rt":128707,"trial_type":"instructions","trial_index":3,"time_elapsed":136901,"internal_node_id":"0.0-3.0-0.0","subject_id":"617186c68f898cccf15c1c3f","study_id":"6197b3f67c2b5cd3b6d9596a","session_id":"6197b571d9dfb5fe5025bf75","condition":"full-information","relevant_dimensions":["antennae","legs"],"bee_group":{"antennae":"A","wings":"X","pattern":"X","legs":"F"},"bonus":0.5000000000000008},{"rt":10254,"response":{"Q0":["Two or six legs","Stripes or spots on body","Single or double wings","Antennae or no antennae"]},"question_order":[0],"trial_type":"survey-multi-select","trial_index":4,"time_elapsed":147157,"internal_node_id":"0.0-3.0-1.0","subject_id":"617186c68f898cccf15c1c3f","study_id":"6197b3f67c2b5cd3b6d9596a","session_id":"6197b571d9dfb5fe5025bf75","condition":"full-information","relevant_dimensions":["antennae","legs"],"bee_group":{"antennae":"A","wings":"X","pattern":"X","legs":"F"},"correct":true,"bonus":0.5000000000000008},{"rt":15827,"response":{"Q1":"No.","Q2":"Based on the four features of the bee.","Q3":"You learn if it was friendly or dangerous, but do not alter your bonus."},"question_order":[0,1,2],"trial_type":"survey-multi-choice","trial_index":5,"time_elapsed":162985,"internal_node_id":"0.0-3.0-2.0","subject_id":"617186c68f898cccf15c1c3f","study_id":"6197b3f67c2b5cd3b6d9596a","session_id":"6197b571d9dfb5fe5025bf75","condition":"full-information","relevant_dimensions":["antennae","legs"],"bee_group":{"antennae":"A","wings":"X","pattern":"X","legs":"F"},"correct":true,"bonus":0.5000000000000008},{"rt":2906,"stimulus":"<p>Congrats, you got everything right<br>When you're ready, click the button below to continue to the experiment.</p>","response":0,"trial_type":"html-button-response","trial_index":6,"time_elapsed":165892,"internal_node_id":"0.0-3.0-3.0","subject_id":"617186c68f898cccf15c1c3f","study_id":"6197b3f67c2b5cd3b6d9596a","session_id":"6197b571d9dfb5fe5025bf75","condition":"full-information","relevant_dimensions":["antennae","legs"],"bee_group":{"antennae":"A","wings":"X","pattern":"X","legs":"F"},"bonus":0.5000000000000008},{"rt":6127,"stimulus":"bees-with-color/bee-B1SM.svg","response":1,"trial_type":"image-button-response","trial_index":7,"time_elapsed":172020,"internal_node_id":"0.0-4.0-0.0","subject_id":"617186c68f898cccf15c1c3f","study_id":"6197b3f67c2b5cd3b6d9596a","session_id":"6197b571d9dfb5fe5025bf75","condition":"full-information","relevant_dimensions":["antennae","legs"],"bee_group":{"antennae":"A","wings":"X","pattern":"X","legs":"F"},"action":"avoid","summary":"bad-avoid","bonus":0.5000000000000008},{"rt":13829,"stimulus":"\n                    <p><b>Action: <em>avoid</em></b></p>\n                    <p>This is the bee that you just saw.</p>\n                    <img src=\"bees-with-color/bee-B1SM.svg\" width=\"200\">\n                    <p><span class=\"redText\">Bad choice,</span> the bee was friendly.<br>Your bonus pay is unchanged, and remains at $0.54.</p>\n            ","response":0,"trial_type":"html-button-response","trial_index":8,"time_elapsed":185861,"internal_node_id":"0.0-4.0-1.0","subject_id":"617186c68f898cccf15c1c3f","study_id":"6197b3f67c2b5cd3b6d9596a","session_id":"6197b571d9dfb5fe5025bf75","condition":"full-information","relevant_dimensions":["antennae","legs"],"bee_group":{"antennae":"A","wings":"X","pattern":"X","legs":"F"},"bonus":0.5000000000000008},{"rt":3427,"stimulus":"bees-with-color/bee-A2SF.svg","response":1,"trial_type":"image-button-response","trial_index":9,"time_elapsed":189289,"internal_node_id":"0.0-4.0-0.1","subject_id":"617186c68f898cccf15c1c3f","study_id":"6197b3f67c2b5cd3b6d9596a","session_id":"6197b571d9dfb5fe5025bf75","condition":"full-information","relevant_dimensions":["antennae","legs"],"bee_group":{"antennae":"A","wings":"X","pattern":"X","legs":"F"},"action":"avoid","summary":"good-avoid","bonus":0.5000000000000008},{"rt":14843,"stimulus":"\n                    <p><b>Action: <em>avoid</em></b></p>\n                    <p>This is the bee that you just saw.</p>\n                    <img src=\"bees-with-color/bee-A2SF.svg\" width=\"200\">\n                    <p><span class=\"greenText\">Good choice!</span>  This bee would have stung you.<br>Your bonus pay is unchanged, and remains at $0.54.</p>\n            ","response":0,"trial_type":"html-button-response","trial_index":10,"time_elapsed":204133,"internal_node_id":"0.0-4.0-1.1","subject_id":"617186c68f898cccf15c1c3f","study_id":"6197b3f67c2b5cd3b6d9596a","session_id":"6197b571d9dfb5fe5025bf75","condition":"full-information","relevant_dimensions":["antennae","legs"],"bee_group":{"antennae":"A","wings":"X","pattern":"X","legs":"F"},"bonus":0.5000000000000008},{"rt":7957,"stimulus":"bees-with-color/bee-B2DM.svg","response":1,"trial_type":"image-button-response","trial_index":11,"time_elapsed":212090,"internal_node_id":"0.0-4.0-0.2","subject_id":"617186c68f898cccf15c1c3f","study_id":"6197b3f67c2b5cd3b6d9596a","session_id":"6197b571d9dfb5fe5025bf75","condition":"full-information","relevant_dimensions":["antennae","legs"],"bee_group":{"antennae":"A","wings":"X","pattern":"X","legs":"F"},"action":"avoid","summary":"bad-avoid","bonus":0.5000000000000008},{"rt":13731,"stimulus":"\n                    <p><b>Action: <em>avoid</em></b></p>\n                    <p>This is the bee that you just saw.</p>\n                    <img src=\"bees-with-color/bee-B2DM.svg\" width=\"200\">\n                    <p><span class=\"redText\">Bad choice,</span> the bee was friendly.<br>Your bonus pay is unchanged, and remains at $0.54.</p>\n            ","response":0,"trial_type":"html-button-response","trial_index":12,"time_elapsed":225821,"internal_node_id":"0.0-4.0-1.2","subject_id":"617186c68f898cccf15c1c3f","study_id":"6197b3f67c2b5cd3b6d9596a","session_id":"6197b571d9dfb5fe5025bf75","condition":"full-information","relevant_dimensions":["antennae","legs"],"bee_group":{"antennae":"A","wings":"X","pattern":"X","legs":"F"},"bonus":0.5000000000000008},{"rt":7751,"stimulus":"bees-with-color/bee-A2DM.svg","response":1,"trial_type":"image-button-response","trial_index":13,"time_elapsed":233573,"internal_node_id":"0.0-4.0-0.3","subject_id":"617186c68f898cccf15c1c3f","study_id":"6197b3f67c2b5cd3b6d9596a","session_id":"6197b571d9dfb5fe5025bf75","condition":"full-information","relevant_dimensions":["antennae","legs"],"bee_group":{"antennae":"A","wings":"X","pattern":"X","legs":"F"},"action":"avoid","summary":"bad-avoid","bonus":0.5000000000000008},{"rt":9005,"stimulus":"\n                    <p><b>Action: <em>avoid</em></b></p>\n                    <p>This is the bee that you just saw.</p>\n                    <img src=\"bees-with-color/bee-A2DM.svg\" width=\"200\">\n                    <p><span class=\"redText\">Bad choice,</span> the bee was friendly.<br>Your bonus pay is unchanged, and remains at $0.54.</p>\n            ","response":0,"trial_type":"html-button-response","trial_index":14,"time_elapsed":242578,"internal_node_id":"0.0-4.0-1.3","subject_id":"617186c68f898cccf15c1c3f","study_id":"6197b3f67c2b5cd3b6d9596a","session_id":"6197b571d9dfb5fe5025bf75","condition":"full-information","relevant_dimensions":["antennae","legs"],"bee_group":{"antennae":"A","wings":"X","pattern":"X","legs":"F"},"bonus":0.5000000000000008},{"rt":6064,"stimulus":"bees-with-color/bee-A2SM.svg","response":1,"trial_type":"image-button-response","trial_index":15,"time_elapsed":248644,"internal_node_id":"0.0-4.0-0.4","subject_id":"617186c68f898cccf15c1c3f","study_id":"6197b3f67c2b5cd3b6d9596a","session_id":"6197b571d9dfb5fe5025bf75","condition":"full-information","relevant_dimensions":["antennae","legs"],"bee_group":{"antennae":"A","wings":"X","pattern":"X","legs":"F"},"action":"avoid","summary":"bad-avoid","bonus":0.5000000000000008},{"rt":26753,"stimulus":"\n                    <p><b>Action: <em>avoid</em></b></p>\n                    <p>This is the bee that you just saw.</p>\n                    <img src=\"bees-with-color/bee-A2SM.svg\" width=\"200\">\n                    <p><span class=\"redText\">Bad choice,</span> the bee was friendly.<br>Your bonus pay is unchanged, and remains at $0.54.</p>\n            ","response":0,"trial_type":"html-button-response","trial_index":16,"time_elapsed":275396,"internal_node_id":"0.0-4.0-1.4","subject_id":"617186c68f898cccf15c1c3f","study_id":"6197b3f67c2b5cd3b6d9596a","session_id":"6197b571d9dfb5fe5025bf75","condition":"full-information","relevant_dimensions":["antennae","legs"],"bee_group":{"antennae":"A","wings":"X","pattern":"X","legs":"F"},"bonus":0.5000000000000008},{"rt":7070,"stimulus":"bees-with-color/bee-B1SF.svg","response":1,"trial_type":"image-button-response","trial_index":17,"time_elapsed":282467,"internal_node_id":"0.0-4.0-0.5","subject_id":"617186c68f898cccf15c1c3f","study_id":"6197b3f67c2b5cd3b6d9596a","session_id":"6197b571d9dfb5fe5025bf75","condition":"full-information","relevant_dimensions":["antennae","legs"],"bee_group":{"antennae":"A","wings":"X","pattern":"X","legs":"F"},"action":"avoid","summary":"bad-avoid","bonus":0.5000000000000008},{"rt":6557,"stimulus":"\n                    <p><b>Action: <em>avoid</em></b></p>\n                    <p>This is the bee that you just saw.</p>\n                    <img src=\"bees-with-color/bee-B1SF.svg\" width=\"200\">\n                    <p><span class=\"redText\">Bad choice,</span> the bee was friendly.<br>Your bonus pay is unchanged, and remains at $0.54.</p>\n            ","response":0,"trial_type":"html-button-response","trial_index":18,"time_elapsed":289025,"internal_node_id":"0.0-4.0-1.5","subject_id":"617186c68f898cccf15c1c3f","study_id":"6197b3f67c2b5cd3b6d9596a","session_id":"6197b571d9dfb5fe5025bf75","condition":"full-information","relevant_dimensions":["antennae","legs"],"bee_group":{"antennae":"A","wings":"X","pattern":"X","legs":"F"},"bonus":0.5000000000000008},{"rt":5232,"stimulus":"bees-with-color/bee-B2SM.svg","response":0,"trial_type":"image-button-response","trial_index":19,"time_elapsed":294259,"internal_node_id":"0.0-4.0-0.6","subject_id":"617186c68f898cccf15c1c3f","study_id":"6197b3f67c2b5cd3b6d9596a","session_id":"6197b571d9dfb5fe5025bf75","condition":"full-information","relevant_dimensions":["antennae","legs"],"bee_group":{"antennae":"A","wings":"X","pattern":"X","legs":"F"},"action":"harvest","summary":"good-harvest","bonus":0.5000000000000008},{"rt":1523,"stimulus":"\n                    <p><b>Action: <em>harvest</em></b></p>\n                    <p>This is the bee that you just saw.</p>\n                    <img src=\"bees-with-color/bee-B2SM.svg\" width=\"200\">\n                    <p><span class=\"greenText\"><b>Successful harvest!</b></span><br>Your pay has increased by $0.02. Your bonus pay is now $0.56.</p>\n            ","response":0,"trial_type":"html-button-response","trial_index":20,"time_elapsed":295782,"internal_node_id":"0.0-4.0-1.6","subject_id":"617186c68f898cccf15c1c3f","study_id":"6197b3f67c2b5cd3b6d9596a","session_id":"6197b571d9dfb5fe5025bf75","condition":"full-information","relevant_dimensions":["antennae","legs"],"bee_group":{"antennae":"A","wings":"X","pattern":"X","legs":"F"},"bonus":0.5000000000000008},{"rt":9314,"stimulus":"bees-with-color/bee-A1SF.svg","response":1,"trial_type":"image-button-response","trial_index":21,"time_elapsed":305097,"internal_node_id":"0.0-4.0-0.7","subject_id":"617186c68f898cccf15c1c3f","study_id":"6197b3f67c2b5cd3b6d9596a","session_id":"6197b571d9dfb5fe5025bf75","condition":"full-information","relevant_dimensions":["antennae","legs"],"bee_group":{"antennae":"A","wings":"X","pattern":"X","legs":"F"},"action":"avoid","summary":"good-avoid","bonus":0.5000000000000008},{"rt":8138,"stimulus":"\n                    <p><b>Action: <em>avoid</em></b></p>\n                    <p>This is the bee that you just saw.</p>\n                    <img src=\"bees-with-color/bee-A1SF.svg\" width=\"200\">\n                    <p><span class=\"greenText\">Good choice!</span>  This bee would have stung you.<br>Your bonus pay is unchanged, and remains at $0.56.</p>\n            ","response":0,"trial_type":"html-button-response","trial_index":22,"time_elapsed":313235,"internal_node_id":"0.0-4.0-1.7","subject_id":"617186c68f898cccf15c1c3f","study_id":"6197b3f67c2b5cd3b6d9596a","session_id":"6197b571d9dfb5fe5025bf75","condition":"full-information","relevant_dimensions":["antennae","legs"],"bee_group":{"antennae":"A","wings":"X","pattern":"X","legs":"F"},"bonus":0.5000000000000008},{"rt":4312,"stimulus":"bees-with-color/bee-B2DF.svg","response":1,"trial_type":"image-button-response","trial_index":23,"time_elapsed":317549,"internal_node_id":"0.0-4.0-0.8","subject_id":"617186c68f898cccf15c1c3f","study_id":"6197b3f67c2b5cd3b6d9596a","session_id":"6197b571d9dfb5fe5025bf75","condition":"full-information","relevant_dimensions":["antennae","legs"],"bee_group":{"antennae":"A","wings":"X","pattern":"X","legs":"F"},"action":"avoid","summary":"bad-avoid","bonus":0.5000000000000008},{"rt":4020,"stimulus":"\n                    <p><b>Action: <em>avoid</em></b></p>\n                    <p>This is the bee that you just saw.</p>\n                    <img src=\"bees-with-color/bee-B2DF.svg\" width=\"200\">\n                    <p><span class=\"redText\">Bad choice,</span> the bee was friendly.<br>Your bonus pay is unchanged, and remains at $0.56.</p>\n            ","response":0,"trial_type":"html-button-response","trial_index":24,"time_elapsed":321569,"internal_node_id":"0.0-4.0-1.8","subject_id":"617186c68f898cccf15c1c3f","study_id":"6197b3f67c2b5cd3b6d9596a","session_id":"6197b571d9dfb5fe5025bf75","condition":"full-information","relevant_dimensions":["antennae","legs"],"bee_group":{"antennae":"A","wings":"X","pattern":"X","legs":"F"},"bonus":0.5000000000000008},{"rt":2437,"stimulus":"bees-with-color/bee-B2SF.svg","response":0,"trial_type":"image-button-response","trial_index":25,"time_elapsed":324006,"internal_node_id":"0.0-4.0-0.9","subject_id":"617186c68f898cccf15c1c3f","study_id":"6197b3f67c2b5cd3b6d9596a","session_id":"6197b571d9dfb5fe5025bf75","condition":"full-information","relevant_dimensions":["antennae","legs"],"bee_group":{"antennae":"A","wings":"X","pattern":"X","legs":"F"},"action":"harvest","summary":"good-harvest","bonus":0.5000000000000008},{"rt":3985,"stimulus":"\n                    <p><b>Action: <em>harvest</em></b></p>\n                    <p>This is the bee that you just saw.</p>\n                    <img src=\"bees-with-color/bee-B2SF.svg\" width=\"200\">\n                    <p><span class=\"greenText\"><b>Successful harvest!</b></span><br>Your pay has increased by $0.02. Your bonus pay is now $0.58.</p>\n            ","response":0,"trial_type":"html-button-response","trial_index":26,"time_elapsed":327993,"internal_node_id":"0.0-4.0-1.9","subject_id":"617186c68f898cccf15c1c3f","study_id":"6197b3f67c2b5cd3b6d9596a","session_id":"6197b571d9dfb5fe5025bf75","condition":"full-information","relevant_dimensions":["antennae","legs"],"bee_group":{"antennae":"A","wings":"X","pattern":"X","legs":"F"},"bonus":0.5000000000000008},{"rt":4533,"stimulus":"bees-with-color/bee-A1DF.svg","response":0,"trial_type":"image-button-response","trial_index":27,"time_elapsed":332526,"internal_node_id":"0.0-4.0-0.10","subject_id":"617186c68f898cccf15c1c3f","study_id":"6197b3f67c2b5cd3b6d9596a","session_id":"6197b571d9dfb5fe5025bf75","condition":"full-information","relevant_dimensions":["antennae","legs"],"bee_group":{"antennae":"A","wings":"X","pattern":"X","legs":"F"},"action":"harvest","summary":"bad-harvest","bonus":0.5000000000000008},{"rt":9147,"stimulus":"\n                    <p><b>Action: <em>harvest</em></b></p>\n                    <p>This is the bee that you just saw.</p>\n                    <img src=\"bees-with-color/bee-A1DF.svg\" width=\"200\">\n                    <p><span class=\"redText\">Bad choice, the bee was angry.</span><br><b>You have been stung!</b><br>Your pay has been decreased by $0.10. Your bonus pay is now $0.48.</p>\n            ","response":0,"trial_type":"html-button-response","trial_index":28,"time_elapsed":341674,"internal_node_id":"0.0-4.0-1.10","subject_id":"617186c68f898cccf15c1c3f","study_id":"6197b3f67c2b5cd3b6d9596a","session_id":"6197b571d9dfb5fe5025bf75","condition":"full-information","relevant_dimensions":["antennae","legs"],"bee_group":{"antennae":"A","wings":"X","pattern":"X","legs":"F"},"bonus":0.5000000000000008},{"rt":4072,"stimulus":"bees-with-color/bee-A1SM.svg","response":0,"trial_type":"image-button-response","trial_index":29,"time_elapsed":345747,"internal_node_id":"0.0-4.0-0.11","subject_id":"617186c68f898cccf15c1c3f","study_id":"6197b3f67c2b5cd3b6d9596a","session_id":"6197b571d9dfb5fe5025bf75","condition":"full-information","relevant_dimensions":["antennae","legs"],"bee_group":{"antennae":"A","wings":"X","pattern":"X","legs":"F"},"action":"harvest","summary":"good-harvest","bonus":0.5000000000000008},{"rt":1164,"stimulus":"\n                    <p><b>Action: <em>harvest</em></b></p>\n                    <p>This is the bee that you just saw.</p>\n                    <img src=\"bees-with-color/bee-A1SM.svg\" width=\"200\">\n                    <p><span class=\"greenText\"><b>Successful harvest!</b></span><br>Your pay has increased by $0.02. Your bonus pay is now $0.50.</p>\n            ","response":0,"trial_type":"html-button-response","trial_index":30,"time_elapsed":346911,"internal_node_id":"0.0-4.0-1.11","subject_id":"617186c68f898cccf15c1c3f","study_id":"6197b3f67c2b5cd3b6d9596a","session_id":"6197b571d9dfb5fe5025bf75","condition":"full-information","relevant_dimensions":["antennae","legs"],"bee_group":{"antennae":"A","wings":"X","pattern":"X","legs":"F"},"bonus":0.5000000000000008},{"rt":4241,"stimulus":"bees-with-color/bee-B1DF.svg","response":0,"trial_type":"image-button-response","trial_index":31,"time_elapsed":351153,"internal_node_id":"0.0-4.0-0.12","subject_id":"617186c68f898cccf15c1c3f","study_id":"6197b3f67c2b5cd3b6d9596a","session_id":"6197b571d9dfb5fe5025bf75","condition":"full-information","relevant_dimensions":["antennae","legs"],"bee_group":{"antennae":"A","wings":"X","pattern":"X","legs":"F"},"action":"harvest","summary":"good-harvest","bonus":0.5000000000000008},{"rt":1206,"stimulus":"\n                    <p><b>Action: <em>harvest</em></b></p>\n                    <p>This is the bee that you just saw.</p>\n                    <img src=\"bees-with-color/bee-B1DF.svg\" width=\"200\">\n                    <p><span class=\"greenText\"><b>Successful harvest!</b></span><br>Your pay has increased by $0.02. Your bonus pay is now $0.52.</p>\n            ","response":0,"trial_type":"html-button-response","trial_index":32,"time_elapsed":352359,"internal_node_id":"0.0-4.0-1.12","subject_id":"617186c68f898cccf15c1c3f","study_id":"6197b3f67c2b5cd3b6d9596a","session_id":"6197b571d9dfb5fe5025bf75","condition":"full-information","relevant_dimensions":["antennae","legs"],"bee_group":{"antennae":"A","wings":"X","pattern":"X","legs":"F"},"bonus":0.5000000000000008},{"rt":2638,"stimulus":"bees-with-color/bee-B1DM.svg","response":1,"trial_type":"image-button-response","trial_index":33,"time_elapsed":354997,"internal_node_id":"0.0-4.0-0.13","subject_id":"617186c68f898cccf15c1c3f","study_id":"6197b3f67c2b5cd3b6d9596a","session_id":"6197b571d9dfb5fe5025bf75","condition":"full-information","relevant_dimensions":["antennae","legs"],"bee_group":{"antennae":"A","wings":"X","pattern":"X","legs":"F"},"action":"avoid","summary":"bad-avoid","bonus":0.5000000000000008},{"rt":9331,"stimulus":"\n                    <p><b>Action: <em>avoid</em></b></p>\n                    <p>This is the bee that you just saw.</p>\n                    <img src=\"bees-with-color/bee-B1DM.svg\" width=\"200\">\n                    <p><span class=\"redText\">Bad choice,</span> the bee was friendly.<br>Your bonus pay is unchanged, and remains at $0.52.</p>\n            ","response":0,"trial_type":"html-button-response","trial_index":34,"time_elapsed":364329,"internal_node_id":"0.0-4.0-1.13","subject_id":"617186c68f898cccf15c1c3f","study_id":"6197b3f67c2b5cd3b6d9596a","session_id":"6197b571d9dfb5fe5025bf75","condition":"full-information","relevant_dimensions":["antennae","legs"],"bee_group":{"antennae":"A","wings":"X","pattern":"X","legs":"F"},"bonus":0.5000000000000008},{"rt":1679,"stimulus":"bees-with-color/bee-A1DM.svg","response":1,"trial_type":"image-button-response","trial_index":35,"time_elapsed":366009,"internal_node_id":"0.0-4.0-0.14","subject_id":"617186c68f898cccf15c1c3f","study_id":"6197b3f67c2b5cd3b6d9596a","session_id":"6197b571d9dfb5fe5025bf75","condition":"full-information","relevant_dimensions":["antennae","legs"],"bee_group":{"antennae":"A","wings":"X","pattern":"X","legs":"F"},"action":"avoid","summary":"bad-avoid","bonus":0.5000000000000008},{"rt":4849,"stimulus":"\n                    <p><b>Action: <em>avoid</em></b></p>\n                    <p>This is the bee that you just saw.</p>\n                    <img src=\"bees-with-color/bee-A1DM.svg\" width=\"200\">\n                    <p><span class=\"redText\">Bad choice,</span> the bee was friendly.<br>Your bonus pay is unchanged, and remains at $0.52.</p>\n            ","response":0,"trial_type":"html-button-response","trial_index":36,"time_elapsed":370858,"internal_node_id":"0.0-4.0-1.14","subject_id":"617186c68f898cccf15c1c3f","study_id":"6197b3f67c2b5cd3b6d9596a","session_id":"6197b571d9dfb5fe5025bf75","condition":"full-information","relevant_dimensions":["antennae","legs"],"bee_group":{"antennae":"A","wings":"X","pattern":"X","legs":"F"},"bonus":0.5000000000000008},{"rt":4019,"stimulus":"bees-with-color/bee-A2DF.svg","response":1,"trial_type":"image-button-response","trial_index":37,"time_elapsed":374878,"internal_node_id":"0.0-4.0-0.15","subject_id":"617186c68f898cccf15c1c3f","study_id":"6197b3f67c2b5cd3b6d9596a","session_id":"6197b571d9dfb5fe5025bf75","condition":"full-information","relevant_dimensions":["antennae","legs"],"bee_group":{"antennae":"A","wings":"X","pattern":"X","legs":"F"},"action":"avoid","summary":"good-avoid","bonus":0.5000000000000008},{"rt":3805,"stimulus":"\n                    <p><b>Action: <em>avoid</em></b></p>\n                    <p>This is the bee that you just saw.</p>\n                    <img src=\"bees-with-color/bee-A2DF.svg\" width=\"200\">\n                    <p><span class=\"greenText\">Good choice!</span>  This bee would have stung you.<br>Your bonus pay is unchanged, and remains at $0.52.</p>\n            ","response":0,"trial_type":"html-button-response","trial_index":38,"time_elapsed":378685,"internal_node_id":"0.0-4.0-1.15","subject_id":"617186c68f898cccf15c1c3f","study_id":"6197b3f67c2b5cd3b6d9596a","session_id":"6197b571d9dfb5fe5025bf75","condition":"full-information","relevant_dimensions":["antennae","legs"],"bee_group":{"antennae":"A","wings":"X","pattern":"X","legs":"F"},"bonus":0.5000000000000008},{"rt":2359,"stimulus":"bees-with-color/bee-B1DF.svg","response":0,"trial_type":"image-button-response","trial_index":39,"time_elapsed":381045,"internal_node_id":"0.0-4.0-0.16","subject_id":"617186c68f898cccf15c1c3f","study_id":"6197b3f67c2b5cd3b6d9596a","session_id":"6197b571d9dfb5fe5025bf75","condition":"full-information","relevant_dimensions":["antennae","legs"],"bee_group":{"antennae":"A","wings":"X","pattern":"X","legs":"F"},"action":"harvest","summary":"good-harvest","bonus":0.5000000000000008},{"rt":1215,"stimulus":"\n                    <p><b>Action: <em>harvest</em></b></p>\n                    <p>This is the bee that you just saw.</p>\n                    <img src=\"bees-with-color/bee-B1DF.svg\" width=\"200\">\n                    <p><span class=\"greenText\"><b>Successful harvest!</b></span><br>Your pay has increased by $0.02. Your bonus pay is now $0.54.</p>\n            ","response":0,"trial_type":"html-button-response","trial_index":40,"time_elapsed":382260,"internal_node_id":"0.0-4.0-1.16","subject_id":"617186c68f898cccf15c1c3f","study_id":"6197b3f67c2b5cd3b6d9596a","session_id":"6197b571d9dfb5fe5025bf75","condition":"full-information","relevant_dimensions":["antennae","legs"],"bee_group":{"antennae":"A","wings":"X","pattern":"X","legs":"F"},"bonus":0.5000000000000008},{"rt":6296,"stimulus":"bees-with-color/bee-B2SF.svg","response":1,"trial_type":"image-button-response","trial_index":41,"time_elapsed":388557,"internal_node_id":"0.0-4.0-0.17","subject_id":"617186c68f898cccf15c1c3f","study_id":"6197b3f67c2b5cd3b6d9596a","session_id":"6197b571d9dfb5fe5025bf75","condition":"full-information","relevant_dimensions":["antennae","legs"],"bee_group":{"antennae":"A","wings":"X","pattern":"X","legs":"F"},"action":"avoid","summary":"bad-avoid","bonus":0.5000000000000008},{"rt":999,"stimulus":"\n                    <p><b>Action: <em>avoid</em></b></p>\n                    <p>This is the bee that you just saw.</p>\n                    <img src=\"bees-with-color/bee-B2SF.svg\" width=\"200\">\n                    <p><span class=\"redText\">Bad choice,</span> the bee was friendly.<br>Your bonus pay is unchanged, and remains at $0.54.</p>\n            ","response":0,"trial_type":"html-button-response","trial_index":42,"time_elapsed":389557,"internal_node_id":"0.0-4.0-1.17","subject_id":"617186c68f898cccf15c1c3f","study_id":"6197b3f67c2b5cd3b6d9596a","session_id":"6197b571d9dfb5fe5025bf75","condition":"full-information","relevant_dimensions":["antennae","legs"],"bee_group":{"antennae":"A","wings":"X","pattern":"X","legs":"F"},"bonus":0.5000000000000008},{"rt":1964,"stimulus":"bees-with-color/bee-B1DM.svg","response":0,"trial_type":"image-button-response","trial_index":43,"time_elapsed":391521,"internal_node_id":"0.0-4.0-0.18","subject_id":"617186c68f898cccf15c1c3f","study_id":"6197b3f67c2b5cd3b6d9596a","session_id":"6197b571d9dfb5fe5025bf75","condition":"full-information","relevant_dimensions":["antennae","legs"],"bee_group":{"antennae":"A","wings":"X","pattern":"X","legs":"F"},"action":"harvest","summary":"good-harvest","bonus":0.5000000000000008},{"rt":898,"stimulus":"\n                    <p><b>Action: <em>harvest</em></b></p>\n                    <p>This is the bee that you just saw.</p>\n                    <img src=\"bees-with-color/bee-B1DM.svg\" width=\"200\">\n                    <p><span class=\"greenText\"><b>Successful harvest!</b></span><br>Your pay has increased by $0.02. Your bonus pay is now $0.56.</p>\n            ","response":0,"trial_type":"html-button-response","trial_index":44,"time_elapsed":392418,"internal_node_id":"0.0-4.0-1.18","subject_id":"617186c68f898cccf15c1c3f","study_id":"6197b3f67c2b5cd3b6d9596a","session_id":"6197b571d9dfb5fe5025bf75","condition":"full-information","relevant_dimensions":["antennae","legs"],"bee_group":{"antennae":"A","wings":"X","pattern":"X","legs":"F"},"bonus":0.5000000000000008},{"rt":1945,"stimulus":"bees-with-color/bee-B2DF.svg","response":0,"trial_type":"image-button-response","trial_index":45,"time_elapsed":394365,"internal_node_id":"0.0-4.0-0.19","subject_id":"617186c68f898cccf15c1c3f","study_id":"6197b3f67c2b5cd3b6d9596a","session_id":"6197b571d9dfb5fe5025bf75","condition":"full-information","relevant_dimensions":["antennae","legs"],"bee_group":{"antennae":"A","wings":"X","pattern":"X","legs":"F"},"action":"harvest","summary":"good-harvest","bonus":0.5000000000000008},{"rt":995,"stimulus":"\n                    <p><b>Action: <em>harvest</em></b></p>\n                    <p>This is the bee that you just saw.</p>\n                    <img src=\"bees-with-color/bee-B2DF.svg\" width=\"200\">\n                    <p><span class=\"greenText\"><b>Successful harvest!</b></span><br>Your pay has increased by $0.02. Your bonus pay is now $0.58.</p>\n            ","response":0,"trial_type":"html-button-response","trial_index":46,"time_elapsed":395361,"internal_node_id":"0.0-4.0-1.19","subject_id":"617186c68f898cccf15c1c3f","study_id":"6197b3f67c2b5cd3b6d9596a","session_id":"6197b571d9dfb5fe5025bf75","condition":"full-information","relevant_dimensions":["antennae","legs"],"bee_group":{"antennae":"A","wings":"X","pattern":"X","legs":"F"},"bonus":0.5000000000000008},{"rt":4848,"stimulus":"bees-with-color/bee-A2DF.svg","response":1,"trial_type":"image-button-response","trial_index":47,"time_elapsed":400210,"internal_node_id":"0.0-4.0-0.20","subject_id":"617186c68f898cccf15c1c3f","study_id":"6197b3f67c2b5cd3b6d9596a","session_id":"6197b571d9dfb5fe5025bf75","condition":"full-information","relevant_dimensions":["antennae","legs"],"bee_group":{"antennae":"A","wings":"X","pattern":"X","legs":"F"},"action":"avoid","summary":"good-avoid","bonus":0.5000000000000008},{"rt":1161,"stimulus":"\n                    <p><b>Action: <em>avoid</em></b></p>\n                    <p>This is the bee that you just saw.</p>\n                    <img src=\"bees-with-color/bee-A2DF.svg\" width=\"200\">\n                    <p><span class=\"greenText\">Good choice!</span>  This bee would have stung you.<br>Your bonus pay is unchanged, and remains at $0.58.</p>\n            ","response":0,"trial_type":"html-button-response","trial_index":48,"time_elapsed":401372,"internal_node_id":"0.0-4.0-1.20","subject_id":"617186c68f898cccf15c1c3f","study_id":"6197b3f67c2b5cd3b6d9596a","session_id":"6197b571d9dfb5fe5025bf75","condition":"full-information","relevant_dimensions":["antennae","legs"],"bee_group":{"antennae":"A","wings":"X","pattern":"X","legs":"F"},"bonus":0.5000000000000008},{"rt":2076,"stimulus":"bees-with-color/bee-B2DM.svg","response":0,"trial_type":"image-button-response","trial_index":49,"time_elapsed":403449,"internal_node_id":"0.0-4.0-0.21","subject_id":"617186c68f898cccf15c1c3f","study_id":"6197b3f67c2b5cd3b6d9596a","session_id":"6197b571d9dfb5fe5025bf75","condition":"full-information","relevant_dimensions":["antennae","legs"],"bee_group":{"antennae":"A","wings":"X","pattern":"X","legs":"F"},"action":"harvest","summary":"good-harvest","bonus":0.5000000000000008},{"rt":986,"stimulus":"\n                    <p><b>Action: <em>harvest</em></b></p>\n                    <p>This is the bee that you just saw.</p>\n                    <img src=\"bees-with-color/bee-B2DM.svg\" width=\"200\">\n                    <p><span class=\"greenText\"><b>Successful harvest!</b></span><br>Your pay has increased by $0.02. Your bonus pay is now $0.60.</p>\n            ","response":0,"trial_type":"html-button-response","trial_index":50,"time_elapsed":404437,"internal_node_id":"0.0-4.0-1.21","subject_id":"617186c68f898cccf15c1c3f","study_id":"6197b3f67c2b5cd3b6d9596a","session_id":"6197b571d9dfb5fe5025bf75","condition":"full-information","relevant_dimensions":["antennae","legs"],"bee_group":{"antennae":"A","wings":"X","pattern":"X","legs":"F"},"bonus":0.5000000000000008},{"rt":2833,"stimulus":"bees-with-color/bee-A1DM.svg","response":1,"trial_type":"image-button-response","trial_index":51,"time_elapsed":407271,"internal_node_id":"0.0-4.0-0.22","subject_id":"617186c68f898cccf15c1c3f","study_id":"6197b3f67c2b5cd3b6d9596a","session_id":"6197b571d9dfb5fe5025bf75","condition":"full-information","relevant_dimensions":["antennae","legs"],"bee_group":{"antennae":"A","wings":"X","pattern":"X","legs":"F"},"action":"avoid","summary":"bad-avoid","bonus":0.5000000000000008},{"rt":737,"stimulus":"\n                    <p><b>Action: <em>avoid</em></b></p>\n                    <p>This is the bee that you just saw.</p>\n                    <img src=\"bees-with-color/bee-A1DM.svg\" width=\"200\">\n                    <p><span class=\"redText\">Bad choice,</span> the bee was friendly.<br>Your bonus pay is unchanged, and remains at $0.60.</p>\n            ","response":0,"trial_type":"html-button-response","trial_index":52,"time_elapsed":408008,"internal_node_id":"0.0-4.0-1.22","subject_id":"617186c68f898cccf15c1c3f","study_id":"6197b3f67c2b5cd3b6d9596a","session_id":"6197b571d9dfb5fe5025bf75","condition":"full-information","relevant_dimensions":["antennae","legs"],"bee_group":{"antennae":"A","wings":"X","pattern":"X","legs":"F"},"bonus":0.5000000000000008},{"rt":2033,"stimulus":"bees-with-color/bee-A1SF.svg","response":0,"trial_type":"image-button-response","trial_index":53,"time_elapsed":410041,"internal_node_id":"0.0-4.0-0.23","subject_id":"617186c68f898cccf15c1c3f","study_id":"6197b3f67c2b5cd3b6d9596a","session_id":"6197b571d9dfb5fe5025bf75","condition":"full-information","relevant_dimensions":["antennae","legs"],"bee_group":{"antennae":"A","wings":"X","pattern":"X","legs":"F"},"action":"harvest","summary":"bad-harvest","bonus":0.5000000000000008},{"rt":3696,"stimulus":"\n                    <p><b>Action: <em>harvest</em></b></p>\n                    <p>This is the bee that you just saw.</p>\n                    <img src=\"bees-with-color/bee-A1SF.svg\" width=\"200\">\n                    <p><span class=\"redText\">Bad choice, the bee was angry.</span><br><b>You have been stung!</b><br>Your pay has been decreased by $0.10. Your bonus pay is now $0.50.</p>\n            ","response":0,"trial_type":"html-button-response","trial_index":54,"time_elapsed":413738,"internal_node_id":"0.0-4.0-1.23","subject_id":"617186c68f898cccf15c1c3f","study_id":"6197b3f67c2b5cd3b6d9596a","session_id":"6197b571d9dfb5fe5025bf75","condition":"full-information","relevant_dimensions":["antennae","legs"],"bee_group":{"antennae":"A","wings":"X","pattern":"X","legs":"F"},"bonus":0.5000000000000008},{"rt":1351,"stimulus":"bees-with-color/bee-B1SF.svg","response":0,"trial_type":"image-button-response","trial_index":55,"time_elapsed":415089,"internal_node_id":"0.0-4.0-0.24","subject_id":"617186c68f898cccf15c1c3f","study_id":"6197b3f67c2b5cd3b6d9596a","session_id":"6197b571d9dfb5fe5025bf75","condition":"full-information","relevant_dimensions":["antennae","legs"],"bee_group":{"antennae":"A","wings":"X","pattern":"X","legs":"F"},"action":"harvest","summary":"good-harvest","bonus":0.5000000000000008},{"rt":739,"stimulus":"\n                    <p><b>Action: <em>harvest</em></b></p>\n                    <p>This is the bee that you just saw.</p>\n                    <img src=\"bees-with-color/bee-B1SF.svg\" width=\"200\">\n                    <p><span class=\"greenText\"><b>Successful harvest!</b></span><br>Your pay has increased by $0.02. Your bonus pay is now $0.52.</p>\n            ","response":0,"trial_type":"html-button-response","trial_index":56,"time_elapsed":415828,"internal_node_id":"0.0-4.0-1.24","subject_id":"617186c68f898cccf15c1c3f","study_id":"6197b3f67c2b5cd3b6d9596a","session_id":"6197b571d9dfb5fe5025bf75","condition":"full-information","relevant_dimensions":["antennae","legs"],"bee_group":{"antennae":"A","wings":"X","pattern":"X","legs":"F"},"bonus":0.5000000000000008},{"rt":2068,"stimulus":"bees-with-color/bee-A1DF.svg","response":1,"trial_type":"image-button-response","trial_index":57,"time_elapsed":417897,"internal_node_id":"0.0-4.0-0.25","subject_id":"617186c68f898cccf15c1c3f","study_id":"6197b3f67c2b5cd3b6d9596a","session_id":"6197b571d9dfb5fe5025bf75","condition":"full-information","relevant_dimensions":["antennae","legs"],"bee_group":{"antennae":"A","wings":"X","pattern":"X","legs":"F"},"action":"avoid","summary":"good-avoid","bonus":0.5000000000000008},{"rt":891,"stimulus":"\n                    <p><b>Action: <em>avoid</em></b></p>\n                    <p>This is the bee that you just saw.</p>\n                    <img src=\"bees-with-color/bee-A1DF.svg\" width=\"200\">\n                    <p><span class=\"greenText\">Good choice!</span>  This bee would have stung you.<br>Your bonus pay is unchanged, and remains at $0.52.</p>\n            ","response":0,"trial_type":"html-button-response","trial_index":58,"time_elapsed":418790,"internal_node_id":"0.0-4.0-1.25","subject_id":"617186c68f898cccf15c1c3f","study_id":"6197b3f67c2b5cd3b6d9596a","session_id":"6197b571d9dfb5fe5025bf75","condition":"full-information","relevant_dimensions":["antennae","legs"],"bee_group":{"antennae":"A","wings":"X","pattern":"X","legs":"F"},"bonus":0.5000000000000008},{"rt":4022,"stimulus":"bees-with-color/bee-A2SF.svg","response":1,"trial_type":"image-button-response","trial_index":59,"time_elapsed":422812,"internal_node_id":"0.0-4.0-0.26","subject_id":"617186c68f898cccf15c1c3f","study_id":"6197b3f67c2b5cd3b6d9596a","session_id":"6197b571d9dfb5fe5025bf75","condition":"full-information","relevant_dimensions":["antennae","legs"],"bee_group":{"antennae":"A","wings":"X","pattern":"X","legs":"F"},"action":"avoid","summary":"good-avoid","bonus":0.5000000000000008},{"rt":873,"stimulus":"\n                    <p><b>Action: <em>avoid</em></b></p>\n                    <p>This is the bee that you just saw.</p>\n                    <img src=\"bees-with-color/bee-A2SF.svg\" width=\"200\">\n                    <p><span class=\"greenText\">Good choice!</span>  This bee would have stung you.<br>Your bonus pay is unchanged, and remains at $0.52.</p>\n            ","response":0,"trial_type":"html-button-response","trial_index":60,"time_elapsed":423685,"internal_node_id":"0.0-4.0-1.26","subject_id":"617186c68f898cccf15c1c3f","study_id":"6197b3f67c2b5cd3b6d9596a","session_id":"6197b571d9dfb5fe5025bf75","condition":"full-information","relevant_dimensions":["antennae","legs"],"bee_group":{"antennae":"A","wings":"X","pattern":"X","legs":"F"},"bonus":0.5000000000000008},{"rt":1812,"stimulus":"bees-with-color/bee-A2SM.svg","response":0,"trial_type":"image-button-response","trial_index":61,"time_elapsed":425498,"internal_node_id":"0.0-4.0-0.27","subject_id":"617186c68f898cccf15c1c3f","study_id":"6197b3f67c2b5cd3b6d9596a","session_id":"6197b571d9dfb5fe5025bf75","condition":"full-information","relevant_dimensions":["antennae","legs"],"bee_group":{"antennae":"A","wings":"X","pattern":"X","legs":"F"},"action":"harvest","summary":"good-harvest","bonus":0.5000000000000008},{"rt":779,"stimulus":"\n                    <p><b>Action: <em>harvest</em></b></p>\n                    <p>This is the bee that you just saw.</p>\n                    <img src=\"bees-with-color/bee-A2SM.svg\" width=\"200\">\n                    <p><span class=\"greenText\"><b>Successful harvest!</b></span><br>Your pay has increased by $0.02. Your bonus pay is now $0.54.</p>\n            ","response":0,"trial_type":"html-button-response","trial_index":62,"time_elapsed":426278,"internal_node_id":"0.0-4.0-1.27","subject_id":"617186c68f898cccf15c1c3f","study_id":"6197b3f67c2b5cd3b6d9596a","session_id":"6197b571d9dfb5fe5025bf75","condition":"full-information","relevant_dimensions":["antennae","legs"],"bee_group":{"antennae":"A","wings":"X","pattern":"X","legs":"F"},"bonus":0.5000000000000008},{"rt":2471,"stimulus":"bees-with-color/bee-B1SM.svg","response":0,"trial_type":"image-button-response","trial_index":63,"time_elapsed":428749,"internal_node_id":"0.0-4.0-0.28","subject_id":"617186c68f898cccf15c1c3f","study_id":"6197b3f67c2b5cd3b6d9596a","session_id":"6197b571d9dfb5fe5025bf75","condition":"full-information","relevant_dimensions":["antennae","legs"],"bee_group":{"antennae":"A","wings":"X","pattern":"X","legs":"F"},"action":"harvest","summary":"good-harvest","bonus":0.5000000000000008},{"rt":779,"stimulus":"\n                    <p><b>Action: <em>harvest</em></b></p>\n                    <p>This is the bee that you just saw.</p>\n                    <img src=\"bees-with-color/bee-B1SM.svg\" width=\"200\">\n                    <p><span class=\"greenText\"><b>Successful harvest!</b></span><br>Your pay has increased by $0.02. Your bonus pay is now $0.56.</p>\n            ","response":0,"trial_type":"html-button-response","trial_index":64,"time_elapsed":429530,"internal_node_id":"0.0-4.0-1.28","subject_id":"617186c68f898cccf15c1c3f","study_id":"6197b3f67c2b5cd3b6d9596a","session_id":"6197b571d9dfb5fe5025bf75","condition":"full-information","relevant_dimensions":["antennae","legs"],"bee_group":{"antennae":"A","wings":"X","pattern":"X","legs":"F"},"bonus":0.5000000000000008},{"rt":4985,"stimulus":"bees-with-color/bee-A2DM.svg","response":1,"trial_type":"image-button-response","trial_index":65,"time_elapsed":434515,"internal_node_id":"0.0-4.0-0.29","subject_id":"617186c68f898cccf15c1c3f","study_id":"6197b3f67c2b5cd3b6d9596a","session_id":"6197b571d9dfb5fe5025bf75","condition":"full-information","relevant_dimensions":["antennae","legs"],"bee_group":{"antennae":"A","wings":"X","pattern":"X","legs":"F"},"action":"avoid","summary":"bad-avoid","bonus":0.5000000000000008},{"rt":1191,"stimulus":"\n                    <p><b>Action: <em>avoid</em></b></p>\n                    <p>This is the bee that you just saw.</p>\n                    <img src=\"bees-with-color/bee-A2DM.svg\" width=\"200\">\n                    <p><span class=\"redText\">Bad choice,</span> the bee was friendly.<br>Your bonus pay is unchanged, and remains at $0.56.</p>\n            ","response":0,"trial_type":"html-button-response","trial_index":66,"time_elapsed":435707,"internal_node_id":"0.0-4.0-1.29","subject_id":"617186c68f898cccf15c1c3f","study_id":"6197b3f67c2b5cd3b6d9596a","session_id":"6197b571d9dfb5fe5025bf75","condition":"full-information","relevant_dimensions":["antennae","legs"],"bee_group":{"antennae":"A","wings":"X","pattern":"X","legs":"F"},"bonus":0.5000000000000008},{"rt":959,"stimulus":"bees-with-color/bee-B2SM.svg","response":0,"trial_type":"image-button-response","trial_index":67,"time_elapsed":436667,"internal_node_id":"0.0-4.0-0.30","subject_id":"617186c68f898cccf15c1c3f","study_id":"6197b3f67c2b5cd3b6d9596a","session_id":"6197b571d9dfb5fe5025bf75","condition":"full-information","relevant_dimensions":["antennae","legs"],"bee_group":{"antennae":"A","wings":"X","pattern":"X","legs":"F"},"action":"harvest","summary":"good-harvest","bonus":0.5000000000000008},{"rt":685,"stimulus":"\n                    <p><b>Action: <em>harvest</em></b></p>\n                    <p>This is the bee that you just saw.</p>\n                    <img src=\"bees-with-color/bee-B2SM.svg\" width=\"200\">\n                    <p><span class=\"greenText\"><b>Successful harvest!</b></span><br>Your pay has increased by $0.02. Your bonus pay is now $0.58.</p>\n            ","response":0,"trial_type":"html-button-response","trial_index":68,"time_elapsed":437352,"internal_node_id":"0.0-4.0-1.30","subject_id":"617186c68f898cccf15c1c3f","study_id":"6197b3f67c2b5cd3b6d9596a","session_id":"6197b571d9dfb5fe5025bf75","condition":"full-information","relevant_dimensions":["antennae","legs"],"bee_group":{"antennae":"A","wings":"X","pattern":"X","legs":"F"},"bonus":0.5000000000000008},{"rt":1740,"stimulus":"bees-with-color/bee-A1SM.svg","response":1,"trial_type":"image-button-response","trial_index":69,"time_elapsed":439092,"internal_node_id":"0.0-4.0-0.31","subject_id":"617186c68f898cccf15c1c3f","study_id":"6197b3f67c2b5cd3b6d9596a","session_id":"6197b571d9dfb5fe5025bf75","condition":"full-information","relevant_dimensions":["antennae","legs"],"bee_group":{"antennae":"A","wings":"X","pattern":"X","legs":"F"},"action":"avoid","summary":"bad-avoid","bonus":0.5000000000000008},{"rt":803,"stimulus":"\n                    <p><b>Action: <em>avoid</em></b></p>\n                    <p>This is the bee that you just saw.</p>\n                    <img src=\"bees-with-color/bee-A1SM.svg\" width=\"200\">\n                    <p><span class=\"redText\">Bad choice,</span> the bee was friendly.<br>Your bonus pay is unchanged, and remains at $0.58.</p>\n            ","response":0,"trial_type":"html-button-response","trial_index":70,"time_elapsed":439897,"internal_node_id":"0.0-4.0-1.31","subject_id":"617186c68f898cccf15c1c3f","study_id":"6197b3f67c2b5cd3b6d9596a","session_id":"6197b571d9dfb5fe5025bf75","condition":"full-information","relevant_dimensions":["antennae","legs"],"bee_group":{"antennae":"A","wings":"X","pattern":"X","legs":"F"},"bonus":0.5000000000000008},{"rt":1836,"stimulus":"bees-with-color/bee-B2SM.svg","response":0,"trial_type":"image-button-response","trial_index":71,"time_elapsed":441734,"internal_node_id":"0.0-4.0-0.32","subject_id":"617186c68f898cccf15c1c3f","study_id":"6197b3f67c2b5cd3b6d9596a","session_id":"6197b571d9dfb5fe5025bf75","condition":"full-information","relevant_dimensions":["antennae","legs"],"bee_group":{"antennae":"A","wings":"X","pattern":"X","legs":"F"},"action":"harvest","summary":"good-harvest","bonus":0.5000000000000008},{"rt":1034,"stimulus":"\n                    <p><b>Action: <em>harvest</em></b></p>\n                    <p>This is the bee that you just saw.</p>\n                    <img src=\"bees-with-color/bee-B2SM.svg\" width=\"200\">\n                    <p><span class=\"greenText\"><b>Successful harvest!</b></span><br>Your pay has increased by $0.02. Your bonus pay is now $0.60.</p>\n            ","response":0,"trial_type":"html-button-response","trial_index":72,"time_elapsed":442768,"internal_node_id":"0.0-4.0-1.32","subject_id":"617186c68f898cccf15c1c3f","study_id":"6197b3f67c2b5cd3b6d9596a","session_id":"6197b571d9dfb5fe5025bf75","condition":"full-information","relevant_dimensions":["antennae","legs"],"bee_group":{"antennae":"A","wings":"X","pattern":"X","legs":"F"},"bonus":0.5000000000000008},{"rt":3781,"stimulus":"bees-with-color/bee-A1DM.svg","response":1,"trial_type":"image-button-response","trial_index":73,"time_elapsed":446549,"internal_node_id":"0.0-4.0-0.33","subject_id":"617186c68f898cccf15c1c3f","study_id":"6197b3f67c2b5cd3b6d9596a","session_id":"6197b571d9dfb5fe5025bf75","condition":"full-information","relevant_dimensions":["antennae","legs"],"bee_group":{"antennae":"A","wings":"X","pattern":"X","legs":"F"},"action":"avoid","summary":"bad-avoid","bonus":0.5000000000000008},{"rt":4924,"stimulus":"\n                    <p><b>Action: <em>avoid</em></b></p>\n                    <p>This is the bee that you just saw.</p>\n                    <img src=\"bees-with-color/bee-A1DM.svg\" width=\"200\">\n                    <p><span class=\"redText\">Bad choice,</span> the bee was friendly.<br>Your bonus pay is unchanged, and remains at $0.60.</p>\n            ","response":0,"trial_type":"html-button-response","trial_index":74,"time_elapsed":451473,"internal_node_id":"0.0-4.0-1.33","subject_id":"617186c68f898cccf15c1c3f","study_id":"6197b3f67c2b5cd3b6d9596a","session_id":"6197b571d9dfb5fe5025bf75","condition":"full-information","relevant_dimensions":["antennae","legs"],"bee_group":{"antennae":"A","wings":"X","pattern":"X","legs":"F"},"bonus":0.5000000000000008},{"rt":2986,"stimulus":"bees-with-color/bee-B2DF.svg","response":1,"trial_type":"image-button-response","trial_index":75,"time_elapsed":454459,"internal_node_id":"0.0-4.0-0.34","subject_id":"617186c68f898cccf15c1c3f","study_id":"6197b3f67c2b5cd3b6d9596a","session_id":"6197b571d9dfb5fe5025bf75","condition":"full-information","relevant_dimensions":["antennae","legs"],"bee_group":{"antennae":"A","wings":"X","pattern":"X","legs":"F"},"action":"avoid","summary":"bad-avoid","bonus":0.5000000000000008},{"rt":1006,"stimulus":"\n                    <p><b>Action: <em>avoid</em></b></p>\n                    <p>This is the bee that you just saw.</p>\n                    <img src=\"bees-with-color/bee-B2DF.svg\" width=\"200\">\n                    <p><span class=\"redText\">Bad choice,</span> the bee was friendly.<br>Your bonus pay is unchanged, and remains at $0.60.</p>\n            ","response":0,"trial_type":"html-button-response","trial_index":76,"time_elapsed":455465,"internal_node_id":"0.0-4.0-1.34","subject_id":"617186c68f898cccf15c1c3f","study_id":"6197b3f67c2b5cd3b6d9596a","session_id":"6197b571d9dfb5fe5025bf75","condition":"full-information","relevant_dimensions":["antennae","legs"],"bee_group":{"antennae":"A","wings":"X","pattern":"X","legs":"F"},"bonus":0.5000000000000008},{"rt":1862,"stimulus":"bees-with-color/bee-B2DM.svg","response":0,"trial_type":"image-button-response","trial_index":77,"time_elapsed":457328,"internal_node_id":"0.0-4.0-0.35","subject_id":"617186c68f898cccf15c1c3f","study_id":"6197b3f67c2b5cd3b6d9596a","session_id":"6197b571d9dfb5fe5025bf75","condition":"full-information","relevant_dimensions":["antennae","legs"],"bee_group":{"antennae":"A","wings":"X","pattern":"X","legs":"F"},"action":"harvest","summary":"good-harvest","bonus":0.5000000000000008},{"rt":808,"stimulus":"\n                    <p><b>Action: <em>harvest</em></b></p>\n                    <p>This is the bee that you just saw.</p>\n                    <img src=\"bees-with-color/bee-B2DM.svg\" width=\"200\">\n                    <p><span class=\"greenText\"><b>Successful harvest!</b></span><br>Your pay has increased by $0.02. Your bonus pay is now $0.62.</p>\n            ","response":0,"trial_type":"html-button-response","trial_index":78,"time_elapsed":458138,"internal_node_id":"0.0-4.0-1.35","subject_id":"617186c68f898cccf15c1c3f","study_id":"6197b3f67c2b5cd3b6d9596a","session_id":"6197b571d9dfb5fe5025bf75","condition":"full-information","relevant_dimensions":["antennae","legs"],"bee_group":{"antennae":"A","wings":"X","pattern":"X","legs":"F"},"bonus":0.5000000000000008},{"rt":1698,"stimulus":"bees-with-color/bee-A2SF.svg","response":1,"trial_type":"image-button-response","trial_index":79,"time_elapsed":459837,"internal_node_id":"0.0-4.0-0.36","subject_id":"617186c68f898cccf15c1c3f","study_id":"6197b3f67c2b5cd3b6d9596a","session_id":"6197b571d9dfb5fe5025bf75","condition":"full-information","relevant_dimensions":["antennae","legs"],"bee_group":{"antennae":"A","wings":"X","pattern":"X","legs":"F"},"action":"avoid","summary":"good-avoid","bonus":0.5000000000000008},{"rt":751,"stimulus":"\n                    <p><b>Action: <em>avoid</em></b></p>\n                    <p>This is the bee that you just saw.</p>\n                    <img src=\"bees-with-color/bee-A2SF.svg\" width=\"200\">\n                    <p><span class=\"greenText\">Good choice!</span>  This bee would have stung you.<br>Your bonus pay is unchanged, and remains at $0.62.</p>\n            ","response":0,"trial_type":"html-button-response","trial_index":80,"time_elapsed":460588,"internal_node_id":"0.0-4.0-1.36","subject_id":"617186c68f898cccf15c1c3f","study_id":"6197b3f67c2b5cd3b6d9596a","session_id":"6197b571d9dfb5fe5025bf75","condition":"full-information","relevant_dimensions":["antennae","legs"],"bee_group":{"antennae":"A","wings":"X","pattern":"X","legs":"F"},"bonus":0.5000000000000008},{"rt":2134,"stimulus":"bees-with-color/bee-B2SF.svg","response":1,"trial_type":"image-button-response","trial_index":81,"time_elapsed":462723,"internal_node_id":"0.0-4.0-0.37","subject_id":"617186c68f898cccf15c1c3f","study_id":"6197b3f67c2b5cd3b6d9596a","session_id":"6197b571d9dfb5fe5025bf75","condition":"full-information","relevant_dimensions":["antennae","legs"],"bee_group":{"antennae":"A","wings":"X","pattern":"X","legs":"F"},"action":"avoid","summary":"bad-avoid","bonus":0.5000000000000008},{"rt":635,"stimulus":"\n                    <p><b>Action: <em>avoid</em></b></p>\n                    <p>This is the bee that you just saw.</p>\n                    <img src=\"bees-with-color/bee-B2SF.svg\" width=\"200\">\n                    <p><span class=\"redText\">Bad choice,</span> the bee was friendly.<br>Your bonus pay is unchanged, and remains at $0.62.</p>\n            ","response":0,"trial_type":"html-button-response","trial_index":82,"time_elapsed":463357,"internal_node_id":"0.0-4.0-1.37","subject_id":"617186c68f898cccf15c1c3f","study_id":"6197b3f67c2b5cd3b6d9596a","session_id":"6197b571d9dfb5fe5025bf75","condition":"full-information","relevant_dimensions":["antennae","legs"],"bee_group":{"antennae":"A","wings":"X","pattern":"X","legs":"F"},"bonus":0.5000000000000008},{"rt":1553,"stimulus":"bees-with-color/bee-B1SM.svg","response":0,"trial_type":"image-button-response","trial_index":83,"time_elapsed":464910,"internal_node_id":"0.0-4.0-0.38","subject_id":"617186c68f898cccf15c1c3f","study_id":"6197b3f67c2b5cd3b6d9596a","session_id":"6197b571d9dfb5fe5025bf75","condition":"full-information","relevant_dimensions":["antennae","legs"],"bee_group":{"antennae":"A","wings":"X","pattern":"X","legs":"F"},"action":"harvest","summary":"good-harvest","bonus":0.5000000000000008},{"rt":1240,"stimulus":"\n                    <p><b>Action: <em>harvest</em></b></p>\n                    <p>This is the bee that you just saw.</p>\n                    <img src=\"bees-with-color/bee-B1SM.svg\" width=\"200\">\n                    <p><span class=\"greenText\"><b>Successful harvest!</b></span><br>Your pay has increased by $0.02. Your bonus pay is now $0.64.</p>\n            ","response":0,"trial_type":"html-button-response","trial_index":84,"time_elapsed":466152,"internal_node_id":"0.0-4.0-1.38","subject_id":"617186c68f898cccf15c1c3f","study_id":"6197b3f67c2b5cd3b6d9596a","session_id":"6197b571d9dfb5fe5025bf75","condition":"full-information","relevant_dimensions":["antennae","legs"],"bee_group":{"antennae":"A","wings":"X","pattern":"X","legs":"F"},"bonus":0.5000000000000008},{"rt":3303,"stimulus":"bees-with-color/bee-A1SF.svg","response":1,"trial_type":"image-button-response","trial_index":85,"time_elapsed":469457,"internal_node_id":"0.0-4.0-0.39","subject_id":"617186c68f898cccf15c1c3f","study_id":"6197b3f67c2b5cd3b6d9596a","session_id":"6197b571d9dfb5fe5025bf75","condition":"full-information","relevant_dimensions":["antennae","legs"],"bee_group":{"antennae":"A","wings":"X","pattern":"X","legs":"F"},"action":"avoid","summary":"good-avoid","bonus":0.5000000000000008},{"rt":689,"stimulus":"\n                    <p><b>Action: <em>avoid</em></b></p>\n                    <p>This is the bee that you just saw.</p>\n                    <img src=\"bees-with-color/bee-A1SF.svg\" width=\"200\">\n                    <p><span class=\"greenText\">Good choice!</span>  This bee would have stung you.<br>Your bonus pay is unchanged, and remains at $0.64.</p>\n            ","response":0,"trial_type":"html-button-response","trial_index":86,"time_elapsed":470146,"internal_node_id":"0.0-4.0-1.39","subject_id":"617186c68f898cccf15c1c3f","study_id":"6197b3f67c2b5cd3b6d9596a","session_id":"6197b571d9dfb5fe5025bf75","condition":"full-information","relevant_dimensions":["antennae","legs"],"bee_group":{"antennae":"A","wings":"X","pattern":"X","legs":"F"},"bonus":0.5000000000000008},{"rt":9762,"stimulus":"bees-with-color/bee-B1DF.svg","response":0,"trial_type":"image-button-response","trial_index":87,"time_elapsed":479908,"internal_node_id":"0.0-4.0-0.40","subject_id":"617186c68f898cccf15c1c3f","study_id":"6197b3f67c2b5cd3b6d9596a","session_id":"6197b571d9dfb5fe5025bf75","condition":"full-information","relevant_dimensions":["antennae","legs"],"bee_group":{"antennae":"A","wings":"X","pattern":"X","legs":"F"},"action":"harvest","summary":"good-harvest","bonus":0.5000000000000008},{"rt":902,"stimulus":"\n                    <p><b>Action: <em>harvest</em></b></p>\n                    <p>This is the bee that you just saw.</p>\n                    <img src=\"bees-with-color/bee-B1DF.svg\" width=\"200\">\n                    <p><span class=\"greenText\"><b>Successful harvest!</b></span><br>Your pay has increased by $0.02. Your bonus pay is now $0.66.</p>\n            ","response":0,"trial_type":"html-button-response","trial_index":88,"time_elapsed":480811,"internal_node_id":"0.0-4.0-1.40","subject_id":"617186c68f898cccf15c1c3f","study_id":"6197b3f67c2b5cd3b6d9596a","session_id":"6197b571d9dfb5fe5025bf75","condition":"full-information","relevant_dimensions":["antennae","legs"],"bee_group":{"antennae":"A","wings":"X","pattern":"X","legs":"F"},"bonus":0.5000000000000008},{"rt":2506,"stimulus":"bees-with-color/bee-A2SM.svg","response":1,"trial_type":"image-button-response","trial_index":89,"time_elapsed":483319,"internal_node_id":"0.0-4.0-0.41","subject_id":"617186c68f898cccf15c1c3f","study_id":"6197b3f67c2b5cd3b6d9596a","session_id":"6197b571d9dfb5fe5025bf75","condition":"full-information","relevant_dimensions":["antennae","legs"],"bee_group":{"antennae":"A","wings":"X","pattern":"X","legs":"F"},"action":"avoid","summary":"bad-avoid","bonus":0.5000000000000008},{"rt":797,"stimulus":"\n                    <p><b>Action: <em>avoid</em></b></p>\n                    <p>This is the bee that you just saw.</p>\n                    <img src=\"bees-with-color/bee-A2SM.svg\" width=\"200\">\n                    <p><span class=\"redText\">Bad choice,</span> the bee was friendly.<br>Your bonus pay is unchanged, and remains at $0.66.</p>\n            ","response":0,"trial_type":"html-button-response","trial_index":90,"time_elapsed":484116,"internal_node_id":"0.0-4.0-1.41","subject_id":"617186c68f898cccf15c1c3f","study_id":"6197b3f67c2b5cd3b6d9596a","session_id":"6197b571d9dfb5fe5025bf75","condition":"full-information","relevant_dimensions":["antennae","legs"],"bee_group":{"antennae":"A","wings":"X","pattern":"X","legs":"F"},"bonus":0.5000000000000008},{"rt":1743,"stimulus":"bees-with-color/bee-A2DF.svg","response":1,"trial_type":"image-button-response","trial_index":91,"time_elapsed":485861,"internal_node_id":"0.0-4.0-0.42","subject_id":"617186c68f898cccf15c1c3f","study_id":"6197b3f67c2b5cd3b6d9596a","session_id":"6197b571d9dfb5fe5025bf75","condition":"full-information","relevant_dimensions":["antennae","legs"],"bee_group":{"antennae":"A","wings":"X","pattern":"X","legs":"F"},"action":"avoid","summary":"good-avoid","bonus":0.5000000000000008},{"rt":855,"stimulus":"\n                    <p><b>Action: <em>avoid</em></b></p>\n                    <p>This is the bee that you just saw.</p>\n                    <img src=\"bees-with-color/bee-A2DF.svg\" width=\"200\">\n                    <p><span class=\"greenText\">Good choice!</span>  This bee would have stung you.<br>Your bonus pay is unchanged, and remains at $0.66.</p>\n            ","response":0,"trial_type":"html-button-response","trial_index":92,"time_elapsed":486715,"internal_node_id":"0.0-4.0-1.42","subject_id":"617186c68f898cccf15c1c3f","study_id":"6197b3f67c2b5cd3b6d9596a","session_id":"6197b571d9dfb5fe5025bf75","condition":"full-information","relevant_dimensions":["antennae","legs"],"bee_group":{"antennae":"A","wings":"X","pattern":"X","legs":"F"},"bonus":0.5000000000000008},{"rt":2645,"stimulus":"bees-with-color/bee-A2DM.svg","response":1,"trial_type":"image-button-response","trial_index":93,"time_elapsed":489361,"internal_node_id":"0.0-4.0-0.43","subject_id":"617186c68f898cccf15c1c3f","study_id":"6197b3f67c2b5cd3b6d9596a","session_id":"6197b571d9dfb5fe5025bf75","condition":"full-information","relevant_dimensions":["antennae","legs"],"bee_group":{"antennae":"A","wings":"X","pattern":"X","legs":"F"},"action":"avoid","summary":"bad-avoid","bonus":0.5000000000000008},{"rt":647,"stimulus":"\n                    <p><b>Action: <em>avoid</em></b></p>\n                    <p>This is the bee that you just saw.</p>\n                    <img src=\"bees-with-color/bee-A2DM.svg\" width=\"200\">\n                    <p><span class=\"redText\">Bad choice,</span> the bee was friendly.<br>Your bonus pay is unchanged, and remains at $0.66.</p>\n            ","response":0,"trial_type":"html-button-response","trial_index":94,"time_elapsed":490008,"internal_node_id":"0.0-4.0-1.43","subject_id":"617186c68f898cccf15c1c3f","study_id":"6197b3f67c2b5cd3b6d9596a","session_id":"6197b571d9dfb5fe5025bf75","condition":"full-information","relevant_dimensions":["antennae","legs"],"bee_group":{"antennae":"A","wings":"X","pattern":"X","legs":"F"},"bonus":0.5000000000000008},{"rt":3123,"stimulus":"bees-with-color/bee-B1SF.svg","response":1,"trial_type":"image-button-response","trial_index":95,"time_elapsed":493133,"internal_node_id":"0.0-4.0-0.44","subject_id":"617186c68f898cccf15c1c3f","study_id":"6197b3f67c2b5cd3b6d9596a","session_id":"6197b571d9dfb5fe5025bf75","condition":"full-information","relevant_dimensions":["antennae","legs"],"bee_group":{"antennae":"A","wings":"X","pattern":"X","legs":"F"},"action":"avoid","summary":"bad-avoid","bonus":0.5000000000000008},{"rt":718,"stimulus":"\n                    <p><b>Action: <em>avoid</em></b></p>\n                    <p>This is the bee that you just saw.</p>\n                    <img src=\"bees-with-color/bee-B1SF.svg\" width=\"200\">\n                    <p><span class=\"redText\">Bad choice,</span> the bee was friendly.<br>Your bonus pay is unchanged, and remains at $0.66.</p>\n            ","response":0,"trial_type":"html-button-response","trial_index":96,"time_elapsed":493851,"internal_node_id":"0.0-4.0-1.44","subject_id":"617186c68f898cccf15c1c3f","study_id":"6197b3f67c2b5cd3b6d9596a","session_id":"6197b571d9dfb5fe5025bf75","condition":"full-information","relevant_dimensions":["antennae","legs"],"bee_group":{"antennae":"A","wings":"X","pattern":"X","legs":"F"},"bonus":0.5000000000000008},{"rt":1208,"stimulus":"bees-with-color/bee-B1DM.svg","response":0,"trial_type":"image-button-response","trial_index":97,"time_elapsed":495060,"internal_node_id":"0.0-4.0-0.45","subject_id":"617186c68f898cccf15c1c3f","study_id":"6197b3f67c2b5cd3b6d9596a","session_id":"6197b571d9dfb5fe5025bf75","condition":"full-information","relevant_dimensions":["antennae","legs"],"bee_group":{"antennae":"A","wings":"X","pattern":"X","legs":"F"},"action":"harvest","summary":"good-harvest","bonus":0.5000000000000008},{"rt":1353,"stimulus":"\n                    <p><b>Action: <em>harvest</em></b></p>\n                    <p>This is the bee that you just saw.</p>\n                    <img src=\"bees-with-color/bee-B1DM.svg\" width=\"200\">\n                    <p><span class=\"greenText\"><b>Successful harvest!</b></span><br>Your pay has increased by $0.02. Your bonus pay is now $0.68.</p>\n            ","response":0,"trial_type":"html-button-response","trial_index":98,"time_elapsed":496412,"internal_node_id":"0.0-4.0-1.45","subject_id":"617186c68f898cccf15c1c3f","study_id":"6197b3f67c2b5cd3b6d9596a","session_id":"6197b571d9dfb5fe5025bf75","condition":"full-information","relevant_dimensions":["antennae","legs"],"bee_group":{"antennae":"A","wings":"X","pattern":"X","legs":"F"},"bonus":0.5000000000000008},{"rt":2642,"stimulus":"bees-with-color/bee-A1SM.svg","response":1,"trial_type":"image-button-response","trial_index":99,"time_elapsed":499056,"internal_node_id":"0.0-4.0-0.46","subject_id":"617186c68f898cccf15c1c3f","study_id":"6197b3f67c2b5cd3b6d9596a","session_id":"6197b571d9dfb5fe5025bf75","condition":"full-information","relevant_dimensions":["antennae","legs"],"bee_group":{"antennae":"A","wings":"X","pattern":"X","legs":"F"},"action":"avoid","summary":"bad-avoid","bonus":0.5000000000000008},{"rt":622,"stimulus":"\n                    <p><b>Action: <em>avoid</em></b></p>\n                    <p>This is the bee that you just saw.</p>\n                    <img src=\"bees-with-color/bee-A1SM.svg\" width=\"200\">\n                    <p><span class=\"redText\">Bad choice,</span> the bee was friendly.<br>Your bonus pay is unchanged, and remains at $0.68.</p>\n            ","response":0,"trial_type":"html-button-response","trial_index":100,"time_elapsed":499678,"internal_node_id":"0.0-4.0-1.46","subject_id":"617186c68f898cccf15c1c3f","study_id":"6197b3f67c2b5cd3b6d9596a","session_id":"6197b571d9dfb5fe5025bf75","condition":"full-information","relevant_dimensions":["antennae","legs"],"bee_group":{"antennae":"A","wings":"X","pattern":"X","legs":"F"},"bonus":0.5000000000000008},{"rt":2975,"stimulus":"bees-with-color/bee-A1DF.svg","response":1,"trial_type":"image-button-response","trial_index":101,"time_elapsed":502653,"internal_node_id":"0.0-4.0-0.47","subject_id":"617186c68f898cccf15c1c3f","study_id":"6197b3f67c2b5cd3b6d9596a","session_id":"6197b571d9dfb5fe5025bf75","condition":"full-information","relevant_dimensions":["antennae","legs"],"bee_group":{"antennae":"A","wings":"X","pattern":"X","legs":"F"},"action":"avoid","summary":"good-avoid","bonus":0.5000000000000008},{"rt":653,"stimulus":"\n                    <p><b>Action: <em>avoid</em></b></p>\n                    <p>This is the bee that you just saw.</p>\n                    <img src=\"bees-with-color/bee-A1DF.svg\" width=\"200\">\n                    <p><span class=\"greenText\">Good choice!</span>  This bee would have stung you.<br>Your bonus pay is unchanged, and remains at $0.68.</p>\n            ","response":0,"trial_type":"html-button-response","trial_index":102,"time_elapsed":503307,"internal_node_id":"0.0-4.0-1.47","subject_id":"617186c68f898cccf15c1c3f","study_id":"6197b3f67c2b5cd3b6d9596a","session_id":"6197b571d9dfb5fe5025bf75","condition":"full-information","relevant_dimensions":["antennae","legs"],"bee_group":{"antennae":"A","wings":"X","pattern":"X","legs":"F"},"bonus":0.5000000000000008},{"rt":1413,"stimulus":"bees-with-color/bee-B2SM.svg","response":0,"trial_type":"image-button-response","trial_index":103,"time_elapsed":504721,"internal_node_id":"0.0-4.0-0.48","subject_id":"617186c68f898cccf15c1c3f","study_id":"6197b3f67c2b5cd3b6d9596a","session_id":"6197b571d9dfb5fe5025bf75","condition":"full-information","relevant_dimensions":["antennae","legs"],"bee_group":{"antennae":"A","wings":"X","pattern":"X","legs":"F"},"action":"harvest","summary":"good-harvest","bonus":0.5000000000000008},{"rt":852,"stimulus":"\n                    <p><b>Action: <em>harvest</em></b></p>\n                    <p>This is the bee that you just saw.</p>\n                    <img src=\"bees-with-color/bee-B2SM.svg\" width=\"200\">\n                    <p><span class=\"greenText\"><b>Successful harvest!</b></span><br>Your pay has increased by $0.02. Your bonus pay is now $0.70.</p>\n            ","response":0,"trial_type":"html-button-response","trial_index":104,"time_elapsed":505574,"internal_node_id":"0.0-4.0-1.48","subject_id":"617186c68f898cccf15c1c3f","study_id":"6197b3f67c2b5cd3b6d9596a","session_id":"6197b571d9dfb5fe5025bf75","condition":"full-information","relevant_dimensions":["antennae","legs"],"bee_group":{"antennae":"A","wings":"X","pattern":"X","legs":"F"},"bonus":0.5000000000000008},{"rt":1621,"stimulus":"bees-with-color/bee-A1DF.svg","response":0,"trial_type":"image-button-response","trial_index":105,"time_elapsed":507194,"internal_node_id":"0.0-4.0-0.49","subject_id":"617186c68f898cccf15c1c3f","study_id":"6197b3f67c2b5cd3b6d9596a","session_id":"6197b571d9dfb5fe5025bf75","condition":"full-information","relevant_dimensions":["antennae","legs"],"bee_group":{"antennae":"A","wings":"X","pattern":"X","legs":"F"},"action":"harvest","summary":"bad-harvest","bonus":0.5000000000000008},{"rt":916,"stimulus":"\n                    <p><b>Action: <em>harvest</em></b></p>\n                    <p>This is the bee that you just saw.</p>\n                    <img src=\"bees-with-color/bee-A1DF.svg\" width=\"200\">\n                    <p><span class=\"redText\">Bad choice, the bee was angry.</span><br><b>You have been stung!</b><br>Your pay has been decreased by $0.10. Your bonus pay is now $0.60.</p>\n            ","response":0,"trial_type":"html-button-response","trial_index":106,"time_elapsed":508111,"internal_node_id":"0.0-4.0-1.49","subject_id":"617186c68f898cccf15c1c3f","study_id":"6197b3f67c2b5cd3b6d9596a","session_id":"6197b571d9dfb5fe5025bf75","condition":"full-information","relevant_dimensions":["antennae","legs"],"bee_group":{"antennae":"A","wings":"X","pattern":"X","legs":"F"},"bonus":0.5000000000000008},{"rt":3497,"stimulus":"bees-with-color/bee-B1DF.svg","response":1,"trial_type":"image-button-response","trial_index":107,"time_elapsed":511607,"internal_node_id":"0.0-4.0-0.50","subject_id":"617186c68f898cccf15c1c3f","study_id":"6197b3f67c2b5cd3b6d9596a","session_id":"6197b571d9dfb5fe5025bf75","condition":"full-information","relevant_dimensions":["antennae","legs"],"bee_group":{"antennae":"A","wings":"X","pattern":"X","legs":"F"},"action":"avoid","summary":"bad-avoid","bonus":0.5000000000000008},{"rt":554,"stimulus":"\n                    <p><b>Action: <em>avoid</em></b></p>\n                    <p>This is the bee that you just saw.</p>\n                    <img src=\"bees-with-color/bee-B1DF.svg\" width=\"200\">\n                    <p><span class=\"redText\">Bad choice,</span> the bee was friendly.<br>Your bonus pay is unchanged, and remains at $0.60.</p>\n            ","response":0,"trial_type":"html-button-response","trial_index":108,"time_elapsed":512162,"internal_node_id":"0.0-4.0-1.50","subject_id":"617186c68f898cccf15c1c3f","study_id":"6197b3f67c2b5cd3b6d9596a","session_id":"6197b571d9dfb5fe5025bf75","condition":"full-information","relevant_dimensions":["antennae","legs"],"bee_group":{"antennae":"A","wings":"X","pattern":"X","legs":"F"},"bonus":0.5000000000000008},{"rt":1569,"stimulus":"bees-with-color/bee-A1DM.svg","response":1,"trial_type":"image-button-response","trial_index":109,"time_elapsed":513731,"internal_node_id":"0.0-4.0-0.51","subject_id":"617186c68f898cccf15c1c3f","study_id":"6197b3f67c2b5cd3b6d9596a","session_id":"6197b571d9dfb5fe5025bf75","condition":"full-information","relevant_dimensions":["antennae","legs"],"bee_group":{"antennae":"A","wings":"X","pattern":"X","legs":"F"},"action":"avoid","summary":"bad-avoid","bonus":0.5000000000000008},{"rt":503,"stimulus":"\n                    <p><b>Action: <em>avoid</em></b></p>\n                    <p>This is the bee that you just saw.</p>\n                    <img src=\"bees-with-color/bee-A1DM.svg\" width=\"200\">\n                    <p><span class=\"redText\">Bad choice,</span> the bee was friendly.<br>Your bonus pay is unchanged, and remains at $0.60.</p>\n            ","response":0,"trial_type":"html-button-response","trial_index":110,"time_elapsed":514235,"internal_node_id":"0.0-4.0-1.51","subject_id":"617186c68f898cccf15c1c3f","study_id":"6197b3f67c2b5cd3b6d9596a","session_id":"6197b571d9dfb5fe5025bf75","condition":"full-information","relevant_dimensions":["antennae","legs"],"bee_group":{"antennae":"A","wings":"X","pattern":"X","legs":"F"},"bonus":0.5000000000000008},{"rt":906,"stimulus":"bees-with-color/bee-B2DM.svg","response":0,"trial_type":"image-button-response","trial_index":111,"time_elapsed":515141,"internal_node_id":"0.0-4.0-0.52","subject_id":"617186c68f898cccf15c1c3f","study_id":"6197b3f67c2b5cd3b6d9596a","session_id":"6197b571d9dfb5fe5025bf75","condition":"full-information","relevant_dimensions":["antennae","legs"],"bee_group":{"antennae":"A","wings":"X","pattern":"X","legs":"F"},"action":"harvest","summary":"good-harvest","bonus":0.5000000000000008},{"rt":588,"stimulus":"\n                    <p><b>Action: <em>harvest</em></b></p>\n                    <p>This is the bee that you just saw.</p>\n                    <img src=\"bees-with-color/bee-B2DM.svg\" width=\"200\">\n                    <p><span class=\"greenText\"><b>Successful harvest!</b></span><br>Your pay has increased by $0.02. Your bonus pay is now $0.62.</p>\n            ","response":0,"trial_type":"html-button-response","trial_index":112,"time_elapsed":515730,"internal_node_id":"0.0-4.0-1.52","subject_id":"617186c68f898cccf15c1c3f","study_id":"6197b3f67c2b5cd3b6d9596a","session_id":"6197b571d9dfb5fe5025bf75","condition":"full-information","relevant_dimensions":["antennae","legs"],"bee_group":{"antennae":"A","wings":"X","pattern":"X","legs":"F"},"bonus":0.5000000000000008},{"rt":2289,"stimulus":"bees-with-color/bee-B1SF.svg","response":1,"trial_type":"image-button-response","trial_index":113,"time_elapsed":518020,"internal_node_id":"0.0-4.0-0.53","subject_id":"617186c68f898cccf15c1c3f","study_id":"6197b3f67c2b5cd3b6d9596a","session_id":"6197b571d9dfb5fe5025bf75","condition":"full-information","relevant_dimensions":["antennae","legs"],"bee_group":{"antennae":"A","wings":"X","pattern":"X","legs":"F"},"action":"avoid","summary":"bad-avoid","bonus":0.5000000000000008},{"rt":719,"stimulus":"\n                    <p><b>Action: <em>avoid</em></b></p>\n                    <p>This is the bee that you just saw.</p>\n                    <img src=\"bees-with-color/bee-B1SF.svg\" width=\"200\">\n                    <p><span class=\"redText\">Bad choice,</span> the bee was friendly.<br>Your bonus pay is unchanged, and remains at $0.62.</p>\n            ","response":0,"trial_type":"html-button-response","trial_index":114,"time_elapsed":518739,"internal_node_id":"0.0-4.0-1.53","subject_id":"617186c68f898cccf15c1c3f","study_id":"6197b3f67c2b5cd3b6d9596a","session_id":"6197b571d9dfb5fe5025bf75","condition":"full-information","relevant_dimensions":["antennae","legs"],"bee_group":{"antennae":"A","wings":"X","pattern":"X","legs":"F"},"bonus":0.5000000000000008},{"rt":1899,"stimulus":"bees-with-color/bee-B1DM.svg","response":0,"trial_type":"image-button-response","trial_index":115,"time_elapsed":520638,"internal_node_id":"0.0-4.0-0.54","subject_id":"617186c68f898cccf15c1c3f","study_id":"6197b3f67c2b5cd3b6d9596a","session_id":"6197b571d9dfb5fe5025bf75","condition":"full-information","relevant_dimensions":["antennae","legs"],"bee_group":{"antennae":"A","wings":"X","pattern":"X","legs":"F"},"action":"harvest","summary":"good-harvest","bonus":0.5000000000000008},{"rt":638,"stimulus":"\n                    <p><b>Action: <em>harvest</em></b></p>\n                    <p>This is the bee that you just saw.</p>\n                    <img src=\"bees-with-color/bee-B1DM.svg\" width=\"200\">\n                    <p><span class=\"greenText\"><b>Successful harvest!</b></span><br>Your pay has increased by $0.02. Your bonus pay is now $0.64.</p>\n            ","response":0,"trial_type":"html-button-response","trial_index":116,"time_elapsed":521277,"internal_node_id":"0.0-4.0-1.54","subject_id":"617186c68f898cccf15c1c3f","study_id":"6197b3f67c2b5cd3b6d9596a","session_id":"6197b571d9dfb5fe5025bf75","condition":"full-information","relevant_dimensions":["antennae","legs"],"bee_group":{"antennae":"A","wings":"X","pattern":"X","legs":"F"},"bonus":0.5000000000000008},{"rt":1605,"stimulus":"bees-with-color/bee-A2SF.svg","response":1,"trial_type":"image-button-response","trial_index":117,"time_elapsed":522881,"internal_node_id":"0.0-4.0-0.55","subject_id":"617186c68f898cccf15c1c3f","study_id":"6197b3f67c2b5cd3b6d9596a","session_id":"6197b571d9dfb5fe5025bf75","condition":"full-information","relevant_dimensions":["antennae","legs"],"bee_group":{"antennae":"A","wings":"X","pattern":"X","legs":"F"},"action":"avoid","summary":"good-avoid","bonus":0.5000000000000008},{"rt":641,"stimulus":"\n                    <p><b>Action: <em>avoid</em></b></p>\n                    <p>This is the bee that you just saw.</p>\n                    <img src=\"bees-with-color/bee-A2SF.svg\" width=\"200\">\n                    <p><span class=\"greenText\">Good choice!</span>  This bee would have stung you.<br>Your bonus pay is unchanged, and remains at $0.64.</p>\n            ","response":0,"trial_type":"html-button-response","trial_index":118,"time_elapsed":523522,"internal_node_id":"0.0-4.0-1.55","subject_id":"617186c68f898cccf15c1c3f","study_id":"6197b3f67c2b5cd3b6d9596a","session_id":"6197b571d9dfb5fe5025bf75","condition":"full-information","relevant_dimensions":["antennae","legs"],"bee_group":{"antennae":"A","wings":"X","pattern":"X","legs":"F"},"bonus":0.5000000000000008},{"rt":2602,"stimulus":"bees-with-color/bee-B2SF.svg","response":1,"trial_type":"image-button-response","trial_index":119,"time_elapsed":526126,"internal_node_id":"0.0-4.0-0.56","subject_id":"617186c68f898cccf15c1c3f","study_id":"6197b3f67c2b5cd3b6d9596a","session_id":"6197b571d9dfb5fe5025bf75","condition":"full-information","relevant_dimensions":["antennae","legs"],"bee_group":{"antennae":"A","wings":"X","pattern":"X","legs":"F"},"action":"avoid","summary":"bad-avoid","bonus":0.5000000000000008},{"rt":513,"stimulus":"\n                    <p><b>Action: <em>avoid</em></b></p>\n                    <p>This is the bee that you just saw.</p>\n                    <img src=\"bees-with-color/bee-B2SF.svg\" width=\"200\">\n                    <p><span class=\"redText\">Bad choice,</span> the bee was friendly.<br>Your bonus pay is unchanged, and remains at $0.64.</p>\n            ","response":0,"trial_type":"html-button-response","trial_index":120,"time_elapsed":526639,"internal_node_id":"0.0-4.0-1.56","subject_id":"617186c68f898cccf15c1c3f","study_id":"6197b3f67c2b5cd3b6d9596a","session_id":"6197b571d9dfb5fe5025bf75","condition":"full-information","relevant_dimensions":["antennae","legs"],"bee_group":{"antennae":"A","wings":"X","pattern":"X","legs":"F"},"bonus":0.5000000000000008},{"rt":1512,"stimulus":"bees-with-color/bee-A2SM.svg","response":1,"trial_type":"image-button-response","trial_index":121,"time_elapsed":528152,"internal_node_id":"0.0-4.0-0.57","subject_id":"617186c68f898cccf15c1c3f","study_id":"6197b3f67c2b5cd3b6d9596a","session_id":"6197b571d9dfb5fe5025bf75","condition":"full-information","relevant_dimensions":["antennae","legs"],"bee_group":{"antennae":"A","wings":"X","pattern":"X","legs":"F"},"action":"avoid","summary":"bad-avoid","bonus":0.5000000000000008},{"rt":527,"stimulus":"\n                    <p><b>Action: <em>avoid</em></b></p>\n                    <p>This is the bee that you just saw.</p>\n                    <img src=\"bees-with-color/bee-A2SM.svg\" width=\"200\">\n                    <p><span class=\"redText\">Bad choice,</span> the bee was friendly.<br>Your bonus pay is unchanged, and remains at $0.64.</p>\n            ","response":0,"trial_type":"html-button-response","trial_index":122,"time_elapsed":528679,"internal_node_id":"0.0-4.0-1.57","subject_id":"617186c68f898cccf15c1c3f","study_id":"6197b3f67c2b5cd3b6d9596a","session_id":"6197b571d9dfb5fe5025bf75","condition":"full-information","relevant_dimensions":["antennae","legs"],"bee_group":{"antennae":"A","wings":"X","pattern":"X","legs":"F"},"bonus":0.5000000000000008},{"rt":1489,"stimulus":"bees-with-color/bee-A2DF.svg","response":1,"trial_type":"image-button-response","trial_index":123,"time_elapsed":530170,"internal_node_id":"0.0-4.0-0.58","subject_id":"617186c68f898cccf15c1c3f","study_id":"6197b3f67c2b5cd3b6d9596a","session_id":"6197b571d9dfb5fe5025bf75","condition":"full-information","relevant_dimensions":["antennae","legs"],"bee_group":{"antennae":"A","wings":"X","pattern":"X","legs":"F"},"action":"avoid","summary":"good-avoid","bonus":0.5000000000000008},{"rt":572,"stimulus":"\n                    <p><b>Action: <em>avoid</em></b></p>\n                    <p>This is the bee that you just saw.</p>\n                    <img src=\"bees-with-color/bee-A2DF.svg\" width=\"200\">\n                    <p><span class=\"greenText\">Good choice!</span>  This bee would have stung you.<br>Your bonus pay is unchanged, and remains at $0.64.</p>\n            ","response":0,"trial_type":"html-button-response","trial_index":124,"time_elapsed":530743,"internal_node_id":"0.0-4.0-1.58","subject_id":"617186c68f898cccf15c1c3f","study_id":"6197b3f67c2b5cd3b6d9596a","session_id":"6197b571d9dfb5fe5025bf75","condition":"full-information","relevant_dimensions":["antennae","legs"],"bee_group":{"antennae":"A","wings":"X","pattern":"X","legs":"F"},"bonus":0.5000000000000008},{"rt":3551,"stimulus":"bees-with-color/bee-A1SM.svg","response":1,"trial_type":"image-button-response","trial_index":125,"time_elapsed":534294,"internal_node_id":"0.0-4.0-0.59","subject_id":"617186c68f898cccf15c1c3f","study_id":"6197b3f67c2b5cd3b6d9596a","session_id":"6197b571d9dfb5fe5025bf75","condition":"full-information","relevant_dimensions":["antennae","legs"],"bee_group":{"antennae":"A","wings":"X","pattern":"X","legs":"F"},"action":"avoid","summary":"bad-avoid","bonus":0.5000000000000008},{"rt":595,"stimulus":"\n                    <p><b>Action: <em>avoid</em></b></p>\n                    <p>This is the bee that you just saw.</p>\n                    <img src=\"bees-with-color/bee-A1SM.svg\" width=\"200\">\n                    <p><span class=\"redText\">Bad choice,</span> the bee was friendly.<br>Your bonus pay is unchanged, and remains at $0.64.</p>\n            ","response":0,"trial_type":"html-button-response","trial_index":126,"time_elapsed":534889,"internal_node_id":"0.0-4.0-1.59","subject_id":"617186c68f898cccf15c1c3f","study_id":"6197b3f67c2b5cd3b6d9596a","session_id":"6197b571d9dfb5fe5025bf75","condition":"full-information","relevant_dimensions":["antennae","legs"],"bee_group":{"antennae":"A","wings":"X","pattern":"X","legs":"F"},"bonus":0.5000000000000008},{"rt":3072,"stimulus":"bees-with-color/bee-A1SF.svg","response":1,"trial_type":"image-button-response","trial_index":127,"time_elapsed":537962,"internal_node_id":"0.0-4.0-0.60","subject_id":"617186c68f898cccf15c1c3f","study_id":"6197b3f67c2b5cd3b6d9596a","session_id":"6197b571d9dfb5fe5025bf75","condition":"full-information","relevant_dimensions":["antennae","legs"],"bee_group":{"antennae":"A","wings":"X","pattern":"X","legs":"F"},"action":"avoid","summary":"good-avoid","bonus":0.5000000000000008},{"rt":841,"stimulus":"\n                    <p><b>Action: <em>avoid</em></b></p>\n                    <p>This is the bee that you just saw.</p>\n                    <img src=\"bees-with-color/bee-A1SF.svg\" width=\"200\">\n                    <p><span class=\"greenText\">Good choice!</span>  This bee would have stung you.<br>Your bonus pay is unchanged, and remains at $0.64.</p>\n            ","response":0,"trial_type":"html-button-response","trial_index":128,"time_elapsed":538803,"internal_node_id":"0.0-4.0-1.60","subject_id":"617186c68f898cccf15c1c3f","study_id":"6197b3f67c2b5cd3b6d9596a","session_id":"6197b571d9dfb5fe5025bf75","condition":"full-information","relevant_dimensions":["antennae","legs"],"bee_group":{"antennae":"A","wings":"X","pattern":"X","legs":"F"},"bonus":0.5000000000000008},{"rt":1958,"stimulus":"bees-with-color/bee-A2DM.svg","response":1,"trial_type":"image-button-response","trial_index":129,"time_elapsed":540763,"internal_node_id":"0.0-4.0-0.61","subject_id":"617186c68f898cccf15c1c3f","study_id":"6197b3f67c2b5cd3b6d9596a","session_id":"6197b571d9dfb5fe5025bf75","condition":"full-information","relevant_dimensions":["antennae","legs"],"bee_group":{"antennae":"A","wings":"X","pattern":"X","legs":"F"},"action":"avoid","summary":"bad-avoid","bonus":0.5000000000000008},{"rt":564,"stimulus":"\n                    <p><b>Action: <em>avoid</em></b></p>\n                    <p>This is the bee that you just saw.</p>\n                    <img src=\"bees-with-color/bee-A2DM.svg\" width=\"200\">\n                    <p><span class=\"redText\">Bad choice,</span> the bee was friendly.<br>Your bonus pay is unchanged, and remains at $0.64.</p>\n            ","response":0,"trial_type":"html-button-response","trial_index":130,"time_elapsed":541327,"internal_node_id":"0.0-4.0-1.61","subject_id":"617186c68f898cccf15c1c3f","study_id":"6197b3f67c2b5cd3b6d9596a","session_id":"6197b571d9dfb5fe5025bf75","condition":"full-information","relevant_dimensions":["antennae","legs"],"bee_group":{"antennae":"A","wings":"X","pattern":"X","legs":"F"},"bonus":0.5000000000000008},{"rt":857,"stimulus":"bees-with-color/bee-B1SM.svg","response":0,"trial_type":"image-button-response","trial_index":131,"time_elapsed":542185,"internal_node_id":"0.0-4.0-0.62","subject_id":"617186c68f898cccf15c1c3f","study_id":"6197b3f67c2b5cd3b6d9596a","session_id":"6197b571d9dfb5fe5025bf75","condition":"full-information","relevant_dimensions":["antennae","legs"],"bee_group":{"antennae":"A","wings":"X","pattern":"X","legs":"F"},"action":"harvest","summary":"good-harvest","bonus":0.5000000000000008},{"rt":609,"stimulus":"\n                    <p><b>Action: <em>harvest</em></b></p>\n                    <p>This is the bee that you just saw.</p>\n                    <img src=\"bees-with-color/bee-B1SM.svg\" width=\"200\">\n                    <p><span class=\"greenText\"><b>Successful harvest!</b></span><br>Your pay has increased by $0.02. Your bonus pay is now $0.66.</p>\n            ","response":0,"trial_type":"html-button-response","trial_index":132,"time_elapsed":542795,"internal_node_id":"0.0-4.0-1.62","subject_id":"617186c68f898cccf15c1c3f","study_id":"6197b3f67c2b5cd3b6d9596a","session_id":"6197b571d9dfb5fe5025bf75","condition":"full-information","relevant_dimensions":["antennae","legs"],"bee_group":{"antennae":"A","wings":"X","pattern":"X","legs":"F"},"bonus":0.5000000000000008},{"rt":1374,"stimulus":"bees-with-color/bee-B2DF.svg","response":1,"trial_type":"image-button-response","trial_index":133,"time_elapsed":544170,"internal_node_id":"0.0-4.0-0.63","subject_id":"617186c68f898cccf15c1c3f","study_id":"6197b3f67c2b5cd3b6d9596a","session_id":"6197b571d9dfb5fe5025bf75","condition":"full-information","relevant_dimensions":["antennae","legs"],"bee_group":{"antennae":"A","wings":"X","pattern":"X","legs":"F"},"action":"avoid","summary":"bad-avoid","bonus":0.5000000000000008},{"rt":543,"stimulus":"\n                    <p><b>Action: <em>avoid</em></b></p>\n                    <p>This is the bee that you just saw.</p>\n                    <img src=\"bees-with-color/bee-B2DF.svg\" width=\"200\">\n                    <p><span class=\"redText\">Bad choice,</span> the bee was friendly.<br>Your bonus pay is unchanged, and remains at $0.66.</p>\n            ","response":0,"trial_type":"html-button-response","trial_index":134,"time_elapsed":544712,"internal_node_id":"0.0-4.0-1.63","subject_id":"617186c68f898cccf15c1c3f","study_id":"6197b3f67c2b5cd3b6d9596a","session_id":"6197b571d9dfb5fe5025bf75","condition":"full-information","relevant_dimensions":["antennae","legs"],"bee_group":{"antennae":"A","wings":"X","pattern":"X","legs":"F"},"bonus":0.5000000000000008},{"rt":12283,"stimulus":"You have completed the first part of this experiment.<br><br>You will now begin a shorter second part, in which you will receive no feedback.<br>The same rules regarding bonus pay apply.<br><br>Press any key to begin.","response":"f","trial_type":"html-keyboard-response","trial_index":135,"time_elapsed":556996,"internal_node_id":"0.0-5.0","subject_id":"617186c68f898cccf15c1c3f","study_id":"6197b3f67c2b5cd3b6d9596a","session_id":"6197b571d9dfb5fe5025bf75","condition":"full-information","relevant_dimensions":["antennae","legs"],"bee_group":{"antennae":"A","wings":"X","pattern":"X","legs":"F"},"bonus":0.5000000000000008},{"rt":8179,"stimulus":"bees-with-color/bee-B1SM.svg","response":1,"trial_type":"image-button-response","trial_index":136,"time_elapsed":565175,"internal_node_id":"0.0-6.0-0.0","subject_id":"617186c68f898cccf15c1c3f","study_id":"6197b3f67c2b5cd3b6d9596a","session_id":"6197b571d9dfb5fe5025bf75","condition":"full-information","relevant_dimensions":["antennae","legs"],"bee_group":{"antennae":"A","wings":"X","pattern":"X","legs":"F"},"bonus":0.5000000000000008},{"rt":15338,"stimulus":"bees-with-color/bee-A1DF.svg","response":0,"trial_type":"image-button-response","trial_index":137,"time_elapsed":580515,"internal_node_id":"0.0-6.0-0.1","subject_id":"617186c68f898cccf15c1c3f","study_id":"6197b3f67c2b5cd3b6d9596a","session_id":"6197b571d9dfb5fe5025bf75","condition":"full-information","relevant_dimensions":["antennae","legs"],"bee_group":{"antennae":"A","wings":"X","pattern":"X","legs":"F"},"bonus":0.5000000000000008},{"rt":9403,"stimulus":"bees-with-color/bee-B2SF.svg","response":1,"trial_type":"image-button-response","trial_index":138,"time_elapsed":589918,"internal_node_id":"0.0-6.0-0.2","subject_id":"617186c68f898cccf15c1c3f","study_id":"6197b3f67c2b5cd3b6d9596a","session_id":"6197b571d9dfb5fe5025bf75","condition":"full-information","relevant_dimensions":["antennae","legs"],"bee_group":{"antennae":"A","wings":"X","pattern":"X","legs":"F"},"bonus":0.5000000000000008},{"rt":5284,"stimulus":"bees-with-color/bee-A2DM.svg","response":1,"trial_type":"image-button-response","trial_index":139,"time_elapsed":595202,"internal_node_id":"0.0-6.0-0.3","subject_id":"617186c68f898cccf15c1c3f","study_id":"6197b3f67c2b5cd3b6d9596a","session_id":"6197b571d9dfb5fe5025bf75","condition":"full-information","relevant_dimensions":["antennae","legs"],"bee_group":{"antennae":"A","wings":"X","pattern":"X","legs":"F"},"bonus":0.5000000000000008},{"rt":2519,"stimulus":"bees-with-color/bee-A2DF.svg","response":0,"trial_type":"image-button-response","trial_index":140,"time_elapsed":597721,"internal_node_id":"0.0-6.0-0.4","subject_id":"617186c68f898cccf15c1c3f","study_id":"6197b3f67c2b5cd3b6d9596a","session_id":"6197b571d9dfb5fe5025bf75","condition":"full-information","relevant_dimensions":["antennae","legs"],"bee_group":{"antennae":"A","wings":"X","pattern":"X","legs":"F"},"bonus":0.5000000000000008},{"rt":640,"stimulus":"bees-with-color/bee-B1DF.svg","response":1,"trial_type":"image-button-response","trial_index":141,"time_elapsed":598363,"internal_node_id":"0.0-6.0-0.5","subject_id":"617186c68f898cccf15c1c3f","study_id":"6197b3f67c2b5cd3b6d9596a","session_id":"6197b571d9dfb5fe5025bf75","condition":"full-information","relevant_dimensions":["antennae","legs"],"bee_group":{"antennae":"A","wings":"X","pattern":"X","legs":"F"},"bonus":0.5000000000000008},{"rt":590,"stimulus":"bees-with-color/bee-B2DM.svg","response":1,"trial_type":"image-button-response","trial_index":142,"time_elapsed":598953,"internal_node_id":"0.0-6.0-0.6","subject_id":"617186c68f898cccf15c1c3f","study_id":"6197b3f67c2b5cd3b6d9596a","session_id":"6197b571d9dfb5fe5025bf75","condition":"full-information","relevant_dimensions":["antennae","legs"],"bee_group":{"antennae":"A","wings":"X","pattern":"X","legs":"F"},"bonus":0.5000000000000008},{"rt":578,"stimulus":"bees-with-color/bee-B2SM.svg","response":0,"trial_type":"image-button-response","trial_index":143,"time_elapsed":599533,"internal_node_id":"0.0-6.0-0.7","subject_id":"617186c68f898cccf15c1c3f","study_id":"6197b3f67c2b5cd3b6d9596a","session_id":"6197b571d9dfb5fe5025bf75","condition":"full-information","relevant_dimensions":["antennae","legs"],"bee_group":{"antennae":"A","wings":"X","pattern":"X","legs":"F"},"bonus":0.5000000000000008},{"rt":443,"stimulus":"bees-with-color/bee-B2DF.svg","response":0,"trial_type":"image-button-response","trial_index":144,"time_elapsed":599976,"internal_node_id":"0.0-6.0-0.8","subject_id":"617186c68f898cccf15c1c3f","study_id":"6197b3f67c2b5cd3b6d9596a","session_id":"6197b571d9dfb5fe5025bf75","condition":"full-information","relevant_dimensions":["antennae","legs"],"bee_group":{"antennae":"A","wings":"X","pattern":"X","legs":"F"},"bonus":0.5000000000000008},{"rt":262,"stimulus":"bees-with-color/bee-A2SM.svg","response":0,"trial_type":"image-button-response","trial_index":145,"time_elapsed":600239,"internal_node_id":"0.0-6.0-0.9","subject_id":"617186c68f898cccf15c1c3f","study_id":"6197b3f67c2b5cd3b6d9596a","session_id":"6197b571d9dfb5fe5025bf75","condition":"full-information","relevant_dimensions":["antennae","legs"],"bee_group":{"antennae":"A","wings":"X","pattern":"X","legs":"F"},"bonus":0.5000000000000008},{"rt":424,"stimulus":"bees-with-color/bee-B1DM.svg","response":0,"trial_type":"image-button-response","trial_index":146,"time_elapsed":600663,"internal_node_id":"0.0-6.0-0.10","subject_id":"617186c68f898cccf15c1c3f","study_id":"6197b3f67c2b5cd3b6d9596a","session_id":"6197b571d9dfb5fe5025bf75","condition":"full-information","relevant_dimensions":["antennae","legs"],"bee_group":{"antennae":"A","wings":"X","pattern":"X","legs":"F"},"bonus":0.5000000000000008},{"rt":603,"stimulus":"bees-with-color/bee-A1DM.svg","response":1,"trial_type":"image-button-response","trial_index":147,"time_elapsed":601267,"internal_node_id":"0.0-6.0-0.11","subject_id":"617186c68f898cccf15c1c3f","study_id":"6197b3f67c2b5cd3b6d9596a","session_id":"6197b571d9dfb5fe5025bf75","condition":"full-information","relevant_dimensions":["antennae","legs"],"bee_group":{"antennae":"A","wings":"X","pattern":"X","legs":"F"},"bonus":0.5000000000000008},{"rt":2151,"stimulus":"bees-with-color/bee-A1SM.svg","response":0,"trial_type":"image-button-response","trial_index":148,"time_elapsed":603420,"internal_node_id":"0.0-6.0-0.12","subject_id":"617186c68f898cccf15c1c3f","study_id":"6197b3f67c2b5cd3b6d9596a","session_id":"6197b571d9dfb5fe5025bf75","condition":"full-information","relevant_dimensions":["antennae","legs"],"bee_group":{"antennae":"A","wings":"X","pattern":"X","legs":"F"},"bonus":0.5000000000000008},{"rt":287,"stimulus":"bees-with-color/bee-B1SF.svg","response":0,"trial_type":"image-button-response","trial_index":149,"time_elapsed":603707,"internal_node_id":"0.0-6.0-0.13","subject_id":"617186c68f898cccf15c1c3f","study_id":"6197b3f67c2b5cd3b6d9596a","session_id":"6197b571d9dfb5fe5025bf75","condition":"full-information","relevant_dimensions":["antennae","legs"],"bee_group":{"antennae":"A","wings":"X","pattern":"X","legs":"F"},"bonus":0.5000000000000008},{"rt":584,"stimulus":"bees-with-color/bee-A1SF.svg","response":1,"trial_type":"image-button-response","trial_index":150,"time_elapsed":604292,"internal_node_id":"0.0-6.0-0.14","subject_id":"617186c68f898cccf15c1c3f","study_id":"6197b3f67c2b5cd3b6d9596a","session_id":"6197b571d9dfb5fe5025bf75","condition":"full-information","relevant_dimensions":["antennae","legs"],"bee_group":{"antennae":"A","wings":"X","pattern":"X","legs":"F"},"bonus":0.5000000000000008},{"rt":291,"stimulus":"bees-with-color/bee-A2SF.svg","response":1,"trial_type":"image-button-response","trial_index":151,"time_elapsed":604583,"internal_node_id":"0.0-6.0-0.15","subject_id":"617186c68f898cccf15c1c3f","study_id":"6197b3f67c2b5cd3b6d9596a","session_id":"6197b571d9dfb5fe5025bf75","condition":"full-information","relevant_dimensions":["antennae","legs"],"bee_group":{"antennae":"A","wings":"X","pattern":"X","legs":"F"},"bonus":0.5000000000000008},{"rt":672,"stimulus":"bees-with-color/bee-B2DM.svg","response":0,"trial_type":"image-button-response","trial_index":152,"time_elapsed":605256,"internal_node_id":"0.0-6.0-0.16","subject_id":"617186c68f898cccf15c1c3f","study_id":"6197b3f67c2b5cd3b6d9596a","session_id":"6197b571d9dfb5fe5025bf75","condition":"full-information","relevant_dimensions":["antennae","legs"],"bee_group":{"antennae":"A","wings":"X","pattern":"X","legs":"F"},"bonus":0.5000000000000008},{"rt":256,"stimulus":"bees-with-color/bee-A2DM.svg","response":0,"trial_type":"image-button-response","trial_index":153,"time_elapsed":605513,"internal_node_id":"0.0-6.0-0.17","subject_id":"617186c68f898cccf15c1c3f","study_id":"6197b3f67c2b5cd3b6d9596a","session_id":"6197b571d9dfb5fe5025bf75","condition":"full-information","relevant_dimensions":["antennae","legs"],"bee_group":{"antennae":"A","wings":"X","pattern":"X","legs":"F"},"bonus":0.5000000000000008},{"rt":569,"stimulus":"bees-with-color/bee-B1SF.svg","response":1,"trial_type":"image-button-response","trial_index":154,"time_elapsed":606084,"internal_node_id":"0.0-6.0-0.18","subject_id":"617186c68f898cccf15c1c3f","study_id":"6197b3f67c2b5cd3b6d9596a","session_id":"6197b571d9dfb5fe5025bf75","condition":"full-information","relevant_dimensions":["antennae","legs"],"bee_group":{"antennae":"A","wings":"X","pattern":"X","legs":"F"},"bonus":0.5000000000000008},{"rt":221,"stimulus":"bees-with-color/bee-B2SM.svg","response":1,"trial_type":"image-button-response","trial_index":155,"time_elapsed":606306,"internal_node_id":"0.0-6.0-0.19","subject_id":"617186c68f898cccf15c1c3f","study_id":"6197b3f67c2b5cd3b6d9596a","session_id":"6197b571d9dfb5fe5025bf75","condition":"full-information","relevant_dimensions":["antennae","legs"],"bee_group":{"antennae":"A","wings":"X","pattern":"X","legs":"F"},"bonus":0.5000000000000008},{"rt":579,"stimulus":"bees-with-color/bee-A1DM.svg","response":0,"trial_type":"image-button-response","trial_index":156,"time_elapsed":606887,"internal_node_id":"0.0-6.0-0.20","subject_id":"617186c68f898cccf15c1c3f","study_id":"6197b3f67c2b5cd3b6d9596a","session_id":"6197b571d9dfb5fe5025bf75","condition":"full-information","relevant_dimensions":["antennae","legs"],"bee_group":{"antennae":"A","wings":"X","pattern":"X","legs":"F"},"bonus":0.5000000000000008},{"rt":172,"stimulus":"bees-with-color/bee-A1SF.svg","response":0,"trial_type":"image-button-response","trial_index":157,"time_elapsed":607060,"internal_node_id":"0.0-6.0-0.21","subject_id":"617186c68f898cccf15c1c3f","study_id":"6197b3f67c2b5cd3b6d9596a","session_id":"6197b571d9dfb5fe5025bf75","condition":"full-information","relevant_dimensions":["antennae","legs"],"bee_group":{"antennae":"A","wings":"X","pattern":"X","legs":"F"},"bonus":0.5000000000000008},{"rt":606,"stimulus":"bees-with-color/bee-B1DM.svg","response":1,"trial_type":"image-button-response","trial_index":158,"time_elapsed":607665,"internal_node_id":"0.0-6.0-0.22","subject_id":"617186c68f898cccf15c1c3f","study_id":"6197b3f67c2b5cd3b6d9596a","session_id":"6197b571d9dfb5fe5025bf75","condition":"full-information","relevant_dimensions":["antennae","legs"],"bee_group":{"antennae":"A","wings":"X","pattern":"X","legs":"F"},"bonus":0.5000000000000008},{"rt":165,"stimulus":"bees-with-color/bee-A1DF.svg","response":1,"trial_type":"image-button-response","trial_index":159,"time_elapsed":607830,"internal_node_id":"0.0-6.0-0.23","subject_id":"617186c68f898cccf15c1c3f","study_id":"6197b3f67c2b5cd3b6d9596a","session_id":"6197b571d9dfb5fe5025bf75","condition":"full-information","relevant_dimensions":["antennae","legs"],"bee_group":{"antennae":"A","wings":"X","pattern":"X","legs":"F"},"bonus":0.5000000000000008},{"rt":738,"stimulus":"bees-with-color/bee-B1SM.svg","response":0,"trial_type":"image-button-response","trial_index":160,"time_elapsed":608568,"internal_node_id":"0.0-6.0-0.24","subject_id":"617186c68f898cccf15c1c3f","study_id":"6197b3f67c2b5cd3b6d9596a","session_id":"6197b571d9dfb5fe5025bf75","condition":"full-information","relevant_dimensions":["antennae","legs"],"bee_group":{"antennae":"A","wings":"X","pattern":"X","legs":"F"},"bonus":0.5000000000000008},{"rt":153,"stimulus":"bees-with-color/bee-A2SF.svg","response":0,"trial_type":"image-button-response","trial_index":161,"time_elapsed":608724,"internal_node_id":"0.0-6.0-0.25","subject_id":"617186c68f898cccf15c1c3f","study_id":"6197b3f67c2b5cd3b6d9596a","session_id":"6197b571d9dfb5fe5025bf75","condition":"full-information","relevant_dimensions":["antennae","legs"],"bee_group":{"antennae":"A","wings":"X","pattern":"X","legs":"F"},"bonus":0.5000000000000008},{"rt":571,"stimulus":"bees-with-color/bee-A2SM.svg","response":1,"trial_type":"image-button-response","trial_index