[{"success":true,"trial_type":"fullscreen","trial_index":0,"time_elapsed":3003,"internal_node_id":"0.0-0.0","subject_id":"61574bf13948d617adccfa8d","study_id":"60edd13110225f80f9f3709b","session_id":"6196bf62f32da1dcd0f1cb0e","condition":"contingent","relevant_dimensions":["wings","pattern"],"bee_group":{"antennae":"X","wings":"1","pattern":"D","legs":"X"},"bonus":0.9400000000000008},{"success":true,"timeout":false,"failed_images":[],"failed_audio":[],"failed_video":[],"trial_type":"preload","trial_index":1,"time_elapsed":5065,"internal_node_id":"0.0-1.0","subject_id":"61574bf13948d617adccfa8d","study_id":"60edd13110225f80f9f3709b","session_id":"6196bf62f32da1dcd0f1cb0e","condition":"contingent","relevant_dimensions":["wings","pattern"],"bee_group":{"antennae":"X","wings":"1","pattern":"D","legs":"X"},"bonus":0.9400000000000008},{"rt":1666,"stimulus":"Welcome! Press any key to begin.","response":"enter","trial_type":"html-keyboard-response","trial_index":2,"time_elapsed":6732,"internal_node_id":"0.0-2.0","subject_id":"61574bf13948d617adccfa8d","study_id":"60edd13110225f80f9f3709b","session_id":"6196bf62f32da1dcd0f1cb0e","condition":"contingent","relevant_dimensions":["wings","pattern"],"bee_group":{"antennae":"X","wings":"1","pattern":"D","legs":"X"},"bonus":0.9400000000000008},{"view_history":[{"page_index":0,"viewing_time":2551},{"page_index":1,"viewing_time":7710},{"page_index":2,"viewing_time":6871},{"page_index":3,"viewing_time":13279},{"page_index":4,"viewing_time":5524},{"page_index":5,"viewing_time":4805},{"page_index":6,"viewing_time":6760},{"page_index":7,"viewing_time":4124},{"page_index":8,"viewing_time":3131},{"page_index":9,"viewing_time":2663},{"page_index":10,"viewing_time":1554},{"page_index":11,"viewing_time":6921},{"page_index":12,"viewing_time":5370},{"page_index":13,"viewing_time":1259},{"page_index":14,"viewing_time":1212}],"rt":73735,"trial_type":"instructions","trial_index":3,"time_elapsed":80467,"internal_node_id":"0.0-3.0-0.0","subject_id":"61574bf13948d617adccfa8d","study_id":"60edd13110225f80f9f3709b","session_id":"6196bf62f32da1dcd0f1cb0e","condition":"contingent","relevant_dimensions":["wings","pattern"],"bee_group":{"antennae":"X","wings":"1","pattern":"D","legs":"X"},"bonus":0.9400000000000008},{"rt":9511,"response":{"Q0":["Two or six legs","Stripes or spots on body","Single or double wings","Antennae or no antennae"]},"question_order":[0],"trial_type":"survey-multi-select","trial_index":4,"time_elapsed":89984,"internal_node_id":"0.0-3.0-1.0","subject_id":"61574bf13948d617adccfa8d","study_id":"60edd13110225f80f9f3709b","session_id":"6196bf62f32da1dcd0f1cb0e","condition":"contingent","relevant_dimensions":["wings","pattern"],"bee_group":{"antennae":"X","wings":"1","pattern":"D","legs":"X"},"correct":true,"bonus":0.9400000000000008},{"rt":11265,"response":{"Q1":"No.","Q2":"Based on the four features of the bee.","Q3":"You do not learn if it was friendly or dangerous, and do not alter your bonus."},"question_order":[0,1,2],"trial_type":"survey-multi-choice","trial_index":5,"time_elapsed":101252,"internal_node_id":"0.0-3.0-2.0","subject_id":"61574bf13948d617adccfa8d","study_id":"60edd13110225f80f9f3709b","session_id":"6196bf62f32da1dcd0f1cb0e","condition":"contingent","relevant_dimensions":["wings","pattern"],"bee_group":{"antennae":"X","wings":"1","pattern":"D","legs":"X"},"correct":true,"bonus":0.9400000000000008},{"rt":2452,"stimulus":"<p>Congrats, you got everything right<br>When you're ready, click the button below to continue to the experiment.</p>","response":0,"trial_type":"html-button-response","trial_index":6,"time_elapsed":103707,"internal_node_id":"0.0-3.0-3.0","subject_id":"61574bf13948d617adccfa8d","study_id":"60edd13110225f80f9f3709b","session_id":"6196bf62f32da1dcd0f1cb0e","condition":"contingent","relevant_dimensions":["wings","pattern"],"bee_group":{"antennae":"X","wings":"1","pattern":"D","legs":"X"},"bonus":0.9400000000000008},{"rt":2463,"stimulus":"bees-with-color/bee-A1SF.svg","response":0,"trial_type":"image-button-response","trial_index":7,"time_elapsed":106173,"internal_node_id":"0.0-4.0-0.0","subject_id":"61574bf13948d617adccfa8d","study_id":"60edd13110225f80f9f3709b","session_id":"6196bf62f32da1dcd0f1cb0e","condition":"contingent","relevant_dimensions":["wings","pattern"],"bee_group":{"antennae":"X","wings":"1","pattern":"D","legs":"X"},"action":"harvest","summary":"good-harvest","bonus":0.9400000000000008},{"rt":3789,"stimulus":"\n                    <p><b>Action: <em>harvest</em></b></p>\n                    <p>This is the bee that you just saw.</p>\n                    <img src=\"bees-with-color/bee-A1SF.svg\" width=\"200\">\n                    <p><span class=\"greenText\"><b>Successful harvest!</b></span><br>Your pay has increased by $0.02. Your bonus pay is now $0.56.</p>\n            ","response":0,"trial_type":"html-button-response","trial_index":8,"time_elapsed":109990,"internal_node_id":"0.0-4.0-1.0","subject_id":"61574bf13948d617adccfa8d","study_id":"60edd13110225f80f9f3709b","session_id":"6196bf62f32da1dcd0f1cb0e","condition":"contingent","relevant_dimensions":["wings","pattern"],"bee_group":{"antennae":"X","wings":"1","pattern":"D","legs":"X"},"bonus":0.9400000000000008},{"rt":1335,"stimulus":"bees-with-color/bee-A2DM.svg","response":1,"trial_type":"image-button-response","trial_index":9,"time_elapsed":111326,"internal_node_id":"0.0-4.0-0.1","subject_id":"61574bf13948d617adccfa8d","study_id":"60edd13110225f80f9f3709b","session_id":"6196bf62f32da1dcd0f1cb0e","condition":"contingent","relevant_dimensions":["wings","pattern"],"bee_group":{"antennae":"X","wings":"1","pattern":"D","legs":"X"},"action":"avoid","summary":"bad-avoid","bonus":0.9400000000000008},{"rt":3541,"stimulus":"\n                    <p><b>Action: <em>avoid</em></b></p>\n                    <p>This is the bee that you just saw.</p>\n                    <img src=\"bees-with-color/bee-A2DM.svg\" width=\"200\">\n                    <p><br>Your bonus pay is unchanged, and remains at $0.56.</p>\n            ","response":0,"trial_type":"html-button-response","trial_index":10,"time_elapsed":114870,"internal_node_id":"0.0-4.0-1.1","subject_id":"61574bf13948d617adccfa8d","study_id":"60edd13110225f80f9f3709b","session_id":"6196bf62f32da1dcd0f1cb0e","condition":"contingent","relevant_dimensions":["wings","pattern"],"bee_group":{"antennae":"X","wings":"1","pattern":"D","legs":"X"},"bonus":0.9400000000000008},{"rt":1269,"stimulus":"bees-with-color/bee-A1DF.svg","response":0,"trial_type":"image-button-response","trial_index":11,"time_elapsed":116140,"internal_node_id":"0.0-4.0-0.2","subject_id":"61574bf13948d617adccfa8d","study_id":"60edd13110225f80f9f3709b","session_id":"6196bf62f32da1dcd0f1cb0e","condition":"contingent","relevant_dimensions":["wings","pattern"],"bee_group":{"antennae":"X","wings":"1","pattern":"D","legs":"X"},"action":"harvest","summary":"bad-harvest","bonus":0.9400000000000008},{"rt":2314,"stimulus":"\n                    <p><b>Action: <em>harvest</em></b></p>\n                    <p>This is the bee that you just saw.</p>\n                    <img src=\"bees-with-color/bee-A1DF.svg\" width=\"200\">\n                    <p><span class=\"redText\">Bad choice, the bee was angry.</span><br><b>You have been stung!</b><br>Your pay has been decreased by $0.10. Your bonus pay is now $0.46.</p>\n            ","response":0,"trial_type":"html-button-response","trial_index":12,"time_elapsed":118456,"internal_node_id":"0.0-4.0-1.2","subject_id":"61574bf13948d617adccfa8d","study_id":"60edd13110225f80f9f3709b","session_id":"6196bf62f32da1dcd0f1cb0e","condition":"contingent","relevant_dimensions":["wings","pattern"],"bee_group":{"antennae":"X","wings":"1","pattern":"D","legs":"X"},"bonus":0.9400000000000008},{"rt":1242,"stimulus":"bees-with-color/bee-B1SM.svg","response":0,"trial_type":"image-button-response","trial_index":13,"time_elapsed":119700,"internal_node_id":"0.0-4.0-0.3","subject_id":"61574bf13948d617adccfa8d","study_id":"60edd13110225f80f9f3709b","session_id":"6196bf62f32da1dcd0f1cb0e","condition":"contingent","relevant_dimensions":["wings","pattern"],"bee_group":{"antennae":"X","wings":"1","pattern":"D","legs":"X"},"action":"harvest","summary":"good-harvest","bonus":0.9400000000000008},{"rt":974,"stimulus":"\n                    <p><b>Action: <em>harvest</em></b></p>\n                    <p>This is the bee that you just saw.</p>\n                    <img src=\"bees-with-color/bee-B1SM.svg\" width=\"200\">\n                    <p><span class=\"greenText\"><b>Successful harvest!</b></span><br>Your pay has increased by $0.02. Your bonus pay is now $0.48.</p>\n            ","response":0,"trial_type":"html-button-response","trial_index":14,"time_elapsed":120676,"internal_node_id":"0.0-4.0-1.3","subject_id":"61574bf13948d617adccfa8d","study_id":"60edd13110225f80f9f3709b","session_id":"6196bf62f32da1dcd0f1cb0e","condition":"contingent","relevant_dimensions":["wings","pattern"],"bee_group":{"antennae":"X","wings":"1","pattern":"D","legs":"X"},"bonus":0.9400000000000008},{"rt":1552,"stimulus":"bees-with-color/bee-B2SM.svg","response":0,"trial_type":"image-button-response","trial_index":15,"time_elapsed":122229,"internal_node_id":"0.0-4.0-0.4","subject_id":"61574bf13948d617adccfa8d","study_id":"60edd13110225f80f9f3709b","session_id":"6196bf62f32da1dcd0f1cb0e","condition":"contingent","relevant_dimensions":["wings","pattern"],"bee_group":{"antennae":"X","wings":"1","pattern":"D","legs":"X"},"action":"harvest","summary":"good-harvest","bonus":0.9400000000000008},{"rt":806,"stimulus":"\n                    <p><b>Action: <em>harvest</em></b></p>\n                    <p>This is the bee that you just saw.</p>\n                    <img src=\"bees-with-color/bee-B2SM.svg\" width=\"200\">\n                    <p><span class=\"greenText\"><b>Successful harvest!</b></span><br>Your pay has increased by $0.02. Your bonus pay is now $0.50.</p>\n            ","response":0,"trial_type":"html-button-response","trial_index":16,"time_elapsed":123037,"internal_node_id":"0.0-4.0-1.4","subject_id":"61574bf13948d617adccfa8d","study_id":"60edd13110225f80f9f3709b","session_id":"6196bf62f32da1dcd0f1cb0e","condition":"contingent","relevant_dimensions":["wings","pattern"],"bee_group":{"antennae":"X","wings":"1","pattern":"D","legs":"X"},"bonus":0.9400000000000008},{"rt":917,"stimulus":"bees-with-color/bee-A2SM.svg","response":0,"trial_type":"image-button-response","trial_index":17,"time_elapsed":123955,"internal_node_id":"0.0-4.0-0.5","subject_id":"61574bf13948d617adccfa8d","study_id":"60edd13110225f80f9f3709b","session_id":"6196bf62f32da1dcd0f1cb0e","condition":"contingent","relevant_dimensions":["wings","pattern"],"bee_group":{"antennae":"X","wings":"1","pattern":"D","legs":"X"},"action":"harvest","summary":"good-harvest","bonus":0.9400000000000008},{"rt":602,"stimulus":"\n                    <p><b>Action: <em>harvest</em></b></p>\n                    <p>This is the bee that you just saw.</p>\n                    <img src=\"bees-with-color/bee-A2SM.svg\" width=\"200\">\n                    <p><span class=\"greenText\"><b>Successful harvest!</b></span><br>Your pay has increased by $0.02. Your bonus pay is now $0.52.</p>\n            ","response":0,"trial_type":"html-button-response","trial_index":18,"time_elapsed":124557,"internal_node_id":"0.0-4.0-1.5","subject_id":"61574bf13948d617adccfa8d","study_id":"60edd13110225f80f9f3709b","session_id":"6196bf62f32da1dcd0f1cb0e","condition":"contingent","relevant_dimensions":["wings","pattern"],"bee_group":{"antennae":"X","wings":"1","pattern":"D","legs":"X"},"bonus":0.9400000000000008},{"rt":1221,"stimulus":"bees-with-color/bee-B1SF.svg","response":0,"trial_type":"image-button-response","trial_index":19,"time_elapsed":125780,"internal_node_id":"0.0-4.0-0.6","subject_id":"61574bf13948d617adccfa8d","study_id":"60edd13110225f80f9f3709b","session_id":"6196bf62f32da1dcd0f1cb0e","condition":"contingent","relevant_dimensions":["wings","pattern"],"bee_group":{"antennae":"X","wings":"1","pattern":"D","legs":"X"},"action":"harvest","summary":"good-harvest","bonus":0.9400000000000008},{"rt":664,"stimulus":"\n                    <p><b>Action: <em>harvest</em></b></p>\n                    <p>This is the bee that you just saw.</p>\n                    <img src=\"bees-with-color/bee-B1SF.svg\" width=\"200\">\n                    <p><span class=\"greenText\"><b>Successful harvest!</b></span><br>Your pay has increased by $0.02. Your bonus pay is now $0.54.</p>\n            ","response":0,"trial_type":"html-button-response","trial_index":20,"time_elapsed":126445,"internal_node_id":"0.0-4.0-1.6","subject_id":"61574bf13948d617adccfa8d","study_id":"60edd13110225f80f9f3709b","session_id":"6196bf62f32da1dcd0f1cb0e","condition":"contingent","relevant_dimensions":["wings","pattern"],"bee_group":{"antennae":"X","wings":"1","pattern":"D","legs":"X"},"bonus":0.9400000000000008},{"rt":1203,"stimulus":"bees-with-color/bee-A1DM.svg","response":0,"trial_type":"image-button-response","trial_index":21,"time_elapsed":127650,"internal_node_id":"0.0-4.0-0.7","subject_id":"61574bf13948d617adccfa8d","study_id":"60edd13110225f80f9f3709b","session_id":"6196bf62f32da1dcd0f1cb0e","condition":"contingent","relevant_dimensions":["wings","pattern"],"bee_group":{"antennae":"X","wings":"1","pattern":"D","legs":"X"},"action":"harvest","summary":"bad-harvest","bonus":0.9400000000000008},{"rt":1039,"stimulus":"\n                    <p><b>Action: <em>harvest</em></b></p>\n                    <p>This is the bee that you just saw.</p>\n                    <img src=\"bees-with-color/bee-A1DM.svg\" width=\"200\">\n                    <p><span class=\"redText\">Bad choice, the bee was angry.</span><br><b>You have been stung!</b><br>Your pay has been decreased by $0.10. Your bonus pay is now $0.44.</p>\n            ","response":0,"trial_type":"html-button-response","trial_index":22,"time_elapsed":128690,"internal_node_id":"0.0-4.0-1.7","subject_id":"61574bf13948d617adccfa8d","study_id":"60edd13110225f80f9f3709b","session_id":"6196bf62f32da1dcd0f1cb0e","condition":"contingent","relevant_dimensions":["wings","pattern"],"bee_group":{"antennae":"X","wings":"1","pattern":"D","legs":"X"},"bonus":0.9400000000000008},{"rt":1115,"stimulus":"bees-with-color/bee-B1DM.svg","response":1,"trial_type":"image-button-response","trial_index":23,"time_elapsed":129807,"internal_node_id":"0.0-4.0-0.8","subject_id":"61574bf13948d617adccfa8d","study_id":"60edd13110225f80f9f3709b","session_id":"6196bf62f32da1dcd0f1cb0e","condition":"contingent","relevant_dimensions":["wings","pattern"],"bee_group":{"antennae":"X","wings":"1","pattern":"D","legs":"X"},"action":"avoid","summary":"good-avoid","bonus":0.9400000000000008},{"rt":558,"stimulus":"\n                    <p><b>Action: <em>avoid</em></b></p>\n                    <p>This is the bee that you just saw.</p>\n                    <img src=\"bees-with-color/bee-B1DM.svg\" width=\"200\">\n                    <p><br>Your bonus pay is unchanged, and remains at $0.44.</p>\n            ","response":0,"trial_type":"html-button-response","trial_index":24,"time_elapsed":130367,"internal_node_id":"0.0-4.0-1.8","subject_id":"61574bf13948d617adccfa8d","study_id":"60edd13110225f80f9f3709b","session_id":"6196bf62f32da1dcd0f1cb0e","condition":"contingent","relevant_dimensions":["wings","pattern"],"bee_group":{"antennae":"X","wings":"1","pattern":"D","legs":"X"},"bonus":0.9400000000000008},{"rt":956,"stimulus":"bees-with-color/bee-B2DF.svg","response":1,"trial_type":"image-button-response","trial_index":25,"time_elapsed":131324,"internal_node_id":"0.0-4.0-0.9","subject_id":"61574bf13948d617adccfa8d","study_id":"60edd13110225f80f9f3709b","session_id":"6196bf62f32da1dcd0f1cb0e","condition":"contingent","relevant_dimensions":["wings","pattern"],"bee_group":{"antennae":"X","wings":"1","pattern":"D","legs":"X"},"action":"avoid","summary":"bad-avoid","bonus":0.9400000000000008},{"rt":661,"stimulus":"\n                    <p><b>Action: <em>avoid</em></b></p>\n                    <p>This is the bee that you just saw.</p>\n                    <img src=\"bees-with-color/bee-B2DF.svg\" width=\"200\">\n                    <p><br>Your bonus pay is unchanged, and remains at $0.44.</p>\n            ","response":0,"trial_type":"html-button-response","trial_index":26,"time_elapsed":131988,"internal_node_id":"0.0-4.0-1.9","subject_id":"61574bf13948d617adccfa8d","study_id":"60edd13110225f80f9f3709b","session_id":"6196bf62f32da1dcd0f1cb0e","condition":"contingent","relevant_dimensions":["wings","pattern"],"bee_group":{"antennae":"X","wings":"1","pattern":"D","legs":"X"},"bonus":0.9400000000000008},{"rt":617,"stimulus":"bees-with-color/bee-B2DM.svg","response":1,"trial_type":"image-button-response","trial_index":27,"time_elapsed":132607,"internal_node_id":"0.0-4.0-0.10","subject_id":"61574bf13948d617adccfa8d","study_id":"60edd13110225f80f9f3709b","session_id":"6196bf62f32da1dcd0f1cb0e","condition":"contingent","relevant_dimensions":["wings","pattern"],"bee_group":{"antennae":"X","wings":"1","pattern":"D","legs":"X"},"action":"avoid","summary":"bad-avoid","bonus":0.9400000000000008},{"rt":466,"stimulus":"\n                    <p><b>Action: <em>avoid</em></b></p>\n                    <p>This is the bee that you just saw.</p>\n                    <img src=\"bees-with-color/bee-B2DM.svg\" width=\"200\">\n                    <p><br>Your bonus pay is unchanged, and remains at $0.44.</p>\n            ","response":0,"trial_type":"html-button-response","trial_index":28,"time_elapsed":133074,"internal_node_id":"0.0-4.0-1.10","subject_id":"61574bf13948d617adccfa8d","study_id":"60edd13110225f80f9f3709b","session_id":"6196bf62f32da1dcd0f1cb0e","condition":"contingent","relevant_dimensions":["wings","pattern"],"bee_group":{"antennae":"X","wings":"1","pattern":"D","legs":"X"},"bonus":0.9400000000000008},{"rt":806,"stimulus":"bees-with-color/bee-A2SF.svg","response":0,"trial_type":"image-button-response","trial_index":29,"time_elapsed":133882,"internal_node_id":"0.0-4.0-0.11","subject_id":"61574bf13948d617adccfa8d","study_id":"60edd13110225f80f9f3709b","session_id":"6196bf62f32da1dcd0f1cb0e","condition":"contingent","relevant_dimensions":["wings","pattern"],"bee_group":{"antennae":"X","wings":"1","pattern":"D","legs":"X"},"action":"harvest","summary":"good-harvest","bonus":0.9400000000000008},{"rt":643,"stimulus":"\n                    <p><b>Action: <em>harvest</em></b></p>\n                    <p>This is the bee that you just saw.</p>\n                    <img src=\"bees-with-color/bee-A2SF.svg\" width=\"200\">\n                    <p><span class=\"greenText\"><b>Successful harvest!</b></span><br>Your pay has increased by $0.02. Your bonus pay is now $0.46.</p>\n            ","response":0,"trial_type":"html-button-response","trial_index":30,"time_elapsed":134526,"internal_node_id":"0.0-4.0-1.11","subject_id":"61574bf13948d617adccfa8d","study_id":"60edd13110225f80f9f3709b","session_id":"6196bf62f32da1dcd0f1cb0e","condition":"contingent","relevant_dimensions":["wings","pattern"],"bee_group":{"antennae":"X","wings":"1","pattern":"D","legs":"X"},"bonus":0.9400000000000008},{"rt":588,"stimulus":"bees-with-color/bee-B2SF.svg","response":0,"trial_type":"image-button-response","trial_index":31,"time_elapsed":135117,"internal_node_id":"0.0-4.0-0.12","subject_id":"61574bf13948d617adccfa8d","study_id":"60edd13110225f80f9f3709b","session_id":"6196bf62f32da1dcd0f1cb0e","condition":"contingent","relevant_dimensions":["wings","pattern"],"bee_group":{"antennae":"X","wings":"1","pattern":"D","legs":"X"},"action":"harvest","summary":"good-harvest","bonus":0.9400000000000008},{"rt":456,"stimulus":"\n                    <p><b>Action: <em>harvest</em></b></p>\n                    <p>This is the bee that you just saw.</p>\n                    <img src=\"bees-with-color/bee-B2SF.svg\" width=\"200\">\n                    <p><span class=\"greenText\"><b>Successful harvest!</b></span><br>Your pay has increased by $0.02. Your bonus pay is now $0.48.</p>\n            ","response":0,"trial_type":"html-button-response","trial_index":32,"time_elapsed":135574,"internal_node_id":"0.0-4.0-1.12","subject_id":"61574bf13948d617adccfa8d","study_id":"60edd13110225f80f9f3709b","session_id":"6196bf62f32da1dcd0f1cb0e","condition":"contingent","relevant_dimensions":["wings","pattern"],"bee_group":{"antennae":"X","wings":"1","pattern":"D","legs":"X"},"bonus":0.9400000000000008},{"rt":842,"stimulus":"bees-with-color/bee-A1SM.svg","response":0,"trial_type":"image-button-response","trial_index":33,"time_elapsed":136419,"internal_node_id":"0.0-4.0-0.13","subject_id":"61574bf13948d617adccfa8d","study_id":"60edd13110225f80f9f3709b","session_id":"6196bf62f32da1dcd0f1cb0e","condition":"contingent","relevant_dimensions":["wings","pattern"],"bee_group":{"antennae":"X","wings":"1","pattern":"D","legs":"X"},"action":"harvest","summary":"good-harvest","bonus":0.9400000000000008},{"rt":549,"stimulus":"\n                    <p><b>Action: <em>harvest</em></b></p>\n                    <p>This is the bee that you just saw.</p>\n                    <img src=\"bees-with-color/bee-A1SM.svg\" width=\"200\">\n                    <p><span class=\"greenText\"><b>Successful harvest!</b></span><br>Your pay has increased by $0.02. Your bonus pay is now $0.50.</p>\n            ","response":0,"trial_type":"html-button-response","trial_index":34,"time_elapsed":136970,"internal_node_id":"0.0-4.0-1.13","subject_id":"61574bf13948d617adccfa8d","study_id":"60edd13110225f80f9f3709b","session_id":"6196bf62f32da1dcd0f1cb0e","condition":"contingent","relevant_dimensions":["wings","pattern"],"bee_group":{"antennae":"X","wings":"1","pattern":"D","legs":"X"},"bonus":0.9400000000000008},{"rt":774,"stimulus":"bees-with-color/bee-A2DF.svg","response":1,"trial_type":"image-button-response","trial_index":35,"time_elapsed":137746,"internal_node_id":"0.0-4.0-0.14","subject_id":"61574bf13948d617adccfa8d","study_id":"60edd13110225f80f9f3709b","session_id":"6196bf62f32da1dcd0f1cb0e","condition":"contingent","relevant_dimensions":["wings","pattern"],"bee_group":{"antennae":"X","wings":"1","pattern":"D","legs":"X"},"action":"avoid","summary":"bad-avoid","bonus":0.9400000000000008},{"rt":590,"stimulus":"\n                    <p><b>Action: <em>avoid</em></b></p>\n                    <p>This is the bee that you just saw.</p>\n                    <img src=\"bees-with-color/bee-A2DF.svg\" width=\"200\">\n                    <p><br>Your bonus pay is unchanged, and remains at $0.50.</p>\n            ","response":0,"trial_type":"html-button-response","trial_index":36,"time_elapsed":138338,"internal_node_id":"0.0-4.0-1.14","subject_id":"61574bf13948d617adccfa8d","study_id":"60edd13110225f80f9f3709b","session_id":"6196bf62f32da1dcd0f1cb0e","condition":"contingent","relevant_dimensions":["wings","pattern"],"bee_group":{"antennae":"X","wings":"1","pattern":"D","legs":"X"},"bonus":0.9400000000000008},{"rt":665,"stimulus":"bees-with-color/bee-B1DF.svg","response":1,"trial_type":"image-button-response","trial_index":37,"time_elapsed":139005,"internal_node_id":"0.0-4.0-0.15","subject_id":"61574bf13948d617adccfa8d","study_id":"60edd13110225f80f9f3709b","session_id":"6196bf62f32da1dcd0f1cb0e","condition":"contingent","relevant_dimensions":["wings","pattern"],"bee_group":{"antennae":"X","wings":"1","pattern":"D","legs":"X"},"action":"avoid","summary":"good-avoid","bonus":0.9400000000000008},{"rt":447,"stimulus":"\n                    <p><b>Action: <em>avoid</em></b></p>\n                    <p>This is the bee that you just saw.</p>\n                    <img src=\"bees-with-color/bee-B1DF.svg\" width=\"200\">\n                    <p><br>Your bonus pay is unchanged, and remains at $0.50.</p>\n            ","response":0,"trial_type":"html-button-response","trial_index":38,"time_elapsed":139455,"internal_node_id":"0.0-4.0-1.15","subject_id":"61574bf13948d617adccfa8d","study_id":"60edd13110225f80f9f3709b","session_id":"6196bf62f32da1dcd0f1cb0e","condition":"contingent","relevant_dimensions":["wings","pattern"],"bee_group":{"antennae":"X","wings":"1","pattern":"D","legs":"X"},"bonus":0.9400000000000008},{"rt":886,"stimulus":"bees-with-color/bee-A1SF.svg","response":0,"trial_type":"image-button-response","trial_index":39,"time_elapsed":140343,"internal_node_id":"0.0-4.0-0.16","subject_id":"61574bf13948d617adccfa8d","study_id":"60edd13110225f80f9f3709b","session_id":"6196bf62f32da1dcd0f1cb0e","condition":"contingent","relevant_dimensions":["wings","pattern"],"bee_group":{"antennae":"X","wings":"1","pattern":"D","legs":"X"},"action":"harvest","summary":"good-harvest","bonus":0.9400000000000008},{"rt":829,"stimulus":"\n                    <p><b>Action: <em>harvest</em></b></p>\n                    <p>This is the bee that you just saw.</p>\n                    <img src=\"bees-with-color/bee-A1SF.svg\" width=\"200\">\n                    <p><span class=\"greenText\"><b>Successful harvest!</b></span><br>Your pay has increased by $0.02. Your bonus pay is now $0.52.</p>\n            ","response":0,"trial_type":"html-button-response","trial_index":40,"time_elapsed":141174,"internal_node_id":"0.0-4.0-1.16","subject_id":"61574bf13948d617adccfa8d","study_id":"60edd13110225f80f9f3709b","session_id":"6196bf62f32da1dcd0f1cb0e","condition":"contingent","relevant_dimensions":["wings","pattern"],"bee_group":{"antennae":"X","wings":"1","pattern":"D","legs":"X"},"bonus":0.9400000000000008},{"rt":1490,"stimulus":"bees-with-color/bee-A2SM.svg","response":0,"trial_type":"image-button-response","trial_index":41,"time_elapsed":142666,"internal_node_id":"0.0-4.0-0.17","subject_id":"61574bf13948d617adccfa8d","study_id":"60edd13110225f80f9f3709b","session_id":"6196bf62f32da1dcd0f1cb0e","condition":"contingent","relevant_dimensions":["wings","pattern"],"bee_group":{"antennae":"X","wings":"1","pattern":"D","legs":"X"},"action":"harvest","summary":"good-harvest","bonus":0.9400000000000008},{"rt":539,"stimulus":"\n                    <p><b>Action: <em>harvest</em></b></p>\n                    <p>This is the bee that you just saw.</p>\n                    <img src=\"bees-with-color/bee-A2SM.svg\" width=\"200\">\n                    <p><span class=\"greenText\"><b>Successful harvest!</b></span><br>Your pay has increased by $0.02. Your bonus pay is now $0.54.</p>\n            ","response":0,"trial_type":"html-button-response","trial_index":42,"time_elapsed":143206,"internal_node_id":"0.0-4.0-1.17","subject_id":"61574bf13948d617adccfa8d","study_id":"60edd13110225f80f9f3709b","session_id":"6196bf62f32da1dcd0f1cb0e","condition":"contingent","relevant_dimensions":["wings","pattern"],"bee_group":{"antennae":"X","wings":"1","pattern":"D","legs":"X"},"bonus":0.9400000000000008},{"rt":655,"stimulus":"bees-with-color/bee-A1DF.svg","response":1,"trial_type":"image-button-response","trial_index":43,"time_elapsed":143863,"internal_node_id":"0.0-4.0-0.18","subject_id":"61574bf13948d617adccfa8d","study_id":"60edd13110225f80f9f3709b","session_id":"6196bf62f32da1dcd0f1cb0e","condition":"contingent","relevant_dimensions":["wings","pattern"],"bee_group":{"antennae":"X","wings":"1","pattern":"D","legs":"X"},"action":"avoid","summary":"good-avoid","bonus":0.9400000000000008},{"rt":560,"stimulus":"\n                    <p><b>Action: <em>avoid</em></b></p>\n                    <p>This is the bee that you just saw.</p>\n                    <img src=\"bees-with-color/bee-A1DF.svg\" width=\"200\">\n                    <p><br>Your bonus pay is unchanged, and remains at $0.54.</p>\n            ","response":0,"trial_type":"html-button-response","trial_index":44,"time_elapsed":144423,"internal_node_id":"0.0-4.0-1.18","subject_id":"61574bf13948d617adccfa8d","study_id":"60edd13110225f80f9f3709b","session_id":"6196bf62f32da1dcd0f1cb0e","condition":"contingent","relevant_dimensions":["wings","pattern"],"bee_group":{"antennae":"X","wings":"1","pattern":"D","legs":"X"},"bonus":0.9400000000000008},{"rt":799,"stimulus":"bees-with-color/bee-B2SF.svg","response":0,"trial_type":"image-button-response","trial_index":45,"time_elapsed":145223,"internal_node_id":"0.0-4.0-0.19","subject_id":"61574bf13948d617adccfa8d","study_id":"60edd13110225f80f9f3709b","session_id":"6196bf62f32da1dcd0f1cb0e","condition":"contingent","relevant_dimensions":["wings","pattern"],"bee_group":{"antennae":"X","wings":"1","pattern":"D","legs":"X"},"action":"harvest","summary":"good-harvest","bonus":0.9400000000000008},{"rt":591,"stimulus":"\n                    <p><b>Action: <em>harvest</em></b></p>\n                    <p>This is the bee that you just saw.</p>\n                    <img src=\"bees-with-color/bee-B2SF.svg\" width=\"200\">\n                    <p><span class=\"greenText\"><b>Successful harvest!</b></span><br>Your pay has increased by $0.02. Your bonus pay is now $0.56.</p>\n            ","response":0,"trial_type":"html-button-response","trial_index":46,"time_elapsed":145815,"internal_node_id":"0.0-4.0-1.19","subject_id":"61574bf13948d617adccfa8d","study_id":"60edd13110225f80f9f3709b","session_id":"6196bf62f32da1dcd0f1cb0e","condition":"contingent","relevant_dimensions":["wings","pattern"],"bee_group":{"antennae":"X","wings":"1","pattern":"D","legs":"X"},"bonus":0.9400000000000008},{"rt":566,"stimulus":"bees-with-color/bee-B2SM.svg","response":1,"trial_type":"image-button-response","trial_index":47,"time_elapsed":146384,"internal_node_id":"0.0-4.0-0.20","subject_id":"61574bf13948d617adccfa8d","study_id":"60edd13110225f80f9f3709b","session_id":"6196bf62f32da1dcd0f1cb0e","condition":"contingent","relevant_dimensions":["wings","pattern"],"bee_group":{"antennae":"X","wings":"1","pattern":"D","legs":"X"},"action":"avoid","summary":"bad-avoid","bonus":0.9400000000000008},{"rt":855,"stimulus":"\n                    <p><b>Action: <em>avoid</em></b></p>\n                    <p>This is the bee that you just saw.</p>\n                    <img src=\"bees-with-color/bee-B2SM.svg\" width=\"200\">\n                    <p><br>Your bonus pay is unchanged, and remains at $0.56.</p>\n            ","response":0,"trial_type":"html-button-response","trial_index":48,"time_elapsed":147240,"internal_node_id":"0.0-4.0-1.20","subject_id":"61574bf13948d617adccfa8d","study_id":"60edd13110225f80f9f3709b","session_id":"6196bf62f32da1dcd0f1cb0e","condition":"contingent","relevant_dimensions":["wings","pattern"],"bee_group":{"antennae":"X","wings":"1","pattern":"D","legs":"X"},"bonus":0.9400000000000008},{"rt":878,"stimulus":"bees-with-color/bee-B1DF.svg","response":1,"trial_type":"image-button-response","trial_index":49,"time_elapsed":148119,"internal_node_id":"0.0-4.0-0.21","subject_id":"61574bf13948d617adccfa8d","study_id":"60edd13110225f80f9f3709b","session_id":"6196bf62f32da1dcd0f1cb0e","condition":"contingent","relevant_dimensions":["wings","pattern"],"bee_group":{"antennae":"X","wings":"1","pattern":"D","legs":"X"},"action":"avoid","summary":"good-avoid","bonus":0.9400000000000008},{"rt":492,"stimulus":"\n                    <p><b>Action: <em>avoid</em></b></p>\n                    <p>This is the bee that you just saw.</p>\n                    <img src=\"bees-with-color/bee-B1DF.svg\" width=\"200\">\n                    <p><br>Your bonus pay is unchanged, and remains at $0.56.</p>\n            ","response":0,"trial_type":"html-button-response","trial_index":50,"time_elapsed":148612,"internal_node_id":"0.0-4.0-1.21","subject_id":"61574bf13948d617adccfa8d","study_id":"60edd13110225f80f9f3709b","session_id":"6196bf62f32da1dcd0f1cb0e","condition":"contingent","relevant_dimensions":["wings","pattern"],"bee_group":{"antennae":"X","wings":"1","pattern":"D","legs":"X"},"bonus":0.9400000000000008},{"rt":971,"stimulus":"bees-with-color/bee-B1SM.svg","response":0,"trial_type":"image-button-response","trial_index":51,"time_elapsed":149584,"internal_node_id":"0.0-4.0-0.22","subject_id":"61574bf13948d617adccfa8d","study_id":"60edd13110225f80f9f3709b","session_id":"6196bf62f32da1dcd0f1cb0e","condition":"contingent","relevant_dimensions":["wings","pattern"],"bee_group":{"antennae":"X","wings":"1","pattern":"D","legs":"X"},"action":"harvest","summary":"good-harvest","bonus":0.9400000000000008},{"rt":1060,"stimulus":"\n                    <p><b>Action: <em>harvest</em></b></p>\n                    <p>This is the bee that you just saw.</p>\n                    <img src=\"bees-with-color/bee-B1SM.svg\" width=\"200\">\n                    <p><span class=\"greenText\"><b>Successful harvest!</b></span><br>Your pay has increased by $0.02. Your bonus pay is now $0.58.</p>\n            ","response":0,"trial_type":"html-button-response","trial_index":52,"time_elapsed":150645,"internal_node_id":"0.0-4.0-1.22","subject_id":"61574bf13948d617adccfa8d","study_id":"60edd13110225f80f9f3709b","session_id":"6196bf62f32da1dcd0f1cb0e","condition":"contingent","relevant_dimensions":["wings","pattern"],"bee_group":{"antennae":"X","wings":"1","pattern":"D","legs":"X"},"bonus":0.9400000000000008},{"rt":788,"stimulus":"bees-with-color/bee-A2SF.svg","response":0,"trial_type":"image-button-response","trial_index":53,"time_elapsed":151435,"internal_node_id":"0.0-4.0-0.23","subject_id":"61574bf13948d617adccfa8d","study_id":"60edd13110225f80f9f3709b","session_id":"6196bf62f32da1dcd0f1cb0e","condition":"contingent","relevant_dimensions":["wings","pattern"],"bee_group":{"antennae":"X","wings":"1","pattern":"D","legs":"X"},"action":"harvest","summary":"good-harvest","bonus":0.9400000000000008},{"rt":499,"stimulus":"\n                    <p><b>Action: <em>harvest</em></b></p>\n                    <p>This is the bee that you just saw.</p>\n                    <img src=\"bees-with-color/bee-A2SF.svg\" width=\"200\">\n                    <p><span class=\"greenText\"><b>Successful harvest!</b></span><br>Your pay has increased by $0.02. Your bonus pay is now $0.60.</p>\n            ","response":0,"trial_type":"html-button-response","trial_index":54,"time_elapsed":151935,"internal_node_id":"0.0-4.0-1.23","subject_id":"61574bf13948d617adccfa8d","study_id":"60edd13110225f80f9f3709b","session_id":"6196bf62f32da1dcd0f1cb0e","condition":"contingent","relevant_dimensions":["wings","pattern"],"bee_group":{"antennae":"X","wings":"1","pattern":"D","legs":"X"},"bonus":0.9400000000000008},{"rt":1504,"stimulus":"bees-with-color/bee-B2DF.svg","response":0,"trial_type":"image-button-response","trial_index":55,"time_elapsed":153441,"internal_node_id":"0.0-4.0-0.24","subject_id":"61574bf13948d617adccfa8d","study_id":"60edd13110225f80f9f3709b","session_id":"6196bf62f32da1dcd0f1cb0e","condition":"contingent","relevant_dimensions":["wings","pattern"],"bee_group":{"antennae":"X","wings":"1","pattern":"D","legs":"X"},"action":"harvest","summary":"good-harvest","bonus":0.9400000000000008},{"rt":1393,"stimulus":"\n                    <p><b>Action: <em>harvest</em></b></p>\n                    <p>This is the bee that you just saw.</p>\n                    <img src=\"bees-with-color/bee-B2DF.svg\" width=\"200\">\n                    <p><span class=\"greenText\"><b>Successful harvest!</b></span><br>Your pay has increased by $0.02. Your bonus pay is now $0.62.</p>\n            ","response":0,"trial_type":"html-button-response","trial_index":56,"time_elapsed":154834,"internal_node_id":"0.0-4.0-1.24","subject_id":"61574bf13948d617adccfa8d","study_id":"60edd13110225f80f9f3709b","session_id":"6196bf62f32da1dcd0f1cb0e","condition":"contingent","relevant_dimensions":["wings","pattern"],"bee_group":{"antennae":"X","wings":"1","pattern":"D","legs":"X"},"bonus":0.9400000000000008},{"rt":1047,"stimulus":"bees-with-color/bee-A1DM.svg","response":1,"trial_type":"image-button-response","trial_index":57,"time_elapsed":155884,"internal_node_id":"0.0-4.0-0.25","subject_id":"61574bf13948d617adccfa8d","study_id":"60edd13110225f80f9f3709b","session_id":"6196bf62f32da1dcd0f1cb0e","condition":"contingent","relevant_dimensions":["wings","pattern"],"bee_group":{"antennae":"X","wings":"1","pattern":"D","legs":"X"},"action":"avoid","summary":"good-avoid","bonus":0.9400000000000008},{"rt":525,"stimulus":"\n                    <p><b>Action: <em>avoid</em></b></p>\n                    <p>This is the bee that you just saw.</p>\n                    <img src=\"bees-with-color/bee-A1DM.svg\" width=\"200\">\n                    <p><br>Your bonus pay is unchanged, and remains at $0.62.</p>\n            ","response":0,"trial_type":"html-button-response","trial_index":58,"time_elapsed":156410,"internal_node_id":"0.0-4.0-1.25","subject_id":"61574bf13948d617adccfa8d","study_id":"60edd13110225f80f9f3709b","session_id":"6196bf62f32da1dcd0f1cb0e","condition":"contingent","relevant_dimensions":["wings","pattern"],"bee_group":{"antennae":"X","wings":"1","pattern":"D","legs":"X"},"bonus":0.9400000000000008},{"rt":1370,"stimulus":"bees-with-color/bee-B2DM.svg","response":1,"trial_type":"image-button-response","trial_index":59,"time_elapsed":157782,"internal_node_id":"0.0-4.0-0.26","subject_id":"61574bf13948d617adccfa8d","study_id":"60edd13110225f80f9f3709b","session_id":"6196bf62f32da1dcd0f1cb0e","condition":"contingent","relevant_dimensions":["wings","pattern"],"bee_group":{"antennae":"X","wings":"1","pattern":"D","legs":"X"},"action":"avoid","summary":"bad-avoid","bonus":0.9400000000000008},{"rt":472,"stimulus":"\n                    <p><b>Action: <em>avoid</em></b></p>\n                    <p>This is the bee that you just saw.</p>\n                    <img src=\"bees-with-color/bee-B2DM.svg\" width=\"200\">\n                    <p><br>Your bonus pay is unchanged, and remains at $0.62.</p>\n            ","response":0,"trial_type":"html-button-response","trial_index":60,"time_elapsed":158256,"internal_node_id":"0.0-4.0-1.26","subject_id":"61574bf13948d617adccfa8d","study_id":"60edd13110225f80f9f3709b","session_id":"6196bf62f32da1dcd0f1cb0e","condition":"contingent","relevant_dimensions":["wings","pattern"],"bee_group":{"antennae":"X","wings":"1","pattern":"D","legs":"X"},"bonus":0.9400000000000008},{"rt":832,"stimulus":"bees-with-color/bee-A1SM.svg","response":0,"trial_type":"image-button-response","trial_index":61,"time_elapsed":159090,"internal_node_id":"0.0-4.0-0.27","subject_id":"61574bf13948d617adccfa8d","study_id":"60edd13110225f80f9f3709b","session_id":"6196bf62f32da1dcd0f1cb0e","condition":"contingent","relevant_dimensions":["wings","pattern"],"bee_group":{"antennae":"X","wings":"1","pattern":"D","legs":"X"},"action":"harvest","summary":"good-harvest","bonus":0.9400000000000008},{"rt":677,"stimulus":"\n                    <p><b>Action: <em>harvest</em></b></p>\n                    <p>This is the bee that you just saw.</p>\n                    <img src=\"bees-with-color/bee-A1SM.svg\" width=\"200\">\n                    <p><span class=\"greenText\"><b>Successful harvest!</b></span><br>Your pay has increased by $0.02. Your bonus pay is now $0.64.</p>\n            ","response":0,"trial_type":"html-button-response","trial_index":62,"time_elapsed":159768,"internal_node_id":"0.0-4.0-1.27","subject_id":"61574bf13948d617adccfa8d","study_id":"60edd13110225f80f9f3709b","session_id":"6196bf62f32da1dcd0f1cb0e","condition":"contingent","relevant_dimensions":["wings","pattern"],"bee_group":{"antennae":"X","wings":"1","pattern":"D","legs":"X"},"bonus":0.9400000000000008},{"rt":1101,"stimulus":"bees-with-color/bee-A2DF.svg","response":0,"trial_type":"image-button-response","trial_index":63,"time_elapsed":160871,"internal_node_id":"0.0-4.0-0.28","subject_id":"61574bf13948d617adccfa8d","study_id":"60edd13110225f80f9f3709b","session_id":"6196bf62f32da1dcd0f1cb0e","condition":"contingent","relevant_dimensions":["wings","pattern"],"bee_group":{"antennae":"X","wings":"1","pattern":"D","legs":"X"},"action":"harvest","summary":"good-harvest","bonus":0.9400000000000008},{"rt":490,"stimulus":"\n                    <p><b>Action: <em>harvest</em></b></p>\n                    <p>This is the bee that you just saw.</p>\n                    <img src=\"bees-with-color/bee-A2DF.svg\" width=\"200\">\n                    <p><span class=\"greenText\"><b>Successful harvest!</b></span><br>Your pay has increased by $0.02. Your bonus pay is now $0.66.</p>\n            ","response":0,"trial_type":"html-button-response","trial_index":64,"time_elapsed":161362,"internal_node_id":"0.0-4.0-1.28","subject_id":"61574bf13948d617adccfa8d","study_id":"60edd13110225f80f9f3709b","session_id":"6196bf62f32da1dcd0f1cb0e","condition":"contingent","relevant_dimensions":["wings","pattern"],"bee_group":{"antennae":"X","wings":"1","pattern":"D","legs":"X"},"bonus":0.9400000000000008},{"rt":905,"stimulus":"bees-with-color/bee-B1SF.svg","response":0,"trial_type":"image-button-response","trial_index":65,"time_elapsed":162268,"internal_node_id":"0.0-4.0-0.29","subject_id":"61574bf13948d617adccfa8d","study_id":"60edd13110225f80f9f3709b","session_id":"6196bf62f32da1dcd0f1cb0e","condition":"contingent","relevant_dimensions":["wings","pattern"],"bee_group":{"antennae":"X","wings":"1","pattern":"D","legs":"X"},"action":"harvest","summary":"good-harvest","bonus":0.9400000000000008},{"rt":433,"stimulus":"\n                    <p><b>Action: <em>harvest</em></b></p>\n                    <p>This is the bee that you just saw.</p>\n                    <img src=\"bees-with-color/bee-B1SF.svg\" width=\"200\">\n                    <p><span class=\"greenText\"><b>Successful harvest!</b></span><br>Your pay has increased by $0.02. Your bonus pay is now $0.68.</p>\n            ","response":0,"trial_type":"html-button-response","trial_index":66,"time_elapsed":162704,"internal_node_id":"0.0-4.0-1.29","subject_id":"61574bf13948d617adccfa8d","study_id":"60edd13110225f80f9f3709b","session_id":"6196bf62f32da1dcd0f1cb0e","condition":"contingent","relevant_dimensions":["wings","pattern"],"bee_group":{"antennae":"X","wings":"1","pattern":"D","legs":"X"},"bonus":0.9400000000000008},{"rt":802,"stimulus":"bees-with-color/bee-A2DM.svg","response":0,"trial_type":"image-button-response","trial_index":67,"time_elapsed":163507,"internal_node_id":"0.0-4.0-0.30","subject_id":"61574bf13948d617adccfa8d","study_id":"60edd13110225f80f9f3709b","session_id":"6196bf62f32da1dcd0f1cb0e","condition":"contingent","relevant_dimensions":["wings","pattern"],"bee_group":{"antennae":"X","wings":"1","pattern":"D","legs":"X"},"action":"harvest","summary":"good-harvest","bonus":0.9400000000000008},{"rt":1652,"stimulus":"\n                    <p><b>Action: <em>harvest</em></b></p>\n                    <p>This is the bee that you just saw.</p>\n                    <img src=\"bees-with-color/bee-A2DM.svg\" width=\"200\">\n                    <p><span class=\"greenText\"><b>Successful harvest!</b></span><br>Your pay has increased by $0.02. Your bonus pay is now $0.70.</p>\n            ","response":0,"trial_type":"html-button-response","trial_index":68,"time_elapsed":165161,"internal_node_id":"0.0-4.0-1.30","subject_id":"61574bf13948d617adccfa8d","study_id":"60edd13110225f80f9f3709b","session_id":"6196bf62f32da1dcd0f1cb0e","condition":"contingent","relevant_dimensions":["wings","pattern"],"bee_group":{"antennae":"X","wings":"1","pattern":"D","legs":"X"},"bonus":0.9400000000000008},{"rt":1354,"stimulus":"bees-with-color/bee-B1DM.svg","response":1,"trial_type":"image-button-response","trial_index":69,"time_elapsed":166515,"internal_node_id":"0.0-4.0-0.31","subject_id":"61574bf13948d617adccfa8d","study_id":"60edd13110225f80f9f3709b","session_id":"6196bf62f32da1dcd0f1cb0e","condition":"contingent","relevant_dimensions":["wings","pattern"],"bee_group":{"antennae":"X","wings":"1","pattern":"D","legs":"X"},"action":"avoid","summary":"good-avoid","bonus":0.9400000000000008},{"rt":573,"stimulus":"\n                    <p><b>Action: <em>avoid</em></b></p>\n                    <p>This is the bee that you just saw.</p>\n                    <img src=\"bees-with-color/bee-B1DM.svg\" width=\"200\">\n                    <p><br>Your bonus pay is unchanged, and remains at $0.70.</p>\n            ","response":0,"trial_type":"html-button-response","trial_index":70,"time_elapsed":167089,"internal_node_id":"0.0-4.0-1.31","subject_id":"61574bf13948d617adccfa8d","study_id":"60edd13110225f80f9f3709b","session_id":"6196bf62f32da1dcd0f1cb0e","condition":"contingent","relevant_dimensions":["wings","pattern"],"bee_group":{"antennae":"X","wings":"1","pattern":"D","legs":"X"},"bonus":0.9400000000000008},{"rt":948,"stimulus":"bees-with-color/bee-B1DF.svg","response":0,"trial_type":"image-button-response","trial_index":71,"time_elapsed":168039,"internal_node_id":"0.0-4.0-0.32","subject_id":"61574bf13948d617adccfa8d","study_id":"60edd13110225f80f9f3709b","session_id":"6196bf62f32da1dcd0f1cb0e","condition":"contingent","relevant_dimensions":["wings","pattern"],"bee_group":{"antennae":"X","wings":"1","pattern":"D","legs":"X"},"action":"harvest","summary":"bad-harvest","bonus":0.9400000000000008},{"rt":827,"stimulus":"\n                    <p><b>Action: <em>harvest</em></b></p>\n                    <p>This is the bee that you just saw.</p>\n                    <img src=\"bees-with-color/bee-B1DF.svg\" width=\"200\">\n                    <p><span class=\"redText\">Bad choice, the bee was angry.</span><br><b>You have been stung!</b><br>Your pay has been decreased by $0.10. Your bonus pay is now $0.60.</p>\n            ","response":0,"trial_type":"html-button-response","trial_index":72,"time_elapsed":168865,"internal_node_id":"0.0-4.0-1.32","subject_id":"61574bf13948d617adccfa8d","study_id":"60edd13110225f80f9f3709b","session_id":"6196bf62f32da1dcd0f1cb0e","condition":"contingent","relevant_dimensions":["wings","pattern"],"bee_group":{"antennae":"X","wings":"1","pattern":"D","legs":"X"},"bonus":0.9400000000000008},{"rt":872,"stimulus":"bees-with-color/bee-B2DM.svg","response":0,"trial_type":"image-button-response","trial_index":73,"time_elapsed":169739,"internal_node_id":"0.0-4.0-0.33","subject_id":"61574bf13948d617adccfa8d","study_id":"60edd13110225f80f9f3709b","session_id":"6196bf62f32da1dcd0f1cb0e","condition":"contingent","relevant_dimensions":["wings","pattern"],"bee_group":{"antennae":"X","wings":"1","pattern":"D","legs":"X"},"action":"harvest","summary":"good-harvest","bonus":0.9400000000000008},{"rt":698,"stimulus":"\n                    <p><b>Action: <em>harvest</em></b></p>\n                    <p>This is the bee that you just saw.</p>\n                    <img src=\"bees-with-color/bee-B2DM.svg\" width=\"200\">\n                    <p><span class=\"greenText\"><b>Successful harvest!</b></span><br>Your pay has increased by $0.02. Your bonus pay is now $0.62.</p>\n            ","response":0,"trial_type":"html-button-response","trial_index":74,"time_elapsed":170440,"internal_node_id":"0.0-4.0-1.33","subject_id":"61574bf13948d617adccfa8d","study_id":"60edd13110225f80f9f3709b","session_id":"6196bf62f32da1dcd0f1cb0e","condition":"contingent","relevant_dimensions":["wings","pattern"],"bee_group":{"antennae":"X","wings":"1","pattern":"D","legs":"X"},"bonus":0.9400000000000008},{"rt":976,"stimulus":"bees-with-color/bee-A2SM.svg","response":0,"trial_type":"image-button-response","trial_index":75,"time_elapsed":171417,"internal_node_id":"0.0-4.0-0.34","subject_id":"61574bf13948d617adccfa8d","study_id":"60edd13110225f80f9f3709b","session_id":"6196bf62f32da1dcd0f1cb0e","condition":"contingent","relevant_dimensions":["wings","pattern"],"bee_group":{"antennae":"X","wings":"1","pattern":"D","legs":"X"},"action":"harvest","summary":"good-harvest","bonus":0.9400000000000008},{"rt":454,"stimulus":"\n                    <p><b>Action: <em>harvest</em></b></p>\n                    <p>This is the bee that you just saw.</p>\n                    <img src=\"bees-with-color/bee-A2SM.svg\" width=\"200\">\n                    <p><span class=\"greenText\"><b>Successful harvest!</b></span><br>Your pay has increased by $0.02. Your bonus pay is now $0.64.</p>\n            ","response":0,"trial_type":"html-button-response","trial_index":76,"time_elapsed":171871,"internal_node_id":"0.0-4.0-1.34","subject_id":"61574bf13948d617adccfa8d","study_id":"60edd13110225f80f9f3709b","session_id":"6196bf62f32da1dcd0f1cb0e","condition":"contingent","relevant_dimensions":["wings","pattern"],"bee_group":{"antennae":"X","wings":"1","pattern":"D","legs":"X"},"bonus":0.9400000000000008},{"rt":658,"stimulus":"bees-with-color/bee-B1SM.svg","response":0,"trial_type":"image-button-response","trial_index":77,"time_elapsed":172531,"internal_node_id":"0.0-4.0-0.35","subject_id":"61574bf13948d617adccfa8d","study_id":"60edd13110225f80f9f3709b","session_id":"6196bf62f32da1dcd0f1cb0e","condition":"contingent","relevant_dimensions":["wings","pattern"],"bee_group":{"antennae":"X","wings":"1","pattern":"D","legs":"X"},"action":"harvest","summary":"good-harvest","bonus":0.9400000000000008},{"rt":504,"stimulus":"\n                    <p><b>Action: <em>harvest</em></b></p>\n                    <p>This is the bee that you just saw.</p>\n                    <img src=\"bees-with-color/bee-B1SM.svg\" width=\"200\">\n                    <p><span class=\"greenText\"><b>Successful harvest!</b></span><br>Your pay has increased by $0.02. Your bonus pay is now $0.66.</p>\n            ","response":0,"trial_type":"html-button-response","trial_index":78,"time_elapsed":173036,"internal_node_id":"0.0-4.0-1.35","subject_id":"61574bf13948d617adccfa8d","study_id":"60edd13110225f80f9f3709b","session_id":"6196bf62f32da1dcd0f1cb0e","condition":"contingent","relevant_dimensions":["wings","pattern"],"bee_group":{"antennae":"X","wings":"1","pattern":"D","legs":"X"},"bonus":0.9400000000000008},{"rt":1366,"stimulus":"bees-with-color/bee-B1DM.svg","response":1,"trial_type":"image-button-response","trial_index":79,"time_elapsed":174404,"internal_node_id":"0.0-4.0-0.36","subject_id":"61574bf13948d617adccfa8d","study_id":"60edd13110225f80f9f3709b","session_id":"6196bf62f32da1dcd0f1cb0e","condition":"contingent","relevant_dimensions":["wings","pattern"],"bee_group":{"antennae":"X","wings":"1","pattern":"D","legs":"X"},"action":"avoid","summary":"good-avoid","bonus":0.9400000000000008},{"rt":607,"stimulus":"\n                    <p><b>Action: <em>avoid</em></b></p>\n                    <p>This is the bee that you just saw.</p>\n                    <img src=\"bees-with-color/bee-B1DM.svg\" width=\"200\">\n                    <p><br>Your bonus pay is unchanged, and remains at $0.66.</p>\n            ","response":0,"trial_type":"html-button-response","trial_index":80,"time_elapsed":175012,"internal_node_id":"0.0-4.0-1.36","subject_id":"61574bf13948d617adccfa8d","study_id":"60edd13110225f80f9f3709b","session_id":"6196bf62f32da1dcd0f1cb0e","condition":"contingent","relevant_dimensions":["wings","pattern"],"bee_group":{"antennae":"X","wings":"1","pattern":"D","legs":"X"},"bonus":0.9400000000000008},{"rt":786,"stimulus":"bees-with-color/bee-B1SF.svg","response":0,"trial_type":"image-button-response","trial_index":81,"time_elapsed":175799,"internal_node_id":"0.0-4.0-0.37","subject_id":"61574bf13948d617adccfa8d","study_id":"60edd13110225f80f9f3709b","session_id":"6196bf62f32da1dcd0f1cb0e","condition":"contingent","relevant_dimensions":["wings","pattern"],"bee_group":{"antennae":"X","wings":"1","pattern":"D","legs":"X"},"action":"harvest","summary":"good-harvest","bonus":0.9400000000000008},{"rt":472,"stimulus":"\n                    <p><b>Action: <em>harvest</em></b></p>\n                    <p>This is the bee that you just saw.</p>\n                    <img src=\"bees-with-color/bee-B1SF.svg\" width=\"200\">\n                    <p><span class=\"greenText\"><b>Successful harvest!</b></span><br>Your pay has increased by $0.02. Your bonus pay is now $0.68.</p>\n            ","response":0,"trial_type":"html-button-response","trial_index":82,"time_elapsed":176272,"internal_node_id":"0.0-4.0-1.37","subject_id":"61574bf13948d617adccfa8d","study_id":"60edd13110225f80f9f3709b","session_id":"6196bf62f32da1dcd0f1cb0e","condition":"contingent","relevant_dimensions":["wings","pattern"],"bee_group":{"antennae":"X","wings":"1","pattern":"D","legs":"X"},"bonus":0.9400000000000008},{"rt":830,"stimulus":"bees-with-color/bee-B2SF.svg","response":0,"trial_type":"image-button-response","trial_index":83,"time_elapsed":177104,"internal_node_id":"0.0-4.0-0.38","subject_id":"61574bf13948d617adccfa8d","study_id":"60edd13110225f80f9f3709b","session_id":"6196bf62f32da1dcd0f1cb0e","condition":"contingent","relevant_dimensions":["wings","pattern"],"bee_group":{"antennae":"X","wings":"1","pattern":"D","legs":"X"},"action":"harvest","summary":"good-harvest","bonus":0.9400000000000008},{"rt":518,"stimulus":"\n                    <p><b>Action: <em>harvest</em></b></p>\n                    <p>This is the bee that you just saw.</p>\n                    <img src=\"bees-with-color/bee-B2SF.svg\" width=\"200\">\n                    <p><span class=\"greenText\"><b>Successful harvest!</b></span><br>Your pay has increased by $0.02. Your bonus pay is now $0.70.</p>\n            ","response":0,"trial_type":"html-button-response","trial_index":84,"time_elapsed":177622,"internal_node_id":"0.0-4.0-1.38","subject_id":"61574bf13948d617adccfa8d","study_id":"60edd13110225f80f9f3709b","session_id":"6196bf62f32da1dcd0f1cb0e","condition":"contingent","relevant_dimensions":["wings","pattern"],"bee_group":{"antennae":"X","wings":"1","pattern":"D","legs":"X"},"bonus":0.9400000000000008},{"rt":1426,"stimulus":"bees-with-color/bee-A2DF.svg","response":0,"trial_type":"image-button-response","trial_index":85,"time_elapsed":179051,"internal_node_id":"0.0-4.0-0.39","subject_id":"61574bf13948d617adccfa8d","study_id":"60edd13110225f80f9f3709b","session_id":"6196bf62f32da1dcd0f1cb0e","condition":"contingent","relevant_dimensions":["wings","pattern"],"bee_group":{"antennae":"X","wings":"1","pattern":"D","legs":"X"},"action":"harvest","summary":"good-harvest","bonus":0.9400000000000008},{"rt":812,"stimulus":"\n                    <p><b>Action: <em>harvest</em></b></p>\n                    <p>This is the bee that you just saw.</p>\n                    <img src=\"bees-with-color/bee-A2DF.svg\" width=\"200\">\n                    <p><span class=\"greenText\"><b>Successful harvest!</b></span><br>Your pay has increased by $0.02. Your bonus pay is now $0.72.</p>\n            ","response":0,"trial_type":"html-button-response","trial_index":86,"time_elapsed":179863,"internal_node_id":"0.0-4.0-1.39","subject_id":"61574bf13948d617adccfa8d","study_id":"60edd13110225f80f9f3709b","session_id":"6196bf62f32da1dcd0f1cb0e","condition":"contingent","relevant_dimensions":["wings","pattern"],"bee_group":{"antennae":"X","wings":"1","pattern":"D","legs":"X"},"bonus":0.9400000000000008},{"rt":1038,"stimulus":"bees-with-color/bee-A2SF.svg","response":0,"trial_type":"image-button-response","trial_index":87,"time_elapsed":180904,"internal_node_id":"0.0-4.0-0.40","subject_id":"61574bf13948d617adccfa8d","study_id":"60edd13110225f80f9f3709b","session_id":"6196bf62f32da1dcd0f1cb0e","condition":"contingent","relevant_dimensions":["wings","pattern"],"bee_group":{"antennae":"X","wings":"1","pattern":"D","legs":"X"},"action":"harvest","summary":"good-harvest","bonus":0.9400000000000008},{"rt":511,"stimulus":"\n                    <p><b>Action: <em>harvest</em></b></p>\n                    <p>This is the bee that you just saw.</p>\n                    <img src=\"bees-with-color/bee-A2SF.svg\" width=\"200\">\n                    <p><span class=\"greenText\"><b>Successful harvest!</b></span><br>Your pay has increased by $0.02. Your bonus pay is now $0.74.</p>\n            ","response":0,"trial_type":"html-button-response","trial_index":88,"time_elapsed":181416,"internal_node_id":"0.0-4.0-1.40","subject_id":"61574bf13948d617adccfa8d","study_id":"60edd13110225f80f9f3709b","session_id":"6196bf62f32da1dcd0f1cb0e","condition":"contingent","relevant_dimensions":["wings","pattern"],"bee_group":{"antennae":"X","wings":"1","pattern":"D","legs":"X"},"bonus":0.9400000000000008},{"rt":992,"stimulus":"bees-with-color/bee-A1SM.svg","response":0,"trial_type":"image-button-response","trial_index":89,"time_elapsed":182408,"internal_node_id":"0.0-4.0-0.41","subject_id":"61574bf13948d617adccfa8d","study_id":"60edd13110225f80f9f3709b","session_id":"6196bf62f32da1dcd0f1cb0e","condition":"contingent","relevant_dimensions":["wings","pattern"],"bee_group":{"antennae":"X","wings":"1","pattern":"D","legs":"X"},"action":"harvest","summary":"good-harvest","bonus":0.9400000000000008},{"rt":529,"stimulus":"\n                    <p><b>Action: <em>harvest</em></b></p>\n                    <p>This is the bee that you just saw.</p>\n                    <img src=\"bees-with-color/bee-A1SM.svg\" width=\"200\">\n                    <p><span class=\"greenText\"><b>Successful harvest!</b></span><br>Your pay has increased by $0.02. Your bonus pay is now $0.76.</p>\n            ","response":0,"trial_type":"html-button-response","trial_index":90,"time_elapsed":182940,"internal_node_id":"0.0-4.0-1.41","subject_id":"61574bf13948d617adccfa8d","study_id":"60edd13110225f80f9f3709b","session_id":"6196bf62f32da1dcd0f1cb0e","condition":"contingent","relevant_dimensions":["wings","pattern"],"bee_group":{"antennae":"X","wings":"1","pattern":"D","legs":"X"},"bonus":0.9400000000000008},{"rt":1459,"stimulus":"bees-with-color/bee-B2DF.svg","response":0,"trial_type":"image-button-response","trial_index":91,"time_elapsed":184400,"internal_node_id":"0.0-4.0-0.42","subject_id":"61574bf13948d617adccfa8d","study_id":"60edd13110225f80f9f3709b","session_id":"6196bf62f32da1dcd0f1cb0e","condition":"contingent","relevant_dimensions":["wings","pattern"],"bee_group":{"antennae":"X","wings":"1","pattern":"D","legs":"X"},"action":"harvest","summary":"good-harvest","bonus":0.9400000000000008},{"rt":548,"stimulus":"\n                    <p><b>Action: <em>harvest</em></b></p>\n                    <p>This is the bee that you just saw.</p>\n                    <img src=\"bees-with-color/bee-B2DF.svg\" width=\"200\">\n                    <p><span class=\"greenText\"><b>Successful harvest!</b></span><br>Your pay has increased by $0.02. Your bonus pay is now $0.78.</p>\n            ","response":0,"trial_type":"html-button-response","trial_index":92,"time_elapsed":184950,"internal_node_id":"0.0-4.0-1.42","subject_id":"61574bf13948d617adccfa8d","study_id":"60edd13110225f80f9f3709b","session_id":"6196bf62f32da1dcd0f1cb0e","condition":"contingent","relevant_dimensions":["wings","pattern"],"bee_group":{"antennae":"X","wings":"1","pattern":"D","legs":"X"},"bonus":0.9400000000000008},{"rt":886,"stimulus":"bees-with-color/bee-A1DF.svg","response":0,"trial_type":"image-button-response","trial_index":93,"time_elapsed":185838,"internal_node_id":"0.0-4.0-0.43","subject_id":"61574bf13948d617adccfa8d","study_id":"60edd13110225f80f9f3709b","session_id":"6196bf62f32da1dcd0f1cb0e","condition":"contingent","relevant_dimensions":["wings","pattern"],"bee_group":{"antennae":"X","wings":"1","pattern":"D","legs":"X"},"action":"harvest","summary":"bad-harvest","bonus":0.9400000000000008},{"rt":1269,"stimulus":"\n                    <p><b>Action: <em>harvest</em></b></p>\n                    <p>This is the bee that you just saw.</p>\n                    <img src=\"bees-with-color/bee-A1DF.svg\" width=\"200\">\n                    <p><span class=\"redText\">Bad choice, the bee was angry.</span><br><b>You have been stung!</b><br>Your pay has been decreased by $0.10. Your bonus pay is now $0.68.</p>\n            ","response":0,"trial_type":"html-button-response","trial_index":94,"time_elapsed":187109,"internal_node_id":"0.0-4.0-1.43","subject_id":"61574bf13948d617adccfa8d","study_id":"60edd13110225f80f9f3709b","session_id":"6196bf62f32da1dcd0f1cb0e","condition":"contingent","relevant_dimensions":["wings","pattern"],"bee_group":{"antennae":"X","wings":"1","pattern":"D","legs":"X"},"bonus":0.9400000000000008},{"rt":883,"stimulus":"bees-with-color/bee-B2SM.svg","response":0,"trial_type":"image-button-response","trial_index":95,"time_elapsed":187995,"internal_node_id":"0.0-4.0-0.44","subject_id":"61574bf13948d617adccfa8d","study_id":"60edd13110225f80f9f3709b","session_id":"6196bf62f32da1dcd0f1cb0e","condition":"contingent","relevant_dimensions":["wings","pattern"],"bee_group":{"antennae":"X","wings":"1","pattern":"D","legs":"X"},"action":"harvest","summary":"good-harvest","bonus":0.9400000000000008},{"rt":613,"stimulus":"\n                    <p><b>Action: <em>harvest</em></b></p>\n                    <p>This is the bee that you just saw.</p>\n                    <img src=\"bees-with-color/bee-B2SM.svg\" width=\"200\">\n                    <p><span class=\"greenText\"><b>Successful harvest!</b></span><br>Your pay has increased by $0.02. Your bonus pay is now $0.70.</p>\n            ","response":0,"trial_type":"html-button-response","trial_index":96,"time_elapsed":188610,"internal_node_id":"0.0-4.0-1.44","subject_id":"61574bf13948d617adccfa8d","study_id":"60edd13110225f80f9f3709b","session_id":"6196bf62f32da1dcd0f1cb0e","condition":"contingent","relevant_dimensions":["wings","pattern"],"bee_group":{"antennae":"X","wings":"1","pattern":"D","legs":"X"},"bonus":0.9400000000000008},{"rt":2352,"stimulus":"bees-with-color/bee-A2DM.svg","response":1,"trial_type":"image-button-response","trial_index":97,"time_elapsed":190964,"internal_node_id":"0.0-4.0-0.45","subject_id":"61574bf13948d617adccfa8d","study_id":"60edd13110225f80f9f3709b","session_id":"6196bf62f32da1dcd0f1cb0e","condition":"contingent","relevant_dimensions":["wings","pattern"],"bee_group":{"antennae":"X","wings":"1","pattern":"D","legs":"X"},"action":"avoid","summary":"bad-avoid","bonus":0.9400000000000008},{"rt":624,"stimulus":"\n                    <p><b>Action: <em>avoid</em></b></p>\n                    <p>This is the bee that you just saw.</p>\n                    <img src=\"bees-with-color/bee-A2DM.svg\" width=\"200\">\n                    <p><br>Your bonus pay is unchanged, and remains at $0.70.</p>\n            ","response":0,"trial_type":"html-button-response","trial_index":98,"time_elapsed":191589,"internal_node_id":"0.0-4.0-1.45","subject_id":"61574bf13948d617adccfa8d","study_id":"60edd13110225f80f9f3709b","session_id":"6196bf62f32da1dcd0f1cb0e","condition":"contingent","relevant_dimensions":["wings","pattern"],"bee_group":{"antennae":"X","wings":"1","pattern":"D","legs":"X"},"bonus":0.9400000000000008},{"rt":1274,"stimulus":"bees-with-color/bee-A1DM.svg","response":1,"trial_type":"image-button-response","trial_index":99,"time_elapsed":192865,"internal_node_id":"0.0-4.0-0.46","subject_id":"61574bf13948d617adccfa8d","study_id":"60edd13110225f80f9f3709b","session_id":"6196bf62f32da1dcd0f1cb0e","condition":"contingent","relevant_dimensions":["wings","pattern"],"bee_group":{"antennae":"X","wings":"1","pattern":"D","legs":"X"},"action":"avoid","summary":"good-avoid","bonus":0.9400000000000008},{"rt":458,"stimulus":"\n                    <p><b>Action: <em>avoid</em></b></p>\n                    <p>This is the bee that you just saw.</p>\n                    <img src=\"bees-with-color/bee-A1DM.svg\" width=\"200\">\n                    <p><br>Your bonus pay is unchanged, and remains at $0.70.</p>\n            ","response":0,"trial_type":"html-button-response","trial_index":100,"time_elapsed":193323,"internal_node_id":"0.0-4.0-1.46","subject_id":"61574bf13948d617adccfa8d","study_id":"60edd13110225f80f9f3709b","session_id":"6196bf62f32da1dcd0f1cb0e","condition":"contingent","relevant_dimensions":["wings","pattern"],"bee_group":{"antennae":"X","wings":"1","pattern":"D","legs":"X"},"bonus":0.9400000000000008},{"rt":677,"stimulus":"bees-with-color/bee-A1SF.svg","response":0,"trial_type":"image-button-response","trial_index":101,"time_elapsed":194001,"internal_node_id":"0.0-4.0-0.47","subject_id":"61574bf13948d617adccfa8d","study_id":"60edd13110225f80f9f3709b","session_id":"6196bf62f32da1dcd0f1cb0e","condition":"contingent","relevant_dimensions":["wings","pattern"],"bee_group":{"antennae":"X","wings":"1","pattern":"D","legs":"X"},"action":"harvest","summary":"good-harvest","bonus":0.9400000000000008},{"rt":521,"stimulus":"\n                    <p><b>Action: <em>harvest</em></b></p>\n                    <p>This is the bee that you just saw.</p>\n                    <img src=\"bees-with-color/bee-A1SF.svg\" width=\"200\">\n                    <p><span class=\"greenText\"><b>Successful harvest!</b></span><br>Your pay has increased by $0.02. Your bonus pay is now $0.72.</p>\n            ","response":0,"trial_type":"html-button-response","trial_index":102,"time_elapsed":194524,"internal_node_id":"0.0-4.0-1.47","subject_id":"61574bf13948d617adccfa8d","study_id":"60edd13110225f80f9f3709b","session_id":"6196bf62f32da1dcd0f1cb0e","condition":"contingent","relevant_dimensions":["wings","pattern"],"bee_group":{"antennae":"X","wings":"1","pattern":"D","legs":"X"},"bonus":0.9400000000000008},{"rt":838,"stimulus":"bees-with-color/bee-B2SF.svg","response":0,"trial_type":"image-button-response","trial_index":103,"time_elapsed":195364,"internal_node_id":"0.0-4.0-0.48","subject_id":"61574bf13948d617adccfa8d","study_id":"60edd13110225f80f9f3709b","session_id":"6196bf62f32da1dcd0f1cb0e","condition":"contingent","relevant_dimensions":["wings","pattern"],"bee_group":{"antennae":"X","wings":"1","pattern":"D","legs":"X"},"action":"harvest","summary":"good-harvest","bonus":0.9400000000000008},{"rt":433,"stimulus":"\n                    <p><b>Action: <em>harvest</em></b></p>\n                    <p>This is the bee that you just saw.</p>\n                    <img src=\"bees-with-color/bee-B2SF.svg\" width=\"200\">\n                    <p><span class=\"greenText\"><b>Successful harvest!</b></span><br>Your pay has increased by $0.02. Your bonus pay is now $0.74.</p>\n            ","response":0,"trial_type":"html-button-response","trial_index":104,"time_elapsed":195799,"internal_node_id":"0.0-4.0-1.48","subject_id":"61574bf13948d617adccfa8d","study_id":"60edd13110225f80f9f3709b","session_id":"6196bf62f32da1dcd0f1cb0e","condition":"contingent","relevant_dimensions":["wings","pattern"],"bee_group":{"antennae":"X","wings":"1","pattern":"D","legs":"X"},"bonus":0.9400000000000008},{"rt":1875,"stimulus":"bees-with-color/bee-A2DM.svg","response":1,"trial_type":"image-button-response","trial_index":105,"time_elapsed":197675,"internal_node_id":"0.0-4.0-0.49","subject_id":"61574bf13948d617adccfa8d","study_id":"60edd13110225f80f9f3709b","session_id":"6196bf62f32da1dcd0f1cb0e","condition":"contingent","relevant_dimensions":["wings","pattern"],"bee_group":{"antennae":"X","wings":"1","pattern":"D","legs":"X"},"action":"avoid","summary":"bad-avoid","bonus":0.9400000000000008},{"rt":394,"stimulus":"\n                    <p><b>Action: <em>avoid</em></b></p>\n                    <p>This is the bee that you just saw.</p>\n                    <img src=\"bees-with-color/bee-A2DM.svg\" width=\"200\">\n                    <p><br>Your bonus pay is unchanged, and remains at $0.74.</p>\n            ","response":0,"trial_type":"html-button-response","trial_index":106,"time_elapsed":198070,"internal_node_id":"0.0-4.0-1.49","subject_id":"61574bf13948d617adccfa8d","study_id":"60edd13110225f80f9f3709b","session_id":"6196bf62f32da1dcd0f1cb0e","condition":"contingent","relevant_dimensions":["wings","pattern"],"bee_group":{"antennae":"X","wings":"1","pattern":"D","legs":"X"},"bonus":0.9400000000000008},{"rt":746,"stimulus":"bees-with-color/bee-A2DF.svg","response":0,"trial_type":"image-button-response","trial_index":107,"time_elapsed":198819,"internal_node_id":"0.0-4.0-0.50","subject_id":"61574bf13948d617adccfa8d","study_id":"60edd13110225f80f9f3709b","session_id":"6196bf62f32da1dcd0f1cb0e","condition":"contingent","relevant_dimensions":["wings","pattern"],"bee_group":{"antennae":"X","wings":"1","pattern":"D","legs":"X"},"action":"harvest","summary":"good-harvest","bonus":0.9400000000000008},{"rt":446,"stimulus":"\n                    <p><b>Action: <em>harvest</em></b></p>\n                    <p>This is the bee that you just saw.</p>\n                    <img src=\"bees-with-color/bee-A2DF.svg\" width=\"200\">\n                    <p><span class=\"greenText\"><b>Successful harvest!</b></span><br>Your pay has increased by $0.02. Your bonus pay is now $0.76.</p>\n            ","response":0,"trial_type":"html-button-response","trial_index":108,"time_elapsed":199267,"internal_node_id":"0.0-4.0-1.50","subject_id":"61574bf13948d617adccfa8d","study_id":"60edd13110225f80f9f3709b","session_id":"6196bf62f32da1dcd0f1cb0e","condition":"contingent","relevant_dimensions":["wings","pattern"],"bee_group":{"antennae":"X","wings":"1","pattern":"D","legs":"X"},"bonus":0.9400000000000008},{"rt":1305,"stimulus":"bees-with-color/bee-A2SM.svg","response":0,"trial_type":"image-button-response","trial_index":109,"time_elapsed":200573,"internal_node_id":"0.0-4.0-0.51","subject_id":"61574bf13948d617adccfa8d","study_id":"60edd13110225f80f9f3709b","session_id":"6196bf62f32da1dcd0f1cb0e","condition":"contingent","relevant_dimensions":["wings","pattern"],"bee_group":{"antennae":"X","wings":"1","pattern":"D","legs":"X"},"action":"harvest","summary":"good-harvest","bonus":0.9400000000000008},{"rt":452,"stimulus":"\n                    <p><b>Action: <em>harvest</em></b></p>\n                    <p>This is the bee that you just saw.</p>\n                    <img src=\"bees-with-color/bee-A2SM.svg\" width=\"200\">\n                    <p><span class=\"greenText\"><b>Successful harvest!</b></span><br>Your pay has increased by $0.02. Your bonus pay is now $0.78.</p>\n            ","response":0,"trial_type":"html-button-response","trial_index":110,"time_elapsed":201029,"internal_node_id":"0.0-4.0-1.51","subject_id":"61574bf13948d617adccfa8d","study_id":"60edd13110225f80f9f3709b","session_id":"6196bf62f32da1dcd0f1cb0e","condition":"contingent","relevant_dimensions":["wings","pattern"],"bee_group":{"antennae":"X","wings":"1","pattern":"D","legs":"X"},"bonus":0.9400000000000008},{"rt":791,"stimulus":"bees-with-color/bee-A1DF.svg","response":1,"trial_type":"image-button-response","trial_index":111,"time_elapsed":201822,"internal_node_id":"0.0-4.0-0.52","subject_id":"61574bf13948d617adccfa8d","study_id":"60edd13110225f80f9f3709b","session_id":"6196bf62f32da1dcd0f1cb0e","condition":"contingent","relevant_dimensions":["wings","pattern"],"bee_group":{"antennae":"X","wings":"1","pattern":"D","legs":"X"},"action":"avoid","summary":"good-avoid","bonus":0.9400000000000008},{"rt":802,"stimulus":"\n                    <p><b>Action: <em>avoid</em></b></p>\n                    <p>This is the bee that you just saw.</p>\n                    <img src=\"bees-with-color/bee-A1DF.svg\" width=\"200\">\n                    <p><br>Your bonus pay is unchanged, and remains at $0.78.</p>\n            ","response":0,"trial_type":"html-button-response","trial_index":112,"time_elapsed":202625,"internal_node_id":"0.0-4.0-1.52","subject_id":"61574bf13948d617adccfa8d","study_id":"60edd13110225f80f9f3709b","session_id":"6196bf62f32da1dcd0f1cb0e","condition":"contingent","relevant_dimensions":["wings","pattern"],"bee_group":{"antennae":"X","wings":"1","pattern":"D","legs":"X"},"bonus":0.9400000000000008},{"rt":862,"stimulus":"bees-with-color/bee-B2DF.svg","response":1,"trial_type":"image-button-response","trial_index":113,"time_elapsed":203489,"internal_node_id":"0.0-4.0-0.53","subject_id":"61574bf13948d617adccfa8d","study_id":"60edd13110225f80f9f3709b","session_id":"6196bf62f32da1dcd0f1cb0e","condition":"contingent","relevant_dimensions":["wings","pattern"],"bee_group":{"antennae":"X","wings":"1","pattern":"D","legs":"X"},"action":"avoid","summary":"bad-avoid","bonus":0.9400000000000008},{"rt":1392,"stimulus":"\n                    <p><b>Action: <em>avoid</em></b></p>\n                    <p>This is the bee that you just saw.</p>\n                    <img src=\"bees-with-color/bee-B2DF.svg\" width=\"200\">\n                    <p><br>Your bonus pay is unchanged, and remains at $0.78.</p>\n            ","response":0,"trial_type":"html-button-response","trial_index":114,"time_elapsed":204883,"internal_node_id":"0.0-4.0-1.53","subject_id":"61574bf13948d617adccfa8d","study_id":"60edd13110225f80f9f3709b","session_id":"6196bf62f32da1dcd0f1cb0e","condition":"contingent","relevant_dimensions":["wings","pattern"],"bee_group":{"antennae":"X","wings":"1","pattern":"D","legs":"X"},"bonus":0.9400000000000008},{"rt":961,"stimulus":"bees-with-color/bee-B1SF.svg","response":0,"trial_type":"image-button-response","trial_index":115,"time_elapsed":205847,"internal_node_id":"0.0-4.0-0.54","subject_id":"61574bf13948d617adccfa8d","study_id":"60edd13110225f80f9f3709b","session_id":"6196bf62f32da1dcd0f1cb0e","condition":"contingent","relevant_dimensions":["wings","pattern"],"bee_group":{"antennae":"X","wings":"1","pattern":"D","legs":"X"},"action":"harvest","summary":"good-harvest","bonus":0.9400000000000008},{"rt":471,"stimulus":"\n                    <p><b>Action: <em>harvest</em></b></p>\n                    <p>This is the bee that you just saw.</p>\n                    <img src=\"bees-with-color/bee-B1SF.svg\" width=\"200\">\n                    <p><span class=\"greenText\"><b>Successful harvest!</b></span><br>Your pay has increased by $0.02. Your bonus pay is now $0.80.</p>\n            ","response":0,"trial_type":"html-button-response","trial_index":116,"time_elapsed":206319,"internal_node_id":"0.0-4.0-1.54","subject_id":"61574bf13948d617adccfa8d","study_id":"60edd13110225f80f9f3709b","session_id":"6196bf62f32da1dcd0f1cb0e","condition":"contingent","relevant_dimensions":["wings","pattern"],"bee_group":{"antennae":"X","wings":"1","pattern":"D","legs":"X"},"bonus":0.9400000000000008},{"rt":947,"stimulus":"bees-with-color/bee-B1DF.svg","response":1,"trial_type":"image-button-response","trial_index":117,"time_elapsed":207267,"internal_node_id":"0.0-4.0-0.55","subject_id":"61574bf13948d617adccfa8d","study_id":"60edd13110225f80f9f3709b","session_id":"6196bf62f32da1dcd0f1cb0e","condition":"contingent","relevant_dimensions":["wings","pattern"],"bee_group":{"antennae":"X","wings":"1","pattern":"D","legs":"X"},"action":"avoid","summary":"good-avoid","bonus":0.9400000000000008},{"rt":422,"stimulus":"\n                    <p><b>Action: <em>avoid</em></b></p>\n                    <p>This is the bee that you just saw.</p>\n                    <img src=\"bees-with-color/bee-B1DF.svg\" width=\"200\">\n                    <p><br>Your bonus pay is unchanged, and remains at $0.80.</p>\n            ","response":0,"trial_type":"html-button-response","trial_index":118,"time_elapsed":207691,"internal_node_id":"0.0-4.0-1.55","subject_id":"61574bf13948d617adccfa8d","study_id":"60edd13110225f80f9f3709b","session_id":"6196bf62f32da1dcd0f1cb0e","condition":"contingent","relevant_dimensions":["wings","pattern"],"bee_group":{"antennae":"X","wings":"1","pattern":"D","legs":"X"},"bonus":0.9400000000000008},{"rt":947,"stimulus":"bees-with-color/bee-B2SM.svg","response":0,"trial_type":"image-button-response","trial_index":119,"time_elapsed":208639,"internal_node_id":"0.0-4.0-0.56","subject_id":"61574bf13948d617adccfa8d","study_id":"60edd13110225f80f9f3709b","session_id":"6196bf62f32da1dcd0f1cb0e","condition":"contingent","relevant_dimensions":["wings","pattern"],"bee_group":{"antennae":"X","wings":"1","pattern":"D","legs":"X"},"action":"harvest","summary":"good-harvest","bonus":0.9400000000000008},{"rt":512,"stimulus":"\n                    <p><b>Action: <em>harvest</em></b></p>\n                    <p>This is the bee that you just saw.</p>\n                    <img src=\"bees-with-color/bee-B2SM.svg\" width=\"200\">\n                    <p><span class=\"greenText\"><b>Successful harvest!</b></span><br>Your pay has increased by $0.02. Your bonus pay is now $0.82.</p>\n            ","response":0,"trial_type":"html-button-response","trial_index":120,"time_elapsed":209152,"internal_node_id":"0.0-4.0-1.56","subject_id":"61574bf13948d617adccfa8d","study_id":"60edd13110225f80f9f3709b","session_id":"6196bf62f32da1dcd0f1cb0e","condition":"contingent","relevant_dimensions":["wings","pattern"],"bee_group":{"antennae":"X","wings":"1","pattern":"D","legs":"X"},"bonus":0.9400000000000008},{"rt":1666,"stimulus":"bees-with-color/bee-B1SM.svg","response":0,"trial_type":"image-button-response","trial_index":121,"time_elapsed":210821,"internal_node_id":"0.0-4.0-0.57","subject_id":"61574bf13948d617adccfa8d","study_id":"60edd13110225f80f9f3709b","session_id":"6196bf62f32da1dcd0f1cb0e","condition":"contingent","relevant_dimensions":["wings","pattern"],"bee_group":{"antennae":"X","wings":"1","pattern":"D","legs":"X"},"action":"harvest","summary":"good-harvest","bonus":0.9400000000000008},{"rt":667,"stimulus":"\n                    <p><b>Action: <em>harvest</em></b></p>\n                    <p>This is the bee that you just saw.</p>\n                    <img src=\"bees-with-color/bee-B1SM.svg\" width=\"200\">\n                    <p><span class=\"greenText\"><b>Successful harvest!</b></span><br>Your pay has increased by $0.02. Your bonus pay is now $0.84.</p>\n            ","response":0,"trial_type":"html-button-response","trial_index":122,"time_elapsed":211489,"internal_node_id":"0.0-4.0-1.57","subject_id":"61574bf13948d617adccfa8d","study_id":"60edd13110225f80f9f3709b","session_id":"6196bf62f32da1dcd0f1cb0e","condition":"contingent","relevant_dimensions":["wings","pattern"],"bee_group":{"antennae":"X","wings":"1","pattern":"D","legs":"X"},"bonus":0.9400000000000008},{"rt":1496,"stimulus":"bees-with-color/bee-A2SF.svg","response":0,"trial_type":"image-button-response","trial_index":123,"time_elapsed":212985,"internal_node_id":"0.0-4.0-0.58","subject_id":"61574bf13948d617adccfa8d","study_id":"60edd13110225f80f9f3709b","session_id":"6196bf62f32da1dcd0f1cb0e","condition":"contingent","relevant_dimensions":["wings","pattern"],"bee_group":{"antennae":"X","wings":"1","pattern":"D","legs":"X"},"action":"harvest","summary":"good-harvest","bonus":0.9400000000000008},{"rt":586,"stimulus":"\n                    <p><b>Action: <em>harvest</em></b></p>\n                    <p>This is the bee that you just saw.</p>\n                    <img src=\"bees-with-color/bee-A2SF.svg\" width=\"200\">\n                    <p><span class=\"greenText\"><b>Successful harvest!</b></span><br>Your pay has increased by $0.02. Your bonus pay is now $0.86.</p>\n            ","response":0,"trial_type":"html-button-response","trial_index":124,"time_elapsed":213572,"internal_node_id":"0.0-4.0-1.58","subject_id":"61574bf13948d617adccfa8d","study_id":"60edd13110225f80f9f3709b","session_id":"6196bf62f32da1dcd0f1cb0e","condition":"contingent","relevant_dimensions":["wings","pattern"],"bee_group":{"antennae":"X","wings":"1","pattern":"D","legs":"X"},"bonus":0.9400000000000008},{"rt":776,"stimulus":"bees-with-color/bee-A1SF.svg","response":0,"trial_type":"image-button-response","trial_index":125,"time_elapsed":214350,"internal_node_id":"0.0-4.0-0.59","subject_id":"61574bf13948d617adccfa8d","study_id":"60edd13110225f80f9f3709b","session_id":"6196bf62f32da1dcd0f1cb0e","condition":"contingent","relevant_dimensions":["wings","pattern"],"bee_group":{"antennae":"X","wings":"1","pattern":"D","legs":"X"},"action":"harvest","summary":"good-harvest","bonus":0.9400000000000008},{"rt":434,"stimulus":"\n                    <p><b>Action: <em>harvest</em></b></p>\n                    <p>This is the bee that you just saw.</p>\n                    <img src=\"bees-with-color/bee-A1SF.svg\" width=\"200\">\n                    <p><span class=\"greenText\"><b>Successful harvest!</b></span><br>Your pay has increased by $0.02. Your bonus pay is now $0.88.</p>\n            ","response":0,"trial_type":"html-button-response","trial_index":126,"time_elapsed":214785,"internal_node_id":"0.0-4.0-1.59","subject_id":"61574bf13948d617adccfa8d","study_id":"60edd13110225f80f9f3709b","session_id":"6196bf62f32da1dcd0f1cb0e","condition":"contingent","relevant_dimensions":["wings","pattern"],"bee_group":{"antennae":"X","wings":"1","pattern":"D","legs":"X"},"bonus":0.9400000000000008},{"rt":662,"stimulus":"bees-with-color/bee-A1SM.svg","response":0,"trial_type":"image-button-response","trial_index":127,"time_elapsed":215449,"internal_node_id":"0.0-4.0-0.60","subject_id":"61574bf13948d617adccfa8d","study_id":"60edd13110225f80f9f3709b","session_id":"6196bf62f32da1dcd0f1cb0e","condition":"contingent","relevant_dimensions":["wings","pattern"],"bee_group":{"antennae":"X","wings":"1","pattern":"D","legs":"X"},"action":"harvest","summary":"good-harvest","bonus":0.9400000000000008},{"rt":1393,"stimulus":"\n                    <p><b>Action: <em>harvest</em></b></p>\n                    <p>This is the bee that you just saw.</p>\n                    <img src=\"bees-with-color/bee-A1SM.svg\" width=\"200\">\n                    <p><span class=\"greenText\"><b>Successful harvest!</b></span><br>Your pay has increased by $0.02. Your bonus pay is now $0.90.</p>\n            ","response":0,"trial_type":"html-button-response","trial_index":128,"time_elapsed":216844,"internal_node_id":"0.0-4.0-1.60","subject_id":"61574bf13948d617adccfa8d","study_id":"60edd13110225f80f9f3709b","session_id":"6196bf62f32da1dcd0f1cb0e","condition":"contingent","relevant_dimensions":["wings","pattern"],"bee_group":{"antennae":"X","wings":"1","pattern":"D","legs":"X"},"bonus":0.9400000000000008},{"rt":1379,"stimulus":"bees-with-color/bee-B1DM.svg","response":1,"trial_type":"image-button-response","trial_index":129,"time_elapsed":218223,"internal_node_id":"0.0-4.0-0.61","subject_id":"61574bf13948d617adccfa8d","study_id":"60edd13110225f80f9f3709b","session_id":"6196bf62f32da1dcd0f1cb0e","condition":"contingent","relevant_dimensions":["wings","pattern"],"bee_group":{"antennae":"X","wings":"1","pattern":"D","legs":"X"},"action":"avoid","summary":"good-avoid","bonus":0.9400000000000008},{"rt":707,"stimulus":"\n                    <p><b>Action: <em>avoid</em></b></p>\n                    <p>This is the bee that you just saw.</p>\n                    <img src=\"bees-with-color/bee-B1DM.svg\" width=\"200\">\n                    <p><br>Your bonus pay is unchanged, and remains at $0.90.</p>\n            ","response":0,"trial_type":"html-button-response","trial_index":130,"time_elapsed":218932,"internal_node_id":"0.0-4.0-1.61","subject_id":"61574bf13948d617adccfa8d","study_id":"60edd13110225f80f9f3709b","session_id":"6196bf62f32da1dcd0f1cb0e","condition":"contingent","relevant_dimensions":["wings","pattern"],"bee_group":{"antennae":"X","wings":"1","pattern":"D","legs":"X"},"bonus":0.9400000000000008},{"rt":839,"stimulus":"bees-with-color/bee-A1DM.svg","response":1,"trial_type":"image-button-response","trial_index":131,"time_elapsed":219771,"internal_node_id":"0.0-4.0-0.62","subject_id":"61574bf13948d617adccfa8d","study_id":"60edd13110225f80f9f3709b","session_id":"6196bf62f32da1dcd0f1cb0e","condition":"contingent","relevant_dimensions":["wings","pattern"],"bee_group":{"antennae":"X","wings":"1","pattern":"D","legs":"X"},"action":"avoid","summary":"good-avoid","bonus":0.9400000000000008},{"rt":427,"stimulus":"\n                    <p><b>Action: <em>avoid</em></b></p>\n                    <p>This is the bee that you just saw.</p>\n                    <img src=\"bees-with-color/bee-A1DM.svg\" width=\"200\">\n                    <p><br>Your bonus pay is unchanged, and remains at $0.90.</p>\n            ","response":0,"trial_type":"html-button-response","trial_index":132,"time_elapsed":220199,"internal_node_id":"0.0-4.0-1.62","subject_id":"61574bf13948d617adccfa8d","study_id":"60edd13110225f80f9f3709b","session_id":"6196bf62f32da1dcd0f1cb0e","condition":"contingent","relevant_dimensions":["wings","pattern"],"bee_group":{"antennae":"X","wings":"1","pattern":"D","legs":"X"},"bonus":0.9400000000000008},{"rt":1800,"stimulus":"bees-with-color/bee-B2DM.svg","response":0,"trial_type":"image-button-response","trial_index":133,"time_elapsed":221999,"internal_node_id":"0.0-4.0-0.63","subject_id":"61574bf13948d617adccfa8d","study_id":"60edd13110225f80f9f3709b","session_id":"6196bf62f32da1dcd0f1cb0e","condition":"contingent","relevant_dimensions":["wings","pattern"],"bee_group":{"antennae":"X","wings":"1","pattern":"D","legs":"X"},"action":"harvest","summary":"good-harvest","bonus":0.9400000000000008},{"rt":1124,"stimulus":"\n                    <p><b>Action: <em>harvest</em></b></p>\n                    <p>This is the bee that you just saw.</p>\n                    <img src=\"bees-with-color/bee-B2DM.svg\" width=\"200\">\n                    <p><span class=\"greenText\"><b>Successful harvest!</b></span><br>Your pay has increased by $0.02. Your bonus pay is now $0.92.</p>\n            ","response":0,"trial_type":"html-button-response","trial_index":134,"time_elapsed":223125,"internal_node_id":"0.0-4.0-1.63","subject_id":"61574bf13948d617adccfa8d","study_id":"60edd13110225f80f9f3709b","session_id":"6196bf62f32da1dcd0f1cb0e","condition":"contingent","relevant_dimensions":["wings","pattern"],"bee_group":{"antennae":"X","wings":"1","pattern":"D","legs":"X"},"bonus":0.9400000000000008},{"rt":8037,"stimulus":"You have completed the first part of this experiment.<br><br>You will now begin a shorter second part, in which you will receive no feedback.<br>The same rules regarding bonus pay apply.<br><br>Press any key to begin.","response":"enter","trial_type":"html-keyboard-response","trial_index":135,"time_elapsed":231163,"internal_node_id":"0.0-5.0","subject_id":"61574bf13948d617adccfa8d","study_id":"60edd13110225f80f9f3709b","session_id":"6196bf62f32da1dcd0f1cb0e","condition":"contingent","relevant_dimensions":["wings","pattern"],"bee_group":{"antennae":"X","wings":"1","pattern":"D","legs":"X"},"bonus":0.9400000000000008},{"rt":3332,"stimulus":"bees-with-color/bee-B2SM.svg","response":1,"trial_type":"image-button-response","trial_index":136,"time_elapsed":234498,"internal_node_id":"0.0-6.0-0.0","subject_id":"61574bf13948d617adccfa8d","study_id":"60edd13110225f80f9f3709b","session_id":"6196bf62f32da1dcd0f1cb0e","condition":"contingent","relevant_dimensions":["wings","pattern"],"bee_group":{"antennae":"X","wings":"1","pattern":"D","legs":"X"},"bonus":0.9400000000000008},{"rt":3070,"stimulus":"bees-with-color/bee-B1SM.svg","response":1,"trial_type":"image-button-response","trial_index":137,"time_elapsed":237570,"internal_node_id":"0.0-6.0-0.1","subject_id":"61574bf13948d617adccfa8d","study_id":"60edd13110225f80f9f3709b","session_id":"6196bf62f32da1dcd0f1cb0e","condition":"contingent","relevant_dimensions":["wings","pattern"],"bee_group":{"antennae":"X","wings":"1","pattern":"D","legs":"X"},"bonus":0.9400000000000008},{"rt":1619,"stimulus":"bees-with-color/bee-B1DM.svg","response":1,"trial_type":"image-button-response","trial_index":138,"time_elapsed":239191,"internal_node_id":"0.0-6.0-0.2","subject_id":"61574bf13948d617adccfa8d","study_id":"60edd13110225f80f9f3709b","session_id":"6196bf62f32da1dcd0f1cb0e","condition":"contingent","relevant_dimensions":["wings","pattern"],"bee_group":{"antennae":"X","wings":"1","pattern":"D","legs":"X"},"bonus":0.9400000000000008},{"rt":1107,"stimulus":"bees-with-color/bee-A1SM.svg","response":1,"trial_type":"image-button-response","trial_index":139,"time_elapsed":240299,"internal_node_id":"0.0-6.0-0.3","subject_id":"61574bf13948d617adccfa8d","study_id":"60edd13110225f80f9f3709b","session_id":"6196bf62f32da1dcd0f1cb0e","condition":"contingent","relevant_dimensions":["wings","pattern"],"bee_group":{"antennae":"X","wings":"1","pattern":"D","legs":"X"},"bonus":0.9400000000000008},{"rt":1107,"stimulus":"bees-with-color/bee-A2SF.svg","response":0,"trial_type":"image-button-response","trial_index":140,"time_elapsed":241409,"internal_node_id":"0.0-6.0-0.4","subject_id":"61574bf13948d617adccfa8d","study_id":"60edd13110225f80f9f3709b","session_id":"6196bf62f32da1dcd0f1cb0e","condition":"contingent","relevant_dimensions":["wings","pattern"],"bee_group":{"antennae":"X","wings":"1","pattern":"D","legs":"X"},"bonus":0.9400000000000008},{"rt":577,"stimulus":"bees-with-color/bee-A2DM.svg","response":1,"trial_type":"image-button-response","trial_index":141,"time_elapsed":241988,"internal_node_id":"0.0-6.0-0.5","subject_id":"61574bf13948d617adccfa8d","study_id":"60edd13110225f80f9f3709b","session_id":"6196bf62f32da1dcd0f1cb0e","condition":"contingent","relevant_dimensions":["wings","pattern"],"bee_group":{"antennae":"X","wings":"1","pattern":"D","legs":"X"},"bonus":0.9400000000000008},{"rt":600,"stimulus":"bees-with-color/bee-A1DF.svg","response":1,"trial_type":"image-button-response","trial_index":142,"time_elapsed":242591,"internal_node_id":"0.0-6.0-0.6","subject_id":"61574bf13948d617adccfa8d","study_id":"60edd13110225f80f9f3709b","session_id":"6196bf62f32da1dcd0f1cb0e","condition":"contingent","relevant_dimensions":["wings","pattern"],"bee_group":{"antennae":"X","wings":"1","pattern":"D","legs":"X"},"bonus":0.9400000000000008},{"rt":178,"stimulus":"bees-with-color/bee-A2DF.svg","response":1,"trial_type":"image-button-response","trial_index":143,"time_elapsed":242769,"internal_node_id":"0.0-6.0-0.7","subject_id":"61574bf13948d617adccfa8d","study_id":"60edd13110225f80f9f3709b","session_id":"6196bf62f32da1dcd0f1cb0e","condition":"contingent","relevant_dimensions":["wings","pattern"],"bee_group":{"antennae":"X","wings":"1","pattern":"D","legs":"X"},"bonus":0.9400000000000008},{"rt":172,"stimulus":"bees-with-color/bee-B1SF.svg","response":1,"trial_type":"image-button-response","trial_index":144,"time_elapsed":242943,"internal_node_id":"0.0-6.0-0.8","subject_id":"61574bf13948d617adccfa8d","study_id":"60edd13110225f80f9f3709b","session_id":"6196bf62f32da1dcd0f1cb0e","condition":"contingent","relevant_dimensions":["wings","pattern"],"bee_group":{"antennae":"X","wings":"1","pattern":"D","legs":"X"},"bonus":0.9400000000000008},{"rt":165,"stimulus":"bees-with-color/bee-B1DF.svg","response":1,"trial_type":"image-button-response","trial_index":145,"time_elapsed":243109,"internal_node_id":"0.0-6.0-0.9","subject_id":"61574bf13948d617adccfa8d","study_id":"60edd13110225f80f9f3709b","session_id":"6196bf62f32da1dcd0f1cb0e","condition":"contingent","relevant_dimensions":["wings","pattern"],"bee_group":{"antennae":"X","wings":"1","pattern":"D","legs":"X"},"bonus":0.9400000000000008},{"rt":174,"stimulus":"bees-with-color/bee-A1DM.svg","response":1,"trial_type":"image-button-response","trial_index":146,"time_elapsed":243285,"internal_node_id":"0.0-6.0-0.10","subject_id":"61574bf13948d617adccfa8d","study_id":"60edd13110225f80f9f3709b","session_id":"6196bf62f32da1dcd0f1cb0e","condition":"contingent","relevant_dimensions":["wings","pattern"],"bee_group":{"antennae":"X","wings":"1","pattern":"D","legs":"X"},"bonus":0.9400000000000008},{"rt":180,"stimulus":"bees-with-color/bee-A2SM.svg","response":1,"trial_type":"image-button-response","trial_index":147,"time_elapsed":243467,"internal_node_id":"0.0-6.0-0.11","subject_id":"61574bf13948d617adccfa8d","study_id":"60edd13110225f80f9f3709b","session_id":"6196bf62f32da1dcd0f1cb0e","condition":"contingent","relevant_dimensions":["wings","pattern"],"bee_group":{"antennae":"X","wings":"1","pattern":"D","legs":"X"},"bonus":0.9400000000000008},{"rt":161,"stimulus":"bees-with-color/bee-B2DF.svg","response":1,"trial_type":"image-button-response","trial_index":148,"time_elapsed":243630,"internal_node_id":"0.0-6.0-0.12","subject_id":"61574bf13948d617adccfa8d","study_id":"60edd13110225f80f9f3709b","session_id":"6196bf62f32da1dcd0f1cb0e","condition":"contingent","relevant_dimensions":["wings","pattern"],"bee_group":{"antennae":"X","wings":"1","pattern":"D","legs":"X"},"bonus":0.9400000000000008},{"rt":167,"stimulus":"bees-with-color/bee-B2DM.svg","response":1,"trial_type":"image-button-response","trial_index":149,"time_elapsed":243798,"internal_node_id":"0.0-6.0-0.13","subject_id":"61574bf13948d617adccfa8d","study_id":"60edd13110225f80f9f3709b","session_id":"6196bf62f32da1dcd0f1cb0e","condition":"contingent","relevant_dimensions":["wings","pattern"],"bee_group":{"antennae":"X","wings":"1","pattern":"D","legs":"X"},"bonus":0.9400000000000008},{"rt":174,"stimulus":"bees-with-color/bee-A1SF.svg","response":1,"trial_type":"image-button-response","trial_index":150,"time_elapsed":243973,"internal_node_id":"0.0-6.0-0.14","subject_id":"61574bf13948d617adccfa8d","study_id":"60edd13110225f80f9f3709b","session_id":"6196bf62f32da1dcd0f1cb0e","condition":"contingent","relevant_dimensions":["wings","pattern"],"bee_group":{"antennae":"X","wings":"1","pattern":"D","legs":"X"},"bonus":0.9400000000000008},{"rt":189,"stimulus":"bees-with-color/bee-B2SF.svg","response":1,"trial_type":"image-button-response","trial_index":151,"time_elapsed":244162,"internal_node_id":"0.0-6.0-0.15","subject_id":"61574bf13948d617adccfa8d","study_id":"60edd13110225f80f9f3709b","session_id":"6196bf62f32da1dcd0f1cb0e","condition":"contingent","relevant_dimensions":["wings","pattern"],"bee_group":{"antennae":"X","wings":"1","pattern":"D","legs":"X"},"bonus":0.9400000000000008},{"rt":176,"stimulus":"bees-with-color/bee-B2DM.svg","response":1,"trial_type":"image-button-response","trial_index":152,"time_elapsed":244340,"internal_node_id":"0.0-6.0-0.16","subject_id":"61574bf13948d617adccfa8d","study_id":"60edd13110225f80f9f3709b","session_id":"6196bf62f32da1dcd0f1cb0e","condition":"contingent","relevant_dimensions":["wings","pattern"],"bee_group":{"antennae":"X","wings":"1","pattern":"D","legs":"X"},"bonus":0.9400000000000008},{"rt":188,"stimulus":"bees-with-color/bee-A1SM.svg","response":1,"trial_type":"image-button-response","trial_index":153,"time_elapsed":244528,"internal_node_id":"0.0-6.0-0.17","subject_id":"61574bf13948d617adccfa8d","study_id":"60edd13110225f80f9f3709b","session_id":"6196bf62f32da1dcd0f1cb0e","condition":"contingent","relevant_dimensions":["wings","pattern"],"bee_group":{"antennae":"X","wings":"1","pattern":"D","legs":"X"},"bonus":0.9400000000000008},{"rt":182,"stimulus":"bees-with-color/bee-A2SF.svg","response":1,"trial_type":"image-button-response","trial_index":154,"time_elapsed":244712,"internal_node_id":"0.0-6.0-0.18","subject_id":"61574bf13948d617adccfa8d","study_id":"60edd13110225f80f9f3709b","session_id":"6196bf62f32da1dcd0f1cb0e","condition":"contingent","relevant_dimensions":["wings","pattern"],"bee_group":{"antennae":"X","wings":"1","pattern":"D","legs":"X"},"bonus":0.9400000000000008},{"rt":206,"stimulus":"bees-with-color/bee-A2SM.svg","response":1,"trial_type":"image-button-response","trial_index":155,"time_elapsed":244919,"internal_node_id":"0.0-6.0-0.19","subject_id":"61574bf13948d617adccfa8d","study_id":"60edd13110225f80f9f3709b","session_id":"6196bf62f32da1dcd0f1cb0e","condition":"contingent","relevant_dimensions":["wings","pattern"],"bee_group":{"antennae":"X","wings":"1","pattern":"D","legs":"X"},"bonus":0.9400000000000008},{"rt":185,"stimulus":"bees-with-color/bee-A1DM.svg","response":1,"trial_type":"image-button-response","trial_index":156,"time_elapsed":245105,"internal_node_id":"0.0-6.0-0.20","subject_id":"61574bf13948d617adccfa8d","study_id":"60edd13110225f80f9f3709b","session_id":"6196bf62f32da1dcd0f1cb0e","condition":"contingent","relevant_dimensions":["wings","pattern"],"bee_group":{"antennae":"X","wings":"1","pattern":"D","legs":"X"},"bonus":0.9400000000000008},{"rt":226,"stimulus":"bees-with-color/bee-B2SM.svg","response":1,"trial_type":"image-button-response","trial_index":157,"time_elapsed":245332,"internal_node_id":"0.0-6.0-0.21","subject_id":"61574bf13948d617adccfa8d","study_id":"60edd13110225f80f9f3709b","session_id":"6196bf62f32da1dcd0f1cb0e","condition":"contingent","relevant_dimensions":["wings","pattern"],"bee_group":{"antennae":"X","wings":"1","pattern":"D","legs":"X"},"bonus":0.9400000000000008},{"rt":264,"stimulus":"bees-with-color/bee-A2DM.svg","response":1,"trial_type":"image-button-response","trial_index":158,"time_elapsed":245598,"internal_node_id":"0.0-6.0-0.22","subject_id":"61574bf13948d617adccfa8d","study_id":"60edd13110225f80f9f3709b","session_id":"6196bf62f32da1dcd0f1cb0e","condition":"contingent","relevant_dimensions":["wings","pattern"],"bee_group":{"antennae":"X","wings":"1","pattern":"D","legs":"X"},"bonus":0.9400000000000008},{"rt":207,"stimulus":"bees-with-color/bee-A1DF.svg","response":1,"trial_type":"image-button-response","trial_index":159,"time_elapsed":245807,"internal_node_id":"0.0-6.0-0.23","subject_id":"61574bf13948d617adccfa8d","study_id":"60edd13110225f80f9f3709b","session_id":"6196bf62f32da1dcd0f1cb0e","condition":"contingent","relevant_dimensions":["wings","pattern"],"bee_group":{"antennae":"X","wings":"1","pattern":"D","legs":"X"},"bonus":0.9400000000000008},{"rt":181,"stimulus":"bees-with-color/bee-B2SF.svg","response":1,"trial_type":"image-button-response","trial_index":160,"time_elapsed":245989,"internal_node_id":"0.0-6.0-0.24","subject_id":"61574bf13948d617adccfa8d","study_id":"60edd13110225f80f9f3709b","session_id":"6196bf62f32da1dcd0f1cb0e","condition":"contingent","relevant_dimensions":["wings","pattern"],"bee_group":{"antennae":"X","wings":"1","pattern":"D","legs":"X"},"bonus":0.9400000000000008},{"rt":188,"stimulus":"bees-with-color/bee-B1SM.svg","response":1,"trial_type":"image-button-response","trial_index":161,"time_elapsed":246178,"internal_node_id":"0.0-6.0-0.25","subject_id":"61574bf13948d617adccfa8d","study_id":"60edd13110225f80f9f3709b","session_id":"6196bf62f32da1dcd0f1cb0e","condition":"contingent","relevant_dimensions":["wings","pattern"],"bee_group":{"antennae":"X","wings":"1","pattern":"D","legs":"X"},"bonus":0.9400000000000008},{"rt":182,"stimulus":"bees-with-color/bee-A2DF.svg","response":1,"trial_type":"image-button-response","trial_index":162,"time_elapsed":246360,"internal_node_id":"0.0-6.0-0.26","subject_id":"61574bf13948d617adccfa8d","study_id":"60edd13110225f80f9f3709b","session_id":"6196bf62f32da1dcd0f1cb0e","condition":"contingent","relevant_dimensions":["wings","pattern"],"bee_group":{"antennae":"X","wings":"1","pattern":"D","legs":"X"},"bonus":0.9400000000000008},{"rt":205,"stimulus":"bees-with-color/bee-B2DF.svg","response":1,"trial_type":"image-button-response","trial_index":163,"time_elapsed":246568,"internal_node_id":"0.0-6.0-0.27","subject_id":"61574bf13948d617adccfa8d","study_id":"60edd13110225f80f9f3709b","session_id":"6196bf62f32da1dcd0f1cb0e","condition":"contingent","relevant_dimensions":["wings","pattern"],"bee_group":{"antennae":"X","wings":"1","pattern":"D","legs":"X"},"bonus":0.9400000000000008},{"rt":196,"stimulus":"bees-with-color/bee-B1DF.svg","response":1,"trial_type":"image-button-response","trial_index":164,"time_elapsed":246765,"internal_node_id":"0.0-6.0-0.28","subject_id":"61574bf13948d617adccfa8d","study_id":"60edd13110225f80f9f3709b","session_id":"6196bf62f32da1dcd0f1cb0e","condition":"contingent","relevant_dimensions":["wings","pattern"],"bee_group":{"antennae":"X","wings":"1","pattern":"D","legs":"X"},"bonus":0.9400000000000008},{"rt":401,"stimulus":"bees-with-color/bee-B1SF.svg","response":1,"trial_type":"image-button-response","trial_index":165,"time_elapsed":247169,"internal_node_id":"0.0-6.0-0.29","subject_id":"61574bf13948d617adccfa8d","study_id":"60edd13110225f80f9f3709b","session_id":"6196bf62f32da1dcd0f1cb0e","condition":"contingent","relevant_dimensions":["wings","pattern"],"bee_group":{"antennae":"X","wings":"1","pattern":"D","legs":"X"},"bonus":0.9400000000000008},{"rt":441,"stimulus":"bees-with-color/bee-A1SF.svg","response":1,"trial_type":"image-button-response","trial_index":166,"time_elapsed":247610,"internal_node_id":"0.0-6.0-0.30","subject_id":"61574bf13948d617adccfa8d","study_id":"60edd13110225f80f9f3709b","session_id":"6196bf62f32da1dcd0f1cb0e","condition":"contingent","relevant_dimensions":["wings","pattern"],"bee_group":{"antennae":"X","wings":"1","pattern":"D","legs":"X"},"bonus":0.9400000000000008},{"rt":775,"stimulus":"bees-with-color/bee-B1DM.svg","response":1,"trial_type":"image-butto