[{"success":true,"trial_type":"fullscreen","trial_index":0,"time_elapsed":46643,"internal_node_id":"0.0-0.0","subject_id":"5f8d7850f3a3ef065112ffb5","study_id":"6197b3f67c2b5cd3b6d9596a","session_id":"619be31a4b0e107c39f0680e","condition":"full-information","relevant_dimensions":["wings","legs"],"bee_group":{"antennae":"X","wings":"2","pattern":"X","legs":"M"},"bonus":1.3800000000000008},{"success":true,"timeout":false,"failed_images":[],"failed_audio":[],"failed_video":[],"trial_type":"preload","trial_index":1,"time_elapsed":48456,"internal_node_id":"0.0-1.0","subject_id":"5f8d7850f3a3ef065112ffb5","study_id":"6197b3f67c2b5cd3b6d9596a","session_id":"619be31a4b0e107c39f0680e","condition":"full-information","relevant_dimensions":["wings","legs"],"bee_group":{"antennae":"X","wings":"2","pattern":"X","legs":"M"},"bonus":1.3800000000000008},{"rt":4278.699999988079,"stimulus":"Welcome! Press any key to begin.","response":" ","trial_type":"html-keyboard-response","trial_index":2,"time_elapsed":52735,"internal_node_id":"0.0-2.0","subject_id":"5f8d7850f3a3ef065112ffb5","study_id":"6197b3f67c2b5cd3b6d9596a","session_id":"619be31a4b0e107c39f0680e","condition":"full-information","relevant_dimensions":["wings","legs"],"bee_group":{"antennae":"X","wings":"2","pattern":"X","legs":"M"},"bonus":1.3800000000000008},{"view_history":[{"page_index":0,"viewing_time":4983.299999982119},{"page_index":1,"viewing_time":15244.90000000596},{"page_index":2,"viewing_time":11853},{"page_index":3,"viewing_time":16862.40000000596},{"page_index":4,"viewing_time":6072.800000011921},{"page_index":5,"viewing_time":13428.299999982119},{"page_index":6,"viewing_time":8180.5},{"page_index":7,"viewing_time":3037.7000000178814},{"page_index":6,"viewing_time":2988},{"page_index":7,"viewing_time":4365.799999982119},{"page_index":8,"viewing_time":1928.2000000178814},{"page_index":7,"viewing_time":138.7999999821186},{"page_index":6,"viewing_time":9002.40000000596},{"page_index":7,"viewing_time":3447.5},{"page_index":8,"viewing_time":3307.300000011921},{"page_index":9,"viewing_time":3691.0999999940395},{"page_index":10,"viewing_time":2372.0999999940395},{"page_index":11,"viewing_time":15803.699999988079},{"page_index":12,"viewing_time":10832.300000011921},{"page_index":13,"viewing_time":1098.300000011921},{"page_index":14,"viewing_time":1925.5}],"rt":140564.40000000596,"trial_type":"instructions","trial_index":3,"time_elapsed":193300,"internal_node_id":"0.0-3.0-0.0","subject_id":"5f8d7850f3a3ef065112ffb5","study_id":"6197b3f67c2b5cd3b6d9596a","session_id":"619be31a4b0e107c39f0680e","condition":"full-information","relevant_dimensions":["wings","legs"],"bee_group":{"antennae":"X","wings":"2","pattern":"X","legs":"M"},"bonus":1.3800000000000008},{"rt":30776.5,"response":{"Q0":["Two or six legs","Stripes or spots on body","Single or double wings","Antennae or no antennae"]},"question_order":[0],"trial_type":"survey-multi-select","trial_index":4,"time_elapsed":224080,"internal_node_id":"0.0-3.0-1.0","subject_id":"5f8d7850f3a3ef065112ffb5","study_id":"6197b3f67c2b5cd3b6d9596a","session_id":"619be31a4b0e107c39f0680e","condition":"full-information","relevant_dimensions":["wings","legs"],"bee_group":{"antennae":"X","wings":"2","pattern":"X","legs":"M"},"correct":true,"bonus":1.3800000000000008},{"rt":32538.59999999404,"response":{"Q1":"No.","Q2":"Based on the four features of the bee.","Q3":"You learn if it was friendly or dangerous, but do not alter your bonus."},"question_order":[0,1,2],"trial_type":"survey-multi-choice","trial_index":5,"time_elapsed":256622,"internal_node_id":"0.0-3.0-2.0","subject_id":"5f8d7850f3a3ef065112ffb5","study_id":"6197b3f67c2b5cd3b6d9596a","session_id":"619be31a4b0e107c39f0680e","condition":"full-information","relevant_dimensions":["wings","legs"],"bee_group":{"antennae":"X","wings":"2","pattern":"X","legs":"M"},"correct":true,"bonus":1.3800000000000008},{"rt":3281.9000000059605,"stimulus":"<p>Congrats, you got everything right<br>When you're ready, click the button below to continue to the experiment.</p>","response":0,"trial_type":"html-button-response","trial_index":6,"time_elapsed":259907,"internal_node_id":"0.0-3.0-3.0","subject_id":"5f8d7850f3a3ef065112ffb5","study_id":"6197b3f67c2b5cd3b6d9596a","session_id":"619be31a4b0e107c39f0680e","condition":"full-information","relevant_dimensions":["wings","legs"],"bee_group":{"antennae":"X","wings":"2","pattern":"X","legs":"M"},"bonus":1.3800000000000008},{"rt":3874.4000000059605,"stimulus":"bees-with-color/bee-B1SF.svg","response":0,"trial_type":"image-button-response","trial_index":7,"time_elapsed":263782,"internal_node_id":"0.0-4.0-0.0","subject_id":"5f8d7850f3a3ef065112ffb5","study_id":"6197b3f67c2b5cd3b6d9596a","session_id":"619be31a4b0e107c39f0680e","condition":"full-information","relevant_dimensions":["wings","legs"],"bee_group":{"antennae":"X","wings":"2","pattern":"X","legs":"M"},"action":"harvest","summary":"good-harvest","bonus":1.3800000000000008},{"rt":9288.199999988079,"stimulus":"\n                    <p><b>Action: <em>harvest</em></b></p>\n                    <p>This is the bee that you just saw.</p>\n                    <img src=\"bees-with-color/bee-B1SF.svg\" width=\"200\">\n                    <p><span class=\"greenText\"><b>Successful harvest!</b></span><br>Your pay has increased by $0.02. Your bonus pay is now $0.56.</p>\n            ","response":0,"trial_type":"html-button-response","trial_index":8,"time_elapsed":273072,"internal_node_id":"0.0-4.0-1.0","subject_id":"5f8d7850f3a3ef065112ffb5","study_id":"6197b3f67c2b5cd3b6d9596a","session_id":"619be31a4b0e107c39f0680e","condition":"full-information","relevant_dimensions":["wings","legs"],"bee_group":{"antennae":"X","wings":"2","pattern":"X","legs":"M"},"bonus":1.3800000000000008},{"rt":3201.5999999940395,"stimulus":"bees-with-color/bee-A1SF.svg","response":0,"trial_type":"image-button-response","trial_index":9,"time_elapsed":276275,"internal_node_id":"0.0-4.0-0.1","subject_id":"5f8d7850f3a3ef065112ffb5","study_id":"6197b3f67c2b5cd3b6d9596a","session_id":"619be31a4b0e107c39f0680e","condition":"full-information","relevant_dimensions":["wings","legs"],"bee_group":{"antennae":"X","wings":"2","pattern":"X","legs":"M"},"action":"harvest","summary":"good-harvest","bonus":1.3800000000000008},{"rt":2645.100000023842,"stimulus":"\n                    <p><b>Action: <em>harvest</em></b></p>\n                    <p>This is the bee that you just saw.</p>\n                    <img src=\"bees-with-color/bee-A1SF.svg\" width=\"200\">\n                    <p><span class=\"greenText\"><b>Successful harvest!</b></span><br>Your pay has increased by $0.02. Your bonus pay is now $0.58.</p>\n            ","response":0,"trial_type":"html-button-response","trial_index":10,"time_elapsed":278922,"internal_node_id":"0.0-4.0-1.1","subject_id":"5f8d7850f3a3ef065112ffb5","study_id":"6197b3f67c2b5cd3b6d9596a","session_id":"619be31a4b0e107c39f0680e","condition":"full-information","relevant_dimensions":["wings","legs"],"bee_group":{"antennae":"X","wings":"2","pattern":"X","legs":"M"},"bonus":1.3800000000000008},{"rt":1695.5999999940395,"stimulus":"bees-with-color/bee-B1SM.svg","response":1,"trial_type":"image-button-response","trial_index":11,"time_elapsed":280618,"internal_node_id":"0.0-4.0-0.2","subject_id":"5f8d7850f3a3ef065112ffb5","study_id":"6197b3f67c2b5cd3b6d9596a","session_id":"619be31a4b0e107c39f0680e","condition":"full-information","relevant_dimensions":["wings","legs"],"bee_group":{"antennae":"X","wings":"2","pattern":"X","legs":"M"},"action":"avoid","summary":"bad-avoid","bonus":1.3800000000000008},{"rt":9848.799999982119,"stimulus":"\n                    <p><b>Action: <em>avoid</em></b></p>\n                    <p>This is the bee that you just saw.</p>\n                    <img src=\"bees-with-color/bee-B1SM.svg\" width=\"200\">\n                    <p><span class=\"redText\">Bad choice,</span> the bee was friendly.<br>Your bonus pay is unchanged, and remains at $0.58.</p>\n            ","response":0,"trial_type":"html-button-response","trial_index":12,"time_elapsed":290468,"internal_node_id":"0.0-4.0-1.2","subject_id":"5f8d7850f3a3ef065112ffb5","study_id":"6197b3f67c2b5cd3b6d9596a","session_id":"619be31a4b0e107c39f0680e","condition":"full-information","relevant_dimensions":["wings","legs"],"bee_group":{"antennae":"X","wings":"2","pattern":"X","legs":"M"},"bonus":1.3800000000000008},{"rt":2212.899999976158,"stimulus":"bees-with-color/bee-A2DM.svg","response":1,"trial_type":"image-button-response","trial_index":13,"time_elapsed":292682,"internal_node_id":"0.0-4.0-0.3","subject_id":"5f8d7850f3a3ef065112ffb5","study_id":"6197b3f67c2b5cd3b6d9596a","session_id":"619be31a4b0e107c39f0680e","condition":"full-information","relevant_dimensions":["wings","legs"],"bee_group":{"antennae":"X","wings":"2","pattern":"X","legs":"M"},"action":"avoid","summary":"good-avoid","bonus":1.3800000000000008},{"rt":4737.4000000059605,"stimulus":"\n                    <p><b>Action: <em>avoid</em></b></p>\n                    <p>This is the bee that you just saw.</p>\n                    <img src=\"bees-with-color/bee-A2DM.svg\" width=\"200\">\n                    <p><span class=\"greenText\">Good choice!</span>  This bee would have stung you.<br>Your bonus pay is unchanged, and remains at $0.58.</p>\n            ","response":0,"trial_type":"html-button-response","trial_index":14,"time_elapsed":297420,"internal_node_id":"0.0-4.0-1.3","subject_id":"5f8d7850f3a3ef065112ffb5","study_id":"6197b3f67c2b5cd3b6d9596a","session_id":"619be31a4b0e107c39f0680e","condition":"full-information","relevant_dimensions":["wings","legs"],"bee_group":{"antennae":"X","wings":"2","pattern":"X","legs":"M"},"bonus":1.3800000000000008},{"rt":1882.9000000059605,"stimulus":"bees-with-color/bee-B2DM.svg","response":1,"trial_type":"image-button-response","trial_index":15,"time_elapsed":299304,"internal_node_id":"0.0-4.0-0.4","subject_id":"5f8d7850f3a3ef065112ffb5","study_id":"6197b3f67c2b5cd3b6d9596a","session_id":"619be31a4b0e107c39f0680e","condition":"full-information","relevant_dimensions":["wings","legs"],"bee_group":{"antennae":"X","wings":"2","pattern":"X","legs":"M"},"action":"avoid","summary":"good-avoid","bonus":1.3800000000000008},{"rt":1138.199999988079,"stimulus":"\n                    <p><b>Action: <em>avoid</em></b></p>\n                    <p>This is the bee that you just saw.</p>\n                    <img src=\"bees-with-color/bee-B2DM.svg\" width=\"200\">\n                    <p><span class=\"greenText\">Good choice!</span>  This bee would have stung you.<br>Your bonus pay is unchanged, and remains at $0.58.</p>\n            ","response":0,"trial_type":"html-button-response","trial_index":16,"time_elapsed":300443,"internal_node_id":"0.0-4.0-1.4","subject_id":"5f8d7850f3a3ef065112ffb5","study_id":"6197b3f67c2b5cd3b6d9596a","session_id":"619be31a4b0e107c39f0680e","condition":"full-information","relevant_dimensions":["wings","legs"],"bee_group":{"antennae":"X","wings":"2","pattern":"X","legs":"M"},"bonus":1.3800000000000008},{"rt":1944.5999999940395,"stimulus":"bees-with-color/bee-A1DM.svg","response":1,"trial_type":"image-button-response","trial_index":17,"time_elapsed":302389,"internal_node_id":"0.0-4.0-0.5","subject_id":"5f8d7850f3a3ef065112ffb5","study_id":"6197b3f67c2b5cd3b6d9596a","session_id":"619be31a4b0e107c39f0680e","condition":"full-information","relevant_dimensions":["wings","legs"],"bee_group":{"antennae":"X","wings":"2","pattern":"X","legs":"M"},"action":"avoid","summary":"bad-avoid","bonus":1.3800000000000008},{"rt":4070.4000000059605,"stimulus":"\n                    <p><b>Action: <em>avoid</em></b></p>\n                    <p>This is the bee that you just saw.</p>\n                    <img src=\"bees-with-color/bee-A1DM.svg\" width=\"200\">\n                    <p><span class=\"redText\">Bad choice,</span> the bee was friendly.<br>Your bonus pay is unchanged, and remains at $0.58.</p>\n            ","response":0,"trial_type":"html-button-response","trial_index":18,"time_elapsed":306460,"internal_node_id":"0.0-4.0-1.5","subject_id":"5f8d7850f3a3ef065112ffb5","study_id":"6197b3f67c2b5cd3b6d9596a","session_id":"619be31a4b0e107c39f0680e","condition":"full-information","relevant_dimensions":["wings","legs"],"bee_group":{"antennae":"X","wings":"2","pattern":"X","legs":"M"},"bonus":1.3800000000000008},{"rt":5039.5,"stimulus":"bees-with-color/bee-A2DF.svg","response":1,"trial_type":"image-button-response","trial_index":19,"time_elapsed":311501,"internal_node_id":"0.0-4.0-0.6","subject_id":"5f8d7850f3a3ef065112ffb5","study_id":"6197b3f67c2b5cd3b6d9596a","session_id":"619be31a4b0e107c39f0680e","condition":"full-information","relevant_dimensions":["wings","legs"],"bee_group":{"antennae":"X","wings":"2","pattern":"X","legs":"M"},"action":"avoid","summary":"bad-avoid","bonus":1.3800000000000008},{"rt":1303.7999999821186,"stimulus":"\n                    <p><b>Action: <em>avoid</em></b></p>\n                    <p>This is the bee that you just saw.</p>\n                    <img src=\"bees-with-color/bee-A2DF.svg\" width=\"200\">\n                    <p><span class=\"redText\">Bad choice,</span> the bee was friendly.<br>Your bonus pay is unchanged, and remains at $0.58.</p>\n            ","response":0,"trial_type":"html-button-response","trial_index":20,"time_elapsed":312806,"internal_node_id":"0.0-4.0-1.6","subject_id":"5f8d7850f3a3ef065112ffb5","study_id":"6197b3f67c2b5cd3b6d9596a","session_id":"619be31a4b0e107c39f0680e","condition":"full-information","relevant_dimensions":["wings","legs"],"bee_group":{"antennae":"X","wings":"2","pattern":"X","legs":"M"},"bonus":1.3800000000000008},{"rt":4558.299999982119,"stimulus":"bees-with-color/bee-B1DM.svg","response":1,"trial_type":"image-button-response","trial_index":21,"time_elapsed":317365,"internal_node_id":"0.0-4.0-0.7","subject_id":"5f8d7850f3a3ef065112ffb5","study_id":"6197b3f67c2b5cd3b6d9596a","session_id":"619be31a4b0e107c39f0680e","condition":"full-information","relevant_dimensions":["wings","legs"],"bee_group":{"antennae":"X","wings":"2","pattern":"X","legs":"M"},"action":"avoid","summary":"bad-avoid","bonus":1.3800000000000008},{"rt":2609.4000000059605,"stimulus":"\n                    <p><b>Action: <em>avoid</em></b></p>\n                    <p>This is the bee that you just saw.</p>\n                    <img src=\"bees-with-color/bee-B1DM.svg\" width=\"200\">\n                    <p><span class=\"redText\">Bad choice,</span> the bee was friendly.<br>Your bonus pay is unchanged, and remains at $0.58.</p>\n            ","response":0,"trial_type":"html-button-response","trial_index":22,"time_elapsed":319976,"internal_node_id":"0.0-4.0-1.7","subject_id":"5f8d7850f3a3ef065112ffb5","study_id":"6197b3f67c2b5cd3b6d9596a","session_id":"619be31a4b0e107c39f0680e","condition":"full-information","relevant_dimensions":["wings","legs"],"bee_group":{"antennae":"X","wings":"2","pattern":"X","legs":"M"},"bonus":1.3800000000000008},{"rt":1646.8999999761581,"stimulus":"bees-with-color/bee-A2SM.svg","response":0,"trial_type":"image-button-response","trial_index":23,"time_elapsed":321624,"internal_node_id":"0.0-4.0-0.8","subject_id":"5f8d7850f3a3ef065112ffb5","study_id":"6197b3f67c2b5cd3b6d9596a","session_id":"619be31a4b0e107c39f0680e","condition":"full-information","relevant_dimensions":["wings","legs"],"bee_group":{"antennae":"X","wings":"2","pattern":"X","legs":"M"},"action":"harvest","summary":"bad-harvest","bonus":1.3800000000000008},{"rt":1526.9000000059605,"stimulus":"\n                    <p><b>Action: <em>harvest</em></b></p>\n                    <p>This is the bee that you just saw.</p>\n                    <img src=\"bees-with-color/bee-A2SM.svg\" width=\"200\">\n                    <p><span class=\"redText\">Bad choice, the bee was angry.</span><br><b>You have been stung!</b><br>Your pay has been decreased by $0.10. Your bonus pay is now $0.48.</p>\n            ","response":0,"trial_type":"html-button-response","trial_index":24,"time_elapsed":323151,"internal_node_id":"0.0-4.0-1.8","subject_id":"5f8d7850f3a3ef065112ffb5","study_id":"6197b3f67c2b5cd3b6d9596a","session_id":"619be31a4b0e107c39f0680e","condition":"full-information","relevant_dimensions":["wings","legs"],"bee_group":{"antennae":"X","wings":"2","pattern":"X","legs":"M"},"bonus":1.3800000000000008},{"rt":1679.5999999940395,"stimulus":"bees-with-color/bee-A1SM.svg","response":0,"trial_type":"image-button-response","trial_index":25,"time_elapsed":324832,"internal_node_id":"0.0-4.0-0.9","subject_id":"5f8d7850f3a3ef065112ffb5","study_id":"6197b3f67c2b5cd3b6d9596a","session_id":"619be31a4b0e107c39f0680e","condition":"full-information","relevant_dimensions":["wings","legs"],"bee_group":{"antennae":"X","wings":"2","pattern":"X","legs":"M"},"action":"harvest","summary":"good-harvest","bonus":1.3800000000000008},{"rt":9168.59999999404,"stimulus":"\n                    <p><b>Action: <em>harvest</em></b></p>\n                    <p>This is the bee that you just saw.</p>\n                    <img src=\"bees-with-color/bee-A1SM.svg\" width=\"200\">\n                    <p><span class=\"greenText\"><b>Successful harvest!</b></span><br>Your pay has increased by $0.02. Your bonus pay is now $0.50.</p>\n            ","response":0,"trial_type":"html-button-response","trial_index":26,"time_elapsed":334002,"internal_node_id":"0.0-4.0-1.9","subject_id":"5f8d7850f3a3ef065112ffb5","study_id":"6197b3f67c2b5cd3b6d9596a","session_id":"619be31a4b0e107c39f0680e","condition":"full-information","relevant_dimensions":["wings","legs"],"bee_group":{"antennae":"X","wings":"2","pattern":"X","legs":"M"},"bonus":1.3800000000000008},{"rt":1619.1000000238419,"stimulus":"bees-with-color/bee-B2DF.svg","response":1,"trial_type":"image-button-response","trial_index":27,"time_elapsed":335622,"internal_node_id":"0.0-4.0-0.10","subject_id":"5f8d7850f3a3ef065112ffb5","study_id":"6197b3f67c2b5cd3b6d9596a","session_id":"619be31a4b0e107c39f0680e","condition":"full-information","relevant_dimensions":["wings","legs"],"bee_group":{"antennae":"X","wings":"2","pattern":"X","legs":"M"},"action":"avoid","summary":"bad-avoid","bonus":1.3800000000000008},{"rt":1542.5999999940395,"stimulus":"\n                    <p><b>Action: <em>avoid</em></b></p>\n                    <p>This is the bee that you just saw.</p>\n                    <img src=\"bees-with-color/bee-B2DF.svg\" width=\"200\">\n                    <p><span class=\"redText\">Bad choice,</span> the bee was friendly.<br>Your bonus pay is unchanged, and remains at $0.50.</p>\n            ","response":0,"trial_type":"html-button-response","trial_index":28,"time_elapsed":337166,"internal_node_id":"0.0-4.0-1.10","subject_id":"5f8d7850f3a3ef065112ffb5","study_id":"6197b3f67c2b5cd3b6d9596a","session_id":"619be31a4b0e107c39f0680e","condition":"full-information","relevant_dimensions":["wings","legs"],"bee_group":{"antennae":"X","wings":"2","pattern":"X","legs":"M"},"bonus":1.3800000000000008},{"rt":1667.0999999940395,"stimulus":"bees-with-color/bee-A2SF.svg","response":0,"trial_type":"image-button-response","trial_index":29,"time_elapsed":338834,"internal_node_id":"0.0-4.0-0.11","subject_id":"5f8d7850f3a3ef065112ffb5","study_id":"6197b3f67c2b5cd3b6d9596a","session_id":"619be31a4b0e107c39f0680e","condition":"full-information","relevant_dimensions":["wings","legs"],"bee_group":{"antennae":"X","wings":"2","pattern":"X","legs":"M"},"action":"harvest","summary":"good-harvest","bonus":1.3800000000000008},{"rt":857.6999999880791,"stimulus":"\n                    <p><b>Action: <em>harvest</em></b></p>\n                    <p>This is the bee that you just saw.</p>\n                    <img src=\"bees-with-color/bee-A2SF.svg\" width=\"200\">\n                    <p><span class=\"greenText\"><b>Successful harvest!</b></span><br>Your pay has increased by $0.02. Your bonus pay is now $0.52.</p>\n            ","response":0,"trial_type":"html-button-response","trial_index":30,"time_elapsed":339693,"internal_node_id":"0.0-4.0-1.11","subject_id":"5f8d7850f3a3ef065112ffb5","study_id":"6197b3f67c2b5cd3b6d9596a","session_id":"619be31a4b0e107c39f0680e","condition":"full-information","relevant_dimensions":["wings","legs"],"bee_group":{"antennae":"X","wings":"2","pattern":"X","legs":"M"},"bonus":1.3800000000000008},{"rt":2761.699999988079,"stimulus":"bees-with-color/bee-A1DF.svg","response":1,"trial_type":"image-button-response","trial_index":31,"time_elapsed":342456,"internal_node_id":"0.0-4.0-0.12","subject_id":"5f8d7850f3a3ef065112ffb5","study_id":"6197b3f67c2b5cd3b6d9596a","session_id":"619be31a4b0e107c39f0680e","condition":"full-information","relevant_dimensions":["wings","legs"],"bee_group":{"antennae":"X","wings":"2","pattern":"X","legs":"M"},"action":"avoid","summary":"bad-avoid","bonus":1.3800000000000008},{"rt":3615.4000000059605,"stimulus":"\n                    <p><b>Action: <em>avoid</em></b></p>\n                    <p>This is the bee that you just saw.</p>\n                    <img src=\"bees-with-color/bee-A1DF.svg\" width=\"200\">\n                    <p><span class=\"redText\">Bad choice,</span> the bee was friendly.<br>Your bonus pay is unchanged, and remains at $0.52.</p>\n            ","response":0,"trial_type":"html-button-response","trial_index":32,"time_elapsed":346072,"internal_node_id":"0.0-4.0-1.12","subject_id":"5f8d7850f3a3ef065112ffb5","study_id":"6197b3f67c2b5cd3b6d9596a","session_id":"619be31a4b0e107c39f0680e","condition":"full-information","relevant_dimensions":["wings","legs"],"bee_group":{"antennae":"X","wings":"2","pattern":"X","legs":"M"},"bonus":1.3800000000000008},{"rt":1239.199999988079,"stimulus":"bees-with-color/bee-B2SM.svg","response":1,"trial_type":"image-button-response","trial_index":33,"time_elapsed":347313,"internal_node_id":"0.0-4.0-0.13","subject_id":"5f8d7850f3a3ef065112ffb5","study_id":"6197b3f67c2b5cd3b6d9596a","session_id":"619be31a4b0e107c39f0680e","condition":"full-information","relevant_dimensions":["wings","legs"],"bee_group":{"antennae":"X","wings":"2","pattern":"X","legs":"M"},"action":"avoid","summary":"good-avoid","bonus":1.3800000000000008},{"rt":854.9000000059605,"stimulus":"\n                    <p><b>Action: <em>avoid</em></b></p>\n                    <p>This is the bee that you just saw.</p>\n                    <img src=\"bees-with-color/bee-B2SM.svg\" width=\"200\">\n                    <p><span class=\"greenText\">Good choice!</span>  This bee would have stung you.<br>Your bonus pay is unchanged, and remains at $0.52.</p>\n            ","response":0,"trial_type":"html-button-response","trial_index":34,"time_elapsed":348168,"internal_node_id":"0.0-4.0-1.13","subject_id":"5f8d7850f3a3ef065112ffb5","study_id":"6197b3f67c2b5cd3b6d9596a","session_id":"619be31a4b0e107c39f0680e","condition":"full-information","relevant_dimensions":["wings","legs"],"bee_group":{"antennae":"X","wings":"2","pattern":"X","legs":"M"},"bonus":1.3800000000000008},{"rt":968.7000000178814,"stimulus":"bees-with-color/bee-B2SF.svg","response":1,"trial_type":"image-button-response","trial_index":35,"time_elapsed":349138,"internal_node_id":"0.0-4.0-0.14","subject_id":"5f8d7850f3a3ef065112ffb5","study_id":"6197b3f67c2b5cd3b6d9596a","session_id":"619be31a4b0e107c39f0680e","condition":"full-information","relevant_dimensions":["wings","legs"],"bee_group":{"antennae":"X","wings":"2","pattern":"X","legs":"M"},"action":"avoid","summary":"bad-avoid","bonus":1.3800000000000008},{"rt":2760.4000000059605,"stimulus":"\n                    <p><b>Action: <em>avoid</em></b></p>\n                    <p>This is the bee that you just saw.</p>\n                    <img src=\"bees-with-color/bee-B2SF.svg\" width=\"200\">\n                    <p><span class=\"redText\">Bad choice,</span> the bee was friendly.<br>Your bonus pay is unchanged, and remains at $0.52.</p>\n            ","response":0,"trial_type":"html-button-response","trial_index":36,"time_elapsed":351899,"internal_node_id":"0.0-4.0-1.14","subject_id":"5f8d7850f3a3ef065112ffb5","study_id":"6197b3f67c2b5cd3b6d9596a","session_id":"619be31a4b0e107c39f0680e","condition":"full-information","relevant_dimensions":["wings","legs"],"bee_group":{"antennae":"X","wings":"2","pattern":"X","legs":"M"},"bonus":1.3800000000000008},{"rt":1417,"stimulus":"bees-with-color/bee-B1DF.svg","response":0,"trial_type":"image-button-response","trial_index":37,"time_elapsed":353317,"internal_node_id":"0.0-4.0-0.15","subject_id":"5f8d7850f3a3ef065112ffb5","study_id":"6197b3f67c2b5cd3b6d9596a","session_id":"619be31a4b0e107c39f0680e","condition":"full-information","relevant_dimensions":["wings","legs"],"bee_group":{"antennae":"X","wings":"2","pattern":"X","legs":"M"},"action":"harvest","summary":"good-harvest","bonus":1.3800000000000008},{"rt":873.8000000119209,"stimulus":"\n                    <p><b>Action: <em>harvest</em></b></p>\n                    <p>This is the bee that you just saw.</p>\n                    <img src=\"bees-with-color/bee-B1DF.svg\" width=\"200\">\n                    <p><span class=\"greenText\"><b>Successful harvest!</b></span><br>Your pay has increased by $0.02. Your bonus pay is now $0.54.</p>\n            ","response":0,"trial_type":"html-button-response","trial_index":38,"time_elapsed":354192,"internal_node_id":"0.0-4.0-1.15","subject_id":"5f8d7850f3a3ef065112ffb5","study_id":"6197b3f67c2b5cd3b6d9596a","session_id":"619be31a4b0e107c39f0680e","condition":"full-information","relevant_dimensions":["wings","legs"],"bee_group":{"antennae":"X","wings":"2","pattern":"X","legs":"M"},"bonus":1.3800000000000008},{"rt":1559.9000000059605,"stimulus":"bees-with-color/bee-A2DF.svg","response":1,"trial_type":"image-button-response","trial_index":39,"time_elapsed":355753,"internal_node_id":"0.0-4.0-0.16","subject_id":"5f8d7850f3a3ef065112ffb5","study_id":"6197b3f67c2b5cd3b6d9596a","session_id":"619be31a4b0e107c39f0680e","condition":"full-information","relevant_dimensions":["wings","legs"],"bee_group":{"antennae":"X","wings":"2","pattern":"X","legs":"M"},"action":"avoid","summary":"bad-avoid","bonus":1.3800000000000008},{"rt":1453.1000000238419,"stimulus":"\n                    <p><b>Action: <em>avoid</em></b></p>\n                    <p>This is the bee that you just saw.</p>\n                    <img src=\"bees-with-color/bee-A2DF.svg\" width=\"200\">\n                    <p><span class=\"redText\">Bad choice,</span> the bee was friendly.<br>Your bonus pay is unchanged, and remains at $0.54.</p>\n            ","response":0,"trial_type":"html-button-response","trial_index":40,"time_elapsed":357207,"internal_node_id":"0.0-4.0-1.16","subject_id":"5f8d7850f3a3ef065112ffb5","study_id":"6197b3f67c2b5cd3b6d9596a","session_id":"619be31a4b0e107c39f0680e","condition":"full-information","relevant_dimensions":["wings","legs"],"bee_group":{"antennae":"X","wings":"2","pattern":"X","legs":"M"},"bonus":1.3800000000000008},{"rt":3652.5,"stimulus":"bees-with-color/bee-A1SM.svg","response":1,"trial_type":"image-button-response","trial_index":41,"time_elapsed":360860,"internal_node_id":"0.0-4.0-0.17","subject_id":"5f8d7850f3a3ef065112ffb5","study_id":"6197b3f67c2b5cd3b6d9596a","session_id":"619be31a4b0e107c39f0680e","condition":"full-information","relevant_dimensions":["wings","legs"],"bee_group":{"antennae":"X","wings":"2","pattern":"X","legs":"M"},"action":"avoid","summary":"bad-avoid","bonus":1.3800000000000008},{"rt":772.4000000059605,"stimulus":"\n                    <p><b>Action: <em>avoid</em></b></p>\n                    <p>This is the bee that you just saw.</p>\n                    <img src=\"bees-with-color/bee-A1SM.svg\" width=\"200\">\n                    <p><span class=\"redText\">Bad choice,</span> the bee was friendly.<br>Your bonus pay is unchanged, and remains at $0.54.</p>\n            ","response":0,"trial_type":"html-button-response","trial_index":42,"time_elapsed":361633,"internal_node_id":"0.0-4.0-1.17","subject_id":"5f8d7850f3a3ef065112ffb5","study_id":"6197b3f67c2b5cd3b6d9596a","session_id":"619be31a4b0e107c39f0680e","condition":"full-information","relevant_dimensions":["wings","legs"],"bee_group":{"antennae":"X","wings":"2","pattern":"X","legs":"M"},"bonus":1.3800000000000008},{"rt":1194,"stimulus":"bees-with-color/bee-A1SF.svg","response":0,"trial_type":"image-button-response","trial_index":43,"time_elapsed":362828,"internal_node_id":"0.0-4.0-0.18","subject_id":"5f8d7850f3a3ef065112ffb5","study_id":"6197b3f67c2b5cd3b6d9596a","session_id":"619be31a4b0e107c39f0680e","condition":"full-information","relevant_dimensions":["wings","legs"],"bee_group":{"antennae":"X","wings":"2","pattern":"X","legs":"M"},"action":"harvest","summary":"good-harvest","bonus":1.3800000000000008},{"rt":577.6999999880791,"stimulus":"\n                    <p><b>Action: <em>harvest</em></b></p>\n                    <p>This is the bee that you just saw.</p>\n                    <img src=\"bees-with-color/bee-A1SF.svg\" width=\"200\">\n                    <p><span class=\"greenText\"><b>Successful harvest!</b></span><br>Your pay has increased by $0.02. Your bonus pay is now $0.56.</p>\n            ","response":0,"trial_type":"html-button-response","trial_index":44,"time_elapsed":363407,"internal_node_id":"0.0-4.0-1.18","subject_id":"5f8d7850f3a3ef065112ffb5","study_id":"6197b3f67c2b5cd3b6d9596a","session_id":"619be31a4b0e107c39f0680e","condition":"full-information","relevant_dimensions":["wings","legs"],"bee_group":{"antennae":"X","wings":"2","pattern":"X","legs":"M"},"bonus":1.3800000000000008},{"rt":7873.300000011921,"stimulus":"bees-with-color/bee-B1DM.svg","response":1,"trial_type":"image-button-response","trial_index":45,"time_elapsed":371281,"internal_node_id":"0.0-4.0-0.19","subject_id":"5f8d7850f3a3ef065112ffb5","study_id":"6197b3f67c2b5cd3b6d9596a","session_id":"619be31a4b0e107c39f0680e","condition":"full-information","relevant_dimensions":["wings","legs"],"bee_group":{"antennae":"X","wings":"2","pattern":"X","legs":"M"},"action":"avoid","summary":"bad-avoid","bonus":1.3800000000000008},{"rt":4385.199999988079,"stimulus":"\n                    <p><b>Action: <em>avoid</em></b></p>\n                    <p>This is the bee that you just saw.</p>\n                    <img src=\"bees-with-color/bee-B1DM.svg\" width=\"200\">\n                    <p><span class=\"redText\">Bad choice,</span> the bee was friendly.<br>Your bonus pay is unchanged, and remains at $0.56.</p>\n            ","response":0,"trial_type":"html-button-response","trial_index":46,"time_elapsed":375668,"internal_node_id":"0.0-4.0-1.19","subject_id":"5f8d7850f3a3ef065112ffb5","study_id":"6197b3f67c2b5cd3b6d9596a","session_id":"619be31a4b0e107c39f0680e","condition":"full-information","relevant_dimensions":["wings","legs"],"bee_group":{"antennae":"X","wings":"2","pattern":"X","legs":"M"},"bonus":1.3800000000000008},{"rt":3616.5999999940395,"stimulus":"bees-with-color/bee-A2DM.svg","response":1,"trial_type":"image-button-response","trial_index":47,"time_elapsed":379286,"internal_node_id":"0.0-4.0-0.20","subject_id":"5f8d7850f3a3ef065112ffb5","study_id":"6197b3f67c2b5cd3b6d9596a","session_id":"619be31a4b0e107c39f0680e","condition":"full-information","relevant_dimensions":["wings","legs"],"bee_group":{"antennae":"X","wings":"2","pattern":"X","legs":"M"},"action":"avoid","summary":"good-avoid","bonus":1.3800000000000008},{"rt":1822.5,"stimulus":"\n                    <p><b>Action: <em>avoid</em></b></p>\n                    <p>This is the bee that you just saw.</p>\n                    <img src=\"bees-with-color/bee-A2DM.svg\" width=\"200\">\n                    <p><span class=\"greenText\">Good choice!</span>  This bee would have stung you.<br>Your bonus pay is unchanged, and remains at $0.56.</p>\n            ","response":0,"trial_type":"html-button-response","trial_index":48,"time_elapsed":381109,"internal_node_id":"0.0-4.0-1.20","subject_id":"5f8d7850f3a3ef065112ffb5","study_id":"6197b3f67c2b5cd3b6d9596a","session_id":"619be31a4b0e107c39f0680e","condition":"full-information","relevant_dimensions":["wings","legs"],"bee_group":{"antennae":"X","wings":"2","pattern":"X","legs":"M"},"bonus":1.3800000000000008},{"rt":4057.199999988079,"stimulus":"bees-with-color/bee-A2SM.svg","response":1,"trial_type":"image-button-response","trial_index":49,"time_elapsed":385168,"internal_node_id":"0.0-4.0-0.21","subject_id":"5f8d7850f3a3ef065112ffb5","study_id":"6197b3f67c2b5cd3b6d9596a","session_id":"619be31a4b0e107c39f0680e","condition":"full-information","relevant_dimensions":["wings","legs"],"bee_group":{"antennae":"X","wings":"2","pattern":"X","legs":"M"},"action":"avoid","summary":"good-avoid","bonus":1.3800000000000008},{"rt":1168.699999988079,"stimulus":"\n                    <p><b>Action: <em>avoid</em></b></p>\n                    <p>This is the bee that you just saw.</p>\n                    <img src=\"bees-with-color/bee-A2SM.svg\" width=\"200\">\n                    <p><span class=\"greenText\">Good choice!</span>  This bee would have stung you.<br>Your bonus pay is unchanged, and remains at $0.56.</p>\n            ","response":0,"trial_type":"html-button-response","trial_index":50,"time_elapsed":386337,"internal_node_id":"0.0-4.0-1.21","subject_id":"5f8d7850f3a3ef065112ffb5","study_id":"6197b3f67c2b5cd3b6d9596a","session_id":"619be31a4b0e107c39f0680e","condition":"full-information","relevant_dimensions":["wings","legs"],"bee_group":{"antennae":"X","wings":"2","pattern":"X","legs":"M"},"bonus":1.3800000000000008},{"rt":1336.4000000059605,"stimulus":"bees-with-color/bee-A2SF.svg","response":0,"trial_type":"image-button-response","trial_index":51,"time_elapsed":387675,"internal_node_id":"0.0-4.0-0.22","subject_id":"5f8d7850f3a3ef065112ffb5","study_id":"6197b3f67c2b5cd3b6d9596a","session_id":"619be31a4b0e107c39f0680e","condition":"full-information","relevant_dimensions":["wings","legs"],"bee_group":{"antennae":"X","wings":"2","pattern":"X","legs":"M"},"action":"harvest","summary":"good-harvest","bonus":1.3800000000000008},{"rt":771,"stimulus":"\n                    <p><b>Action: <em>harvest</em></b></p>\n                    <p>This is the bee that you just saw.</p>\n                    <img src=\"bees-with-color/bee-A2SF.svg\" width=\"200\">\n                    <p><span class=\"greenText\"><b>Successful harvest!</b></span><br>Your pay has increased by $0.02. Your bonus pay is now $0.58.</p>\n            ","response":0,"trial_type":"html-button-response","trial_index":52,"time_elapsed":388446,"internal_node_id":"0.0-4.0-1.22","subject_id":"5f8d7850f3a3ef065112ffb5","study_id":"6197b3f67c2b5cd3b6d9596a","session_id":"619be31a4b0e107c39f0680e","condition":"full-information","relevant_dimensions":["wings","legs"],"bee_group":{"antennae":"X","wings":"2","pattern":"X","legs":"M"},"bonus":1.3800000000000008},{"rt":3717.7000000178814,"stimulus":"bees-with-color/bee-A1DF.svg","response":0,"trial_type":"image-button-response","trial_index":53,"time_elapsed":392165,"internal_node_id":"0.0-4.0-0.23","subject_id":"5f8d7850f3a3ef065112ffb5","study_id":"6197b3f67c2b5cd3b6d9596a","session_id":"619be31a4b0e107c39f0680e","condition":"full-information","relevant_dimensions":["wings","legs"],"bee_group":{"antennae":"X","wings":"2","pattern":"X","legs":"M"},"action":"harvest","summary":"good-harvest","bonus":1.3800000000000008},{"rt":699,"stimulus":"\n                    <p><b>Action: <em>harvest</em></b></p>\n                    <p>This is the bee that you just saw.</p>\n                    <img src=\"bees-with-color/bee-A1DF.svg\" width=\"200\">\n                    <p><span class=\"greenText\"><b>Successful harvest!</b></span><br>Your pay has increased by $0.02. Your bonus pay is now $0.60.</p>\n            ","response":0,"trial_type":"html-button-response","trial_index":54,"time_elapsed":392865,"internal_node_id":"0.0-4.0-1.23","subject_id":"5f8d7850f3a3ef065112ffb5","study_id":"6197b3f67c2b5cd3b6d9596a","session_id":"619be31a4b0e107c39f0680e","condition":"full-information","relevant_dimensions":["wings","legs"],"bee_group":{"antennae":"X","wings":"2","pattern":"X","legs":"M"},"bonus":1.3800000000000008},{"rt":4320.5,"stimulus":"bees-with-color/bee-B2SM.svg","response":1,"trial_type":"image-button-response","trial_index":55,"time_elapsed":397186,"internal_node_id":"0.0-4.0-0.24","subject_id":"5f8d7850f3a3ef065112ffb5","study_id":"6197b3f67c2b5cd3b6d9596a","session_id":"619be31a4b0e107c39f0680e","condition":"full-information","relevant_dimensions":["wings","legs"],"bee_group":{"antennae":"X","wings":"2","pattern":"X","legs":"M"},"action":"avoid","summary":"good-avoid","bonus":1.3800000000000008},{"rt":662.6999999880791,"stimulus":"\n                    <p><b>Action: <em>avoid</em></b></p>\n                    <p>This is the bee that you just saw.</p>\n                    <img src=\"bees-with-color/bee-B2SM.svg\" width=\"200\">\n                    <p><span class=\"greenText\">Good choice!</span>  This bee would have stung you.<br>Your bonus pay is unchanged, and remains at $0.60.</p>\n            ","response":0,"trial_type":"html-button-response","trial_index":56,"time_elapsed":397850,"internal_node_id":"0.0-4.0-1.24","subject_id":"5f8d7850f3a3ef065112ffb5","study_id":"6197b3f67c2b5cd3b6d9596a","session_id":"619be31a4b0e107c39f0680e","condition":"full-information","relevant_dimensions":["wings","legs"],"bee_group":{"antennae":"X","wings":"2","pattern":"X","legs":"M"},"bonus":1.3800000000000008},{"rt":1506.0999999940395,"stimulus":"bees-with-color/bee-A1DM.svg","response":0,"trial_type":"image-button-response","trial_index":57,"time_elapsed":399357,"internal_node_id":"0.0-4.0-0.25","subject_id":"5f8d7850f3a3ef065112ffb5","study_id":"6197b3f67c2b5cd3b6d9596a","session_id":"619be31a4b0e107c39f0680e","condition":"full-information","relevant_dimensions":["wings","legs"],"bee_group":{"antennae":"X","wings":"2","pattern":"X","legs":"M"},"action":"harvest","summary":"good-harvest","bonus":1.3800000000000008},{"rt":909.6999999880791,"stimulus":"\n                    <p><b>Action: <em>harvest</em></b></p>\n                    <p>This is the bee that you just saw.</p>\n                    <img src=\"bees-with-color/bee-A1DM.svg\" width=\"200\">\n                    <p><span class=\"greenText\"><b>Successful harvest!</b></span><br>Your pay has increased by $0.02. Your bonus pay is now $0.62.</p>\n            ","response":0,"trial_type":"html-button-response","trial_index":58,"time_elapsed":400268,"internal_node_id":"0.0-4.0-1.25","subject_id":"5f8d7850f3a3ef065112ffb5","study_id":"6197b3f67c2b5cd3b6d9596a","session_id":"619be31a4b0e107c39f0680e","condition":"full-information","relevant_dimensions":["wings","legs"],"bee_group":{"antennae":"X","wings":"2","pattern":"X","legs":"M"},"bonus":1.3800000000000008},{"rt":1030,"stimulus":"bees-with-color/bee-B2DM.svg","response":1,"trial_type":"image-button-response","trial_index":59,"time_elapsed":401299,"internal_node_id":"0.0-4.0-0.26","subject_id":"5f8d7850f3a3ef065112ffb5","study_id":"6197b3f67c2b5cd3b6d9596a","session_id":"619be31a4b0e107c39f0680e","condition":"full-information","relevant_dimensions":["wings","legs"],"bee_group":{"antennae":"X","wings":"2","pattern":"X","legs":"M"},"action":"avoid","summary":"good-avoid","bonus":1.3800000000000008},{"rt":840.0999999940395,"stimulus":"\n                    <p><b>Action: <em>avoid</em></b></p>\n                    <p>This is the bee that you just saw.</p>\n                    <img src=\"bees-with-color/bee-B2DM.svg\" width=\"200\">\n                    <p><span class=\"greenText\">Good choice!</span>  This bee would have stung you.<br>Your bonus pay is unchanged, and remains at $0.62.</p>\n            ","response":0,"trial_type":"html-button-response","trial_index":60,"time_elapsed":402140,"internal_node_id":"0.0-4.0-1.26","subject_id":"5f8d7850f3a3ef065112ffb5","study_id":"6197b3f67c2b5cd3b6d9596a","session_id":"619be31a4b0e107c39f0680e","condition":"full-information","relevant_dimensions":["wings","legs"],"bee_group":{"antennae":"X","wings":"2","pattern":"X","legs":"M"},"bonus":1.3800000000000008},{"rt":1225.0999999940395,"stimulus":"bees-with-color/bee-B1SM.svg","response":0,"trial_type":"image-button-response","trial_index":61,"time_elapsed":403365,"internal_node_id":"0.0-4.0-0.27","subject_id":"5f8d7850f3a3ef065112ffb5","study_id":"6197b3f67c2b5cd3b6d9596a","session_id":"619be31a4b0e107c39f0680e","condition":"full-information","relevant_dimensions":["wings","legs"],"bee_group":{"antennae":"X","wings":"2","pattern":"X","legs":"M"},"action":"harvest","summary":"good-harvest","bonus":1.3800000000000008},{"rt":630.0999999940395,"stimulus":"\n                    <p><b>Action: <em>harvest</em></b></p>\n                    <p>This is the bee that you just saw.</p>\n                    <img src=\"bees-with-color/bee-B1SM.svg\" width=\"200\">\n                    <p><span class=\"greenText\"><b>Successful harvest!</b></span><br>Your pay has increased by $0.02. Your bonus pay is now $0.64.</p>\n            ","response":0,"trial_type":"html-button-response","trial_index":62,"time_elapsed":403997,"internal_node_id":"0.0-4.0-1.27","subject_id":"5f8d7850f3a3ef065112ffb5","study_id":"6197b3f67c2b5cd3b6d9596a","session_id":"619be31a4b0e107c39f0680e","condition":"full-information","relevant_dimensions":["wings","legs"],"bee_group":{"antennae":"X","wings":"2","pattern":"X","legs":"M"},"bonus":1.3800000000000008},{"rt":1557.800000011921,"stimulus":"bees-with-color/bee-B1SF.svg","response":0,"trial_type":"image-button-response","trial_index":63,"time_elapsed":405555,"internal_node_id":"0.0-4.0-0.28","subject_id":"5f8d7850f3a3ef065112ffb5","study_id":"6197b3f67c2b5cd3b6d9596a","session_id":"619be31a4b0e107c39f0680e","condition":"full-information","relevant_dimensions":["wings","legs"],"bee_group":{"antennae":"X","wings":"2","pattern":"X","legs":"M"},"action":"harvest","summary":"good-harvest","bonus":1.3800000000000008},{"rt":564.2999999821186,"stimulus":"\n                    <p><b>Action: <em>harvest</em></b></p>\n                    <p>This is the bee that you just saw.</p>\n                    <img src=\"bees-with-color/bee-B1SF.svg\" width=\"200\">\n                    <p><span class=\"greenText\"><b>Successful harvest!</b></span><br>Your pay has increased by $0.02. Your bonus pay is now $0.66.</p>\n            ","response":0,"trial_type":"html-button-response","trial_index":64,"time_elapsed":406121,"internal_node_id":"0.0-4.0-1.28","subject_id":"5f8d7850f3a3ef065112ffb5","study_id":"6197b3f67c2b5cd3b6d9596a","session_id":"619be31a4b0e107c39f0680e","condition":"full-information","relevant_dimensions":["wings","legs"],"bee_group":{"antennae":"X","wings":"2","pattern":"X","legs":"M"},"bonus":1.3800000000000008},{"rt":5628.299999982119,"stimulus":"bees-with-color/bee-B1DF.svg","response":0,"trial_type":"image-button-response","trial_index":65,"time_elapsed":411750,"internal_node_id":"0.0-4.0-0.29","subject_id":"5f8d7850f3a3ef065112ffb5","study_id":"6197b3f67c2b5cd3b6d9596a","session_id":"619be31a4b0e107c39f0680e","condition":"full-information","relevant_dimensions":["wings","legs"],"bee_group":{"antennae":"X","wings":"2","pattern":"X","legs":"M"},"action":"harvest","summary":"good-harvest","bonus":1.3800000000000008},{"rt":834.4000000059605,"stimulus":"\n                    <p><b>Action: <em>harvest</em></b></p>\n                    <p>This is the bee that you just saw.</p>\n                    <img src=\"bees-with-color/bee-B1DF.svg\" width=\"200\">\n                    <p><span class=\"greenText\"><b>Successful harvest!</b></span><br>Your pay has increased by $0.02. Your bonus pay is now $0.68.</p>\n            ","response":0,"trial_type":"html-button-response","trial_index":66,"time_elapsed":412585,"internal_node_id":"0.0-4.0-1.29","subject_id":"5f8d7850f3a3ef065112ffb5","study_id":"6197b3f67c2b5cd3b6d9596a","session_id":"619be31a4b0e107c39f0680e","condition":"full-information","relevant_dimensions":["wings","legs"],"bee_group":{"antennae":"X","wings":"2","pattern":"X","legs":"M"},"bonus":1.3800000000000008},{"rt":1335,"stimulus":"bees-with-color/bee-B2SF.svg","response":1,"trial_type":"image-button-response","trial_index":67,"time_elapsed":413921,"internal_node_id":"0.0-4.0-0.30","subject_id":"5f8d7850f3a3ef065112ffb5","study_id":"6197b3f67c2b5cd3b6d9596a","session_id":"619be31a4b0e107c39f0680e","condition":"full-information","relevant_dimensions":["wings","legs"],"bee_group":{"antennae":"X","wings":"2","pattern":"X","legs":"M"},"action":"avoid","summary":"bad-avoid","bonus":1.3800000000000008},{"rt":1816.2999999821186,"stimulus":"\n                    <p><b>Action: <em>avoid</em></b></p>\n                    <p>This is the bee that you just saw.</p>\n                    <img src=\"bees-with-color/bee-B2SF.svg\" width=\"200\">\n                    <p><span class=\"redText\">Bad choice,</span> the bee was friendly.<br>Your bonus pay is unchanged, and remains at $0.68.</p>\n            ","response":0,"trial_type":"html-button-response","trial_index":68,"time_elapsed":415738,"internal_node_id":"0.0-4.0-1.30","subject_id":"5f8d7850f3a3ef065112ffb5","study_id":"6197b3f67c2b5cd3b6d9596a","session_id":"619be31a4b0e107c39f0680e","condition":"full-information","relevant_dimensions":["wings","legs"],"bee_group":{"antennae":"X","wings":"2","pattern":"X","legs":"M"},"bonus":1.3800000000000008},{"rt":1222,"stimulus":"bees-with-color/bee-B2DF.svg","response":1,"trial_type":"image-button-response","trial_index":69,"time_elapsed":416961,"internal_node_id":"0.0-4.0-0.31","subject_id":"5f8d7850f3a3ef065112ffb5","study_id":"6197b3f67c2b5cd3b6d9596a","session_id":"619be31a4b0e107c39f0680e","condition":"full-information","relevant_dimensions":["wings","legs"],"bee_group":{"antennae":"X","wings":"2","pattern":"X","legs":"M"},"action":"avoid","summary":"bad-avoid","bonus":1.3800000000000008},{"rt":3535.600000023842,"stimulus":"\n                    <p><b>Action: <em>avoid</em></b></p>\n                    <p>This is the bee that you just saw.</p>\n                    <img src=\"bees-with-color/bee-B2DF.svg\" width=\"200\">\n                    <p><span class=\"redText\">Bad choice,</span> the bee was friendly.<br>Your bonus pay is unchanged, and remains at $0.68.</p>\n            ","response":0,"trial_type":"html-button-response","trial_index":70,"time_elapsed":420498,"internal_node_id":"0.0-4.0-1.31","subject_id":"5f8d7850f3a3ef065112ffb5","study_id":"6197b3f67c2b5cd3b6d9596a","session_id":"619be31a4b0e107c39f0680e","condition":"full-information","relevant_dimensions":["wings","legs"],"bee_group":{"antennae":"X","wings":"2","pattern":"X","legs":"M"},"bonus":1.3800000000000008},{"rt":1594.8999999761581,"stimulus":"bees-with-color/bee-A1SF.svg","response":0,"trial_type":"image-button-response","trial_index":71,"time_elapsed":422094,"internal_node_id":"0.0-4.0-0.32","subject_id":"5f8d7850f3a3ef065112ffb5","study_id":"6197b3f67c2b5cd3b6d9596a","session_id":"619be31a4b0e107c39f0680e","condition":"full-information","relevant_dimensions":["wings","legs"],"bee_group":{"antennae":"X","wings":"2","pattern":"X","legs":"M"},"action":"harvest","summary":"good-harvest","bonus":1.3800000000000008},{"rt":684.0999999940395,"stimulus":"\n                    <p><b>Action: <em>harvest</em></b></p>\n                    <p>This is the bee that you just saw.</p>\n                    <img src=\"bees-with-color/bee-A1SF.svg\" width=\"200\">\n                    <p><span class=\"greenText\"><b>Successful harvest!</b></span><br>Your pay has increased by $0.02. Your bonus pay is now $0.70.</p>\n            ","response":0,"trial_type":"html-button-response","trial_index":72,"time_elapsed":422779,"internal_node_id":"0.0-4.0-1.32","subject_id":"5f8d7850f3a3ef065112ffb5","study_id":"6197b3f67c2b5cd3b6d9596a","session_id":"619be31a4b0e107c39f0680e","condition":"full-information","relevant_dimensions":["wings","legs"],"bee_group":{"antennae":"X","wings":"2","pattern":"X","legs":"M"},"bonus":1.3800000000000008},{"rt":2815.199999988079,"stimulus":"bees-with-color/bee-A2SF.svg","response":1,"trial_type":"image-button-response","trial_index":73,"time_elapsed":425595,"internal_node_id":"0.0-4.0-0.33","subject_id":"5f8d7850f3a3ef065112ffb5","study_id":"6197b3f67c2b5cd3b6d9596a","session_id":"619be31a4b0e107c39f0680e","condition":"full-information","relevant_dimensions":["wings","legs"],"bee_group":{"antennae":"X","wings":"2","pattern":"X","legs":"M"},"action":"avoid","summary":"bad-avoid","bonus":1.3800000000000008},{"rt":519,"stimulus":"\n                    <p><b>Action: <em>avoid</em></b></p>\n                    <p>This is the bee that you just saw.</p>\n                    <img src=\"bees-with-color/bee-A2SF.svg\" width=\"200\">\n                    <p><span class=\"redText\">Bad choice,</span> the bee was friendly.<br>Your bonus pay is unchanged, and remains at $0.70.</p>\n            ","response":0,"trial_type":"html-button-response","trial_index":74,"time_elapsed":426115,"internal_node_id":"0.0-4.0-1.33","subject_id":"5f8d7850f3a3ef065112ffb5","study_id":"6197b3f67c2b5cd3b6d9596a","session_id":"619be31a4b0e107c39f0680e","condition":"full-information","relevant_dimensions":["wings","legs"],"bee_group":{"antennae":"X","wings":"2","pattern":"X","legs":"M"},"bonus":1.3800000000000008},{"rt":1129.7000000178814,"stimulus":"bees-with-color/bee-A2DM.svg","response":1,"trial_type":"image-button-response","trial_index":75,"time_elapsed":427246,"internal_node_id":"0.0-4.0-0.34","subject_id":"5f8d7850f3a3ef065112ffb5","study_id":"6197b3f67c2b5cd3b6d9596a","session_id":"619be31a4b0e107c39f0680e","condition":"full-information","relevant_dimensions":["wings","legs"],"bee_group":{"antennae":"X","wings":"2","pattern":"X","legs":"M"},"action":"avoid","summary":"good-avoid","bonus":1.3800000000000008},{"rt":732.2999999821186,"stimulus":"\n                    <p><b>Action: <em>avoid</em></b></p>\n                    <p>This is the bee that you just saw.</p>\n                    <img src=\"bees-with-color/bee-A2DM.svg\" width=\"200\">\n                    <p><span class=\"greenText\">Good choice!</span>  This bee would have stung you.<br>Your bonus pay is unchanged, and remains at $0.70.</p>\n            ","response":0,"trial_type":"html-button-response","trial_index":76,"time_elapsed":427979,"internal_node_id":"0.0-4.0-1.34","subject_id":"5f8d7850f3a3ef065112ffb5","study_id":"6197b3f67c2b5cd3b6d9596a","session_id":"619be31a4b0e107c39f0680e","condition":"full-information","relevant_dimensions":["wings","legs"],"bee_group":{"antennae":"X","wings":"2","pattern":"X","legs":"M"},"bonus":1.3800000000000008},{"rt":1149.0999999940395,"stimulus":"bees-with-color/bee-A2DF.svg","response":1,"trial_type":"image-button-response","trial_index":77,"time_elapsed":429129,"internal_node_id":"0.0-4.0-0.35","subject_id":"5f8d7850f3a3ef065112ffb5","study_id":"6197b3f67c2b5cd3b6d9596a","session_id":"619be31a4b0e107c39f0680e","condition":"full-information","relevant_dimensions":["wings","legs"],"bee_group":{"antennae":"X","wings":"2","pattern":"X","legs":"M"},"action":"avoid","summary":"bad-avoid","bonus":1.3800000000000008},{"rt":1486,"stimulus":"\n                    <p><b>Action: <em>avoid</em></b></p>\n                    <p>This is the bee that you just saw.</p>\n                    <img src=\"bees-with-color/bee-A2DF.svg\" width=\"200\">\n                    <p><span class=\"redText\">Bad choice,</span> the bee was friendly.<br>Your bonus pay is unchanged, and remains at $0.70.</p>\n            ","response":0,"trial_type":"html-button-response","trial_index":78,"time_elapsed":430615,"internal_node_id":"0.0-4.0-1.35","subject_id":"5f8d7850f3a3ef065112ffb5","study_id":"6197b3f67c2b5cd3b6d9596a","session_id":"619be31a4b0e107c39f0680e","condition":"full-information","relevant_dimensions":["wings","legs"],"bee_group":{"antennae":"X","wings":"2","pattern":"X","legs":"M"},"bonus":1.3800000000000008},{"rt":1992.4000000059605,"stimulus":"bees-with-color/bee-A1SM.svg","response":0,"trial_type":"image-button-response","trial_index":79,"time_elapsed":432608,"internal_node_id":"0.0-4.0-0.36","subject_id":"5f8d7850f3a3ef065112ffb5","study_id":"6197b3f67c2b5cd3b6d9596a","session_id":"619be31a4b0e107c39f0680e","condition":"full-information","relevant_dimensions":["wings","legs"],"bee_group":{"antennae":"X","wings":"2","pattern":"X","legs":"M"},"action":"harvest","summary":"good-harvest","bonus":1.3800000000000008},{"rt":788.3000000119209,"stimulus":"\n                    <p><b>Action: <em>harvest</em></b></p>\n                    <p>This is the bee that you just saw.</p>\n                    <img src=\"bees-with-color/bee-A1SM.svg\" width=\"200\">\n                    <p><span class=\"greenText\"><b>Successful harvest!</b></span><br>Your pay has increased by $0.02. Your bonus pay is now $0.72.</p>\n            ","response":0,"trial_type":"html-button-response","trial_index":80,"time_elapsed":433398,"internal_node_id":"0.0-4.0-1.36","subject_id":"5f8d7850f3a3ef065112ffb5","study_id":"6197b3f67c2b5cd3b6d9596a","session_id":"619be31a4b0e107c39f0680e","condition":"full-information","relevant_dimensions":["wings","legs"],"bee_group":{"antennae":"X","wings":"2","pattern":"X","legs":"M"},"bonus":1.3800000000000008},{"rt":2214.5,"stimulus":"bees-with-color/bee-B1DM.svg","response":1,"trial_type":"image-button-response","trial_index":81,"time_elapsed":435613,"internal_node_id":"0.0-4.0-0.37","subject_id":"5f8d7850f3a3ef065112ffb5","study_id":"6197b3f67c2b5cd3b6d9596a","session_id":"619be31a4b0e107c39f0680e","condition":"full-information","relevant_dimensions":["wings","legs"],"bee_group":{"antennae":"X","wings":"2","pattern":"X","legs":"M"},"action":"avoid","summary":"bad-avoid","bonus":1.3800000000000008},{"rt":578.2000000178814,"stimulus":"\n                    <p><b>Action: <em>avoid</em></b></p>\n                    <p>This is the bee that you just saw.</p>\n                    <img src=\"bees-with-color/bee-B1DM.svg\" width=\"200\">\n                    <p><span class=\"redText\">Bad choice,</span> the bee was friendly.<br>Your bonus pay is unchanged, and remains at $0.72.</p>\n            ","response":0,"trial_type":"html-button-response","trial_index":82,"time_elapsed":436192,"internal_node_id":"0.0-4.0-1.37","subject_id":"5f8d7850f3a3ef065112ffb5","study_id":"6197b3f67c2b5cd3b6d9596a","session_id":"619be31a4b0e107c39f0680e","condition":"full-information","relevant_dimensions":["wings","legs"],"bee_group":{"antennae":"X","wings":"2","pattern":"X","legs":"M"},"bonus":1.3800000000000008},{"rt":1144,"stimulus":"bees-with-color/bee-B2SM.svg","response":1,"trial_type":"image-button-response","trial_index":83,"time_elapsed":437337,"internal_node_id":"0.0-4.0-0.38","subject_id":"5f8d7850f3a3ef065112ffb5","study_id":"6197b3f67c2b5cd3b6d9596a","session_id":"619be31a4b0e107c39f0680e","condition":"full-information","relevant_dimensions":["wings","legs"],"bee_group":{"antennae":"X","wings":"2","pattern":"X","legs":"M"},"action":"avoid","summary":"good-avoid","bonus":1.3800000000000008},{"rt":603.8000000119209,"stimulus":"\n                    <p><b>Action: <em>avoid</em></b></p>\n                    <p>This is the bee that you just saw.</p>\n                    <img src=\"bees-with-color/bee-B2SM.svg\" width=\"200\">\n                    <p><span class=\"greenText\">Good choice!</span>  This bee would have stung you.<br>Your bonus pay is unchanged, and remains at $0.72.</p>\n            ","response":0,"trial_type":"html-button-response","trial_index":84,"time_elapsed":437942,"internal_node_id":"0.0-4.0-1.38","subject_id":"5f8d7850f3a3ef065112ffb5","study_id":"6197b3f67c2b5cd3b6d9596a","session_id":"619be31a4b0e107c39f0680e","condition":"full-information","relevant_dimensions":["wings","legs"],"bee_group":{"antennae":"X","wings":"2","pattern":"X","legs":"M"},"bonus":1.3800000000000008},{"rt":929.5999999940395,"stimulus":"bees-with-color/bee-B1SF.svg","response":0,"trial_type":"image-button-response","trial_index":85,"time_elapsed":438872,"internal_node_id":"0.0-4.0-0.39","subject_id":"5f8d7850f3a3ef065112ffb5","study_id":"6197b3f67c2b5cd3b6d9596a","session_id":"619be31a4b0e107c39f0680e","condition":"full-information","relevant_dimensions":["wings","legs"],"bee_group":{"antennae":"X","wings":"2","pattern":"X","legs":"M"},"action":"harvest","summary":"good-harvest","bonus":1.3800000000000008},{"rt":562.3999999761581,"stimulus":"\n                    <p><b>Action: <em>harvest</em></b></p>\n                    <p>This is the bee that you just saw.</p>\n                    <img src=\"bees-with-color/bee-B1SF.svg\" width=\"200\">\n                    <p><span class=\"greenText\"><b>Successful harvest!</b></span><br>Your pay has increased by $0.02. Your bonus pay is now $0.74.</p>\n            ","response":0,"trial_type":"html-button-response","trial_index":86,"time_elapsed":439435,"internal_node_id":"0.0-4.0-1.39","subject_id":"5f8d7850f3a3ef065112ffb5","study_id":"6197b3f67c2b5cd3b6d9596a","session_id":"619be31a4b0e107c39f0680e","condition":"full-information","relevant_dimensions":["wings","legs"],"bee_group":{"antennae":"X","wings":"2","pattern":"X","legs":"M"},"bonus":1.3800000000000008},{"rt":1323,"stimulus":"bees-with-color/bee-A1DF.svg","response":0,"trial_type":"image-button-response","trial_index":87,"time_elapsed":440759,"internal_node_id":"0.0-4.0-0.40","subject_id":"5f8d7850f3a3ef065112ffb5","study_id":"6197b3f67c2b5cd3b6d9596a","session_id":"619be31a4b0e107c39f0680e","condition":"full-information","relevant_dimensions":["wings","legs"],"bee_group":{"antennae":"X","wings":"2","pattern":"X","legs":"M"},"action":"harvest","summary":"good-harvest","bonus":1.3800000000000008},{"rt":733.0999999940395,"stimulus":"\n                    <p><b>Action: <em>harvest</em></b></p>\n                    <p>This is the bee that you just saw.</p>\n                    <img src=\"bees-with-color/bee-A1DF.svg\" width=\"200\">\n                    <p><span class=\"greenText\"><b>Successful harvest!</b></span><br>Your pay has increased by $0.02. Your bonus pay is now $0.76.</p>\n            ","response":0,"trial_type":"html-button-response","trial_index":88,"time_elapsed":441493,"internal_node_id":"0.0-4.0-1.40","subject_id":"5f8d7850f3a3ef065112ffb5","study_id":"6197b3f67c2b5cd3b6d9596a","session_id":"619be31a4b0e107c39f0680e","condition":"full-information","relevant_dimensions":["wings","legs"],"bee_group":{"antennae":"X","wings":"2","pattern":"X","legs":"M"},"bonus":1.3800000000000008},{"rt":1141.4000000059605,"stimulus":"bees-with-color/bee-B1DF.svg","response":0,"trial_type":"image-button-response","trial_index":89,"time_elapsed":442635,"internal_node_id":"0.0-4.0-0.41","subject_id":"5f8d7850f3a3ef065112ffb5","study_id":"6197b3f67c2b5cd3b6d9596a","session_id":"619be31a4b0e107c39f0680e","condition":"full-information","relevant_dimensions":["wings","legs"],"bee_group":{"antennae":"X","wings":"2","pattern":"X","legs":"M"},"action":"harvest","summary":"good-harvest","bonus":1.3800000000000008},{"rt":767,"stimulus":"\n                    <p><b>Action: <em>harvest</em></b></p>\n                    <p>This is the bee that you just saw.</p>\n                    <img src=\"bees-with-color/bee-B1DF.svg\" width=\"200\">\n                    <p><span class=\"greenText\"><b>Successful harvest!</b></span><br>Your pay has increased by $0.02. Your bonus pay is now $0.78.</p>\n            ","response":0,"trial_type":"html-button-response","trial_index":90,"time_elapsed":443403,"internal_node_id":"0.0-4.0-1.41","subject_id":"5f8d7850f3a3ef065112ffb5","study_id":"6197b3f67c2b5cd3b6d9596a","session_id":"619be31a4b0e107c39f0680e","condition":"full-information","relevant_dimensions":["wings","legs"],"bee_group":{"antennae":"X","wings":"2","pattern":"X","legs":"M"},"bonus":1.3800000000000008},{"rt":1888.699999988079,"stimulus":"bees-with-color/bee-B2SF.svg","response":0,"trial_type":"image-button-response","trial_index":91,"time_elapsed":445293,"internal_node_id":"0.0-4.0-0.42","subject_id":"5f8d7850f3a3ef065112ffb5","study_id":"6197b3f67c2b5cd3b6d9596a","session_id":"619be31a4b0e107c39f0680e","condition":"full-information","relevant_dimensions":["wings","legs"],"bee_group":{"antennae":"X","wings":"2","pattern":"X","legs":"M"},"action":"harvest","summary":"good-harvest","bonus":1.3800000000000008},{"rt":711.1999999880791,"stimulus":"\n                    <p><b>Action: <em>harvest</em></b></p>\n                    <p>This is the bee that you just saw.</p>\n                    <img src=\"bees-with-color/bee-B2SF.svg\" width=\"200\">\n                    <p><span class=\"greenText\"><b>Successful harvest!</b></span><br>Your pay has increased by $0.02. Your bonus pay is now $0.80.</p>\n            ","response":0,"trial_type":"html-button-response","trial_index":92,"time_elapsed":446005,"internal_node_id":"0.0-4.0-1.42","subject_id":"5f8d7850f3a3ef065112ffb5","study_id":"6197b3f67c2b5cd3b6d9596a","session_id":"619be31a4b0e107c39f0680e","condition":"full-information","relevant_dimensions":["wings","legs"],"bee_group":{"antennae":"X","wings":"2","pattern":"X","legs":"M"},"bonus":1.3800000000000008},{"rt":8653.90000000596,"stimulus":"bees-with-color/bee-A1DM.svg","response":0,"trial_type":"image-button-response","trial_index":93,"time_elapsed":454660,"internal_node_id":"0.0-4.0-0.43","subject_id":"5f8d7850f3a3ef065112ffb5","study_id":"6197b3f67c2b5cd3b6d9596a","session_id":"619be31a4b0e107c39f0680e","condition":"full-information","relevant_dimensions":["wings","legs"],"bee_group":{"antennae":"X","wings":"2","pattern":"X","legs":"M"},"action":"harvest","summary":"good-harvest","bonus":1.3800000000000008},{"rt":557.7000000178814,"stimulus":"\n                    <p><b>Action: <em>harvest</em></b></p>\n                    <p>This is the bee that you just saw.</p>\n                    <img src=\"bees-with-color/bee-A1DM.svg\" width=\"200\">\n                    <p><span class=\"greenText\"><b>Successful harvest!</b></span><br>Your pay has increased by $0.02. Your bonus pay is now $0.82.</p>\n            ","response":0,"trial_type":"html-button-response","trial_index":94,"time_elapsed":455219,"internal_node_id":"0.0-4.0-1.43","subject_id":"5f8d7850f3a3ef065112ffb5","study_id":"6197b3f67c2b5cd3b6d9596a","session_id":"619be31a4b0e107c39f0680e","condition":"full-information","relevant_dimensions":["wings","legs"],"bee_group":{"antennae":"X","wings":"2","pattern":"X","legs":"M"},"bonus":1.3800000000000008},{"rt":4091,"stimulus":"bees-with-color/bee-A2SM.svg","response":1,"trial_type":"image-button-response","trial_index":95,"time_elapsed":459311,"internal_node_id":"0.0-4.0-0.44","subject_id":"5f8d7850f3a3ef065112ffb5","study_id":"6197b3f67c2b5cd3b6d9596a","session_id":"619be31a4b0e107c39f0680e","condition":"full-information","relevant_dimensions":["wings","legs"],"bee_group":{"antennae":"X","wings":"2","pattern":"X","legs":"M"},"action":"avoid","summary":"good-avoid","bonus":1.3800000000000008},{"rt":3182.7000000178814,"stimulus":"\n                    <p><b>Action: <em>avoid</em></b></p>\n                    <p>This is the bee that you just saw.</p>\n                    <img src=\"bees-with-color/bee-A2SM.svg\" width=\"200\">\n                    <p><span class=\"greenText\">Good choice!</span>  This bee would have stung you.<br>Your bonus pay is unchanged, and remains at $0.82.</p>\n            ","response":0,"trial_type":"html-button-response","trial_index":96,"time_elapsed":462494,"internal_node_id":"0.0-4.0-1.44","subject_id":"5f8d7850f3a3ef065112ffb5","study_id":"6197b3f67c2b5cd3b6d9596a","session_id":"619be31a4b0e107c39f0680e","condition":"full-information","relevant_dimensions":["wings","legs"],"bee_group":{"antennae":"X","wings":"2","pattern":"X","legs":"M"},"bonus":1.3800000000000008},{"rt":2758.5999999940395,"stimulus":"bees-with-color/bee-B1SM.svg","response":0,"trial_type":"image-button-response","trial_index":97,"time_elapsed":465254,"internal_node_id":"0.0-4.0-0.45","subject_id":"5f8d7850f3a3ef065112ffb5","study_id":"6197b3f67c2b5cd3b6d9596a","session_id":"619be31a4b0e107c39f0680e","condition":"full-information","relevant_dimensions":["wings","legs"],"bee_group":{"antennae":"X","wings":"2","pattern":"X","legs":"M"},"action":"harvest","summary":"good-harvest","bonus":1.3800000000000008},{"rt":669.5,"stimulus":"\n                    <p><b>Action: <em>harvest</em></b></p>\n                    <p>This is the bee that you just saw.</p>\n                    <img src=\"bees-with-color/bee-B1SM.svg\" width=\"200\">\n                    <p><span class=\"greenText\"><b>Successful harvest!</b></span><br>Your pay has increased by $0.02. Your bonus pay is now $0.84.</p>\n            ","response":0,"trial_type":"html-button-response","trial_index":98,"time_elapsed":465925,"internal_node_id":"0.0-4.0-1.45","subject_id":"5f8d7850f3a3ef065112ffb5","study_id":"6197b3f67c2b5cd3b6d9596a","session_id":"619be31a4b0e107c39f0680e","condition":"full-information","relevant_dimensions":["wings","legs"],"bee_group":{"antennae":"X","wings":"2","pattern":"X","legs":"M"},"bonus":1.3800000000000008},{"rt":1271.5,"stimulus":"bees-with-color/bee-B2DM.svg","response":1,"trial_type":"image-button-response","trial_index":99,"time_elapsed":467197,"internal_node_id":"0.0-4.0-0.46","subject_id":"5f8d7850f3a3ef065112ffb5","study_id":"6197b3f67c2b5cd3b6d9596a","session_id":"619be31a4b0e107c39f0680e","condition":"full-information","relevant_dimensions":["wings","legs"],"bee_group":{"antennae":"X","wings":"2","pattern":"X","legs":"M"},"action":"avoid","summary":"good-avoid","bonus":1.3800000000000008},{"rt":3347.300000011921,"stimulus":"\n                    <p><b>Action: <em>avoid</em></b></p>\n                    <p>This is the bee that you just saw.</p>\n                    <img src=\"bees-with-color/bee-B2DM.svg\" width=\"200\">\n                    <p><span class=\"greenText\">Good choice!</span>  This bee would have stung you.<br>Your bonus pay is unchanged, and remains at $0.84.</p>\n            ","response":0,"trial_type":"html-button-response","trial_index":100,"time_elapsed":470545,"internal_node_id":"0.0-4.0-1.46","subject_id":"5f8d7850f3a3ef065112ffb5","study_id":"6197b3f67c2b5cd3b6d9596a","session_id":"619be31a4b0e107c39f0680e","condition":"full-information","relevant_dimensions":["wings","legs"],"bee_group":{"antennae":"X","wings":"2","pattern":"X","legs":"M"},"bonus":1.3800000000000008},{"rt":2368.800000011921,"stimulus":"bees-with-color/bee-B2DF.svg","response":0,"trial_type":"image-button-response","trial_index":101,"time_elapsed":472915,"internal_node_id":"0.0-4.0-0.47","subject_id":"5f8d7850f3a3ef065112ffb5","study_id":"6197b3f67c2b5cd3b6d9596a","session_id":"619be31a4b0e107c39f0680e","condition":"full-information","relevant_dimensions":["wings","legs"],"bee_group":{"antennae":"X","wings":"2","pattern":"X","legs":"M"},"action":"harvest","summary":"good-harvest","bonus":1.3800000000000008},{"rt":628.5999999940395,"stimulus":"\n                    <p><b>Action: <em>harvest</em></b></p>\n                    <p>This is the bee that you just saw.</p>\n                    <img src=\"bees-with-color/bee-B2DF.svg\" width=\"200\">\n                    <p><span class=\"greenText\"><b>Successful harvest!</b></span><br>Your pay has increased by $0.02. Your bonus pay is now $0.86.</p>\n            ","response":0,"trial_type":"html-button-response","trial_index":102,"time_elapsed":473544,"internal_node_id":"0.0-4.0-1.47","subject_id":"5f8d7850f3a3ef065112ffb5","study_id":"6197b3f67c2b5cd3b6d9596a","session_id":"619be31a4b0e107c39f0680e","condition":"full-information","relevant_dimensions":["wings","legs"],"bee_group":{"antennae":"X","wings":"2","pattern":"X","legs":"M"},"bonus":1.3800000000000008},{"rt":1370.0999999940395,"stimulus":"bees-with-color/bee-B1DF.svg","response":0,"trial_type":"image-button-response","trial_index":103,"time_elapsed":474915,"internal_node_id":"0.0-4.0-0.48","subject_id":"5f8d7850f3a3ef065112ffb5","study_id":"6197b3f67c2b5cd3b6d9596a","session_id":"619be31a4b0e107c39f0680e","condition":"full-information","relevant_dimensions":["wings","legs"],"bee_group":{"antennae":"X","wings":"2","pattern":"X","legs":"M"},"action":"harvest","summary":"good-harvest","bonus":1.3800000000000008},{"rt":557.2000000178814,"stimulus":"\n                    <p><b>Action: <em>harvest</em></b></p>\n                    <p>This is the bee that you just saw.</p>\n                    <img src=\"bees-with-color/bee-B1DF.svg\" width=\"200\">\n                    <p><span class=\"greenText\"><b>Successful harvest!</b></span><br>Your pay has increased by $0.02. Your bonus pay is now $0.88.</p>\n            ","response":0,"trial_type":"html-button-response","trial_index":104,"time_elapsed":475474,"internal_node_id":"0.0-4.0-1.48","subject_id":"5f8d7850f3a3ef065112ffb5","study_id":"6197b3f67c2b5cd3b6d9596a","session_id":"619be31a4b0e107c39f0680e","condition":"full-information","relevant_dimensions":["wings","legs"],"bee_group":{"antennae":"X","wings":"2","pattern":"X","legs":"M"},"bonus":1.3800000000000008},{"rt":8527.59999999404,"stimulus":"bees-with-color/bee-A2DF.svg","response":1,"trial_type":"image-button-response","trial_index":105,"time_elapsed":484002,"internal_node_id":"0.0-4.0-0.49","subject_id":"5f8d7850f3a3ef065112ffb5","study_id":"6197b3f67c2b5cd3b6d9596a","session_id":"619be31a4b0e107c39f0680e","condition":"full-information","relevant_dimensions":["wings","legs"],"bee_group":{"antennae":"X","wings":"2","pattern":"X","legs":"M"},"action":"avoid","summary":"bad-avoid","bonus":1.3800000000000008},{"rt":667,"stimulus":"\n                    <p><b>Action: <em>avoid</em></b></p>\n                    <p>This is the bee that you just saw.</p>\n                    <img src=\"bees-with-color/bee-A2DF.svg\" width=\"200\">\n                    <p><span class=\"redText\">Bad choice,</span> the bee was friendly.<br>Your bonus pay is unchanged, and remains at $0.88.</p>\n            ","response":0,"trial_type":"html-button-response","trial_index":106,"time_elapsed":484670,"internal_node_id":"0.0-4.0-1.49","subject_id":"5f8d7850f3a3ef065112ffb5","study_id":"6197b3f67c2b5cd3b6d9596a","session_id":"619be31a4b0e107c39f0680e","condition":"full-information","relevant_dimensions":["wings","legs"],"bee_group":{"antennae":"X","wings":"2","pattern":"X","legs":"M"},"bonus":1.3800000000000008},{"rt":2568.7999999821186,"stimulus":"bees-with-color/bee-B2SF.svg","response":1,"trial_type":"image-button-response","trial_index":107,"time_elapsed":487240,"internal_node_id":"0.0-4.0-0.50","subject_id":"5f8d7850f3a3ef065112ffb5","study_id":"6197b3f67c2b5cd3b6d9596a","session_id":"619be31a4b0e107c39f0680e","condition":"full-information","relevant_dimensions":["wings","legs"],"bee_group":{"antennae":"X","wings":"2","pattern":"X","legs":"M"},"action":"avoid","summary":"bad-avoid","bonus":1.3800000000000008},{"rt":4260.799999982119,"stimulus":"\n                    <p><b>Action: <em>avoid</em></b></p>\n                    <p>This is the bee that you just saw.</p>\n                    <img src=\"bees-with-color/bee-B2SF.svg\" width=\"200\">\n                    <p><span class=\"redText\">Bad choice,</span> the bee was friendly.<br>Your bonus pay is unchanged, and remains at $0.88.</p>\n            ","response":0,"trial_type":"html-button-response","trial_index":108,"time_elapsed":491501,"internal_node_id":"0.0-4.0-1.50","subject_id":"5f8d7850f3a3ef065112ffb5","study_id":"6197b3f67c2b5cd3b6d9596a","session_id":"619be31a4b0e107c39f0680e","condition":"full-information","relevant_dimensions":["wings","legs"],"bee_group":{"antennae":"X","wings":"2","pattern":"X","legs":"M"},"bonus":1.3800000000000008},{"rt":1789.5,"stimulus":"bees-with-color/bee-A1SF.svg","response":0,"trial_type":"image-button-response","trial_index":109,"time_elapsed":493292,"internal_node_id":"0.0-4.0-0.51","subject_id":"5f8d7850f3a3ef065112ffb5","study_id":"6197b3f67c2b5cd3b6d9596a","session_id":"619be31a4b0e107c39f0680e","condition":"full-information","relevant_dimensions":["wings","legs"],"bee_group":{"antennae":"X","wings":"2","pattern":"X","legs":"M"},"action":"harvest","summary":"good-harvest","bonus":1.3800000000000008},{"rt":768.0999999940395,"stimulus":"\n                    <p><b>Action: <em>harvest</em></b></p>\n                    <p>This is the bee that you just saw.</p>\n                    <img src=\"bees-with-color/bee-A1SF.svg\" width=\"200\">\n                    <p><span class=\"greenText\"><b>Successful harvest!</b></span><br>Your pay has increased by $0.02. Your bonus pay is now $0.90.</p>\n            ","response":0,"trial_type":"html-button-response","trial_index":110,"time_elapsed":494061,"internal_node_id":"0.0-4.0-1.51","subject_id":"5f8d7850f3a3ef065112ffb5","study_id":"6197b3f67c2b5cd3b6d9596a","session_id":"619be31a4b0e107c39f0680e","condition":"full-information","relevant_dimensions":["wings","legs"],"bee_group":{"antennae":"X","wings":"2","pattern":"X","legs":"M"},"bonus":1.3800000000000008},{"rt":1385.8999999761581,"stimulus":"bees-with-color/bee-B1DM.svg","response":1,"trial_type":"image-button-response","trial_index":111,"time_elapsed":495447,"internal_node_id":"0.0-4.0-0.52","subject_id":"5f8d7850f3a3ef065112ffb5","study_id":"6197b3f67c2b5cd3b6d9596a","session_id":"619be31a4b0e107c39f0680e","condition":"full-information","relevant_dimensions":["wings","legs"],"bee_group":{"antennae":"X","wings":"2","pattern":"X","legs":"M"},"action":"avoid","summary":"bad-avoid","bonus":1.3800000000000008},{"rt":521.0999999940395,"stimulus":"\n                    <p><b>Action: <em>avoid</em></b></p>\n                    <p>This is the bee that you just saw.</p>\n                    <img src=\"bees-with-color/bee-B1DM.svg\" width=\"200\">\n                    <p><span class=\"redText\">Bad choice,</span> the bee was friendly.<br>Your bonus pay is unchanged, and remains at $0.90.</p>\n            ","response":0,"trial_type":"html-button-response","trial_index":112,"time_elapsed":495969,"internal_node_id":"0.0-4.0-1.52","subject_id":"5f8d7850f3a3ef065112ffb5","study_id":"6197b3f67c2b5cd3b6d9596a","session_id":"619be31a4b0e107c39f0680e","condition":"full-information","relevant_dimensions":["wings","legs"],"bee_group":{"antennae":"X","wings":"2","pattern":"X","legs":"M"},"bonus":1.3800000000000008},{"rt":1699.199999988079,"stimulus":"bees-with-color/bee-B1SF.svg","response":0,"trial_type":"image-button-response","trial_index":113,"time_elapsed":497669,"internal_node_id":"0.0-4.0-0.53","subject_id":"5f8d7850f3a3ef065112ffb5","study_id":"6197b3f67c2b5cd3b6d9596a","session_id":"619be31a4b0e107c39f0680e","condition":"full-information","relevant_dimensions":["wings","legs"],"bee_group":{"antennae":"X","wings":"2","pattern":"X","legs":"M"},"action":"harvest","summary":"good-harvest","bonus":1.3800000000000008},{"rt":584.1999999880791,"stimulus":"\n                    <p><b>Action: <em>harvest</em></b></p>\n                    <p>This is the bee that you just saw.</p>\n                    <img src=\"bees-with-color/bee-B1SF.svg\" width=\"200\">\n                    <p><span class=\"greenText\"><b>Successful harvest!</b></span><br>Your pay has increased by $0.02. Your bonus pay is now $0.92.</p>\n            ","response":0,"trial_type":"html-button-response","trial_index":114,"time_elapsed":498254,"internal_node_id":"0.0-4.0-1.53","subject_id":"5f8d7850f3a3ef065112ffb5","study_id":"6197b3f67c2b5cd3b6d9596a","session_id":"619be31a4b0e107c39f0680e","condition":"full-information","relevant_dimensions":["wings","legs"],"bee_group":{"antennae":"X","wings":"2","pattern":"X","legs":"M"},"bonus":1.3800000000000008},{"rt":1375,"stimulus":"bees-with-color/bee-B2SM.svg","response":1,"trial_type":"image-button-response","trial_index":115,"time_elapsed":499630,"internal_node_id":"0.0-4.0-0.54","subject_id":"5f8d7850f3a3ef065112ffb5","study_id":"6197b3f67c2b5cd3b6d9596a","session_id":"619be31a4b0e107c39f0680e","condition":"full-information","relevant_dimensions":["wings","legs"],"bee_group":{"antennae":"X","wings":"2","pattern":"X","legs":"M"},"action":"avoid","summary":"good-avoid","bonus":1.3800000000000008},{"rt":476.59999999403954,"stimulus":"\n                    <p><b>Action: <em>avoid</em></b></p>\n                    <p>This is the bee that you just saw.</p>\n                    <img src=\"bees-with-color/bee-B2SM.svg\" width=\"200\">\n                    <p><span class=\"greenText\">Good choice!</span>  This bee would have stung you.<br>Your bonus pay is unchanged, and remains at $0.92.</p>\n            ","response":0,"trial_type":"html-button-response","trial_index":116,"time_elapsed":500108,"internal_node_id":"0.0-4.0-1.54","subject_id":"5f8d7850f3a3ef065112ffb5","study_id":"6197b3f67c2b5cd3b6d9596a","session_id":"619be31a4b0e107c39f0680e","condition":"full-information","relevant_dimensions":["wings","legs"],"bee_group":{"antennae":"X","wings":"2","pattern":"X","legs":"M"},"bonus":1.3800000000000008},{"rt":1736.2999999821186,"stimulus":"bees-with-color/bee-A2DM.svg","response":1,"trial_type":"image-button-response","trial_index":117,"time_elapsed":501845,"internal_node_id":"0.0-4.0-0.55","subject_id":"5f8d7850f3a3ef065112ffb5","study_id":"6197b3f67c2b5cd3b6d9596a","session_id":"619be31a4b0e107c39f0680e","condition":"full-information","relevant_dimensions":["wings","legs"],"bee_group":{"antennae":"X","wings":"2","pattern":"X","legs":"M"},"action":"avoid","summary":"good-avoid","bonus":1.3800000000000008},{"rt":540.2999999821186,"stimulus":"\n                    <p><b>Action: <em>avoid</em></b></p>\n                    <p>This is the bee that you just saw.</p>\n                    <img src=\"bees-with-color/bee-A2DM.svg\" width=\"200\">\n                    <p><span class=\"greenText\">Good choice!</span>  This bee would have stung you.<br>Your bonus pay is unchanged, and remains at $0.92.</p>\n            ","response":0,"trial_type":"html-button-response","trial_index":118,"time_elapsed":502386,"internal_node_id":"0.0-4.0-1.55","subject_id":"5f8d7850f3a3ef065112ffb5","study_id":"6197b3f67c2b5cd3b6d9596a","session_id":"619be31a4b0e107c39f0680e","condition":"full-information","relevant_dimensions":["wings","legs"],"bee_group":{"antennae":"X","wings":"2","pattern":"X","legs":"M"},"bonus":1.3800000000000008},{"rt":12835.40000000596,"stimulus":"bees-with-color/bee-A1DM.svg","response":0,"trial_type":"image-button-response","trial_index":119,"time_elapsed":515223,"internal_node_id":"0.0-4.0-0.56","subject_id":"5f8d7850f3a3ef065112ffb5","study_id":"6197b3f67c2b5cd3b6d9596a","session_id":"619be31a4b0e107c39f0680e","condition":"full-information","relevant_dimensions":["wings","legs"],"bee_group":{"antennae":"X","wings":"2","pattern":"X","legs":"M"},"action":"harvest","summary":"good-harvest","bonus":1.3800000000000008},{"rt":750.4000000059605,"stimulus":"\n                    <p><b>Action: <em>harvest</em></b></p>\n                    <p>This is the bee that you just saw.</p>\n                    <img src=\"bees-with-color/bee-A1DM.svg\" width=\"200\">\n                    <p><span class=\"greenText\"><b>Successful harvest!</b></span><br>Your pay has increased by $0.02. Your bonus pay is now $0.94.</p>\n            ","response":0,"trial_type":"html-button-response","trial_index":120,"time_elapsed":515974,"internal_node_id":"0.0-4.0-1.56","subject_id":"5f8d7850f3a3ef065112ffb5","study_id":"6197b3f67c2b5cd3b6d9596a","session_id":"619be31a4b0e107c39f0680e","condition":"full-information","relevant_dimensions":["wings","legs"],"bee_group":{"antennae":"X","wings":"2","pattern":"X","legs":"M"},"bonus":1.3800000000000008},{"rt":9182.5,"stimulus":"bees-with-color/bee-A2SM.svg","response":1,"trial_type":"image-button-response","trial_index":121,"time_elapsed":525158,"internal_node_id":"0.0-4.0-0.57","subject_id":"5f8d7850f3a3ef065112ffb5","study_id":"6197b3f67c2b5cd3b6d9596a","session_id":"619be31a4b0e107c39f0680e","condition":"full-information","relevant_dimensions":["wings","legs"],"bee_group":{"antennae":"X","wings":"2","pattern":"X","legs":"M"},"action":"avoid","summary":"good-avoid","bonus":1.3800000000000008},{"rt":776.4000000059605,"stimulus":"\n                    <p><b>Action: <em>avoid</em></b></p>\n                    <p>This is the bee that you just saw.</p>\n                    <img src=\"bees-with-color/bee-A2SM.svg\" width=\"200\">\n                    <p><span class=\"greenText\">Good choice!</span>  This bee would have stung you.<br>Your bonus pay is unchanged, and remains at $0.94.</p>\n            ","response":0,"trial_type":"html-button-response","trial_index":122,"time_elapsed":525935,"internal_node_id":"0.0-4.0-1.57","subject_id":"5f8d7850f3a3ef065112ffb5","study_id":"6197b3f67c2b5cd3b6d9596a","session_id":"619be31a4b0e107c39f0680e","condition":"full-information","relevant_dimensions":["wings","legs"],"bee_group":{"antennae":"X","wings":"2","pattern":"X","legs":"M"},"bonus":1.3800000000000008},{"rt":1420.800000011921,"stimulus":"bees-with-color/bee-B1SM.svg","response":0,"trial_type":"image-button-response","trial_index":123,"time_elapsed":527357,"internal_node_id":"0.0-4.0-0.58","subject_id":"5f8d7850f3a3ef065112ffb5","study_id":"6197b3f67c2b5cd3b6d9596a","session_id":"619be31a4b0e107c39f0680e","condition":"full-information","relevant_dimensions":["wings","legs"],"bee_group":{"antennae":"X","wings":"2","pattern":"X","legs":"M"},"action":"harvest","summary":"good-harvest","bonus":1.3800000000000008},{"rt":603.6999999880791,"stimulus":"\n                    <p><b>Action: <em>harvest</em></b></p>\n                    <p>This is the bee that you just saw.</p>\n                    <img src=\"bees-with-color/bee-B1SM.svg\" width=\"200\">\n                    <p><span class=\"greenText\"><b>Successful harvest!</b></span><br>Your pay has increased by $0.02. Your bonus pay is now $0.96.</p>\n            ","response":0,"trial_type":"html-button-response","trial_index":124,"time_elapsed":527961,"internal_node_id":"0.0-4.0-1.58","subject_id":"5f8d7850f3a3ef065112ffb5","study_id":"6197b3f67c2b5cd3b6d9596a","session_id":"619be31a4b0e107c39f0680e","condition":"full-information","relevant_dimensions":["wings","legs"],"bee_group":{"antennae":"X","wings":"2","pattern":"X","legs":"M"},"bonus":1.3800000000000008},{"rt":2542.199999988079,"stimulus":"bees-with-color/bee-A1DF.svg","response":0,"trial_type":"image-button-response","trial_index":125,"time_elapsed":530504,"internal_node_id":"0.0-4.0-0.59","subject_id":"5f8d7850f3a3ef065112ffb5","study_id":"6197b3f67c2b5cd3b6d9596a","session_id":"619be31a4b0e107c39f0680e","condition":"full-information","relevant_dimensions":["wings","legs"],"bee_group":{"antennae":"X","wings":"2","pattern":"X","legs":"M"},"action":"harvest","summary":"good-harvest","bonus":1.3800000000000008},{"rt":942.3999999761581,"stimulus":"\n                    <p><b>Action: <em>harvest</em></b></p>\n                    <p>This is the bee that you just saw.</p>\n                    <img src=\"bees-with-color/bee-A1DF.svg\" width=\"200\">\n                    <p><span class=\"greenText\"><b>Successful harvest!</b></span><br>Your pay has increased by $0.02. Your bonus pay is now $0.98.</p>\n            ","response":0,"trial_type":"html-button-response","trial_index":126,"time_elapsed":531447,"internal_node_id":"0.0-4.0-1.59","subject_id":"5f8d7850f3a3ef065112ffb5","study_id":"6197b3f67c2b5cd3b6d9596a","session_id":"619be31a4b0e107c39f0680e","condition":"full-information","relevant_dimensions":["wings","legs"],"bee_group":{"antennae":"X","wings":"2","pattern":"X","legs":"M"},"bonus":1.3800000000000008},{"rt":1797.4000000059605,"stimulus":"bees-with-color/bee-B2DF.svg","response":0,"trial_type":"image-button-response","trial_index":127,"time_elapsed":533246,"internal_node_id":"0.0-4.0-0.60","subject_id":"5f8d7850f3a3ef065112ffb5","study_id":"6197b3f67c2b5cd3b6d9596a","session_id":"619be31a4b0e107c39f0680e","condition":"full-information","relevant_dimensions":["wings","legs"],"bee_group":{"antennae":"X","wings":"2","pattern":"X","legs":"M"},"action":"harvest","summary":"good-harvest","bonus":1.3800000000000008},{"rt":713.5999999940395,"stimulus":"\n                    <p><b>Action: <em>harvest</em></b></p>\n                    <p>This is the bee that you just saw.</p>\n                    <img src=\"bees-with-color/bee-B2DF.svg\" width=\"200\">\n                    <p><span class=\"greenText\"><b>Successful harvest!</b></span><br>Your pay has increased by $0.02. Your bonus pay is now $1.00.</p>\n            ","response":0,"trial_type":"html-button-response","trial_index":128,"time_elapsed":533960,"internal_node_id":"0.0-4.0-1.60","subject_id":"5f8d7850f3a3ef065112ffb5","study_id":"6197b3f67c2b5cd3b6d9596a","session_id":"619be31a4b0e107c39f0680e","condition":"full-information","relevant_dimensions":["wings","legs"],"bee_group":{"antennae":"X","wings":"2","pattern":"X","legs":"M"},"bonus":1.3800000000000008},{"rt":13814.699999988079,"stimulus":"bees-with-color/bee-A1SM.svg","response":0,"trial_type":"image-button-response","trial_index":129,"time_elapsed":547776,"internal_node_id":"0.0-4.0-0.61","subject_id":"5f8d7850f3a3ef065112ffb5","study_id":"6197b3f67c2b5cd3b6d9596a","session_id":"619be31a4b0e107c39f0680e","condition":"full-information","relevant_dimensions":["wings","legs"],"bee_group":{"antennae":"X","wings":"2","pattern":"X","legs":"M"},"action":"harvest","summary":"good-harvest","bonus":1.3800000000000008},{"rt":823.8000000119209,"stimulus":"\n                    <p><b>Action: <em>harvest</em></b></p>\n                    <p>This is the bee that you just saw.</p>\n                    <img src=\"bees-with-color/bee-A1SM.svg\" width=\"200\">\n                    <p><span class=\"greenText\"><b>Successful harvest!</b></span><br>Your pay has increased by $0.02. Your bonus pay is now $1.02.</p>\n            ","response":0,"trial_type":"html-button-response","trial_index":130,"time_elapsed":548600,"internal_node_id":"0.0-4.0-1.61","subject_id":"5f8d7850f3a3ef065112ffb5","study_id":"6197b3f67c2b5cd3b6d9596a","session_id":"619be31a4b0e107c39f0680e","condition":"full-information","relevant_dimensions":["wings","legs"],"bee_group":{"antennae":"X","wings":"2","pattern":"X","legs":"M"},"bonus":1.3800000000000008},{"rt":8812.59999999404,"stimulus":"bees-with-color/bee-A2SF.svg","response":1,"trial_type":"image-button-response","trial_index":131,"time_elapsed":557414,"internal_node_id":"0.0-4.0-0.62","subject_id":"5f8d7850f3a3ef065112ffb5","study_id":"6197b3f67c2b5cd3b6d9596a","session_id":"619be31a4b0e107c39f0680e","condition":"full-information","relevant_dimensions":["wings","legs"],"bee_group":{"antennae":"X","wings":"2","pattern":"X","legs":"M"},"action":"avoid","summary":"bad-avoid","bonus":1.3800000000000008},{"rt":4438.0999999940395,"stimulus":"\n                    <p><b>Action: <em>avoid</em></b></p>\n                    <p>This is the bee that you just saw.</p>\n                    <img src=\"bees-with-color/bee-A2SF.svg\" width=\"200\">\n                    <p><span class=\"redText\">Bad choice,</span> the bee was friendly.<br>Your bonus pay is unchanged, and remains at $1.02.</p>\n            ","response":0,"trial_type":"html-button-response","trial_index":132,"time_elapsed":561854,"internal_node_id":"0.0-4.0-1.62","subject_id":"5f8d7850f3a3ef065112ffb5","study_id":"6197b3f67c2b5cd3b6d9596a","session_id":"619be31a4b0e107c39f0680e","condition":"full-information","relevant_dimensions":["wings","legs"],"bee_group":{"antennae":"X","wings":"2","pattern":"X","legs":"M"},"bonus":1.3800000000000008},{"rt":1173.199999988079,"stimulus":"bees-with-color/bee-B2DM.svg","response":1,"trial_type":"image-button-response","trial_index":133,"time_elapsed":563028,"internal_node_id":"0.0-4.0-0.63","subject_id":"5f8d7850f3a3ef065112ffb5","study_id":"6197b3f67c2b5cd3b6d9596a","session_id":"619be31a4b0e107c39f0680e","condition":"full-information","relevant_dimensions":["wings","legs"],"bee_group":{"antennae":"X","wings":"2","pattern":"X","legs":"M"},"action":"avoid","summary":"good-avoid","bonus":1.3800000000000008},{"rt":451.09999999403954,"stimulus":"\n                    <p><b>Action: <em>avoid</em></b></p>\n                    <p>This is the bee that you just saw.</p>\n                    <img src=\"bees-with-color/bee-B2DM.svg\" width=\"200\">\n                    <p><span class=\"greenText\">Good choice!</span>  This bee would have stung you.<br>Your bonus pay is unchanged, and remains at $1.02.</p>\n            ","response":0,"trial_type":"html-button-response","trial_index":134,"time_elapsed":563480,"internal_node_id":"0.0-4.0-1.63","subject_id":"5f8d7850f3a3ef065112ffb5","study_id":"6197b3f67c2b5cd3b6d9596a","session_id":"619be31a4b0e107c39f0680e","condition":"full-information","relevant_dimensions":["wings","legs"],"bee_group":{"antennae":"X","wings":"2","pattern":"X","legs":"M"},"bonus":1.3800000000000008},{"rt":26923.899999976158,"stimulus":"You have completed the first part of this experiment.<br><br>You will now begin a shorter second part, in which you will receive no feedback.<br>The same rules regarding bonus pay apply.<br><br>Press any key to begin.","response":" ","trial_type":"html-keyboard-response","trial_index":135,"time_elapsed":590405,"internal_node_id":"0.0-5.0","subject_id":"5f8d7850f3a3ef065112ffb5","study_id":"6197b3f67c2b5cd3b6d9596a","session_id":"619be31a4b0e107c39f0680e","condition":"full-information","relevant_dimensions":["wings","legs"],"bee_group":{"antennae":"X","wings":"2","pattern":"X","legs":"M"},"bonus":1.3800000000000008},{"rt":10934.5,"stimulus":"bees-with-color/bee-B2SF.svg","response":0,"trial_type":"image-button-response","trial_index":136,"time_elapsed":601344,"internal_node_id":"0.0-6.0-0.0","subject_id":"5f8d7850f3a3ef065112ffb5","study_id":"6197b3f67c2b5cd3b6d9596a","session_id":"619be31a4b0e107c39f0680e","condition":"full-information","relevant_dimensions":["wings","legs"],"bee_group":{"antennae":"X","wings":"2","pattern":"X","legs":"M"},"bonus":1.3800000000000008},{"rt":2762.9000000059605,"stimulus":"bees-with-color/bee-B2DM.svg","response":1,"trial_type":"image-button-response","trial_index":137,"time_elapsed":604108,"internal_node_id":"0.0-6.0-0.1","subject_id":"5f8d7850f3a3ef065112ffb5","study_id":"6197b3f67c2b5cd3b6d9596a","session_id":"619be31a4b0e107c39f0680e","condition":"full-information","relevant_dimensions":["wings","legs"],"bee_group":{"antennae":"X","wings":"2","pattern":"X","legs":"M"},"bonus":1.3800000000000008},{"rt":1087.300000011921,"stimulus":"bees-with-color/bee-B1SF.svg","response":0,"trial_type":"image-button-response","trial_index":138,"time_elapsed":605197,"internal_node_id":"0.0-6.0-0.2","subject_id":"5f8d7850f3a3ef065112ffb5","study_id":"6197b3f67c2b5cd3b6d9596a","session_id":"619be31a4b0e107c39f0680e","condition":"full-information","relevant_dimensions":["wings","legs"],"bee_group":{"antennae":"X","wings":"2","pattern":"X","legs":"M"},"bonus":1.3800000000000008},{"rt":9413,"stimulus":"bees-with-color/bee-A1SM.svg","response":0,"trial_type":"image-button-response","trial_index":139,"time_elapsed":614611,"internal_node_id":"0.0-6.0-0.3","subject_id":"5f8d7850f3a3ef065112ffb5","study_id":"6197b3f67c2b5cd3b6d9596a","session_id":"619be31a4b0e107c39f0680e","condition":"full-information","relevant_dimensions":["wings","legs"],"bee_group":{"antennae":"X","wings":"2","pattern":"X","legs":"M"},"bonus":1.3800000000000008},{"rt":1689.300000011921,"stimulus":"bees-with-color/bee-B2SM.svg","response":1,"trial_type":"image-button-response","trial_index":140,"time_elapsed":616302,"internal_node_id":"0.0-6.0-0.4","subject_id":"5f8d7850f3a3ef065112ffb5","study_id":"6197b3f67c2b5cd3b6d9596a","session_id":"619be31a4b0e107c39f0680e","condition":"full-information","relevant_dimensions":["wings","legs"],"bee_group":{"antennae":"X","wings":"2","pattern":"X","legs":"M"},"bonus":1.3800000000000008},{"rt":1600.4000000059605,"stimulus":"bees-with-color/bee-A1DF.svg","response":0,"trial_type":"image-button-response","trial_index":141,"time_elapsed":617904,"internal_node_id":"0.0-6.0-0.5","subject_id":"5f8d7850f3a3ef065112ffb5","study_id":"6197b3f67c2b5cd3b6d9596a","session_id":"619be31a4b0e107c39f0680e","condition":"full-information","relevant_dimensions":["wings","legs"],"bee_group":{"antennae":"X","wings":"2","pattern":"X","legs":"M"},"bonus":1.3800000000000008},{"rt":6120.0999999940395,"stimulus":"bees-with-color/bee-B2DF.svg","response":1,"trial_type":"image-button-response","trial_index":142,"time_elapsed":624025,"internal_node_id":"0.0-6.0-0.6","subject_id":"5f8d7850f3a3ef065112ffb5","study_id":"6197b3f67c2b5cd3b6d9596a","session_id":"619be31a4b0e107c39f0680e","condition":"full-information","relevant_dimensions":["wings","legs"],"bee_group":{"antennae":"X","wings":"2","pattern":"X","legs":"M"},"bonus":1.3800000000000008},{"rt":1910.4000000059605,"stimulus":"bees-with-color/bee-B1DF.svg","response":0,"trial_type":"image-button-response","trial_index":143,"time_elapsed":625937,"internal_node_id":"0.0-6.0-0.7","subject_id":"5f8d7850f3a3ef065112ffb5","study_id":"6197b3f67c2b5cd3b6d9596a","session_id":"619be31a4b0e107c39f0680e","condition":"full-information","relevant_dimensions":["wings","legs"],"bee_group":{"antennae":"X","wings":"2","pattern":"X","legs":"M"},"bonus":1.3800000000000008},{"rt":2086.600000023842,"stimulus":"bees-with-color/bee-A1SF.svg","response":0,"trial_type":"image-button-response","trial_index":144,"time_elapsed":628025,"internal_node_id":"0.0-6.0-0.8","subject_id":"5f8d7850f3a3ef065112ffb5","study_id":"6197b3f67c2b5cd3b6d9596a","session_id":"619be31a4b0e107c39f0680e","condition":"full-information","relevant_dimensions":["wings","legs"],"bee_group":{"antennae":"X","wings":"2","pattern":"X","legs":"M"},"bonus":1.3800000000000008},{"rt":7545.4000000059605,"stimulus":"bees-with-color/bee-A1DM.svg","response":1,"trial_type":"image-button-response","trial_index":145,"time_elapsed":635571,"internal_node_id":"0.0-6.0-0.9","subject_id":"5f8d7850f3a3ef065112ffb5","study_id":"6197b3f67c2b5cd3b6d9596a","session_id":"619be31a4b0e107c39f0680e","condition":"full-information","relevant_dimensions":["wings","legs"],"bee_group":{"antennae":"X","wings":"2","pattern":"X","legs":"M"},"bonus":1.3800000000000008},{"rt":4171,"stimulus":"bees-with-color/bee-B1DM.svg","response":0,"trial_type":"image-button-response","trial_index":146,"time_elapsed":639743,"internal_node_id":"0.0-6.0-0.10","subject_id":"5f8d7850f3a3ef065112ffb5","study_id":"6197b3f67c2b5cd3b6d9596a","session_id":"619be31a4b0e107c39f0680e","condition":"full-information","relevant_dimensions":["wings","legs"],"bee_group":{"antennae":"X","wings":"2","pattern":"X","legs":"M"},"bonus":1.3800000000000008},{"rt":1356.1000000238419,"stimulus":"bees-with-color/bee-A2SM.svg","response":1,"trial_type":"image-button-response","trial_index":147,"time_elapsed":641101,"internal_node_id":"0.0-6.0-0.11","subject_id":"5f8d7850f3a3ef065112ffb5","study_id":"6197b3f67c2b5cd3b6d9596a","session_id":"619be31a4b0e107c39f0680e","condition":"full-information","relevant_dimensions":["wings","legs"],"bee_group":{"antennae":"X","wings":"2","pattern":"X","legs":"M"},"bonus":1.3800000000000008},{"rt":5758.5999999940395,"stimulus":"bees-with-color/bee-B1SM.svg","response":0,"trial_type":"image-button-response","trial_index":148,"time_elapsed":646861,"internal_node_id":"0.0-6.0-0.12","subject_id":"5f8d7850f3a3ef065112ffb5","study_id":"6197b3f67c2b5cd3b6d9596a","session_id":"619be31a4b0e107c39f0680e","condition":"full-information","relevant_dimensions":["wings","legs"],"bee_group":{"antennae":"X","wings":"2","pattern":"X","legs":"M"},"bonus":1.3800000000000008},{"rt":969.4000000059605,"stimulus":"bees-with-color/bee-A2DM.svg","response":1,"trial_type":"image-button-response","trial_index":149,"time_elapsed":647832,"internal_node_id":"0.0-6.0-0.13","subject_id":"5f8d7850f3a3ef065112ffb5","study_id":"6197b3f67c2b5cd3b6d9596a","session_id":"619be31a4b0e107c39f0680e","condition":"full-information","relevant_dimensions":["wings","legs"],"bee_group":{"antennae":"X","wings":"2","pattern":"X","legs":"M"},"bonus":1.3800000000000008},{"rt":2090,"stimulus":"bees-with-color/bee-A2DF.svg","response":1,"trial_type":"image-button-response","trial_index":150,"time_elapsed":649924,"internal_node_id":"0.0-6.0-0.14","subject_id":"5f8d7850f3a3ef065112ffb5","study_id":"6197b3f67c2b5cd3b6d9596a","session_id":"619be31a4b0e107c39f0680e","condition":"full-information","relevant_dimensions":["wings","legs"],"bee_group":{"antennae":"X","wings":"2","pattern":"X","legs":"M"},"bonus":1.3800000000000008},{"rt":9267.799999982119,"stimulus":"bees-with-color/bee-A2SF.svg","response":0,"trial_type":"image-button-response","trial_index":151,"time_elapsed":659193,"internal_node_id":"0.0-6.0-0.15","subject_id":"5f8d7850f3a3ef065112ffb5","study_id":"6197b3f67c2b5cd3b6d9596a","session_id":"619be31a4b0e107c39f0680e","condition":"full-information","relevant_dimensions":["wings","legs"],"bee_group":{"antennae":"X","wings":"2","pattern":"X","legs":"M"},"bonus":1.3800000000000008},{"rt":1967.2999999821186,"stimulus":"bees-with-color/bee-A1SF.svg","response":0,"trial_type":"image-button-response","trial_index":152,"time_elapsed":661161,"internal_node_id":"0.0-6.0-0.16","subject_id":"5f8d7850f3a3ef065112ffb5","study_id":"6197b3f67c2b5cd3b6d9596a","session_id":"619be31a4b0e107c39f0680e","condition":"full-information","relevant_dimensions":["wings","legs"],"bee_group":{"antennae":"X","wings":"2","pattern":"X","legs":"M"},"bonus":1.3800000000000008},{"rt":1057.699999988079,"stimulus":"bees-with-color/bee-A1SM.svg","response":1,"trial_type":"image-button-response","trial_index":153,"time_elapsed":662220,"internal_node_id":"0.0-6.0-0.17","subject_id":"5f8d7850f3a3ef065112ffb5","study_id":"6197b3f67c2b5cd3b6d9596a","session_id":"619be31a4b0e107c39f0680e","condition":"full-information","relevant_dimensions":["wings","legs"],"bee_group":{"antennae":"X","wings":"2","pattern":"X","legs":"M"},"bonus":1.3800000000000008},{"rt":1233.5,"stimulus":"bees-with-color/bee-B2SM.svg","response":1,"trial_type":"image-button-response","trial_index":154,"time_elapsed":663455,"internal_node_id":"0.0-6.0-0.18","subject_id":"5f8d7850f3a3ef065112ffb5","study_id":"6197b3f67c2b5cd3b6d9596a","session_id":"619be31a4b0e107c39f0680e","condition":"full-information","relevant_dimensions":["wings","legs"],"bee_group":{"antennae":"X","wings":"2","pattern":"X","legs":"M"},"bonus":1.3800000000000008},{"rt":1659.9000000059605,"stimulus":"bees-with-color/bee-A2SF.svg","response":0,"trial_type":"image-button-response","trial_index":155,"time_elapsed":665116,"internal_node_id":"0.0-6.0-0.19","subject_id":"5f8d7850f3a3ef065112ffb5","study_id":"6197b3f67c2b5cd3b6d9596a","session_id":"619be31a4b0e107c39f0680e","condition":"full-information","relevant_dimensions":["wings","legs"],"bee_group":{"antennae":"X","wings":"2","pattern":"X","legs":"M"},"bonus":1.3800000000000008},{"rt":10821.40000000596,"stimulus":"bees-with-color/bee-B2DF.svg","response":0,"trial_type":"image-button-response","trial_index":156,"time_elapsed":675939,"internal_node_id":"0.0-6.0-0.20","subject_id":"5f8d7850f3a3ef065112ffb5","study_id":"6197b3f67c2b5cd3b6d9596a","session_id":"619be31a4b0e107c39f0680e","condition":"full-information","relevant_dimensions":["wings","legs"],"bee_group":{"antennae":"X","wings":"2","pattern":"X","legs":"M"},"bonus":1.3800000000000008},{"rt":870.5999999940395,"stimulus":"bees-with-color/bee-A2SM.svg","response":1,"trial_type":"image-button-response","trial_index":157,"time_elapsed":676811,"internal_node_id":"0.0-6.0-0.21","subject_id":"5f8d7850f3a3ef065112ffb5","study_id":"6197b3f67c2b5cd3b6d9596a","session_id":"619be31a4b0e107c39f0680e","condition":"full-information","relevant_dimensions":["wings","legs"],"bee_group":{"antennae":"X","wings":"2","pattern":"X","legs":"M"},"bonus":1.3800000000000008},{"rt":2498.4000000059605,"stimulus":"bees-with-color/bee-B1DF.svg","response":0,"trial_type":"image-button-response","trial_index":158,"time_elapsed":679310,"internal_node_id":"0.0-6.0-0.22","subject_id":