[{"success":true,"trial_type":"fullscreen","trial_index":0,"time_elapsed":2704,"internal_node_id":"0.0-0.0","subject_id":"5e68bd36f0153b000a148229","study_id":"6197b3f67c2b5cd3b6d9596a","session_id":"6197b987e52b8616eb18b11c","condition":"contingent","relevant_dimensions":["pattern","legs"],"bee_group":{"antennae":"X","wings":"X","pattern":"S","legs":"F"},"bonus":1.0600000000000007},{"success":true,"timeout":false,"failed_images":[],"failed_audio":[],"failed_video":[],"trial_type":"preload","trial_index":1,"time_elapsed":4820,"internal_node_id":"0.0-1.0","subject_id":"5e68bd36f0153b000a148229","study_id":"6197b3f67c2b5cd3b6d9596a","session_id":"6197b987e52b8616eb18b11c","condition":"contingent","relevant_dimensions":["pattern","legs"],"bee_group":{"antennae":"X","wings":"X","pattern":"S","legs":"F"},"bonus":1.0600000000000007},{"rt":2399.5999999046326,"stimulus":"Welcome! Press any key to begin.","response":" ","trial_type":"html-keyboard-response","trial_index":2,"time_elapsed":7221,"internal_node_id":"0.0-2.0","subject_id":"5e68bd36f0153b000a148229","study_id":"6197b3f67c2b5cd3b6d9596a","session_id":"6197b987e52b8616eb18b11c","condition":"contingent","relevant_dimensions":["pattern","legs"],"bee_group":{"antennae":"X","wings":"X","pattern":"S","legs":"F"},"bonus":1.0600000000000007},{"view_history":[{"page_index":0,"viewing_time":2634.7999999523163},{"page_index":1,"viewing_time":9366.200000047684},{"page_index":2,"viewing_time":4449.399999976158},{"page_index":3,"viewing_time":8566.800000071526},{"page_index":4,"viewing_time":4176.399999976158},{"page_index":5,"viewing_time":2591.6999999284744},{"page_index":6,"viewing_time":4472.200000047684},{"page_index":7,"viewing_time":5305.200000047684},{"page_index":8,"viewing_time":2215.6999999284744},{"page_index":9,"viewing_time":2168.100000023842},{"page_index":10,"viewing_time":1759},{"page_index":11,"viewing_time":6224.299999952316},{"page_index":12,"viewing_time":6487.600000023842},{"page_index":13,"viewing_time":1208.1000000238419},{"page_index":14,"viewing_time":2192}],"rt":63818.200000047684,"trial_type":"instructions","trial_index":3,"time_elapsed":71041,"internal_node_id":"0.0-3.0-0.0","subject_id":"5e68bd36f0153b000a148229","study_id":"6197b3f67c2b5cd3b6d9596a","session_id":"6197b987e52b8616eb18b11c","condition":"contingent","relevant_dimensions":["pattern","legs"],"bee_group":{"antennae":"X","wings":"X","pattern":"S","legs":"F"},"bonus":1.0600000000000007},{"rt":8297.699999928474,"response":{"Q0":["Two or six legs","Stripes or spots on body","Single or double wings","Antennae or no antennae"]},"question_order":[0],"trial_type":"survey-multi-select","trial_index":4,"time_elapsed":79346,"internal_node_id":"0.0-3.0-1.0","subject_id":"5e68bd36f0153b000a148229","study_id":"6197b3f67c2b5cd3b6d9596a","session_id":"6197b987e52b8616eb18b11c","condition":"contingent","relevant_dimensions":["pattern","legs"],"bee_group":{"antennae":"X","wings":"X","pattern":"S","legs":"F"},"correct":true,"bonus":1.0600000000000007},{"rt":15691.100000023842,"response":{"Q1":"No.","Q2":"Based on the four features of the bee.","Q3":"You do not learn if it was friendly or dangerous, and do not alter your bonus."},"question_order":[0,1,2],"trial_type":"survey-multi-choice","trial_index":5,"time_elapsed":95041,"internal_node_id":"0.0-3.0-2.0","subject_id":"5e68bd36f0153b000a148229","study_id":"6197b3f67c2b5cd3b6d9596a","session_id":"6197b987e52b8616eb18b11c","condition":"contingent","relevant_dimensions":["pattern","legs"],"bee_group":{"antennae":"X","wings":"X","pattern":"S","legs":"F"},"correct":true,"bonus":1.0600000000000007},{"rt":1390.7999999523163,"stimulus":"<p>Congrats, you got everything right<br>When you're ready, click the button below to continue to the experiment.</p>","response":0,"trial_type":"html-button-response","trial_index":6,"time_elapsed":96435,"internal_node_id":"0.0-3.0-3.0","subject_id":"5e68bd36f0153b000a148229","study_id":"6197b3f67c2b5cd3b6d9596a","session_id":"6197b987e52b8616eb18b11c","condition":"contingent","relevant_dimensions":["pattern","legs"],"bee_group":{"antennae":"X","wings":"X","pattern":"S","legs":"F"},"bonus":1.0600000000000007},{"rt":2506.899999976158,"stimulus":"bees-with-color/bee-B2DM.svg","response":0,"trial_type":"image-button-response","trial_index":7,"time_elapsed":98946,"internal_node_id":"0.0-4.0-0.0","subject_id":"5e68bd36f0153b000a148229","study_id":"6197b3f67c2b5cd3b6d9596a","session_id":"6197b987e52b8616eb18b11c","condition":"contingent","relevant_dimensions":["pattern","legs"],"bee_group":{"antennae":"X","wings":"X","pattern":"S","legs":"F"},"action":"harvest","summary":"good-harvest","bonus":1.0600000000000007},{"rt":2483.899999976158,"stimulus":"\n                    <p><b>Action: <em>harvest</em></b></p>\n                    <p>This is the bee that you just saw.</p>\n                    <img src=\"bees-with-color/bee-B2DM.svg\" width=\"200\">\n                    <p><span class=\"greenText\"><b>Successful harvest!</b></span><br>Your pay has increased by $0.02. Your bonus pay is now $0.56.</p>\n            ","response":0,"trial_type":"html-button-response","trial_index":8,"time_elapsed":101434,"internal_node_id":"0.0-4.0-1.0","subject_id":"5e68bd36f0153b000a148229","study_id":"6197b3f67c2b5cd3b6d9596a","session_id":"6197b987e52b8616eb18b11c","condition":"contingent","relevant_dimensions":["pattern","legs"],"bee_group":{"antennae":"X","wings":"X","pattern":"S","legs":"F"},"bonus":1.0600000000000007},{"rt":2220.2000000476837,"stimulus":"bees-with-color/bee-B1SM.svg","response":1,"trial_type":"image-button-response","trial_index":9,"time_elapsed":103657,"internal_node_id":"0.0-4.0-0.1","subject_id":"5e68bd36f0153b000a148229","study_id":"6197b3f67c2b5cd3b6d9596a","session_id":"6197b987e52b8616eb18b11c","condition":"contingent","relevant_dimensions":["pattern","legs"],"bee_group":{"antennae":"X","wings":"X","pattern":"S","legs":"F"},"action":"avoid","summary":"bad-avoid","bonus":1.0600000000000007},{"rt":4244.899999976158,"stimulus":"\n                    <p><b>Action: <em>avoid</em></b></p>\n                    <p>This is the bee that you just saw.</p>\n                    <img src=\"bees-with-color/bee-B1SM.svg\" width=\"200\">\n                    <p><br>Your bonus pay is unchanged, and remains at $0.56.</p>\n            ","response":0,"trial_type":"html-button-response","trial_index":10,"time_elapsed":107905,"internal_node_id":"0.0-4.0-1.1","subject_id":"5e68bd36f0153b000a148229","study_id":"6197b3f67c2b5cd3b6d9596a","session_id":"6197b987e52b8616eb18b11c","condition":"contingent","relevant_dimensions":["pattern","legs"],"bee_group":{"antennae":"X","wings":"X","pattern":"S","legs":"F"},"bonus":1.0600000000000007},{"rt":1708.6000000238419,"stimulus":"bees-with-color/bee-B1SF.svg","response":0,"trial_type":"image-button-response","trial_index":11,"time_elapsed":109618,"internal_node_id":"0.0-4.0-0.2","subject_id":"5e68bd36f0153b000a148229","study_id":"6197b3f67c2b5cd3b6d9596a","session_id":"6197b987e52b8616eb18b11c","condition":"contingent","relevant_dimensions":["pattern","legs"],"bee_group":{"antennae":"X","wings":"X","pattern":"S","legs":"F"},"action":"harvest","summary":"bad-harvest","bonus":1.0600000000000007},{"rt":1852.7000000476837,"stimulus":"\n                    <p><b>Action: <em>harvest</em></b></p>\n                    <p>This is the bee that you just saw.</p>\n                    <img src=\"bees-with-color/bee-B1SF.svg\" width=\"200\">\n                    <p><span class=\"redText\">Bad choice, the bee was angry.</span><br><b>You have been stung!</b><br>Your pay has been decreased by $0.10. Your bonus pay is now $0.46.</p>\n            ","response":0,"trial_type":"html-button-response","trial_index":12,"time_elapsed":111473,"internal_node_id":"0.0-4.0-1.2","subject_id":"5e68bd36f0153b000a148229","study_id":"6197b3f67c2b5cd3b6d9596a","session_id":"6197b987e52b8616eb18b11c","condition":"contingent","relevant_dimensions":["pattern","legs"],"bee_group":{"antennae":"X","wings":"X","pattern":"S","legs":"F"},"bonus":1.0600000000000007},{"rt":1285.1000000238419,"stimulus":"bees-with-color/bee-A2SF.svg","response":0,"trial_type":"image-button-response","trial_index":13,"time_elapsed":112761,"internal_node_id":"0.0-4.0-0.3","subject_id":"5e68bd36f0153b000a148229","study_id":"6197b3f67c2b5cd3b6d9596a","session_id":"6197b987e52b8616eb18b11c","condition":"contingent","relevant_dimensions":["pattern","legs"],"bee_group":{"antennae":"X","wings":"X","pattern":"S","legs":"F"},"action":"harvest","summary":"bad-harvest","bonus":1.0600000000000007},{"rt":1061.2000000476837,"stimulus":"\n                    <p><b>Action: <em>harvest</em></b></p>\n                    <p>This is the bee that you just saw.</p>\n                    <img src=\"bees-with-color/bee-A2SF.svg\" width=\"200\">\n                    <p><span class=\"redText\">Bad choice, the bee was angry.</span><br><b>You have been stung!</b><br>Your pay has been decreased by $0.10. Your bonus pay is now $0.36.</p>\n            ","response":0,"trial_type":"html-button-response","trial_index":14,"time_elapsed":113825,"internal_node_id":"0.0-4.0-1.3","subject_id":"5e68bd36f0153b000a148229","study_id":"6197b3f67c2b5cd3b6d9596a","session_id":"6197b987e52b8616eb18b11c","condition":"contingent","relevant_dimensions":["pattern","legs"],"bee_group":{"antennae":"X","wings":"X","pattern":"S","legs":"F"},"bonus":1.0600000000000007},{"rt":1517.8000000715256,"stimulus":"bees-with-color/bee-A1SM.svg","response":0,"trial_type":"image-button-response","trial_index":15,"time_elapsed":115346,"internal_node_id":"0.0-4.0-0.4","subject_id":"5e68bd36f0153b000a148229","study_id":"6197b3f67c2b5cd3b6d9596a","session_id":"6197b987e52b8616eb18b11c","condition":"contingent","relevant_dimensions":["pattern","legs"],"bee_group":{"antennae":"X","wings":"X","pattern":"S","legs":"F"},"action":"harvest","summary":"good-harvest","bonus":1.0600000000000007},{"rt":2002,"stimulus":"\n                    <p><b>Action: <em>harvest</em></b></p>\n                    <p>This is the bee that you just saw.</p>\n                    <img src=\"bees-with-color/bee-A1SM.svg\" width=\"200\">\n                    <p><span class=\"greenText\"><b>Successful harvest!</b></span><br>Your pay has increased by $0.02. Your bonus pay is now $0.38.</p>\n            ","response":0,"trial_type":"html-button-response","trial_index":16,"time_elapsed":117353,"internal_node_id":"0.0-4.0-1.4","subject_id":"5e68bd36f0153b000a148229","study_id":"6197b3f67c2b5cd3b6d9596a","session_id":"6197b987e52b8616eb18b11c","condition":"contingent","relevant_dimensions":["pattern","legs"],"bee_group":{"antennae":"X","wings":"X","pattern":"S","legs":"F"},"bonus":1.0600000000000007},{"rt":1396.5,"stimulus":"bees-with-color/bee-A2SM.svg","response":1,"trial_type":"image-button-response","trial_index":17,"time_elapsed":118753,"internal_node_id":"0.0-4.0-0.5","subject_id":"5e68bd36f0153b000a148229","study_id":"6197b3f67c2b5cd3b6d9596a","session_id":"6197b987e52b8616eb18b11c","condition":"contingent","relevant_dimensions":["pattern","legs"],"bee_group":{"antennae":"X","wings":"X","pattern":"S","legs":"F"},"action":"avoid","summary":"bad-avoid","bonus":1.0600000000000007},{"rt":1893.7000000476837,"stimulus":"\n                    <p><b>Action: <em>avoid</em></b></p>\n                    <p>This is the bee that you just saw.</p>\n                    <img src=\"bees-with-color/bee-A2SM.svg\" width=\"200\">\n                    <p><br>Your bonus pay is unchanged, and remains at $0.38.</p>\n            ","response":0,"trial_type":"html-button-response","trial_index":18,"time_elapsed":120650,"internal_node_id":"0.0-4.0-1.5","subject_id":"5e68bd36f0153b000a148229","study_id":"6197b3f67c2b5cd3b6d9596a","session_id":"6197b987e52b8616eb18b11c","condition":"contingent","relevant_dimensions":["pattern","legs"],"bee_group":{"antennae":"X","wings":"X","pattern":"S","legs":"F"},"bonus":1.0600000000000007},{"rt":2034.5999999046326,"stimulus":"bees-with-color/bee-B2SM.svg","response":1,"trial_type":"image-button-response","trial_index":19,"time_elapsed":122689,"internal_node_id":"0.0-4.0-0.6","subject_id":"5e68bd36f0153b000a148229","study_id":"6197b3f67c2b5cd3b6d9596a","session_id":"6197b987e52b8616eb18b11c","condition":"contingent","relevant_dimensions":["pattern","legs"],"bee_group":{"antennae":"X","wings":"X","pattern":"S","legs":"F"},"action":"avoid","summary":"bad-avoid","bonus":1.0600000000000007},{"rt":757.3999999761581,"stimulus":"\n                    <p><b>Action: <em>avoid</em></b></p>\n                    <p>This is the bee that you just saw.</p>\n                    <img src=\"bees-with-color/bee-B2SM.svg\" width=\"200\">\n                    <p><br>Your bonus pay is unchanged, and remains at $0.38.</p>\n            ","response":0,"trial_type":"html-button-response","trial_index":20,"time_elapsed":123450,"internal_node_id":"0.0-4.0-1.6","subject_id":"5e68bd36f0153b000a148229","study_id":"6197b3f67c2b5cd3b6d9596a","session_id":"6197b987e52b8616eb18b11c","condition":"contingent","relevant_dimensions":["pattern","legs"],"bee_group":{"antennae":"X","wings":"X","pattern":"S","legs":"F"},"bonus":1.0600000000000007},{"rt":1324.8000000715256,"stimulus":"bees-with-color/bee-A1DM.svg","response":0,"trial_type":"image-button-response","trial_index":21,"time_elapsed":124778,"internal_node_id":"0.0-4.0-0.7","subject_id":"5e68bd36f0153b000a148229","study_id":"6197b3f67c2b5cd3b6d9596a","session_id":"6197b987e52b8616eb18b11c","condition":"contingent","relevant_dimensions":["pattern","legs"],"bee_group":{"antennae":"X","wings":"X","pattern":"S","legs":"F"},"action":"harvest","summary":"good-harvest","bonus":1.0600000000000007},{"rt":1259.3000000715256,"stimulus":"\n                    <p><b>Action: <em>harvest</em></b></p>\n                    <p>This is the bee that you just saw.</p>\n                    <img src=\"bees-with-color/bee-A1DM.svg\" width=\"200\">\n                    <p><span class=\"greenText\"><b>Successful harvest!</b></span><br>Your pay has increased by $0.02. Your bonus pay is now $0.40.</p>\n            ","response":0,"trial_type":"html-button-response","trial_index":22,"time_elapsed":126041,"internal_node_id":"0.0-4.0-1.7","subject_id":"5e68bd36f0153b000a148229","study_id":"6197b3f67c2b5cd3b6d9596a","session_id":"6197b987e52b8616eb18b11c","condition":"contingent","relevant_dimensions":["pattern","legs"],"bee_group":{"antennae":"X","wings":"X","pattern":"S","legs":"F"},"bonus":1.0600000000000007},{"rt":1013.3999999761581,"stimulus":"bees-with-color/bee-A1SF.svg","response":0,"trial_type":"image-button-response","trial_index":23,"time_elapsed":127057,"internal_node_id":"0.0-4.0-0.8","subject_id":"5e68bd36f0153b000a148229","study_id":"6197b3f67c2b5cd3b6d9596a","session_id":"6197b987e52b8616eb18b11c","condition":"contingent","relevant_dimensions":["pattern","legs"],"bee_group":{"antennae":"X","wings":"X","pattern":"S","legs":"F"},"action":"harvest","summary":"bad-harvest","bonus":1.0600000000000007},{"rt":1524.8999999761581,"stimulus":"\n                    <p><b>Action: <em>harvest</em></b></p>\n                    <p>This is the bee that you just saw.</p>\n                    <img src=\"bees-with-color/bee-A1SF.svg\" width=\"200\">\n                    <p><span class=\"redText\">Bad choice, the bee was angry.</span><br><b>You have been stung!</b><br>Your pay has been decreased by $0.10. Your bonus pay is now $0.30.</p>\n            ","response":0,"trial_type":"html-button-response","trial_index":24,"time_elapsed":128584,"internal_node_id":"0.0-4.0-1.8","subject_id":"5e68bd36f0153b000a148229","study_id":"6197b3f67c2b5cd3b6d9596a","session_id":"6197b987e52b8616eb18b11c","condition":"contingent","relevant_dimensions":["pattern","legs"],"bee_group":{"antennae":"X","wings":"X","pattern":"S","legs":"F"},"bonus":1.0600000000000007},{"rt":1301.3999999761581,"stimulus":"bees-with-color/bee-B2DF.svg","response":0,"trial_type":"image-button-response","trial_index":25,"time_elapsed":129889,"internal_node_id":"0.0-4.0-0.9","subject_id":"5e68bd36f0153b000a148229","study_id":"6197b3f67c2b5cd3b6d9596a","session_id":"6197b987e52b8616eb18b11c","condition":"contingent","relevant_dimensions":["pattern","legs"],"bee_group":{"antennae":"X","wings":"X","pattern":"S","legs":"F"},"action":"harvest","summary":"good-harvest","bonus":1.0600000000000007},{"rt":950.5,"stimulus":"\n                    <p><b>Action: <em>harvest</em></b></p>\n                    <p>This is the bee that you just saw.</p>\n                    <img src=\"bees-with-color/bee-B2DF.svg\" width=\"200\">\n                    <p><span class=\"greenText\"><b>Successful harvest!</b></span><br>Your pay has increased by $0.02. Your bonus pay is now $0.32.</p>\n            ","response":0,"trial_type":"html-button-response","trial_index":26,"time_elapsed":130842,"internal_node_id":"0.0-4.0-1.9","subject_id":"5e68bd36f0153b000a148229","study_id":"6197b3f67c2b5cd3b6d9596a","session_id":"6197b987e52b8616eb18b11c","condition":"contingent","relevant_dimensions":["pattern","legs"],"bee_group":{"antennae":"X","wings":"X","pattern":"S","legs":"F"},"bonus":1.0600000000000007},{"rt":1941.1000000238419,"stimulus":"bees-with-color/bee-B2SF.svg","response":0,"trial_type":"image-button-response","trial_index":27,"time_elapsed":132785,"internal_node_id":"0.0-4.0-0.10","subject_id":"5e68bd36f0153b000a148229","study_id":"6197b3f67c2b5cd3b6d9596a","session_id":"6197b987e52b8616eb18b11c","condition":"contingent","relevant_dimensions":["pattern","legs"],"bee_group":{"antennae":"X","wings":"X","pattern":"S","legs":"F"},"action":"harvest","summary":"bad-harvest","bonus":1.0600000000000007},{"rt":1372.8000000715256,"stimulus":"\n                    <p><b>Action: <em>harvest</em></b></p>\n                    <p>This is the bee that you just saw.</p>\n                    <img src=\"bees-with-color/bee-B2SF.svg\" width=\"200\">\n                    <p><span class=\"redText\">Bad choice, the bee was angry.</span><br><b>You have been stung!</b><br>Your pay has been decreased by $0.10. Your bonus pay is now $0.22.</p>\n            ","response":0,"trial_type":"html-button-response","trial_index":28,"time_elapsed":134161,"internal_node_id":"0.0-4.0-1.10","subject_id":"5e68bd36f0153b000a148229","study_id":"6197b3f67c2b5cd3b6d9596a","session_id":"6197b987e52b8616eb18b11c","condition":"contingent","relevant_dimensions":["pattern","legs"],"bee_group":{"antennae":"X","wings":"X","pattern":"S","legs":"F"},"bonus":1.0600000000000007},{"rt":1786.6999999284744,"stimulus":"bees-with-color/bee-B1DF.svg","response":1,"trial_type":"image-button-response","trial_index":29,"time_elapsed":135953,"internal_node_id":"0.0-4.0-0.11","subject_id":"5e68bd36f0153b000a148229","study_id":"6197b3f67c2b5cd3b6d9596a","session_id":"6197b987e52b8616eb18b11c","condition":"contingent","relevant_dimensions":["pattern","legs"],"bee_group":{"antennae":"X","wings":"X","pattern":"S","legs":"F"},"action":"avoid","summary":"bad-avoid","bonus":1.0600000000000007},{"rt":869.1000000238419,"stimulus":"\n                    <p><b>Action: <em>avoid</em></b></p>\n                    <p>This is the bee that you just saw.</p>\n                    <img src=\"bees-with-color/bee-B1DF.svg\" width=\"200\">\n                    <p><br>Your bonus pay is unchanged, and remains at $0.22.</p>\n            ","response":0,"trial_type":"html-button-response","trial_index":30,"time_elapsed":136825,"internal_node_id":"0.0-4.0-1.11","subject_id":"5e68bd36f0153b000a148229","study_id":"6197b3f67c2b5cd3b6d9596a","session_id":"6197b987e52b8616eb18b11c","condition":"contingent","relevant_dimensions":["pattern","legs"],"bee_group":{"antennae":"X","wings":"X","pattern":"S","legs":"F"},"bonus":1.0600000000000007},{"rt":1717.6000000238419,"stimulus":"bees-with-color/bee-B1DM.svg","response":0,"trial_type":"image-button-response","trial_index":31,"time_elapsed":138546,"internal_node_id":"0.0-4.0-0.12","subject_id":"5e68bd36f0153b000a148229","study_id":"6197b3f67c2b5cd3b6d9596a","session_id":"6197b987e52b8616eb18b11c","condition":"contingent","relevant_dimensions":["pattern","legs"],"bee_group":{"antennae":"X","wings":"X","pattern":"S","legs":"F"},"action":"harvest","summary":"good-harvest","bonus":1.0600000000000007},{"rt":1643.8000000715256,"stimulus":"\n                    <p><b>Action: <em>harvest</em></b></p>\n                    <p>This is the bee that you just saw.</p>\n                    <img src=\"bees-with-color/bee-B1DM.svg\" width=\"200\">\n                    <p><span class=\"greenText\"><b>Successful harvest!</b></span><br>Your pay has increased by $0.02. Your bonus pay is now $0.24.</p>\n            ","response":0,"trial_type":"html-button-response","trial_index":32,"time_elapsed":140193,"internal_node_id":"0.0-4.0-1.12","subject_id":"5e68bd36f0153b000a148229","study_id":"6197b3f67c2b5cd3b6d9596a","session_id":"6197b987e52b8616eb18b11c","condition":"contingent","relevant_dimensions":["pattern","legs"],"bee_group":{"antennae":"X","wings":"X","pattern":"S","legs":"F"},"bonus":1.0600000000000007},{"rt":1492.3999999761581,"stimulus":"bees-with-color/bee-A1DF.svg","response":1,"trial_type":"image-button-response","trial_index":33,"time_elapsed":141689,"internal_node_id":"0.0-4.0-0.13","subject_id":"5e68bd36f0153b000a148229","study_id":"6197b3f67c2b5cd3b6d9596a","session_id":"6197b987e52b8616eb18b11c","condition":"contingent","relevant_dimensions":["pattern","legs"],"bee_group":{"antennae":"X","wings":"X","pattern":"S","legs":"F"},"action":"avoid","summary":"bad-avoid","bonus":1.0600000000000007},{"rt":700.5,"stimulus":"\n                    <p><b>Action: <em>avoid</em></b></p>\n                    <p>This is the bee that you just saw.</p>\n                    <img src=\"bees-with-color/bee-A1DF.svg\" width=\"200\">\n                    <p><br>Your bonus pay is unchanged, and remains at $0.24.</p>\n            ","response":0,"trial_type":"html-button-response","trial_index":34,"time_elapsed":142393,"internal_node_id":"0.0-4.0-1.13","subject_id":"5e68bd36f0153b000a148229","study_id":"6197b3f67c2b5cd3b6d9596a","session_id":"6197b987e52b8616eb18b11c","condition":"contingent","relevant_dimensions":["pattern","legs"],"bee_group":{"antennae":"X","wings":"X","pattern":"S","legs":"F"},"bonus":1.0600000000000007},{"rt":1381,"stimulus":"bees-with-color/bee-A2DF.svg","response":1,"trial_type":"image-button-response","trial_index":35,"time_elapsed":143777,"internal_node_id":"0.0-4.0-0.14","subject_id":"5e68bd36f0153b000a148229","study_id":"6197b3f67c2b5cd3b6d9596a","session_id":"6197b987e52b8616eb18b11c","condition":"contingent","relevant_dimensions":["pattern","legs"],"bee_group":{"antennae":"X","wings":"X","pattern":"S","legs":"F"},"action":"avoid","summary":"bad-avoid","bonus":1.0600000000000007},{"rt":602.5999999046326,"stimulus":"\n                    <p><b>Action: <em>avoid</em></b></p>\n                    <p>This is the bee that you just saw.</p>\n                    <img src=\"bees-with-color/bee-A2DF.svg\" width=\"200\">\n                    <p><br>Your bonus pay is unchanged, and remains at $0.24.</p>\n            ","response":0,"trial_type":"html-button-response","trial_index":36,"time_elapsed":144385,"internal_node_id":"0.0-4.0-1.14","subject_id":"5e68bd36f0153b000a148229","study_id":"6197b3f67c2b5cd3b6d9596a","session_id":"6197b987e52b8616eb18b11c","condition":"contingent","relevant_dimensions":["pattern","legs"],"bee_group":{"antennae":"X","wings":"X","pattern":"S","legs":"F"},"bonus":1.0600000000000007},{"rt":1412.6000000238419,"stimulus":"bees-with-color/bee-A2DM.svg","response":0,"trial_type":"image-button-response","trial_index":37,"time_elapsed":145801,"internal_node_id":"0.0-4.0-0.15","subject_id":"5e68bd36f0153b000a148229","study_id":"6197b3f67c2b5cd3b6d9596a","session_id":"6197b987e52b8616eb18b11c","condition":"contingent","relevant_dimensions":["pattern","legs"],"bee_group":{"antennae":"X","wings":"X","pattern":"S","legs":"F"},"action":"harvest","summary":"good-harvest","bonus":1.0600000000000007},{"rt":1158,"stimulus":"\n                    <p><b>Action: <em>harvest</em></b></p>\n                    <p>This is the bee that you just saw.</p>\n                    <img src=\"bees-with-color/bee-A2DM.svg\" width=\"200\">\n                    <p><span class=\"greenText\"><b>Successful harvest!</b></span><br>Your pay has increased by $0.02. Your bonus pay is now $0.26.</p>\n            ","response":0,"trial_type":"html-button-response","trial_index":38,"time_elapsed":146962,"internal_node_id":"0.0-4.0-1.15","subject_id":"5e68bd36f0153b000a148229","study_id":"6197b3f67c2b5cd3b6d9596a","session_id":"6197b987e52b8616eb18b11c","condition":"contingent","relevant_dimensions":["pattern","legs"],"bee_group":{"antennae":"X","wings":"X","pattern":"S","legs":"F"},"bonus":1.0600000000000007},{"rt":2106.5,"stimulus":"bees-with-color/bee-A1DM.svg","response":0,"trial_type":"image-button-response","trial_index":39,"time_elapsed":149073,"internal_node_id":"0.0-4.0-0.16","subject_id":"5e68bd36f0153b000a148229","study_id":"6197b3f67c2b5cd3b6d9596a","session_id":"6197b987e52b8616eb18b11c","condition":"contingent","relevant_dimensions":["pattern","legs"],"bee_group":{"antennae":"X","wings":"X","pattern":"S","legs":"F"},"action":"harvest","summary":"good-harvest","bonus":1.0600000000000007},{"rt":829.9000000953674,"stimulus":"\n                    <p><b>Action: <em>harvest</em></b></p>\n                    <p>This is the bee that you just saw.</p>\n                    <img src=\"bees-with-color/bee-A1DM.svg\" width=\"200\">\n                    <p><span class=\"greenText\"><b>Successful harvest!</b></span><br>Your pay has increased by $0.02. Your bonus pay is now $0.28.</p>\n            ","response":0,"trial_type":"html-button-response","trial_index":40,"time_elapsed":149905,"internal_node_id":"0.0-4.0-1.16","subject_id":"5e68bd36f0153b000a148229","study_id":"6197b3f67c2b5cd3b6d9596a","session_id":"6197b987e52b8616eb18b11c","condition":"contingent","relevant_dimensions":["pattern","legs"],"bee_group":{"antennae":"X","wings":"X","pattern":"S","legs":"F"},"bonus":1.0600000000000007},{"rt":1725.5,"stimulus":"bees-with-color/bee-B1DM.svg","response":0,"trial_type":"image-button-response","trial_index":41,"time_elapsed":151633,"internal_node_id":"0.0-4.0-0.17","subject_id":"5e68bd36f0153b000a148229","study_id":"6197b3f67c2b5cd3b6d9596a","session_id":"6197b987e52b8616eb18b11c","condition":"contingent","relevant_dimensions":["pattern","legs"],"bee_group":{"antennae":"X","wings":"X","pattern":"S","legs":"F"},"action":"harvest","summary":"good-harvest","bonus":1.0600000000000007},{"rt":781.3000000715256,"stimulus":"\n                    <p><b>Action: <em>harvest</em></b></p>\n                    <p>This is the bee that you just saw.</p>\n                    <img src=\"bees-with-color/bee-B1DM.svg\" width=\"200\">\n                    <p><span class=\"greenText\"><b>Successful harvest!</b></span><br>Your pay has increased by $0.02. Your bonus pay is now $0.30.</p>\n            ","response":0,"trial_type":"html-button-response","trial_index":42,"time_elapsed":152417,"internal_node_id":"0.0-4.0-1.17","subject_id":"5e68bd36f0153b000a148229","study_id":"6197b3f67c2b5cd3b6d9596a","session_id":"6197b987e52b8616eb18b11c","condition":"contingent","relevant_dimensions":["pattern","legs"],"bee_group":{"antennae":"X","wings":"X","pattern":"S","legs":"F"},"bonus":1.0600000000000007},{"rt":1317.8999999761581,"stimulus":"bees-with-color/bee-B2DF.svg","response":1,"trial_type":"image-button-response","trial_index":43,"time_elapsed":153737,"internal_node_id":"0.0-4.0-0.18","subject_id":"5e68bd36f0153b000a148229","study_id":"6197b3f67c2b5cd3b6d9596a","session_id":"6197b987e52b8616eb18b11c","condition":"contingent","relevant_dimensions":["pattern","legs"],"bee_group":{"antennae":"X","wings":"X","pattern":"S","legs":"F"},"action":"avoid","summary":"bad-avoid","bonus":1.0600000000000007},{"rt":709.7000000476837,"stimulus":"\n                    <p><b>Action: <em>avoid</em></b></p>\n                    <p>This is the bee that you just saw.</p>\n                    <img src=\"bees-with-color/bee-B2DF.svg\" width=\"200\">\n                    <p><br>Your bonus pay is unchanged, and remains at $0.30.</p>\n            ","response":0,"trial_type":"html-button-response","trial_index":44,"time_elapsed":154449,"internal_node_id":"0.0-4.0-1.18","subject_id":"5e68bd36f0153b000a148229","study_id":"6197b3f67c2b5cd3b6d9596a","session_id":"6197b987e52b8616eb18b11c","condition":"contingent","relevant_dimensions":["pattern","legs"],"bee_group":{"antennae":"X","wings":"X","pattern":"S","legs":"F"},"bonus":1.0600000000000007},{"rt":2127.100000023842,"stimulus":"bees-with-color/bee-A2SM.svg","response":0,"trial_type":"image-button-response","trial_index":45,"time_elapsed":156581,"internal_node_id":"0.0-4.0-0.19","subject_id":"5e68bd36f0153b000a148229","study_id":"6197b3f67c2b5cd3b6d9596a","session_id":"6197b987e52b8616eb18b11c","condition":"contingent","relevant_dimensions":["pattern","legs"],"bee_group":{"antennae":"X","wings":"X","pattern":"S","legs":"F"},"action":"harvest","summary":"good-harvest","bonus":1.0600000000000007},{"rt":975.2000000476837,"stimulus":"\n                    <p><b>Action: <em>harvest</em></b></p>\n                    <p>This is the bee that you just saw.</p>\n                    <img src=\"bees-with-color/bee-A2SM.svg\" width=\"200\">\n                    <p><span class=\"greenText\"><b>Successful harvest!</b></span><br>Your pay has increased by $0.02. Your bonus pay is now $0.32.</p>\n            ","response":0,"trial_type":"html-button-response","trial_index":46,"time_elapsed":157562,"internal_node_id":"0.0-4.0-1.19","subject_id":"5e68bd36f0153b000a148229","study_id":"6197b3f67c2b5cd3b6d9596a","session_id":"6197b987e52b8616eb18b11c","condition":"contingent","relevant_dimensions":["pattern","legs"],"bee_group":{"antennae":"X","wings":"X","pattern":"S","legs":"F"},"bonus":1.0600000000000007},{"rt":1283.5,"stimulus":"bees-with-color/bee-B1SF.svg","response":1,"trial_type":"image-button-response","trial_index":47,"time_elapsed":158849,"internal_node_id":"0.0-4.0-0.20","subject_id":"5e68bd36f0153b000a148229","study_id":"6197b3f67c2b5cd3b6d9596a","session_id":"6197b987e52b8616eb18b11c","condition":"contingent","relevant_dimensions":["pattern","legs"],"bee_group":{"antennae":"X","wings":"X","pattern":"S","legs":"F"},"action":"avoid","summary":"good-avoid","bonus":1.0600000000000007},{"rt":694.2999999523163,"stimulus":"\n                    <p><b>Action: <em>avoid</em></b></p>\n                    <p>This is the bee that you just saw.</p>\n                    <img src=\"bees-with-color/bee-B1SF.svg\" width=\"200\">\n                    <p><br>Your bonus pay is unchanged, and remains at $0.32.</p>\n            ","response":0,"trial_type":"html-button-response","trial_index":48,"time_elapsed":159546,"internal_node_id":"0.0-4.0-1.20","subject_id":"5e68bd36f0153b000a148229","study_id":"6197b3f67c2b5cd3b6d9596a","session_id":"6197b987e52b8616eb18b11c","condition":"contingent","relevant_dimensions":["pattern","legs"],"bee_group":{"antennae":"X","wings":"X","pattern":"S","legs":"F"},"bonus":1.0600000000000007},{"rt":1052.6000000238419,"stimulus":"bees-with-color/bee-B1SM.svg","response":1,"trial_type":"image-button-response","trial_index":49,"time_elapsed":160602,"internal_node_id":"0.0-4.0-0.21","subject_id":"5e68bd36f0153b000a148229","study_id":"6197b3f67c2b5cd3b6d9596a","session_id":"6197b987e52b8616eb18b11c","condition":"contingent","relevant_dimensions":["pattern","legs"],"bee_group":{"antennae":"X","wings":"X","pattern":"S","legs":"F"},"action":"avoid","summary":"bad-avoid","bonus":1.0600000000000007},{"rt":586.8000000715256,"stimulus":"\n                    <p><b>Action: <em>avoid</em></b></p>\n                    <p>This is the bee that you just saw.</p>\n                    <img src=\"bees-with-color/bee-B1SM.svg\" width=\"200\">\n                    <p><br>Your bonus pay is unchanged, and remains at $0.32.</p>\n            ","response":0,"trial_type":"html-button-response","trial_index":50,"time_elapsed":161194,"internal_node_id":"0.0-4.0-1.21","subject_id":"5e68bd36f0153b000a148229","study_id":"6197b3f67c2b5cd3b6d9596a","session_id":"6197b987e52b8616eb18b11c","condition":"contingent","relevant_dimensions":["pattern","legs"],"bee_group":{"antennae":"X","wings":"X","pattern":"S","legs":"F"},"bonus":1.0600000000000007},{"rt":1211.6000000238419,"stimulus":"bees-with-color/bee-B2SM.svg","response":1,"trial_type":"image-button-response","trial_index":51,"time_elapsed":162410,"internal_node_id":"0.0-4.0-0.22","subject_id":"5e68bd36f0153b000a148229","study_id":"6197b3f67c2b5cd3b6d9596a","session_id":"6197b987e52b8616eb18b11c","condition":"contingent","relevant_dimensions":["pattern","legs"],"bee_group":{"antennae":"X","wings":"X","pattern":"S","legs":"F"},"action":"avoid","summary":"bad-avoid","bonus":1.0600000000000007},{"rt":538.7000000476837,"stimulus":"\n                    <p><b>Action: <em>avoid</em></b></p>\n                    <p>This is the bee that you just saw.</p>\n                    <img src=\"bees-with-color/bee-B2SM.svg\" width=\"200\">\n                    <p><br>Your bonus pay is unchanged, and remains at $0.32.</p>\n            ","response":0,"trial_type":"html-button-response","trial_index":52,"time_elapsed":162953,"internal_node_id":"0.0-4.0-1.22","subject_id":"5e68bd36f0153b000a148229","study_id":"6197b3f67c2b5cd3b6d9596a","session_id":"6197b987e52b8616eb18b11c","condition":"contingent","relevant_dimensions":["pattern","legs"],"bee_group":{"antennae":"X","wings":"X","pattern":"S","legs":"F"},"bonus":1.0600000000000007},{"rt":1549.3999999761581,"stimulus":"bees-with-color/bee-A2SF.svg","response":1,"trial_type":"image-button-response","trial_index":53,"time_elapsed":164505,"internal_node_id":"0.0-4.0-0.23","subject_id":"5e68bd36f0153b000a148229","study_id":"6197b3f67c2b5cd3b6d9596a","session_id":"6197b987e52b8616eb18b11c","condition":"contingent","relevant_dimensions":["pattern","legs"],"bee_group":{"antennae":"X","wings":"X","pattern":"S","legs":"F"},"action":"avoid","summary":"good-avoid","bonus":1.0600000000000007},{"rt":669.5999999046326,"stimulus":"\n                    <p><b>Action: <em>avoid</em></b></p>\n                    <p>This is the bee that you just saw.</p>\n                    <img src=\"bees-with-color/bee-A2SF.svg\" width=\"200\">\n                    <p><br>Your bonus pay is unchanged, and remains at $0.32.</p>\n            ","response":0,"trial_type":"html-button-response","trial_index":54,"time_elapsed":165178,"internal_node_id":"0.0-4.0-1.23","subject_id":"5e68bd36f0153b000a148229","study_id":"6197b3f67c2b5cd3b6d9596a","session_id":"6197b987e52b8616eb18b11c","condition":"contingent","relevant_dimensions":["pattern","legs"],"bee_group":{"antennae":"X","wings":"X","pattern":"S","legs":"F"},"bonus":1.0600000000000007},{"rt":2219.3000000715256,"stimulus":"bees-with-color/bee-A1SM.svg","response":0,"trial_type":"image-button-response","trial_index":55,"time_elapsed":167401,"internal_node_id":"0.0-4.0-0.24","subject_id":"5e68bd36f0153b000a148229","study_id":"6197b3f67c2b5cd3b6d9596a","session_id":"6197b987e52b8616eb18b11c","condition":"contingent","relevant_dimensions":["pattern","legs"],"bee_group":{"antennae":"X","wings":"X","pattern":"S","legs":"F"},"action":"harvest","summary":"good-harvest","bonus":1.0600000000000007},{"rt":686.2000000476837,"stimulus":"\n                    <p><b>Action: <em>harvest</em></b></p>\n                    <p>This is the bee that you just saw.</p>\n                    <img src=\"bees-with-color/bee-A1SM.svg\" width=\"200\">\n                    <p><span class=\"greenText\"><b>Successful harvest!</b></span><br>Your pay has increased by $0.02. Your bonus pay is now $0.34.</p>\n            ","response":0,"trial_type":"html-button-response","trial_index":56,"time_elapsed":168090,"internal_node_id":"0.0-4.0-1.24","subject_id":"5e68bd36f0153b000a148229","study_id":"6197b3f67c2b5cd3b6d9596a","session_id":"6197b987e52b8616eb18b11c","condition":"contingent","relevant_dimensions":["pattern","legs"],"bee_group":{"antennae":"X","wings":"X","pattern":"S","legs":"F"},"bonus":1.0600000000000007},{"rt":916.8999999761581,"stimulus":"bees-with-color/bee-A1SF.svg","response":1,"trial_type":"image-button-response","trial_index":57,"time_elapsed":169010,"internal_node_id":"0.0-4.0-0.25","subject_id":"5e68bd36f0153b000a148229","study_id":"6197b3f67c2b5cd3b6d9596a","session_id":"6197b987e52b8616eb18b11c","condition":"contingent","relevant_dimensions":["pattern","legs"],"bee_group":{"antennae":"X","wings":"X","pattern":"S","legs":"F"},"action":"avoid","summary":"good-avoid","bonus":1.0600000000000007},{"rt":682.5,"stimulus":"\n                    <p><b>Action: <em>avoid</em></b></p>\n                    <p>This is the bee that you just saw.</p>\n                    <img src=\"bees-with-color/bee-A1SF.svg\" width=\"200\">\n                    <p><br>Your bonus pay is unchanged, and remains at $0.34.</p>\n            ","response":0,"trial_type":"html-button-response","trial_index":58,"time_elapsed":169697,"internal_node_id":"0.0-4.0-1.25","subject_id":"5e68bd36f0153b000a148229","study_id":"6197b3f67c2b5cd3b6d9596a","session_id":"6197b987e52b8616eb18b11c","condition":"contingent","relevant_dimensions":["pattern","legs"],"bee_group":{"antennae":"X","wings":"X","pattern":"S","legs":"F"},"bonus":1.0600000000000007},{"rt":1493.1999999284744,"stimulus":"bees-with-color/bee-B1DF.svg","response":1,"trial_type":"image-button-response","trial_index":59,"time_elapsed":171194,"internal_node_id":"0.0-4.0-0.26","subject_id":"5e68bd36f0153b000a148229","study_id":"6197b3f67c2b5cd3b6d9596a","session_id":"6197b987e52b8616eb18b11c","condition":"contingent","relevant_dimensions":["pattern","legs"],"bee_group":{"antennae":"X","wings":"X","pattern":"S","legs":"F"},"action":"avoid","summary":"bad-avoid","bonus":1.0600000000000007},{"rt":514.7000000476837,"stimulus":"\n                    <p><b>Action: <em>avoid</em></b></p>\n                    <p>This is the bee that you just saw.</p>\n                    <img src=\"bees-with-color/bee-B1DF.svg\" width=\"200\">\n                    <p><br>Your bonus pay is unchanged, and remains at $0.34.</p>\n            ","response":0,"trial_type":"html-button-response","trial_index":60,"time_elapsed":171713,"internal_node_id":"0.0-4.0-1.26","subject_id":"5e68bd36f0153b000a148229","study_id":"6197b3f67c2b5cd3b6d9596a","session_id":"6197b987e52b8616eb18b11c","condition":"contingent","relevant_dimensions":["pattern","legs"],"bee_group":{"antennae":"X","wings":"X","pattern":"S","legs":"F"},"bonus":1.0600000000000007},{"rt":1885.5999999046326,"stimulus":"bees-with-color/bee-A2DF.svg","response":0,"trial_type":"image-button-response","trial_index":61,"time_elapsed":173601,"internal_node_id":"0.0-4.0-0.27","subject_id":"5e68bd36f0153b000a148229","study_id":"6197b3f67c2b5cd3b6d9596a","session_id":"6197b987e52b8616eb18b11c","condition":"contingent","relevant_dimensions":["pattern","legs"],"bee_group":{"antennae":"X","wings":"X","pattern":"S","legs":"F"},"action":"harvest","summary":"good-harvest","bonus":1.0600000000000007},{"rt":813.6999999284744,"stimulus":"\n                    <p><b>Action: <em>harvest</em></b></p>\n                    <p>This is the bee that you just saw.</p>\n                    <img src=\"bees-with-color/bee-A2DF.svg\" width=\"200\">\n                    <p><span class=\"greenText\"><b>Successful harvest!</b></span><br>Your pay has increased by $0.02. Your bonus pay is now $0.36.</p>\n            ","response":0,"trial_type":"html-button-response","trial_index":62,"time_elapsed":174417,"internal_node_id":"0.0-4.0-1.27","subject_id":"5e68bd36f0153b000a148229","study_id":"6197b3f67c2b5cd3b6d9596a","session_id":"6197b987e52b8616eb18b11c","condition":"contingent","relevant_dimensions":["pattern","legs"],"bee_group":{"antennae":"X","wings":"X","pattern":"S","legs":"F"},"bonus":1.0600000000000007},{"rt":2165.5,"stimulus":"bees-with-color/bee-A2DM.svg","response":0,"trial_type":"image-button-response","trial_index":63,"time_elapsed":176585,"internal_node_id":"0.0-4.0-0.28","subject_id":"5e68bd36f0153b000a148229","study_id":"6197b3f67c2b5cd3b6d9596a","session_id":"6197b987e52b8616eb18b11c","condition":"contingent","relevant_dimensions":["pattern","legs"],"bee_group":{"antennae":"X","wings":"X","pattern":"S","legs":"F"},"action":"harvest","summary":"good-harvest","bonus":1.0600000000000007},{"rt":742.1000000238419,"stimulus":"\n                    <p><b>Action: <em>harvest</em></b></p>\n                    <p>This is the bee that you just saw.</p>\n                    <img src=\"bees-with-color/bee-A2DM.svg\" width=\"200\">\n                    <p><span class=\"greenText\"><b>Successful harvest!</b></span><br>Your pay has increased by $0.02. Your bonus pay is now $0.38.</p>\n            ","response":0,"trial_type":"html-button-response","trial_index":64,"time_elapsed":177330,"internal_node_id":"0.0-4.0-1.28","subject_id":"5e68bd36f0153b000a148229","study_id":"6197b3f67c2b5cd3b6d9596a","session_id":"6197b987e52b8616eb18b11c","condition":"contingent","relevant_dimensions":["pattern","legs"],"bee_group":{"antennae":"X","wings":"X","pattern":"S","legs":"F"},"bonus":1.0600000000000007},{"rt":996.5,"stimulus":"bees-with-color/bee-B2SF.svg","response":1,"trial_type":"image-button-response","trial_index":65,"time_elapsed":178329,"internal_node_id":"0.0-4.0-0.29","subject_id":"5e68bd36f0153b000a148229","study_id":"6197b3f67c2b5cd3b6d9596a","session_id":"6197b987e52b8616eb18b11c","condition":"contingent","relevant_dimensions":["pattern","legs"],"bee_group":{"antennae":"X","wings":"X","pattern":"S","legs":"F"},"action":"avoid","summary":"good-avoid","bonus":1.0600000000000007},{"rt":590,"stimulus":"\n                    <p><b>Action: <em>avoid</em></b></p>\n                    <p>This is the bee that you just saw.</p>\n                    <img src=\"bees-with-color/bee-B2SF.svg\" width=\"200\">\n                    <p><br>Your bonus pay is unchanged, and remains at $0.38.</p>\n            ","response":0,"trial_type":"html-button-response","trial_index":66,"time_elapsed":178922,"internal_node_id":"0.0-4.0-1.29","subject_id":"5e68bd36f0153b000a148229","study_id":"6197b3f67c2b5cd3b6d9596a","session_id":"6197b987e52b8616eb18b11c","condition":"contingent","relevant_dimensions":["pattern","legs"],"bee_group":{"antennae":"X","wings":"X","pattern":"S","legs":"F"},"bonus":1.0600000000000007},{"rt":1822,"stimulus":"bees-with-color/bee-A1DF.svg","response":1,"trial_type":"image-button-response","trial_index":67,"time_elapsed":180747,"internal_node_id":"0.0-4.0-0.30","subject_id":"5e68bd36f0153b000a148229","study_id":"6197b3f67c2b5cd3b6d9596a","session_id":"6197b987e52b8616eb18b11c","condition":"contingent","relevant_dimensions":["pattern","legs"],"bee_group":{"antennae":"X","wings":"X","pattern":"S","legs":"F"},"action":"avoid","summary":"bad-avoid","bonus":1.0600000000000007},{"rt":572.2999999523163,"stimulus":"\n                    <p><b>Action: <em>avoid</em></b></p>\n                    <p>This is the bee that you just saw.</p>\n                    <img src=\"bees-with-color/bee-A1DF.svg\" width=\"200\">\n                    <p><br>Your bonus pay is unchanged, and remains at $0.38.</p>\n            ","response":0,"trial_type":"html-button-response","trial_index":68,"time_elapsed":181322,"internal_node_id":"0.0-4.0-1.30","subject_id":"5e68bd36f0153b000a148229","study_id":"6197b3f67c2b5cd3b6d9596a","session_id":"6197b987e52b8616eb18b11c","condition":"contingent","relevant_dimensions":["pattern","legs"],"bee_group":{"antennae":"X","wings":"X","pattern":"S","legs":"F"},"bonus":1.0600000000000007},{"rt":1221.7000000476837,"stimulus":"bees-with-color/bee-B2DM.svg","response":0,"trial_type":"image-button-response","trial_index":69,"time_elapsed":182546,"internal_node_id":"0.0-4.0-0.31","subject_id":"5e68bd36f0153b000a148229","study_id":"6197b3f67c2b5cd3b6d9596a","session_id":"6197b987e52b8616eb18b11c","condition":"contingent","relevant_dimensions":["pattern","legs"],"bee_group":{"antennae":"X","wings":"X","pattern":"S","legs":"F"},"action":"harvest","summary":"good-harvest","bonus":1.0600000000000007},{"rt":725.2999999523163,"stimulus":"\n                    <p><b>Action: <em>harvest</em></b></p>\n                    <p>This is the bee that you just saw.</p>\n                    <img src=\"bees-with-color/bee-B2DM.svg\" width=\"200\">\n                    <p><span class=\"greenText\"><b>Successful harvest!</b></span><br>Your pay has increased by $0.02. Your bonus pay is now $0.40.</p>\n            ","response":0,"trial_type":"html-button-response","trial_index":70,"time_elapsed":183274,"internal_node_id":"0.0-4.0-1.31","subject_id":"5e68bd36f0153b000a148229","study_id":"6197b3f67c2b5cd3b6d9596a","session_id":"6197b987e52b8616eb18b11c","condition":"contingent","relevant_dimensions":["pattern","legs"],"bee_group":{"antennae":"X","wings":"X","pattern":"S","legs":"F"},"bonus":1.0600000000000007},{"rt":1691.8999999761581,"stimulus":"bees-with-color/bee-A1DM.svg","response":0,"trial_type":"image-button-response","trial_index":71,"time_elapsed":184969,"internal_node_id":"0.0-4.0-0.32","subject_id":"5e68bd36f0153b000a148229","study_id":"6197b3f67c2b5cd3b6d9596a","session_id":"6197b987e52b8616eb18b11c","condition":"contingent","relevant_dimensions":["pattern","legs"],"bee_group":{"antennae":"X","wings":"X","pattern":"S","legs":"F"},"action":"harvest","summary":"good-harvest","bonus":1.0600000000000007},{"rt":653.7999999523163,"stimulus":"\n                    <p><b>Action: <em>harvest</em></b></p>\n                    <p>This is the bee that you just saw.</p>\n                    <img src=\"bees-with-color/bee-A1DM.svg\" width=\"200\">\n                    <p><span class=\"greenText\"><b>Successful harvest!</b></span><br>Your pay has increased by $0.02. Your bonus pay is now $0.42.</p>\n            ","response":0,"trial_type":"html-button-response","trial_index":72,"time_elapsed":185626,"internal_node_id":"0.0-4.0-1.32","subject_id":"5e68bd36f0153b000a148229","study_id":"6197b3f67c2b5cd3b6d9596a","session_id":"6197b987e52b8616eb18b11c","condition":"contingent","relevant_dimensions":["pattern","legs"],"bee_group":{"antennae":"X","wings":"X","pattern":"S","legs":"F"},"bonus":1.0600000000000007},{"rt":1932.3999999761581,"stimulus":"bees-with-color/bee-B2DF.svg","response":0,"trial_type":"image-button-response","trial_index":73,"time_elapsed":187562,"internal_node_id":"0.0-4.0-0.33","subject_id":"5e68bd36f0153b000a148229","study_id":"6197b3f67c2b5cd3b6d9596a","session_id":"6197b987e52b8616eb18b11c","condition":"contingent","relevant_dimensions":["pattern","legs"],"bee_group":{"antennae":"X","wings":"X","pattern":"S","legs":"F"},"action":"harvest","summary":"good-harvest","bonus":1.0600000000000007},{"rt":745.1999999284744,"stimulus":"\n                    <p><b>Action: <em>harvest</em></b></p>\n                    <p>This is the bee that you just saw.</p>\n                    <img src=\"bees-with-color/bee-B2DF.svg\" width=\"200\">\n                    <p><span class=\"greenText\"><b>Successful harvest!</b></span><br>Your pay has increased by $0.02. Your bonus pay is now $0.44.</p>\n            ","response":0,"trial_type":"html-button-response","trial_index":74,"time_elapsed":188314,"internal_node_id":"0.0-4.0-1.33","subject_id":"5e68bd36f0153b000a148229","study_id":"6197b3f67c2b5cd3b6d9596a","session_id":"6197b987e52b8616eb18b11c","condition":"contingent","relevant_dimensions":["pattern","legs"],"bee_group":{"antennae":"X","wings":"X","pattern":"S","legs":"F"},"bonus":1.0600000000000007},{"rt":1125.7999999523163,"stimulus":"bees-with-color/bee-A1SM.svg","response":1,"trial_type":"image-button-response","trial_index":75,"time_elapsed":189443,"internal_node_id":"0.0-4.0-0.34","subject_id":"5e68bd36f0153b000a148229","study_id":"6197b3f67c2b5cd3b6d9596a","session_id":"6197b987e52b8616eb18b11c","condition":"contingent","relevant_dimensions":["pattern","legs"],"bee_group":{"antennae":"X","wings":"X","pattern":"S","legs":"F"},"action":"avoid","summary":"bad-avoid","bonus":1.0600000000000007},{"rt":564.3999999761581,"stimulus":"\n                    <p><b>Action: <em>avoid</em></b></p>\n                    <p>This is the bee that you just saw.</p>\n                    <img src=\"bees-with-color/bee-A1SM.svg\" width=\"200\">\n                    <p><br>Your bonus pay is unchanged, and remains at $0.44.</p>\n            ","response":0,"trial_type":"html-button-response","trial_index":76,"time_elapsed":190011,"internal_node_id":"0.0-4.0-1.34","subject_id":"5e68bd36f0153b000a148229","study_id":"6197b3f67c2b5cd3b6d9596a","session_id":"6197b987e52b8616eb18b11c","condition":"contingent","relevant_dimensions":["pattern","legs"],"bee_group":{"antennae":"X","wings":"X","pattern":"S","legs":"F"},"bonus":1.0600000000000007},{"rt":1603.3999999761581,"stimulus":"bees-with-color/bee-A2DF.svg","response":1,"trial_type":"image-button-response","trial_index":77,"time_elapsed":191618,"internal_node_id":"0.0-4.0-0.35","subject_id":"5e68bd36f0153b000a148229","study_id":"6197b3f67c2b5cd3b6d9596a","session_id":"6197b987e52b8616eb18b11c","condition":"contingent","relevant_dimensions":["pattern","legs"],"bee_group":{"antennae":"X","wings":"X","pattern":"S","legs":"F"},"action":"avoid","summary":"bad-avoid","bonus":1.0600000000000007},{"rt":542,"stimulus":"\n                    <p><b>Action: <em>avoid</em></b></p>\n                    <p>This is the bee that you just saw.</p>\n                    <img src=\"bees-with-color/bee-A2DF.svg\" width=\"200\">\n                    <p><br>Your bonus pay is unchanged, and remains at $0.44.</p>\n            ","response":0,"trial_type":"html-button-response","trial_index":78,"time_elapsed":192162,"internal_node_id":"0.0-4.0-1.35","subject_id":"5e68bd36f0153b000a148229","study_id":"6197b3f67c2b5cd3b6d9596a","session_id":"6197b987e52b8616eb18b11c","condition":"contingent","relevant_dimensions":["pattern","legs"],"bee_group":{"antennae":"X","wings":"X","pattern":"S","legs":"F"},"bonus":1.0600000000000007},{"rt":1204.6000000238419,"stimulus":"bees-with-color/bee-B1DF.svg","response":1,"trial_type":"image-button-response","trial_index":79,"time_elapsed":193370,"internal_node_id":"0.0-4.0-0.36","subject_id":"5e68bd36f0153b000a148229","study_id":"6197b3f67c2b5cd3b6d9596a","session_id":"6197b987e52b8616eb18b11c","condition":"contingent","relevant_dimensions":["pattern","legs"],"bee_group":{"antennae":"X","wings":"X","pattern":"S","legs":"F"},"action":"avoid","summary":"bad-avoid","bonus":1.0600000000000007},{"rt":476.39999997615814,"stimulus":"\n                    <p><b>Action: <em>avoid</em></b></p>\n                    <p>This is the bee that you just saw.</p>\n                    <img src=\"bees-with-color/bee-B1DF.svg\" width=\"200\">\n                    <p><br>Your bonus pay is unchanged, and remains at $0.44.</p>\n            ","response":0,"trial_type":"html-button-response","trial_index":80,"time_elapsed":193849,"internal_node_id":"0.0-4.0-1.36","subject_id":"5e68bd36f0153b000a148229","study_id":"6197b3f67c2b5cd3b6d9596a","session_id":"6197b987e52b8616eb18b11c","condition":"contingent","relevant_dimensions":["pattern","legs"],"bee_group":{"antennae":"X","wings":"X","pattern":"S","legs":"F"},"bonus":1.0600000000000007},{"rt":2429.100000023842,"stimulus":"bees-with-color/bee-B1SF.svg","response":1,"trial_type":"image-button-response","trial_index":81,"time_elapsed":196281,"internal_node_id":"0.0-4.0-0.37","subject_id":"5e68bd36f0153b000a148229","study_id":"6197b3f67c2b5cd3b6d9596a","session_id":"6197b987e52b8616eb18b11c","condition":"contingent","relevant_dimensions":["pattern","legs"],"bee_group":{"antennae":"X","wings":"X","pattern":"S","legs":"F"},"action":"avoid","summary":"good-avoid","bonus":1.0600000000000007},{"rt":446,"stimulus":"\n                    <p><b>Action: <em>avoid</em></b></p>\n                    <p>This is the bee that you just saw.</p>\n                    <img src=\"bees-with-color/bee-B1SF.svg\" width=\"200\">\n                    <p><br>Your bonus pay is unchanged, and remains at $0.44.</p>\n            ","response":0,"trial_type":"html-button-response","trial_index":82,"time_elapsed":196729,"internal_node_id":"0.0-4.0-1.37","subject_id":"5e68bd36f0153b000a148229","study_id":"6197b3f67c2b5cd3b6d9596a","session_id":"6197b987e52b8616eb18b11c","condition":"contingent","relevant_dimensions":["pattern","legs"],"bee_group":{"antennae":"X","wings":"X","pattern":"S","legs":"F"},"bonus":1.0600000000000007},{"rt":1206,"stimulus":"bees-with-color/bee-A1SF.svg","response":1,"trial_type":"image-button-response","trial_index":83,"time_elapsed":197938,"internal_node_id":"0.0-4.0-0.38","subject_id":"5e68bd36f0153b000a148229","study_id":"6197b3f67c2b5cd3b6d9596a","session_id":"6197b987e52b8616eb18b11c","condition":"contingent","relevant_dimensions":["pattern","legs"],"bee_group":{"antennae":"X","wings":"X","pattern":"S","legs":"F"},"action":"avoid","summary":"good-avoid","bonus":1.0600000000000007},{"rt":533.4000000953674,"stimulus":"\n                    <p><b>Action: <em>avoid</em></b></p>\n                    <p>This is the bee that you just saw.</p>\n                    <img src=\"bees-with-color/bee-A1SF.svg\" width=\"200\">\n                    <p><br>Your bonus pay is unchanged, and remains at $0.44.</p>\n            ","response":0,"trial_type":"html-button-response","trial_index":84,"time_elapsed":198474,"internal_node_id":"0.0-4.0-1.38","subject_id":"5e68bd36f0153b000a148229","study_id":"6197b3f67c2b5cd3b6d9596a","session_id":"6197b987e52b8616eb18b11c","condition":"contingent","relevant_dimensions":["pattern","legs"],"bee_group":{"antennae":"X","wings":"X","pattern":"S","legs":"F"},"bonus":1.0600000000000007},{"rt":1683.2999999523163,"stimulus":"bees-with-color/bee-A1DF.svg","response":1,"trial_type":"image-button-response","trial_index":85,"time_elapsed":200161,"internal_node_id":"0.0-4.0-0.39","subject_id":"5e68bd36f0153b000a148229","study_id":"6197b3f67c2b5cd3b6d9596a","session_id":"6197b987e52b8616eb18b11c","condition":"contingent","relevant_dimensions":["pattern","legs"],"bee_group":{"antennae":"X","wings":"X","pattern":"S","legs":"F"},"action":"avoid","summary":"bad-avoid","bonus":1.0600000000000007},{"rt":437.60000002384186,"stimulus":"\n                    <p><b>Action: <em>avoid</em></b></p>\n                    <p>This is the bee that you just saw.</p>\n                    <img src=\"bees-with-color/bee-A1DF.svg\" width=\"200\">\n                    <p><br>Your bonus pay is unchanged, and remains at $0.44.</p>\n            ","response":0,"trial_type":"html-button-response","trial_index":86,"time_elapsed":200601,"internal_node_id":"0.0-4.0-1.39","subject_id":"5e68bd36f0153b000a148229","study_id":"6197b3f67c2b5cd3b6d9596a","session_id":"6197b987e52b8616eb18b11c","condition":"contingent","relevant_dimensions":["pattern","legs"],"bee_group":{"antennae":"X","wings":"X","pattern":"S","legs":"F"},"bonus":1.0600000000000007},{"rt":1245.3999999761581,"stimulus":"bees-with-color/bee-A2DM.svg","response":0,"trial_type":"image-button-response","trial_index":87,"time_elapsed":201849,"internal_node_id":"0.0-4.0-0.40","subject_id":"5e68bd36f0153b000a148229","study_id":"6197b3f67c2b5cd3b6d9596a","session_id":"6197b987e52b8616eb18b11c","condition":"contingent","relevant_dimensions":["pattern","legs"],"bee_group":{"antennae":"X","wings":"X","pattern":"S","legs":"F"},"action":"harvest","summary":"good-harvest","bonus":1.0600000000000007},{"rt":576.1000000238419,"stimulus":"\n                    <p><b>Action: <em>harvest</em></b></p>\n                    <p>This is the bee that you just saw.</p>\n                    <img src=\"bees-with-color/bee-A2DM.svg\" width=\"200\">\n                    <p><span class=\"greenText\"><b>Successful harvest!</b></span><br>Your pay has increased by $0.02. Your bonus pay is now $0.46.</p>\n            ","response":0,"trial_type":"html-button-response","trial_index":88,"time_elapsed":202427,"internal_node_id":"0.0-4.0-1.40","subject_id":"5e68bd36f0153b000a148229","study_id":"6197b3f67c2b5cd3b6d9596a","session_id":"6197b987e52b8616eb18b11c","condition":"contingent","relevant_dimensions":["pattern","legs"],"bee_group":{"antennae":"X","wings":"X","pattern":"S","legs":"F"},"bonus":1.0600000000000007},{"rt":1164.3999999761581,"stimulus":"bees-with-color/bee-B2SF.svg","response":1,"trial_type":"image-button-response","trial_index":89,"time_elapsed":203594,"internal_node_id":"0.0-4.0-0.41","subject_id":"5e68bd36f0153b000a148229","study_id":"6197b3f67c2b5cd3b6d9596a","session_id":"6197b987e52b8616eb18b11c","condition":"contingent","relevant_dimensions":["pattern","legs"],"bee_group":{"antennae":"X","wings":"X","pattern":"S","legs":"F"},"action":"avoid","summary":"good-avoid","bonus":1.0600000000000007},{"rt":483.7999999523163,"stimulus":"\n                    <p><b>Action: <em>avoid</em></b></p>\n                    <p>This is the bee that you just saw.</p>\n                    <img src=\"bees-with-color/bee-B2SF.svg\" width=\"200\">\n                    <p><br>Your bonus pay is unchanged, and remains at $0.46.</p>\n            ","response":0,"trial_type":"html-button-response","trial_index":90,"time_elapsed":204081,"internal_node_id":"0.0-4.0-1.41","subject_id":"5e68bd36f0153b000a148229","study_id":"6197b3f67c2b5cd3b6d9596a","session_id":"6197b987e52b8616eb18b11c","condition":"contingent","relevant_dimensions":["pattern","legs"],"bee_group":{"antennae":"X","wings":"X","pattern":"S","legs":"F"},"bonus":1.0600000000000007},{"rt":1582,"stimulus":"bees-with-color/bee-B2SM.svg","response":0,"trial_type":"image-button-response","trial_index":91,"time_elapsed":205665,"internal_node_id":"0.0-4.0-0.42","subject_id":"5e68bd36f0153b000a148229","study_id":"6197b3f67c2b5cd3b6d9596a","session_id":"6197b987e52b8616eb18b11c","condition":"contingent","relevant_dimensions":["pattern","legs"],"bee_group":{"antennae":"X","wings":"X","pattern":"S","legs":"F"},"action":"harvest","summary":"good-harvest","bonus":1.0600000000000007},{"rt":766.2000000476837,"stimulus":"\n                    <p><b>Action: <em>harvest</em></b></p>\n                    <p>This is the bee that you just saw.</p>\n                    <img src=\"bees-with-color/bee-B2SM.svg\" width=\"200\">\n                    <p><span class=\"greenText\"><b>Successful harvest!</b></span><br>Your pay has increased by $0.02. Your bonus pay is now $0.48.</p>\n            ","response":0,"trial_type":"html-button-response","trial_index":92,"time_elapsed":206434,"internal_node_id":"0.0-4.0-1.42","subject_id":"5e68bd36f0153b000a148229","study_id":"6197b3f67c2b5cd3b6d9596a","session_id":"6197b987e52b8616eb18b11c","condition":"contingent","relevant_dimensions":["pattern","legs"],"bee_group":{"antennae":"X","wings":"X","pattern":"S","legs":"F"},"bonus":1.0600000000000007},{"rt":1412.6000000238419,"stimulus":"bees-with-color/bee-B1SM.svg","response":0,"trial_type":"image-button-response","trial_index":93,"time_elapsed":207849,"internal_node_id":"0.0-4.0-0.43","subject_id":"5e68bd36f0153b000a148229","study_id":"6197b3f67c2b5cd3b6d9596a","session_id":"6197b987e52b8616eb18b11c","condition":"contingent","relevant_dimensions":["pattern","legs"],"bee_group":{"antennae":"X","wings":"X","pattern":"S","legs":"F"},"action":"harvest","summary":"good-harvest","bonus":1.0600000000000007},{"rt":773.7000000476837,"stimulus":"\n                    <p><b>Action: <em>harvest</em></b></p>\n                    <p>This is the bee that you just saw.</p>\n                    <img src=\"bees-with-color/bee-B1SM.svg\" width=\"200\">\n                    <p><span class=\"greenText\"><b>Successful harvest!</b></span><br>Your pay has increased by $0.02. Your bonus pay is now $0.50.</p>\n            ","response":0,"trial_type":"html-button-response","trial_index":94,"time_elapsed":208627,"internal_node_id":"0.0-4.0-1.43","subject_id":"5e68bd36f0153b000a148229","study_id":"6197b3f67c2b5cd3b6d9596a","session_id":"6197b987e52b8616eb18b11c","condition":"contingent","relevant_dimensions":["pattern","legs"],"bee_group":{"antennae":"X","wings":"X","pattern":"S","legs":"F"},"bonus":1.0600000000000007},{"rt":893.7000000476837,"stimulus":"bees-with-color/bee-A2SF.svg","response":1,"trial_type":"image-button-response","trial_index":95,"time_elapsed":209523,"internal_node_id":"0.0-4.0-0.44","subject_id":"5e68bd36f0153b000a148229","study_id":"6197b3f67c2b5cd3b6d9596a","session_id":"6197b987e52b8616eb18b11c","condition":"contingent","relevant_dimensions":["pattern","legs"],"bee_group":{"antennae":"X","wings":"X","pattern":"S","legs":"F"},"action":"avoid","summary":"good-avoid","bonus":1.0600000000000007},{"rt":465.7999999523163,"stimulus":"\n                    <p><b>Action: <em>avoid</em></b></p>\n                    <p>This is the bee that you just saw.</p>\n                    <img src=\"bees-with-color/bee-A2SF.svg\" width=\"200\">\n                    <p><br>Your bonus pay is unchanged, and remains at $0.50.</p>\n            ","response":0,"trial_type":"html-button-response","trial_index":96,"time_elapsed":209994,"internal_node_id":"0.0-4.0-1.44","subject_id":"5e68bd36f0153b000a148229","study_id":"6197b3f67c2b5cd3b6d9596a","session_id":"6197b987e52b8616eb18b11c","condition":"contingent","relevant_dimensions":["pattern","legs"],"bee_group":{"antennae":"X","wings":"X","pattern":"S","legs":"F"},"bonus":1.0600000000000007},{"rt":1508.3999999761581,"stimulus":"bees-with-color/bee-B2DM.svg","response":0,"trial_type":"image-button-response","trial_index":97,"time_elapsed":211505,"internal_node_id":"0.0-4.0-0.45","subject_id":"5e68bd36f0153b000a148229","study_id":"6197b3f67c2b5cd3b6d9596a","session_id":"6197b987e52b8616eb18b11c","condition":"contingent","relevant_dimensions":["pattern","legs"],"bee_group":{"antennae":"X","wings":"X","pattern":"S","legs":"F"},"action":"harvest","summary":"good-harvest","bonus":1.0600000000000007},{"rt":556.5,"stimulus":"\n                    <p><b>Action: <em>harvest</em></b></p>\n                    <p>This is the bee that you just saw.</p>\n                    <img src=\"bees-with-color/bee-B2DM.svg\" width=\"200\">\n                    <p><span class=\"greenText\"><b>Successful harvest!</b></span><br>Your pay has increased by $0.02. Your bonus pay is now $0.52.</p>\n            ","response":0,"trial_type":"html-button-response","trial_index":98,"time_elapsed":212065,"internal_node_id":"0.0-4.0-1.45","subject_id":"5e68bd36f0153b000a148229","study_id":"6197b3f67c2b5cd3b6d9596a","session_id":"6197b987e52b8616eb18b11c","condition":"contingent","relevant_dimensions":["pattern","legs"],"bee_group":{"antennae":"X","wings":"X","pattern":"S","legs":"F"},"bonus":1.0600000000000007},{"rt":797.7999999523163,"stimulus":"bees-with-color/bee-B1DM.svg","response":0,"trial_type":"image-button-response","trial_index":99,"time_elapsed":212865,"internal_node_id":"0.0-4.0-0.46","subject_id":"5e68bd36f0153b000a148229","study_id":"6197b3f67c2b5cd3b6d9596a","session_id":"6197b987e52b8616eb18b11c","condition":"contingent","relevant_dimensions":["pattern","legs"],"bee_group":{"antennae":"X","wings":"X","pattern":"S","legs":"F"},"action":"harvest","summary":"good-harvest","bonus":1.0600000000000007},{"rt":565.5,"stimulus":"\n                    <p><b>Action: <em>harvest</em></b></p>\n                    <p>This is the bee that you just saw.</p>\n                    <img src=\"bees-with-color/bee-B1DM.svg\" width=\"200\">\n                    <p><span class=\"greenText\"><b>Successful harvest!</b></span><br>Your pay has increased by $0.02. Your bonus pay is now $0.54.</p>\n            ","response":0,"trial_type":"html-button-response","trial_index":100,"time_elapsed":213434,"internal_node_id":"0.0-4.0-1.46","subject_id":"5e68bd36f0153b000a148229","study_id":"6197b3f67c2b5cd3b6d9596a","session_id":"6197b987e52b8616eb18b11c","condition":"contingent","relevant_dimensions":["pattern","legs"],"bee_group":{"antennae":"X","wings":"X","pattern":"S","legs":"F"},"bonus":1.0600000000000007},{"rt":1549.1000000238419,"stimulus":"bees-with-color/bee-A2SM.svg","response":0,"trial_type":"image-button-response","trial_index":101,"time_elapsed":214986,"internal_node_id":"0.0-4.0-0.47","subject_id":"5e68bd36f0153b000a148229","study_id":"6197b3f67c2b5cd3b6d9596a","session_id":"6197b987e52b8616eb18b11c","condition":"contingent","relevant_dimensions":["pattern","legs"],"bee_group":{"antennae":"X","wings":"X","pattern":"S","legs":"F"},"action":"harvest","summary":"good-harvest","bonus":1.0600000000000007},{"rt":549.3000000715256,"stimulus":"\n                    <p><b>Action: <em>harvest</em></b></p>\n                    <p>This is the bee that you just saw.</p>\n                    <img src=\"bees-with-color/bee-A2SM.svg\" width=\"200\">\n                    <p><span class=\"greenText\"><b>Successful harvest!</b></span><br>Your pay has increased by $0.02. Your bonus pay is now $0.56.</p>\n            ","response":0,"trial_type":"html-button-response","trial_index":102,"time_elapsed":215538,"internal_node_id":"0.0-4.0-1.47","subject_id":"5e68bd36f0153b000a148229","study_id":"6197b3f67c2b5cd3b6d9596a","session_id":"6197b987e52b8616eb18b11c","condition":"contingent","relevant_dimensions":["pattern","legs"],"bee_group":{"antennae":"X","wings":"X","pattern":"S","legs":"F"},"bonus":1.0600000000000007},{"rt":1213.8000000715256,"stimulus":"bees-with-color/bee-B2DF.svg","response":1,"trial_type":"image-button-response","trial_index":103,"time_elapsed":216754,"internal_node_id":"0.0-4.0-0.48","subject_id":"5e68bd36f0153b000a148229","study_id":"6197b3f67c2b5cd3b6d9596a","session_id":"6197b987e52b8616eb18b11c","condition":"contingent","relevant_dimensions":["pattern","legs"],"bee_group":{"antennae":"X","wings":"X","pattern":"S","legs":"F"},"action":"avoid","summary":"bad-avoid","bonus":1.0600000000000007},{"rt":467.89999997615814,"stimulus":"\n                    <p><b>Action: <em>avoid</em></b></p>\n                    <p>This is the bee that you just saw.</p>\n                    <img src=\"bees-with-color/bee-B2DF.svg\" width=\"200\">\n                    <p><br>Your bonus pay is unchanged, and remains at $0.56.</p>\n            ","response":0,"trial_type":"html-button-response","trial_index":104,"time_elapsed":217226,"internal_node_id":"0.0-4.0-1.48","subject_id":"5e68bd36f0153b000a148229","study_id":"6197b3f67c2b5cd3b6d9596a","session_id":"6197b987e52b8616eb18b11c","condition":"contingent","relevant_dimensions":["pattern","legs"],"bee_group":{"antennae":"X","wings":"X","pattern":"S","legs":"F"},"bonus":1.0600000000000007},{"rt":1052.5,"stimulus":"bees-with-color/bee-A1DF.svg","response":1,"trial_type":"image-button-response","trial_index":105,"time_elapsed":218281,"internal_node_id":"0.0-4.0-0.49","subject_id":"5e68bd36f0153b000a148229","study_id":"6197b3f67c2b5cd3b6d9596a","session_id":"6197b987e52b8616eb18b11c","condition":"contingent","relevant_dimensions":["pattern","legs"],"bee_group":{"antennae":"X","wings":"X","pattern":"S","legs":"F"},"action":"avoid","summary":"bad-avoid","bonus":1.0600000000000007},{"rt":510.3000000715256,"stimulus":"\n                    <p><b>Action: <em>avoid</em></b></p>\n                    <p>This is the bee that you just saw.</p>\n                    <img src=\"bees-with-color/bee-A1DF.svg\" width=\"200\">\n                    <p><br>Your bonus pay is unchanged, and remains at $0.56.</p>\n            ","response":0,"trial_type":"html-button-response","trial_index":106,"time_elapsed":218793,"internal_node_id":"0.0-4.0-1.49","subject_id":"5e68bd36f0153b000a148229","study_id":"6197b3f67c2b5cd3b6d9596a","session_id":"6197b987e52b8616eb18b11c","condition":"contingent","relevant_dimensions":["pattern","legs"],"bee_group":{"antennae":"X","wings":"X","pattern":"S","legs":"F"},"bonus":1.0600000000000007},{"rt":2063.600000023842,"stimulus":"bees-with-color/bee-A1SF.svg","response":1,"trial_type":"image-button-response","trial_index":107,"time_elapsed":220859,"internal_node_id":"0.0-4.0-0.50","subject_id":"5e68bd36f0153b000a148229","study_id":"6197b3f67c2b5cd3b6d9596a","session_id":"6197b987e52b8616eb18b11c","condition":"contingent","relevant_dimensions":["pattern","legs"],"bee_group":{"antennae":"X","wings":"X","pattern":"S","legs":"F"},"action":"avoid","summary":"good-avoid","bonus":1.0600000000000007},{"rt":428.7000000476837,"stimulus":"\n                    <p><b>Action: <em>avoid</em></b></p>\n                    <p>This is the bee that you just saw.</p>\n                    <img src=\"bees-with-color/bee-A1SF.svg\" width=\"200\">\n                    <p><br>Your bonus pay is unchanged, and remains at $0.56.</p>\n            ","response":0,"trial_type":"html-button-response","trial_index":108,"time_elapsed":221291,"internal_node_id":"0.0-4.0-1.50","subject_id":"5e68bd36f0153b000a148229","study_id":"6197b3f67c2b5cd3b6d9596a","session_id":"6197b987e52b8616eb18b11c","condition":"contingent","relevant_dimensions":["pattern","legs"],"bee_group":{"antennae":"X","wings":"X","pattern":"S","legs":"F"},"bonus":1.0600000000000007},{"rt":891.5,"stimulus":"bees-with-color/bee-B1SF.svg","response":1,"trial_type":"image-button-response","trial_index":109,"time_elapsed":222186,"internal_node_id":"0.0-4.0-0.51","subject_id":"5e68bd36f0153b000a148229","study_id":"6197b3f67c2b5cd3b6d9596a","session_id":"6197b987e52b8616eb18b11c","condition":"contingent","relevant_dimensions":["pattern","legs"],"bee_group":{"antennae":"X","wings":"X","pattern":"S","legs":"F"},"action":"avoid","summary":"good-avoid","bonus":1.0600000000000007},{"rt":413.60000002384186,"stimulus":"\n                    <p><b>Action: <em>avoid</em></b></p>\n                    <p>This is the bee that you just saw.</p>\n                    <img src=\"bees-with-color/bee-B1SF.svg\" width=\"200\">\n                    <p><br>Your bonus pay is unchanged, and remains at $0.56.</p>\n            ","response":0,"trial_type":"html-button-response","trial_index":110,"time_elapsed":222602,"internal_node_id":"0.0-4.0-1.51","subject_id":"5e68bd36f0153b000a148229","study_id":"6197b3f67c2b5cd3b6d9596a","session_id":"6197b987e52b8616eb18b11c","condition":"contingent","relevant_dimensions":["pattern","legs"],"bee_group":{"antennae":"X","wings":"X","pattern":"S","legs":"F"},"bonus":1.0600000000000007},{"rt":844.8000000715256,"stimulus":"bees-with-color/bee-A1SM.svg","response":0,"trial_type":"image-button-response","trial_index":111,"time_elapsed":223449,"internal_node_id":"0.0-4.0-0.52","subject_id":"5e68bd36f0153b000a148229","study_id":"6197b3f67c2b5cd3b6d9596a","session_id":"6197b987e52b8616eb18b11c","condition":"contingent","relevant_dimensions":["pattern","legs"],"bee_group":{"antennae":"X","wings":"X","pattern":"S","legs":"F"},"action":"harvest","summary":"good-harvest","bonus":1.0600000000000007},{"rt":502.5,"stimulus":"\n                    <p><b>Action: <em>harvest</em></b></p>\n                    <p>This is the bee that you just saw.</p>\n                    <img src=\"bees-with-color/bee-A1SM.svg\" width=\"200\">\n                    <p><span class=\"greenText\"><b>Successful harvest!</b></span><br>Your pay has increased by $0.02. Your bonus pay is now $0.58.</p>\n            ","response":0,"trial_type":"html-button-response","trial_index":112,"time_elapsed":223954,"internal_node_id":"0.0-4.0-1.52","subject_id":"5e68bd36f0153b000a148229","study_id":"6197b3f67c2b5cd3b6d9596a","session_id":"6197b987e52b8616eb18b11c","condition":"contingent","relevant_dimensions":["pattern","legs"],"bee_group":{"antennae":"X","wings":"X","pattern":"S","legs":"F"},"bonus":1.0600000000000007},{"rt":951.5999999046326,"stimulus":"bees-with-color/bee-B2SM.svg","response":0,"trial_type":"image-button-response","trial_index":113,"time_elapsed":224913,"internal_node_id":"0.0-4.0-0.53","subject_id":"5e68bd36f0153b000a148229","study_id":"6197b3f67c2b5cd3b6d9596a","session_id":"6197b987e52b8616eb18b11c","condition":"contingent","relevant_dimensions":["pattern","legs"],"bee_group":{"antennae":"X","wings":"X","pattern":"S","legs":"F"},"action":"harvest","summary":"good-harvest","bonus":1.0600000000000007},{"rt":590.1000000238419,"stimulus":"\n                    <p><b>Action: <em>harvest</em></b></p>\n                    <p>This is the bee that you just saw.</p>\n                    <img src=\"bees-with-color/bee-B2SM.svg\" width=\"200\">\n                    <p><span class=\"greenText\"><b>Successful harvest!</b></span><br>Your pay has increased by $0.02. Your bonus pay is now $0.60.</p>\n            ","response":0,"trial_type":"html-button-response","trial_index":114,"time_elapsed":225507,"internal_node_id":"0.0-4.0-1.53","subject_id":"5e68bd36f0153b000a148229","study_id":"6197b3f67c2b5cd3b6d9596a","session_id":"6197b987e52b8616eb18b11c","condition":"contingent","relevant_dimensions":["pattern","legs"],"bee_group":{"antennae":"X","wings":"X","pattern":"S","legs":"F"},"bonus":1.0600000000000007},{"rt":907.8000000715256,"stimulus":"bees-with-color/bee-A1DM.svg","response":0,"trial_type":"image-button-response","trial_index":115,"time_elapsed":226418,"internal_node_id":"0.0-4.0-0.54","subject_id":"5e68bd36f0153b000a148229","study_id":"6197b3f67c2b5cd3b6d9596a","session_id":"6197b987e52b8616eb18b11c","condition":"contingent","relevant_dimensions":["pattern","legs"],"bee_group":{"antennae":"X","wings":"X","pattern":"S","legs":"F"},"action":"harvest","summary":"good-harvest","bonus":1.0600000000000007},{"rt":476.59999990463257,"stimulus":"\n                    <p><b>Action: <em>harvest</em></b></p>\n                    <p>This is the bee that you just saw.</p>\n                    <img src=\"bees-with-color/bee-A1DM.svg\" width=\"200\">\n                    <p><span class=\"greenText\"><b>Successful harvest!</b></span><br>Your pay has increased by $0.02. Your bonus pay is now $0.62.</p>\n            ","response":0,"trial_type":"html-button-response","trial_index":116,"time_elapsed":226897,"internal_node_id":"0.0-4.0-1.54","subject_id":"5e68bd36f0153b000a148229","study_id":"6197b3f67c2b5cd3b6d9596a","session_id":"6197b987e52b8616eb18b11c","condition":"contingent","relevant_dimensions":["pattern","legs"],"bee_group":{"antennae":"X","wings":"X","pattern":"S","legs":"F"},"bonus":1.0600000000000007},{"rt":733.8999999761581,"stimulus":"bees-with-color/bee-A2DF.svg","response":0,"trial_type":"image-button-response","trial_index":117,"time_elapsed":227634,"internal_node_id":"0.0-4.0-0.55","subject_id":"5e68bd36f0153b000a148229","study_id":"6197b3f67c2b5cd3b6d9596a","session_id":"6197b987e52b8616eb18b11c","condition":"contingent","relevant_dimensions":["pattern","legs"],"bee_group":{"antennae":"X","wings":"X","pattern":"S","legs":"F"},"action":"harvest","summary":"good-harvest","bonus":1.0600000000000007},{"rt":1469.6999999284744,"stimulus":"\n                    <p><b>Action: <em>harvest</em></b></p>\n                    <p>This is the bee that you just saw.</p>\n                    <img src=\"bees-with-color/bee-A2DF.svg\" width=\"200\">\n                    <p><span class=\"greenText\"><b>Successful harvest!</b></span><br>Your pay has increased by $0.02. Your bonus pay is now $0.64.</p>\n            ","response":0,"trial_type":"html-button-response","trial_index":118,"time_elapsed":229107,"internal_node_id":"0.0-4.0-1.55","subject_id":"5e68bd36f0153b000a148229","study_id":"6197b3f67c2b5cd3b6d9596a","session_id":"6197b987e52b8616eb18b11c","condition":"contingent","relevant_dimensions":["pattern","legs"],"bee_group":{"antennae":"X","wings":"X","pattern":"S","legs":"F"},"bonus":1.0600000000000007},{"rt":1275.3999999761581,"stimulus":"bees-with-color/bee-A2DM.svg","response":0,"trial_type":"image-button-response","trial_index":119,"time_elapsed":230386,"internal_node_id":"0.0-4.0-0.56","subject_id":"5e68bd36f0153b000a148229","study_id":"6197b3f67c2b5cd3b6d9596a","session_id":"6197b987e52b8616eb18b11c","condition":"contingent","relevant_dimensions":["pattern","legs"],"bee_group":{"antennae":"X","wings":"X","pattern":"S","legs":"F"},"action":"harvest","summary":"good-harvest","bonus":1.0600000000000007},{"rt":669.3000000715256,"stimulus":"\n                    <p><b>Action: <em>harvest</em></b></p>\n                    <p>This is the bee that you just saw.</p>\n                    <img src=\"bees-with-color/bee-A2DM.svg\" width=\"200\">\n                    <p><span class=\"greenText\"><b>Successful harvest!</b></span><br>Your pay has increased by $0.02. Your bonus pay is now $0.66.</p>\n            ","response":0,"trial_type":"html-button-response","trial_index":120,"time_elapsed":231058,"internal_node_id":"0.0-4.0-1.56","subject_id":"5e68bd36f0153b000a148229","study_id":"6197b3f67c2b5cd3b6d9596a","session_id":"6197b987e52b8616eb18b11c","condition":"contingent","relevant_dimensions":["pattern","legs"],"bee_group":{"antennae":"X","wings":"X","pattern":"S","legs":"F"},"bonus":1.0600000000000007},{"rt":3531.600000023842,"stimulus":"bees-with-color/bee-B2SF.svg","response":1,"trial_type":"image-button-response","trial_index":121,"time_elapsed":234593,"internal_node_id":"0.0-4.0-0.57","subject_id":"5e68bd36f0153b000a148229","study_id":"6197b3f67c2b5cd3b6d9596a","session_id":"6197b987e52b8616eb18b11c","condition":"contingent","relevant_dimensions":["pattern","legs"],"bee_group":{"antennae":"X","wings":"X","pattern":"S","legs":"F"},"action":"avoid","summary":"good-avoid","bonus":1.0600000000000007},{"rt":437.7000000476837,"stimulus":"\n                    <p><b>Action: <em>avoid</em></b></p>\n                    <p>This is the bee that you just saw.</p>\n                    <img src=\"bees-with-color/bee-B2SF.svg\" width=\"200\">\n                    <p><br>Your bonus pay is unchanged, and remains at $0.66.</p>\n            ","response":0,"trial_type":"html-button-response","trial_index":122,"time_elapsed":235034,"internal_node_id":"0.0-4.0-1.57","subject_id":"5e68bd36f0153b000a148229","study_id":"6197b3f67c2b5cd3b6d9596a","session_id":"6197b987e52b8616eb18b11c","condition":"contingent","relevant_dimensions":["pattern","legs"],"bee_group":{"antennae":"X","wings":"X","pattern":"S","legs":"F"},"bonus":1.0600000000000007},{"rt":1540,"stimulus":"bees-with-color/bee-B1SM.svg","response":0,"trial_type":"image-button-response","trial_index":123,"time_elapsed":236577,"internal_node_id":"0.0-4.0-0.58","subject_id":"5e68bd36f0153b000a148229","study_id":"6197b3f67c2b5cd3b6d9596a","session_id":"6197b987e52b8616eb18b11c","condition":"contingent","relevant_dimensions":["pattern","legs"],"bee_group":{"antennae":"X","wings":"X","pattern":"S","legs":"F"},"action":"harvest","summary":"good-harvest","bonus":1.0600000000000007},{"rt":446.10000002384186,"stimulus":"\n                    <p><b>Action: <em>harvest</em></b></p>\n                    <p>This is the bee that you just saw.</p>\n                    <img src=\"bees-with-color/bee-B1SM.svg\" width=\"200\">\n                    <p><span class=\"greenText\"><b>Successful harvest!</b></span><br>Your pay has increased by $0.02. Your bonus pay is now $0.68.</p>\n            ","response":0,"trial_type":"html-button-response","trial_index":124,"time_elapsed":237026,"internal_node_id":"0.0-4.0-1.58","subject_id":"5e68bd36f0153b000a148229","study_id":"6197b3f67c2b5cd3b6d9596a","session_id":"6197b987e52b8616eb18b11c","condition":"contingent","relevant_dimensions":["pattern","legs"],"bee_group":{"antennae":"X","wings":"X","pattern":"S","legs":"F"},"bonus":1.0600000000000007},{"rt":1372,"stimulus":"bees-with-color/bee-B1DF.svg","response":1,"trial_type":"image-button-response","trial_index":125,"time_elapsed":238401,"internal_node_id":"0.0-4.0-0.59","subject_id":"5e68bd36f0153b000a148229","study_id":"6197b3f67c2b5cd3b6d9596a","session_id":"6197b987e52b8616eb18b11c","condition":"contingent","relevant_dimensions":["pattern","legs"],"bee_group":{"antennae":"X","wings":"X","pattern":"S","legs":"F"},"action":"avoid","summary":"bad-avoid","bonus":1.0600000000000007},{"rt":521.2999999523163,"stimulus":"\n                    <p><b>Action: <em>avoid</em></b></p>\n                    <p>This is the bee that you just saw.</p>\n                    <img src=\"bees-with-color/bee-B1DF.svg\" width=\"200\">\n                    <p><br>Your bonus pay is unchanged, and remains at $0.68.</p>\n            ","response":0,"trial_type":"html-button-response","trial_index":126,"time_elapsed":238939,"internal_node_id":"0.0-4.0-1.59","subject_id":"5e68bd36f0153b000a148229","study_id":"6197b3f67c2b5cd3b6d9596a","session_id":"6197b987e52b8616eb18b11c","condition":"contingent","relevant_dimensions":["pattern","legs"],"bee_group":{"antennae":"X","wings":"X","pattern":"S","legs":"F"},"bonus":1.0600000000000007},{"rt":921.3999999761581,"stimulus":"bees-with-color/bee-B2DM.svg","response":0,"trial_type":"image-button-response","trial_index":127,"time_elapsed":239865,"internal_node_id":"0.0-4.0-0.60","subject_id":"5e68bd36f0153b000a148229","study_id":"6197b3f67c2b5cd3b6d9596a","session_id":"6197b987e52b8616eb18b11c","condition":"contingent","relevant_dimensions":["pattern","legs"],"bee_group":{"antennae":"X","wings":"X","pattern":"S","legs":"F"},"action":"harvest","summary":"good-harvest","bonus":1.0600000000000007},{"rt":525.7999999523163,"stimulus":"\n                    <p><b>Action: <em>harvest</em></b></p>\n                    <p>This is the bee that you just saw.</p>\n                    <img src=\"bees-with-color/bee-B2DM.svg\" width=\"200\">\n                    <p><span class=\"greenText\"><b>Successful harvest!</b></span><br>Your pay has increased by $0.02. Your bonus pay is now $0.70.</p>\n            ","response":0,"trial_type":"html-button-response","trial_index":128,"time_elapsed":240393,"internal_node_id":"0.0-4.0-1.60","subject_id":"5e68bd36f0153b000a148229","study_id":"6197b3f67c2b5cd3b6d9596a","session_id":"6197b987e52b8616eb18b11c","condition":"contingent","relevant_dimensions":["pattern","legs"],"bee_group":{"antennae":"X","wings":"X","pattern":"S","legs":"F"},"bonus":1.0600000000000007},{"rt":797.6000000238419,"stimulus":"bees-with-color/bee-B1DM.svg","response":0,"trial_type":"image-button-response","trial_index":129,"time_elapsed":241193,"internal_node_id":"0.0-4.0-0.61","subject_id":"5e68bd36f0153b000a148229","study_id":"6197b3f67c2b5cd3b6d9596a","session_id":"6197b987e52b8616eb18b11c","condition":"contingent","relevant_dimensions":["pattern","legs"],"bee_group":{"antennae":"X","wings":"X","pattern":"S","legs":"F"},"action":"harvest","summary":"good-harvest","bonus":1.0600000000000007},{"rt":511.89999997615814,"stimulus":"\n                    <p><b>Action: <em>harvest</em></b></p>\n                    <p>This is the bee that you just saw.</p>\n                    <img src=\"bees-with-color/bee-B1DM.svg\" width=\"200\">\n                    <p><span class=\"greenText\"><b>Successful harvest!</b></span><br>Your pay has increased by $0.02. Your bonus pay is now $0.72.</p>\n            ","response":0,"trial_type":"html-button-response","trial_index":130,"time_elapsed":241707,"internal_node_id":"0.0-4.0-1.61","subject_id":"5e68bd36f0153b000a148229","study_id":"6197b3f67c2b5cd3b6d9596a","session_id":"6197b987e52b8616eb18b11c","condition":"contingent","relevant_dimensions":["pattern","legs"],"bee_group":{"antennae":"X","wings":"X","pattern":"S","legs":"F"},"bonus":1.0600000000000007},{"rt":1003.2999999523163,"stimulus":"bees-with-color/bee-A2SM.svg","response":0,"trial_type":"image-button-response","trial_index":131,"time_elapsed":242713,"internal_node_id":"0.0-4.0-0.62","subject_id":"5e68bd36f0153b000a148229","study_id":"6197b3f67c2b5cd3b6d9596a","session_id":"6197b987e52b8616eb18b11c","condition":"contingent","relevant_dimensions":["pattern","legs"],"bee_group":{"antennae":"X","wings":"X","pattern":"S","legs":"F"},"action":"harvest","summary":"good-harvest","bonus":1.0600000000000007},{"rt":476.89999997615814,"stimulus":"\n                    <p><b>Action: <em>harvest</em></b></p>\n                    <p>This is the bee that you just saw.</p>\n                    <img src=\"bees-with-color/bee-A2SM.svg\" width=\"200\">\n                    <p><span class=\"greenText\"><b>Successful harvest!</b></span><br>Your pay has increased by $0.02. Your bonus pay is now $0.74.</p>\n            ","response":0,"trial_type":"html-button-response","trial_index":132,"time_elapsed":243192,"internal_node_id":"0.0-4.0-1.62","subject_id":"5e68bd36f0153b000a148229","study_id":"6197b3f67c2b5cd3b6d9596a","session_id":"6197b987e52b8616eb18b11c","condition":"contingent","relevant_dimensions":["pattern","legs"],"bee_group":{"antennae":"X","wings":"X","pattern":"S","legs":"F"},"bonus":1.0600000000000007},{"rt":933.8999999761581,"stimulus":"bees-with-color/bee-A2SF.svg","response":1,"trial_type":"image-button-response","trial_index":133,"time_elapsed":244129,"internal_node_id":"0.0-4.0-0.63","subject_id":"5e68bd36f0153b000a148229","study_id":"6197b3f67c2b5cd3b6d9596a","session_id":"6197b987e52b8616eb18b11c","condition":"contingent","relevant_dimensions":["pattern","legs"],"bee_group":{"antennae":"X","wings":"X","pattern":"S","legs":"F"},"action":"avoid","summary":"good-avoid","bonus":1.0600000000000007},{"rt":502.1999999284744,"stimulus":"\n                    <p><b>Action: <em>avoid</em></b></p>\n                    <p>This is the bee that you just saw.</p>\n                    <img src=\"bees-with-color/bee-A2SF.svg\" width=\"200\">\n                    <p><br>Your bonus pay is unchanged, and remains at $0.74.</p>\n            ","response":0,"trial_type":"html-button-response","trial_index":134,"time_elapsed":244633,"internal_node_id":"0.0-4.0-1.63","subject_id":"5e68bd36f0153b000a148229","study_id":"6197b3f67c2b5cd3b6d9596a","session_id":"6197b987e52b8616eb18b11c","condition":"contingent","relevant_dimensions":["pattern","legs"],"bee_group":{"antennae":"X","wings":"X","pattern":"S","legs":"F"},"bonus":1.0600000000000007},{"rt":5508.5,"stimulus":"You have completed the first part of this experiment.<br><br>You will now begin a shorter second part, in which you will receive no feedback.<br>The same rules regarding bonus pay apply.<br><br>Press any key to begin.","response":" ","trial_type":"html-keyboard-response","trial_index":135,"time_elapsed":250144,"internal_node_id":"0.0-5.0","subject_id":"5e68bd36f0153b000a148229","study_id":"6197b3f67c2b5cd3b6d9596a","session_id":"6197b987e52b8616eb18b11c","condition":"contingent","relevant_dimensions":["pattern","legs"],"bee_group":{"antennae":"X","wings":"X","pattern":"S","legs":"F"},"bonus":1.0600000000000007},{"rt":3663.7999999523163,"stimulus":"bees-with-color/bee-B1DF.svg","response":1,"trial_type":"image-button-response","trial_index":136,"time_elapsed":253841,"internal_node_id":"0.0-6.0-0.0","subject_id":"5e68bd36f0153b000a148229","study_id":"6197b3f67c2b5cd3b6d9596a","session_id":"6197b987e52b8616eb18b11c","condition":"contingent","relevant_dimensions":["pattern","legs"],"bee_group":{"antennae":"X","wings":"X","pattern":"S","legs":"F"},"bonus":1.0600000000000007},{"rt":828.1000000238419,"stimulus":"bees-with-color/bee-A1SM.svg","response":0,"trial_type":"image-button-response","trial_index":137,"time_elapsed":254674,"internal_node_id":"0.0-6.0-0.1","subject_id":"5e68bd36f0153b000a148229","study_id":"6197b3f67c2b5cd3b6d9596a","session_id":"6197b987e52b8616eb18b11c","condition":"contingent","relevant_dimensions":["pattern","legs"],"bee_group":{"antennae":"X","wings":"X","pattern":"S","legs":"F"},"bonus":1.0600000000000007},{"rt":850.6999999284744,"stimulus":"bees-with-color/bee-A1DM.svg","response":0,"trial_type":"image-button-response","trial_index":138,"time_elapsed":255528,"internal_node_id":"0.0-6.0-0.2","subject_id":"5e68bd36f0153b000a148229","study_id":"6197b3f67c2b5cd3b6d9596a","session_id":"6197b987e52b8616eb18b11c","condition":"contingent","relevant_dimensions":["pattern","legs"],"bee_group":{"antennae":"X","wings":"X","pattern":"S","legs":"F"},"bonus":1.0600000000000007},{"rt":893.3999999761581,"stimulus":"bees-with-color/bee-B2DM.svg","response":0,"trial_type":"image-button-response","trial_index":139,"time_elapsed":256426,"internal_node_id":"0.0-6.0-0.3","subject_id":"5e68bd36f0153b000a148229","study_id":"6197b3f67c2b5cd3b6d9596a","session_id":"6197b987e52b8616eb18b11c","condition":"contingent","relevant_dimensions":["pattern","legs"],"bee_group":{"antennae":"X","wings":"X","pattern":"S","legs":"F"},"bonus":1.0600000000000007},{"rt":1500.3999999761581,"stimulus":"bees-with-color/bee-B1SF.svg","response":1,"trial_type":"image-button-response","trial_index":140,"time_elapsed":257930,"internal_node_id":"0.0-6.0-0.4","subject_id":"5e68bd36f0153b000a148229","study_id":"6197b3f67c2b5cd3b6d9596a","session_id":"6197b987e52b8616eb18b11c","condition":"contingent","relevant_dimensions":["pattern","legs"],"bee_group":{"antennae":"X","wings":"X","pattern":"S","legs":"F"},"bonus":1.0600000000000007},{"rt":528.7999999523163,"stimulus":"bees-with-color/bee-B2SF.svg","response":1,"trial_type":"image-button-response","trial_index":141,"time_elapsed":258466,"internal_node_id":"0.0-6.0-0.5","subject_id":"5e68bd36f0153b000a148229","study_id":"6197b3f67c2b5cd3b6d9596a","session_id":"6197b987e52b8616eb18b11c","condition":"contingent","relevant_dimensions":["pattern","legs"],"bee_group":{"antennae":"X","wings":"X","pattern":"S","legs":"F"},"bonus":1.0600000000000007},{"rt":899.0999999046326,"stimulus":"bees-with-color/bee-B2DF.svg","response":1,"trial_type":"image-button-response","trial_index":142,"time_elapsed":259369,"internal_node_id":"0.0-6.0-0.6","subject_id":"5e68bd36f0153b000a148229","study_id":"6197b3f67c2b5cd3b6d9596a","session_id":"6197b987e52b8616eb18b11c","condition":"contingent","relevant_dimensions":["pattern","legs"],"bee_group":{"antennae":"X","wings":"X","pattern":"S","legs":"F"},"bonus":1.0600000000000007},{"rt":1314.8000000715256,"stimulus":"bees-with-color/bee-A2DF.svg","response":0,"trial_type":"image-button-response","trial_index":143,"time_elapsed":260690,"internal_node_id":"0.0-6.0-0.7","subject_id":"5e68bd36f0153b000a148229","study_id":"6197b3f67c2b5cd3b6d9596a","session_id":"6197b987e52b8616eb18b11c","condition":"contingent","relevant_dimensions":["pattern","legs"],"bee_group":{"antennae":"X","wings":"X","pattern":"S","legs":"F"},"bonus":1.0600000000000007},{"rt":796.1000000238419,"stimulus":"bees-with-color/bee-B1SM.svg","response":0,"trial_type":"image-button-response","trial_index":144,"time_elapsed":261490,"internal_node_id":"0.0-6.0-0.8","subject_id":"5e68bd36f0153b000a148229","study_id":"6197b3f67c2b5cd3b6d9596a","session_id":"6197b987e52b8616eb18b11c","condition":"contingent","relevant_dimensions":["pattern","legs"],"bee_group":{"antennae":"X","wings":"X","pattern":"S","legs":"F"},"bonus":1.0600000000000007},{"rt":715.1000000238419,"stimulus":"bees-with-color/bee-A1SF.svg","response":1,"trial_type":"image-button-response","trial_index":145,"time_elapsed":262209,"internal_node_id":"0.0-6.0-0.9","subject_id":"5e68bd36f0153b000a148229","study_id":"6197b3f67c2b5cd3b6d9596a","session_id":"6197b987e52b8616eb18b11c","condition":"contingent","relevant_dimensions":["pattern","legs"],"bee_group":{"antennae":"X","wings":"X","pattern":"S","legs":"F"},"bonus":1.0600000000000007},{"rt":685,"stimulus":"bees-with-color/bee-A2DM.svg","response":0,"trial_type":"image-button-response","trial_index":146,"time_elapsed":262897,"internal_node_id":"0.0-6.0-0.10","subject_id":"5e68bd36f0153b000a148229","study_id":"6197b3f67c2b5cd3b6d9596a","session_id":"6197b987e52b8616eb18b11c","condition":"contingent","relevant_dimensions":["pattern","legs"],"bee_group":{"antennae":"X","wings":"X","pattern":"S","legs":"F"},"bonus":1.0600000000000007},{"rt":956.2999999523163,"stimulus":"bees-with-color/bee-B2SM.svg","response":0,"trial_type":"image-button-response","trial_index":147,"time_elapsed":263856,"internal_node_id":"0.0-6.0-0.11","subject_id":"5e68bd36f0153b000a148229","study_id":"6197b3f67c2b5cd3b6d9596a","session_id":"6197b987e52b8616eb18b11c","condition":"contingent","relevant_dimensions":["pattern","legs"],"bee_group":{"antennae":"X","wings":"X","pattern":"S","legs":"F"},"bonus":1.0600000000000007},{"rt":1029.4000000953674,"stimulus":"bees-with-color/bee-A2SM.svg","response":0,"trial_type":"image-button-response","trial_index":148,"time_elapsed":264890,"internal_node_id":"0.0-6.0-0.12","subject_id":"5e68bd36f0153b000a148229","study_id":"6197b3f67c2b5cd3b6d9596a","session_id":"6197b987e52b8616eb18b11c","condition":"contingent","relevant_dimensions":["pattern","legs"],"bee_group":{"antennae":"X","wings":"X","pattern":"S","legs":"F"},"bonus":1.0600000000000007},{"rt":1013.2999999523163,"stimulus":"bees-with-color/bee-B1DM.svg","response":0,"trial_type":"image-button-response","trial_index":149,"time_elapsed":265906,"internal_node_id":"0.0-6.0-0.13","subject_id":"5e68bd36f0153b000a148229","study_id":"6197b3f67c2b5cd3b6d9596a","session_id":"6197b987e52b8616eb18b11c","condition":"contingent","relevant_dimensions":["pattern","legs"],"bee_group":{"antennae":"X","wings":"X","pattern":"S","legs":"F"},"bonus":1.0600000000000007},{"rt":930.8999999761581,"stimulus":"bees-with-color/bee-A2SF.svg","response":1,"trial_type":"image-button-response","trial_index":150,"time_elapsed":266841,"internal_node_id":"0.0-6.0-0.14","subject_id":"5e68bd36f0153b000a148229","study_id":"6197b3f67c2b5cd3b6d9596a","session_id":"6197b987e52b8616eb18b11c","condition":"contingent","relevant_dimensions":["pattern","legs"],"bee_group":{"antennae":"X","wings":"X","pattern":"S","legs":"F"},"bonus":1.0600000000000007},{"rt":925.3999999761581,"stimulus":"bees-with-color/bee-A1DF.svg","response":1,"trial_type":"image-button-response","trial_index":151,"time_elapsed":267771,"internal_node_id":"0.0-6.0-0.15","subject_id":"5e68bd36f0153b000a148229","study_id":"6197b3f67c2b5cd3b6d9596a","session_id":"6197b987e52b8616eb18b11c","condition":"contingent","relevant_dimensions":["pattern","legs"],"bee_group":{"antennae":"X","wings":"X","pattern":"S","legs":"F"},"bonus":1.0600000000000007},{"rt":1180.2999999523163,"stimulus":"bees-with-color/bee-A1SM.svg","response":0,"trial_type":"image-button-response","trial_index":152,"time_elapsed":268955,"internal_node_id":"0.0-6.0-0.16","subject_id":"5e68bd36f0153b000a148229","study_id":"6197b3f67c2b5cd3b6d9596a","session_id":"6197b987e52b8616eb18b11c","condition":"contingent","relevant_dimensions":["pattern","legs"],"bee_group":{"antennae":"X","wings":"X","pattern":"S","legs":"F"},"bonus":1.0600000000000007},{"rt":891.3999999761581,"stimulus":"bees-with-color/bee-B2SM.svg","response":0,"trial_type":"image-button-response","trial_index":153,"time_elapsed":269849,"internal_node_id":"0.0-6.0-0.17","subject_id":"5e68bd36f0153b000a148229","study_id":"6197b3f67c2b5cd3b6d9596a","session_id":"6197b987e52b8616eb18b11c","condition":"contingent","relevant_dimensions":["pattern","legs"],"bee_group":{"antennae":"X","wings":"X","pattern":"S","legs":"F"},"bonus":1.0600000000000007},{"rt":702.8000000715256,"stimulus":"bees-with-color/bee-A2SF.svg","response":1,"trial_type":"image-button-response","trial_index":154,"time_elapsed":270555,"internal_node_id":"0.0-6.0-0.18","subject_id":"5e68bd36f0153b000a148229","study_id":"6197b3f67c2b5cd3b6d9596a","session_id":"6197b987e52b8616eb18b11c","condition":"contingent","relevant_dimensions":["pattern","legs"],"bee_group":{"antennae":"X","wings":"X","pattern":"S","legs":"F"},"bonus":1.0600000000000007},{"rt":898.3000000715256,"stimulus":"bees-with-color/bee-A2DM.svg","response":0,"trial_type":"image-button-response","trial_index":155,"time_elapsed":271457,"internal_node_id":"0.0-6.0-0.19","subject_id":"5e68bd36f0153b000a148229","study_id":"6197b3f67c2b5cd3b6d9596a","session_id":"6197b987e52b8616eb18b11c","condition":"contingent","relevant_dimensions":["pattern","legs"],"bee_group":{"antennae":"X","wings":"X","pattern":"S","legs":"F"},"bonus":1.0600000000000007},{"rt":797.2000000476837,"stimulus":"bees-with-color/bee-B2SF.svg","response":1,"trial_type":"image-button-response","trial_index":156,"time_elapsed":272257,"internal_node_id":"0.0-6.0-0.20","subject_id":"5e68bd36f0153b000a148229","study_id":"6197b3f67c2b5cd3b6d9596a","session_id":"6197b987e52b8616eb18b11c","condition":"contingent","relevant_dimensions":["pattern","legs"],"bee_group":{"antennae":"X","wings":"X","pattern":"S","legs":"F"},"bonus":1.0600000000000007},{"rt":853.7000000476837,"stimulus":"bees-with-color/bee-B1DM.svg","response":0,"trial_type":"image-button-response","trial_index":157,"time_elapsed":273113,"internal_node_id":"0.0-6.0-0.21","subject_id":"5e68bd36f0153b000a148229","study_id":"6197b3f67c2b5cd3b6d9596a","session_id":"6197b987e52b8616eb18b11c","condition":"contingent","relevant_dimensions":["pattern","legs"],"bee_group":{"antennae":"X","wings":"X","pattern":"S","legs":"F"},"bonus":1.0600000000000007},{"rt":805.4000000953674,"stimulus":"bees-with-color/bee-B2DM.svg","response":0,"trial_type":"image-button-response","trial_index":158,"time_elapsed":273922,"internal_node_id":"0.0-6.0-0.22","subject_id":"5e68bd36f0153b000a148229","study_id":"6197b3f67c2b5cd3b6d9596a","session_id":"6197b987e52b8616eb18b11c","condition":"contingent","relevant_dimensions":["pattern","legs"],"bee_group":{"antennae":"X","wings":"X","pattern":"S","legs":"F"},"bonus":1.0600000000000007},{"rt":877.1000000238419,"stimulus":"bees-with-color/bee-A2SM.svg","response":1,"trial_type":"image-button-response","trial_index":159,"time_elapsed":274803,"internal_node_id":"0.0-6.0-0.23","subject_id":"5e68bd36f0153b000a148229","study_id":"6197b3f67c2b5cd3b6d9596a","session_id":"6197b987e52b8616eb18b11c","condition":"contingent","relevant_dimensions":["pattern","legs"],"bee_group":{"antennae":"X","wings":"X","pattern":"S","legs":"F"},"bonus":1.0600000000000007},{"rt":915.3999999761581,"stimulus":"bees-with-color/bee-A1SF.svg","response":1,"trial_type":"image-button-response","trial_index":160,"time_elapsed":275722,"internal_node_id":"0.0-6.0-0.24","subject_id":"5e68bd36f0153b000a148229","study_id":"6197b3f67c2b5cd3b6d9596a","session_id":"6197b987e52b8616eb18b11c","condition":"contingent","relevant_dimensions":["pattern","legs"],"bee_group":{"antennae":"X","wings":"X","pattern":"S","legs":"F"},"bonus":1.0600000000000007},{"rt":604.1999999284744,"stimulus":"bees-with-color/bee-B1SF.svg","response":1,"trial_type":"image-button-response","trial_index":161,"time_elapsed":276329,"internal_node_id":"0.0-6.0-0.25","subject_id":"5e68bd36f0153b000a148229","study_id":"6197b3f67c2b5cd3b6d9596a","session_id":"6197b987e52b8616eb18b11c","condition":"contingent","relevant_dimensions":["pattern","legs"],"bee_group":{"antennae":"X","wings":"X","pattern":"S","legs":"F"},"bonus":1.0600000000000007},{"rt":644,"stimulus":"bees-with-color/bee-A1DF.svg","response":1,"trial_type":"image-button-response","trial_index":162,"time_elapsed":276977,"internal_node_id":"0.0-6.0-0.26","subject_id":"5e68bd36f0153b000a148229","study_id":"6197b3f67c2b5cd3b6d9596a","session_id":"6197b987e52b8616eb18b11c","condition":"contingent","relevant_dimensions":["pattern","legs"],"bee_group":{"antennae":"X","wings":"X","pattern":"S","legs":"F"},"bonus":1.0600000000000007},{"rt":629.3999999761581,"stimulus":"bees-with-color/bee-B2DF.svg","response":1,"trial_type":"image-button-response","trial_index":163,"time_elapsed":277609,"internal_node_id":"0.0-6.0-0.27","subject_id":"5e68bd36f0153b000a148229","study_id":"6197b3f67c2b5cd3b6d9596a","session_id":"6197b987e52b8616eb18b11c","condition":"contingent","relevant_dimensions":["pattern","legs"],"bee_group":{"antennae":"X","wings":"X","pattern":"S","legs":"F"},"bonus":1.0600000000000007},{"rt":1101.0999999046326,"stimulus":"bees-with-color/bee-B1DF.svg","response":1,"trial_type":"image-button-response","trial_index":164,"time_elapsed":278713,"internal_node_id":"0.0-6.0-0.28","subject_id":"5e68bd36f0153b