[{"success":true,"trial_type":"fullscreen","trial_index":0,"time_elapsed":134973,"internal_node_id":"0.0-0.0","subject_id":"5fac1a3e935a7d133be5a4d7","study_id":"60edd13110225f80f9f3709b","session_id":"6196c4a5ca708fba99166d2a","condition":"contingent","relevant_dimensions":["antennae","wings"],"bee_group":{"antennae":"A","wings":"2","pattern":"X","legs":"X"},"bonus":1.5000000000000009},{"success":true,"timeout":false,"failed_images":[],"failed_audio":[],"failed_video":[],"trial_type":"preload","trial_index":1,"time_elapsed":136276,"internal_node_id":"0.0-1.0","subject_id":"5fac1a3e935a7d133be5a4d7","study_id":"60edd13110225f80f9f3709b","session_id":"6196c4a5ca708fba99166d2a","condition":"contingent","relevant_dimensions":["antennae","wings"],"bee_group":{"antennae":"A","wings":"2","pattern":"X","legs":"X"},"bonus":1.5000000000000009},{"rt":2717.699999988079,"stimulus":"Welcome! Press any key to begin.","response":" ","trial_type":"html-keyboard-response","trial_index":2,"time_elapsed":138995,"internal_node_id":"0.0-2.0","subject_id":"5fac1a3e935a7d133be5a4d7","study_id":"60edd13110225f80f9f3709b","session_id":"6196c4a5ca708fba99166d2a","condition":"contingent","relevant_dimensions":["antennae","wings"],"bee_group":{"antennae":"A","wings":"2","pattern":"X","legs":"X"},"bonus":1.5000000000000009},{"view_history":[{"page_index":0,"viewing_time":5349.5},{"page_index":1,"viewing_time":13923.900000035763},{"page_index":2,"viewing_time":14483.799999952316},{"page_index":3,"viewing_time":17095.900000035763},{"page_index":4,"viewing_time":19131.099999964237},{"page_index":5,"viewing_time":35556.10000002384},{"page_index":6,"viewing_time":14611},{"page_index":7,"viewing_time":11537.800000011921},{"page_index":8,"viewing_time":9134.099999964237},{"page_index":9,"viewing_time":7019.5},{"page_index":10,"viewing_time":9076},{"page_index":11,"viewing_time":13570.5},{"page_index":12,"viewing_time":34178.10000002384},{"page_index":13,"viewing_time":1545.1000000238419},{"page_index":14,"viewing_time":1746.8999999761581}],"rt":207959.60000002384,"trial_type":"instructions","trial_index":3,"time_elapsed":346955,"internal_node_id":"0.0-3.0-0.0","subject_id":"5fac1a3e935a7d133be5a4d7","study_id":"60edd13110225f80f9f3709b","session_id":"6196c4a5ca708fba99166d2a","condition":"contingent","relevant_dimensions":["antennae","wings"],"bee_group":{"antennae":"A","wings":"2","pattern":"X","legs":"X"},"bonus":1.5000000000000009},{"rt":38323.19999998808,"response":{"Q0":["Two or six legs","Stripes or spots on body","Single or double wings","Antennae or no antennae"]},"question_order":[0],"trial_type":"survey-multi-select","trial_index":4,"time_elapsed":385282,"internal_node_id":"0.0-3.0-1.0","subject_id":"5fac1a3e935a7d133be5a4d7","study_id":"60edd13110225f80f9f3709b","session_id":"6196c4a5ca708fba99166d2a","condition":"contingent","relevant_dimensions":["antennae","wings"],"bee_group":{"antennae":"A","wings":"2","pattern":"X","legs":"X"},"correct":true,"bonus":1.5000000000000009},{"rt":36894.5,"response":{"Q1":"No.","Q2":"Based on the four features of the bee.","Q3":"You do not learn if it was friendly or dangerous, and do not alter your bonus."},"question_order":[0,1,2],"trial_type":"survey-multi-choice","trial_index":5,"time_elapsed":422183,"internal_node_id":"0.0-3.0-2.0","subject_id":"5fac1a3e935a7d133be5a4d7","study_id":"60edd13110225f80f9f3709b","session_id":"6196c4a5ca708fba99166d2a","condition":"contingent","relevant_dimensions":["antennae","wings"],"bee_group":{"antennae":"A","wings":"2","pattern":"X","legs":"X"},"correct":true,"bonus":1.5000000000000009},{"rt":4091.2999999523163,"stimulus":"<p>Congrats, you got everything right<br>When you're ready, click the button below to continue to the experiment.</p>","response":0,"trial_type":"html-button-response","trial_index":6,"time_elapsed":426282,"internal_node_id":"0.0-3.0-3.0","subject_id":"5fac1a3e935a7d133be5a4d7","study_id":"60edd13110225f80f9f3709b","session_id":"6196c4a5ca708fba99166d2a","condition":"contingent","relevant_dimensions":["antennae","wings"],"bee_group":{"antennae":"A","wings":"2","pattern":"X","legs":"X"},"bonus":1.5000000000000009},{"rt":21402,"stimulus":"bees-with-color/bee-B1DF.svg","response":0,"trial_type":"image-button-response","trial_index":7,"time_elapsed":447687,"internal_node_id":"0.0-4.0-0.0","subject_id":"5fac1a3e935a7d133be5a4d7","study_id":"60edd13110225f80f9f3709b","session_id":"6196c4a5ca708fba99166d2a","condition":"contingent","relevant_dimensions":["antennae","wings"],"bee_group":{"antennae":"A","wings":"2","pattern":"X","legs":"X"},"action":"harvest","summary":"good-harvest","bonus":1.5000000000000009},{"rt":6472.900000035763,"stimulus":"\n                    <p><b>Action: <em>harvest</em></b></p>\n                    <p>This is the bee that you just saw.</p>\n                    <img src=\"bees-with-color/bee-B1DF.svg\" width=\"200\">\n                    <p><span class=\"greenText\"><b>Successful harvest!</b></span><br>Your pay has increased by $0.02. Your bonus pay is now $0.56.</p>\n            ","response":0,"trial_type":"html-button-response","trial_index":8,"time_elapsed":454163,"internal_node_id":"0.0-4.0-1.0","subject_id":"5fac1a3e935a7d133be5a4d7","study_id":"60edd13110225f80f9f3709b","session_id":"6196c4a5ca708fba99166d2a","condition":"contingent","relevant_dimensions":["antennae","wings"],"bee_group":{"antennae":"A","wings":"2","pattern":"X","legs":"X"},"bonus":1.5000000000000009},{"rt":16745.899999976158,"stimulus":"bees-with-color/bee-B1DM.svg","response":0,"trial_type":"image-button-response","trial_index":9,"time_elapsed":470911,"internal_node_id":"0.0-4.0-0.1","subject_id":"5fac1a3e935a7d133be5a4d7","study_id":"60edd13110225f80f9f3709b","session_id":"6196c4a5ca708fba99166d2a","condition":"contingent","relevant_dimensions":["antennae","wings"],"bee_group":{"antennae":"A","wings":"2","pattern":"X","legs":"X"},"action":"harvest","summary":"good-harvest","bonus":1.5000000000000009},{"rt":2454.600000023842,"stimulus":"\n                    <p><b>Action: <em>harvest</em></b></p>\n                    <p>This is the bee that you just saw.</p>\n                    <img src=\"bees-with-color/bee-B1DM.svg\" width=\"200\">\n                    <p><span class=\"greenText\"><b>Successful harvest!</b></span><br>Your pay has increased by $0.02. Your bonus pay is now $0.58.</p>\n            ","response":0,"trial_type":"html-button-response","trial_index":10,"time_elapsed":473368,"internal_node_id":"0.0-4.0-1.1","subject_id":"5fac1a3e935a7d133be5a4d7","study_id":"60edd13110225f80f9f3709b","session_id":"6196c4a5ca708fba99166d2a","condition":"contingent","relevant_dimensions":["antennae","wings"],"bee_group":{"antennae":"A","wings":"2","pattern":"X","legs":"X"},"bonus":1.5000000000000009},{"rt":33475.700000047684,"stimulus":"bees-with-color/bee-A2DM.svg","response":1,"trial_type":"image-button-response","trial_index":11,"time_elapsed":506846,"internal_node_id":"0.0-4.0-0.2","subject_id":"5fac1a3e935a7d133be5a4d7","study_id":"60edd13110225f80f9f3709b","session_id":"6196c4a5ca708fba99166d2a","condition":"contingent","relevant_dimensions":["antennae","wings"],"bee_group":{"antennae":"A","wings":"2","pattern":"X","legs":"X"},"action":"avoid","summary":"good-avoid","bonus":1.5000000000000009},{"rt":7933,"stimulus":"\n                    <p><b>Action: <em>avoid</em></b></p>\n                    <p>This is the bee that you just saw.</p>\n                    <img src=\"bees-with-color/bee-A2DM.svg\" width=\"200\">\n                    <p><br>Your bonus pay is unchanged, and remains at $0.58.</p>\n            ","response":0,"trial_type":"html-button-response","trial_index":12,"time_elapsed":514780,"internal_node_id":"0.0-4.0-1.2","subject_id":"5fac1a3e935a7d133be5a4d7","study_id":"60edd13110225f80f9f3709b","session_id":"6196c4a5ca708fba99166d2a","condition":"contingent","relevant_dimensions":["antennae","wings"],"bee_group":{"antennae":"A","wings":"2","pattern":"X","legs":"X"},"bonus":1.5000000000000009},{"rt":7716.199999988079,"stimulus":"bees-with-color/bee-B2SF.svg","response":0,"trial_type":"image-button-response","trial_index":13,"time_elapsed":522499,"internal_node_id":"0.0-4.0-0.3","subject_id":"5fac1a3e935a7d133be5a4d7","study_id":"60edd13110225f80f9f3709b","session_id":"6196c4a5ca708fba99166d2a","condition":"contingent","relevant_dimensions":["antennae","wings"],"bee_group":{"antennae":"A","wings":"2","pattern":"X","legs":"X"},"action":"harvest","summary":"good-harvest","bonus":1.5000000000000009},{"rt":5976.300000011921,"stimulus":"\n                    <p><b>Action: <em>harvest</em></b></p>\n                    <p>This is the bee that you just saw.</p>\n                    <img src=\"bees-with-color/bee-B2SF.svg\" width=\"200\">\n                    <p><span class=\"greenText\"><b>Successful harvest!</b></span><br>Your pay has increased by $0.02. Your bonus pay is now $0.60.</p>\n            ","response":0,"trial_type":"html-button-response","trial_index":14,"time_elapsed":528477,"internal_node_id":"0.0-4.0-1.3","subject_id":"5fac1a3e935a7d133be5a4d7","study_id":"60edd13110225f80f9f3709b","session_id":"6196c4a5ca708fba99166d2a","condition":"contingent","relevant_dimensions":["antennae","wings"],"bee_group":{"antennae":"A","wings":"2","pattern":"X","legs":"X"},"bonus":1.5000000000000009},{"rt":5305.5,"stimulus":"bees-with-color/bee-B1SM.svg","response":0,"trial_type":"image-button-response","trial_index":15,"time_elapsed":533784,"internal_node_id":"0.0-4.0-0.4","subject_id":"5fac1a3e935a7d133be5a4d7","study_id":"60edd13110225f80f9f3709b","session_id":"6196c4a5ca708fba99166d2a","condition":"contingent","relevant_dimensions":["antennae","wings"],"bee_group":{"antennae":"A","wings":"2","pattern":"X","legs":"X"},"action":"harvest","summary":"good-harvest","bonus":1.5000000000000009},{"rt":2424.199999988079,"stimulus":"\n                    <p><b>Action: <em>harvest</em></b></p>\n                    <p>This is the bee that you just saw.</p>\n                    <img src=\"bees-with-color/bee-B1SM.svg\" width=\"200\">\n                    <p><span class=\"greenText\"><b>Successful harvest!</b></span><br>Your pay has increased by $0.02. Your bonus pay is now $0.62.</p>\n            ","response":0,"trial_type":"html-button-response","trial_index":16,"time_elapsed":536210,"internal_node_id":"0.0-4.0-1.4","subject_id":"5fac1a3e935a7d133be5a4d7","study_id":"60edd13110225f80f9f3709b","session_id":"6196c4a5ca708fba99166d2a","condition":"contingent","relevant_dimensions":["antennae","wings"],"bee_group":{"antennae":"A","wings":"2","pattern":"X","legs":"X"},"bonus":1.5000000000000009},{"rt":20629.5,"stimulus":"bees-with-color/bee-A1DF.svg","response":1,"trial_type":"image-button-response","trial_index":17,"time_elapsed":556842,"internal_node_id":"0.0-4.0-0.5","subject_id":"5fac1a3e935a7d133be5a4d7","study_id":"60edd13110225f80f9f3709b","session_id":"6196c4a5ca708fba99166d2a","condition":"contingent","relevant_dimensions":["antennae","wings"],"bee_group":{"antennae":"A","wings":"2","pattern":"X","legs":"X"},"action":"avoid","summary":"bad-avoid","bonus":1.5000000000000009},{"rt":1427.1000000238419,"stimulus":"\n                    <p><b>Action: <em>avoid</em></b></p>\n                    <p>This is the bee that you just saw.</p>\n                    <img src=\"bees-with-color/bee-A1DF.svg\" width=\"200\">\n                    <p><br>Your bonus pay is unchanged, and remains at $0.62.</p>\n            ","response":0,"trial_type":"html-button-response","trial_index":18,"time_elapsed":558271,"internal_node_id":"0.0-4.0-1.5","subject_id":"5fac1a3e935a7d133be5a4d7","study_id":"60edd13110225f80f9f3709b","session_id":"6196c4a5ca708fba99166d2a","condition":"contingent","relevant_dimensions":["antennae","wings"],"bee_group":{"antennae":"A","wings":"2","pattern":"X","legs":"X"},"bonus":1.5000000000000009},{"rt":2975.300000011921,"stimulus":"bees-with-color/bee-A2SM.svg","response":1,"trial_type":"image-button-response","trial_index":19,"time_elapsed":561249,"internal_node_id":"0.0-4.0-0.6","subject_id":"5fac1a3e935a7d133be5a4d7","study_id":"60edd13110225f80f9f3709b","session_id":"6196c4a5ca708fba99166d2a","condition":"contingent","relevant_dimensions":["antennae","wings"],"bee_group":{"antennae":"A","wings":"2","pattern":"X","legs":"X"},"action":"avoid","summary":"good-avoid","bonus":1.5000000000000009},{"rt":1584.300000011921,"stimulus":"\n                    <p><b>Action: <em>avoid</em></b></p>\n                    <p>This is the bee that you just saw.</p>\n                    <img src=\"bees-with-color/bee-A2SM.svg\" width=\"200\">\n                    <p><br>Your bonus pay is unchanged, and remains at $0.62.</p>\n            ","response":0,"trial_type":"html-button-response","trial_index":20,"time_elapsed":562835,"internal_node_id":"0.0-4.0-1.6","subject_id":"5fac1a3e935a7d133be5a4d7","study_id":"60edd13110225f80f9f3709b","session_id":"6196c4a5ca708fba99166d2a","condition":"contingent","relevant_dimensions":["antennae","wings"],"bee_group":{"antennae":"A","wings":"2","pattern":"X","legs":"X"},"bonus":1.5000000000000009},{"rt":1254.0999999642372,"stimulus":"bees-with-color/bee-B2DF.svg","response":0,"trial_type":"image-button-response","trial_index":21,"time_elapsed":564091,"internal_node_id":"0.0-4.0-0.7","subject_id":"5fac1a3e935a7d133be5a4d7","study_id":"60edd13110225f80f9f3709b","session_id":"6196c4a5ca708fba99166d2a","condition":"contingent","relevant_dimensions":["antennae","wings"],"bee_group":{"antennae":"A","wings":"2","pattern":"X","legs":"X"},"action":"harvest","summary":"good-harvest","bonus":1.5000000000000009},{"rt":1314.300000011921,"stimulus":"\n                    <p><b>Action: <em>harvest</em></b></p>\n                    <p>This is the bee that you just saw.</p>\n                    <img src=\"bees-with-color/bee-B2DF.svg\" width=\"200\">\n                    <p><span class=\"greenText\"><b>Successful harvest!</b></span><br>Your pay has increased by $0.02. Your bonus pay is now $0.64.</p>\n            ","response":0,"trial_type":"html-button-response","trial_index":22,"time_elapsed":565408,"internal_node_id":"0.0-4.0-1.7","subject_id":"5fac1a3e935a7d133be5a4d7","study_id":"60edd13110225f80f9f3709b","session_id":"6196c4a5ca708fba99166d2a","condition":"contingent","relevant_dimensions":["antennae","wings"],"bee_group":{"antennae":"A","wings":"2","pattern":"X","legs":"X"},"bonus":1.5000000000000009},{"rt":1379.6000000238419,"stimulus":"bees-with-color/bee-A1SM.svg","response":1,"trial_type":"image-button-response","trial_index":23,"time_elapsed":566789,"internal_node_id":"0.0-4.0-0.8","subject_id":"5fac1a3e935a7d133be5a4d7","study_id":"60edd13110225f80f9f3709b","session_id":"6196c4a5ca708fba99166d2a","condition":"contingent","relevant_dimensions":["antennae","wings"],"bee_group":{"antennae":"A","wings":"2","pattern":"X","legs":"X"},"action":"avoid","summary":"bad-avoid","bonus":1.5000000000000009},{"rt":1043.0999999642372,"stimulus":"\n                    <p><b>Action: <em>avoid</em></b></p>\n                    <p>This is the bee that you just saw.</p>\n                    <img src=\"bees-with-color/bee-A1SM.svg\" width=\"200\">\n                    <p><br>Your bonus pay is unchanged, and remains at $0.64.</p>\n            ","response":0,"trial_type":"html-button-response","trial_index":24,"time_elapsed":567834,"internal_node_id":"0.0-4.0-1.8","subject_id":"5fac1a3e935a7d133be5a4d7","study_id":"60edd13110225f80f9f3709b","session_id":"6196c4a5ca708fba99166d2a","condition":"contingent","relevant_dimensions":["antennae","wings"],"bee_group":{"antennae":"A","wings":"2","pattern":"X","legs":"X"},"bonus":1.5000000000000009},{"rt":921.1999999880791,"stimulus":"bees-with-color/bee-A2SF.svg","response":1,"trial_type":"image-button-response","trial_index":25,"time_elapsed":568756,"internal_node_id":"0.0-4.0-0.9","subject_id":"5fac1a3e935a7d133be5a4d7","study_id":"60edd13110225f80f9f3709b","session_id":"6196c4a5ca708fba99166d2a","condition":"contingent","relevant_dimensions":["antennae","wings"],"bee_group":{"antennae":"A","wings":"2","pattern":"X","legs":"X"},"action":"avoid","summary":"good-avoid","bonus":1.5000000000000009},{"rt":576.6000000238419,"stimulus":"\n                    <p><b>Action: <em>avoid</em></b></p>\n                    <p>This is the bee that you just saw.</p>\n                    <img src=\"bees-with-color/bee-A2SF.svg\" width=\"200\">\n                    <p><br>Your bonus pay is unchanged, and remains at $0.64.</p>\n            ","response":0,"trial_type":"html-button-response","trial_index":26,"time_elapsed":569334,"internal_node_id":"0.0-4.0-1.9","subject_id":"5fac1a3e935a7d133be5a4d7","study_id":"60edd13110225f80f9f3709b","session_id":"6196c4a5ca708fba99166d2a","condition":"contingent","relevant_dimensions":["antennae","wings"],"bee_group":{"antennae":"A","wings":"2","pattern":"X","legs":"X"},"bonus":1.5000000000000009},{"rt":1012,"stimulus":"bees-with-color/bee-B2DM.svg","response":0,"trial_type":"image-button-response","trial_index":27,"time_elapsed":570347,"internal_node_id":"0.0-4.0-0.10","subject_id":"5fac1a3e935a7d133be5a4d7","study_id":"60edd13110225f80f9f3709b","session_id":"6196c4a5ca708fba99166d2a","condition":"contingent","relevant_dimensions":["antennae","wings"],"bee_group":{"antennae":"A","wings":"2","pattern":"X","legs":"X"},"action":"harvest","summary":"good-harvest","bonus":1.5000000000000009},{"rt":1027.0999999642372,"stimulus":"\n                    <p><b>Action: <em>harvest</em></b></p>\n                    <p>This is the bee that you just saw.</p>\n                    <img src=\"bees-with-color/bee-B2DM.svg\" width=\"200\">\n                    <p><span class=\"greenText\"><b>Successful harvest!</b></span><br>Your pay has increased by $0.02. Your bonus pay is now $0.66.</p>\n            ","response":0,"trial_type":"html-button-response","trial_index":28,"time_elapsed":571376,"internal_node_id":"0.0-4.0-1.10","subject_id":"5fac1a3e935a7d133be5a4d7","study_id":"60edd13110225f80f9f3709b","session_id":"6196c4a5ca708fba99166d2a","condition":"contingent","relevant_dimensions":["antennae","wings"],"bee_group":{"antennae":"A","wings":"2","pattern":"X","legs":"X"},"bonus":1.5000000000000009},{"rt":866.1000000238419,"stimulus":"bees-with-color/bee-B1SF.svg","response":0,"trial_type":"image-button-response","trial_index":29,"time_elapsed":572244,"internal_node_id":"0.0-4.0-0.11","subject_id":"5fac1a3e935a7d133be5a4d7","study_id":"60edd13110225f80f9f3709b","session_id":"6196c4a5ca708fba99166d2a","condition":"contingent","relevant_dimensions":["antennae","wings"],"bee_group":{"antennae":"A","wings":"2","pattern":"X","legs":"X"},"action":"harvest","summary":"good-harvest","bonus":1.5000000000000009},{"rt":802.4000000357628,"stimulus":"\n                    <p><b>Action: <em>harvest</em></b></p>\n                    <p>This is the bee that you just saw.</p>\n                    <img src=\"bees-with-color/bee-B1SF.svg\" width=\"200\">\n                    <p><span class=\"greenText\"><b>Successful harvest!</b></span><br>Your pay has increased by $0.02. Your bonus pay is now $0.68.</p>\n            ","response":0,"trial_type":"html-button-response","trial_index":30,"time_elapsed":573047,"internal_node_id":"0.0-4.0-1.11","subject_id":"5fac1a3e935a7d133be5a4d7","study_id":"60edd13110225f80f9f3709b","session_id":"6196c4a5ca708fba99166d2a","condition":"contingent","relevant_dimensions":["antennae","wings"],"bee_group":{"antennae":"A","wings":"2","pattern":"X","legs":"X"},"bonus":1.5000000000000009},{"rt":942.4000000357628,"stimulus":"bees-with-color/bee-B2SM.svg","response":0,"trial_type":"image-button-response","trial_index":31,"time_elapsed":573991,"internal_node_id":"0.0-4.0-0.12","subject_id":"5fac1a3e935a7d133be5a4d7","study_id":"60edd13110225f80f9f3709b","session_id":"6196c4a5ca708fba99166d2a","condition":"contingent","relevant_dimensions":["antennae","wings"],"bee_group":{"antennae":"A","wings":"2","pattern":"X","legs":"X"},"action":"harvest","summary":"good-harvest","bonus":1.5000000000000009},{"rt":621.8999999761581,"stimulus":"\n                    <p><b>Action: <em>harvest</em></b></p>\n                    <p>This is the bee that you just saw.</p>\n                    <img src=\"bees-with-color/bee-B2SM.svg\" width=\"200\">\n                    <p><span class=\"greenText\"><b>Successful harvest!</b></span><br>Your pay has increased by $0.02. Your bonus pay is now $0.70.</p>\n            ","response":0,"trial_type":"html-button-response","trial_index":32,"time_elapsed":574614,"internal_node_id":"0.0-4.0-1.12","subject_id":"5fac1a3e935a7d133be5a4d7","study_id":"60edd13110225f80f9f3709b","session_id":"6196c4a5ca708fba99166d2a","condition":"contingent","relevant_dimensions":["antennae","wings"],"bee_group":{"antennae":"A","wings":"2","pattern":"X","legs":"X"},"bonus":1.5000000000000009},{"rt":1549.5999999642372,"stimulus":"bees-with-color/bee-A2DF.svg","response":1,"trial_type":"image-button-response","trial_index":33,"time_elapsed":576165,"internal_node_id":"0.0-4.0-0.13","subject_id":"5fac1a3e935a7d133be5a4d7","study_id":"60edd13110225f80f9f3709b","session_id":"6196c4a5ca708fba99166d2a","condition":"contingent","relevant_dimensions":["antennae","wings"],"bee_group":{"antennae":"A","wings":"2","pattern":"X","legs":"X"},"action":"avoid","summary":"good-avoid","bonus":1.5000000000000009},{"rt":793.5999999642372,"stimulus":"\n                    <p><b>Action: <em>avoid</em></b></p>\n                    <p>This is the bee that you just saw.</p>\n                    <img src=\"bees-with-color/bee-A2DF.svg\" width=\"200\">\n                    <p><br>Your bonus pay is unchanged, and remains at $0.70.</p>\n            ","response":0,"trial_type":"html-button-response","trial_index":34,"time_elapsed":576960,"internal_node_id":"0.0-4.0-1.13","subject_id":"5fac1a3e935a7d133be5a4d7","study_id":"60edd13110225f80f9f3709b","session_id":"6196c4a5ca708fba99166d2a","condition":"contingent","relevant_dimensions":["antennae","wings"],"bee_group":{"antennae":"A","wings":"2","pattern":"X","legs":"X"},"bonus":1.5000000000000009},{"rt":939.6999999880791,"stimulus":"bees-with-color/bee-A1SF.svg","response":1,"trial_type":"image-button-response","trial_index":35,"time_elapsed":577901,"internal_node_id":"0.0-4.0-0.14","subject_id":"5fac1a3e935a7d133be5a4d7","study_id":"60edd13110225f80f9f3709b","session_id":"6196c4a5ca708fba99166d2a","condition":"contingent","relevant_dimensions":["antennae","wings"],"bee_group":{"antennae":"A","wings":"2","pattern":"X","legs":"X"},"action":"avoid","summary":"bad-avoid","bonus":1.5000000000000009},{"rt":520.1999999880791,"stimulus":"\n                    <p><b>Action: <em>avoid</em></b></p>\n                    <p>This is the bee that you just saw.</p>\n                    <img src=\"bees-with-color/bee-A1SF.svg\" width=\"200\">\n                    <p><br>Your bonus pay is unchanged, and remains at $0.70.</p>\n            ","response":0,"trial_type":"html-button-response","trial_index":36,"time_elapsed":578423,"internal_node_id":"0.0-4.0-1.14","subject_id":"5fac1a3e935a7d133be5a4d7","study_id":"60edd13110225f80f9f3709b","session_id":"6196c4a5ca708fba99166d2a","condition":"contingent","relevant_dimensions":["antennae","wings"],"bee_group":{"antennae":"A","wings":"2","pattern":"X","legs":"X"},"bonus":1.5000000000000009},{"rt":992.4000000357628,"stimulus":"bees-with-color/bee-A1DM.svg","response":1,"trial_type":"image-button-response","trial_index":37,"time_elapsed":579418,"internal_node_id":"0.0-4.0-0.15","subject_id":"5fac1a3e935a7d133be5a4d7","study_id":"60edd13110225f80f9f3709b","session_id":"6196c4a5ca708fba99166d2a","condition":"contingent","relevant_dimensions":["antennae","wings"],"bee_group":{"antennae":"A","wings":"2","pattern":"X","legs":"X"},"action":"avoid","summary":"bad-avoid","bonus":1.5000000000000009},{"rt":647.1000000238419,"stimulus":"\n                    <p><b>Action: <em>avoid</em></b></p>\n                    <p>This is the bee that you just saw.</p>\n                    <img src=\"bees-with-color/bee-A1DM.svg\" width=\"200\">\n                    <p><br>Your bonus pay is unchanged, and remains at $0.70.</p>\n            ","response":0,"trial_type":"html-button-response","trial_index":38,"time_elapsed":580067,"internal_node_id":"0.0-4.0-1.15","subject_id":"5fac1a3e935a7d133be5a4d7","study_id":"60edd13110225f80f9f3709b","session_id":"6196c4a5ca708fba99166d2a","condition":"contingent","relevant_dimensions":["antennae","wings"],"bee_group":{"antennae":"A","wings":"2","pattern":"X","legs":"X"},"bonus":1.5000000000000009},{"rt":1410.3999999761581,"stimulus":"bees-with-color/bee-B1DF.svg","response":0,"trial_type":"image-button-response","trial_index":39,"time_elapsed":581479,"internal_node_id":"0.0-4.0-0.16","subject_id":"5fac1a3e935a7d133be5a4d7","study_id":"60edd13110225f80f9f3709b","session_id":"6196c4a5ca708fba99166d2a","condition":"contingent","relevant_dimensions":["antennae","wings"],"bee_group":{"antennae":"A","wings":"2","pattern":"X","legs":"X"},"action":"harvest","summary":"good-harvest","bonus":1.5000000000000009},{"rt":868.2000000476837,"stimulus":"\n                    <p><b>Action: <em>harvest</em></b></p>\n                    <p>This is the bee that you just saw.</p>\n                    <img src=\"bees-with-color/bee-B1DF.svg\" width=\"200\">\n                    <p><span class=\"greenText\"><b>Successful harvest!</b></span><br>Your pay has increased by $0.02. Your bonus pay is now $0.72.</p>\n            ","response":0,"trial_type":"html-button-response","trial_index":40,"time_elapsed":582349,"internal_node_id":"0.0-4.0-1.16","subject_id":"5fac1a3e935a7d133be5a4d7","study_id":"60edd13110225f80f9f3709b","session_id":"6196c4a5ca708fba99166d2a","condition":"contingent","relevant_dimensions":["antennae","wings"],"bee_group":{"antennae":"A","wings":"2","pattern":"X","legs":"X"},"bonus":1.5000000000000009},{"rt":983.1999999880791,"stimulus":"bees-with-color/bee-A1DM.svg","response":1,"trial_type":"image-button-response","trial_index":41,"time_elapsed":583334,"internal_node_id":"0.0-4.0-0.17","subject_id":"5fac1a3e935a7d133be5a4d7","study_id":"60edd13110225f80f9f3709b","session_id":"6196c4a5ca708fba99166d2a","condition":"contingent","relevant_dimensions":["antennae","wings"],"bee_group":{"antennae":"A","wings":"2","pattern":"X","legs":"X"},"action":"avoid","summary":"bad-avoid","bonus":1.5000000000000009},{"rt":755.1000000238419,"stimulus":"\n                    <p><b>Action: <em>avoid</em></b></p>\n                    <p>This is the bee that you just saw.</p>\n                    <img src=\"bees-with-color/bee-A1DM.svg\" width=\"200\">\n                    <p><br>Your bonus pay is unchanged, and remains at $0.72.</p>\n            ","response":0,"trial_type":"html-button-response","trial_index":42,"time_elapsed":584092,"internal_node_id":"0.0-4.0-1.17","subject_id":"5fac1a3e935a7d133be5a4d7","study_id":"60edd13110225f80f9f3709b","session_id":"6196c4a5ca708fba99166d2a","condition":"contingent","relevant_dimensions":["antennae","wings"],"bee_group":{"antennae":"A","wings":"2","pattern":"X","legs":"X"},"bonus":1.5000000000000009},{"rt":1088.1000000238419,"stimulus":"bees-with-color/bee-B1DM.svg","response":0,"trial_type":"image-button-response","trial_index":43,"time_elapsed":585182,"internal_node_id":"0.0-4.0-0.18","subject_id":"5fac1a3e935a7d133be5a4d7","study_id":"60edd13110225f80f9f3709b","session_id":"6196c4a5ca708fba99166d2a","condition":"contingent","relevant_dimensions":["antennae","wings"],"bee_group":{"antennae":"A","wings":"2","pattern":"X","legs":"X"},"action":"harvest","summary":"good-harvest","bonus":1.5000000000000009},{"rt":1073.8999999761581,"stimulus":"\n                    <p><b>Action: <em>harvest</em></b></p>\n                    <p>This is the bee that you just saw.</p>\n                    <img src=\"bees-with-color/bee-B1DM.svg\" width=\"200\">\n                    <p><span class=\"greenText\"><b>Successful harvest!</b></span><br>Your pay has increased by $0.02. Your bonus pay is now $0.74.</p>\n            ","response":0,"trial_type":"html-button-response","trial_index":44,"time_elapsed":586257,"internal_node_id":"0.0-4.0-1.18","subject_id":"5fac1a3e935a7d133be5a4d7","study_id":"60edd13110225f80f9f3709b","session_id":"6196c4a5ca708fba99166d2a","condition":"contingent","relevant_dimensions":["antennae","wings"],"bee_group":{"antennae":"A","wings":"2","pattern":"X","legs":"X"},"bonus":1.5000000000000009},{"rt":3106.600000023842,"stimulus":"bees-with-color/bee-A2SM.svg","response":1,"trial_type":"image-button-response","trial_index":45,"time_elapsed":589366,"internal_node_id":"0.0-4.0-0.19","subject_id":"5fac1a3e935a7d133be5a4d7","study_id":"60edd13110225f80f9f3709b","session_id":"6196c4a5ca708fba99166d2a","condition":"contingent","relevant_dimensions":["antennae","wings"],"bee_group":{"antennae":"A","wings":"2","pattern":"X","legs":"X"},"action":"avoid","summary":"good-avoid","bonus":1.5000000000000009},{"rt":1988.800000011921,"stimulus":"\n                    <p><b>Action: <em>avoid</em></b></p>\n                    <p>This is the bee that you just saw.</p>\n                    <img src=\"bees-with-color/bee-A2SM.svg\" width=\"200\">\n                    <p><br>Your bonus pay is unchanged, and remains at $0.74.</p>\n            ","response":0,"trial_type":"html-button-response","trial_index":46,"time_elapsed":591356,"internal_node_id":"0.0-4.0-1.19","subject_id":"5fac1a3e935a7d133be5a4d7","study_id":"60edd13110225f80f9f3709b","session_id":"6196c4a5ca708fba99166d2a","condition":"contingent","relevant_dimensions":["antennae","wings"],"bee_group":{"antennae":"A","wings":"2","pattern":"X","legs":"X"},"bonus":1.5000000000000009},{"rt":1027.699999988079,"stimulus":"bees-with-color/bee-B2DM.svg","response":0,"trial_type":"image-button-response","trial_index":47,"time_elapsed":592385,"internal_node_id":"0.0-4.0-0.20","subject_id":"5fac1a3e935a7d133be5a4d7","study_id":"60edd13110225f80f9f3709b","session_id":"6196c4a5ca708fba99166d2a","condition":"contingent","relevant_dimensions":["antennae","wings"],"bee_group":{"antennae":"A","wings":"2","pattern":"X","legs":"X"},"action":"harvest","summary":"good-harvest","bonus":1.5000000000000009},{"rt":662,"stimulus":"\n                    <p><b>Action: <em>harvest</em></b></p>\n                    <p>This is the bee that you just saw.</p>\n                    <img src=\"bees-with-color/bee-B2DM.svg\" width=\"200\">\n                    <p><span class=\"greenText\"><b>Successful harvest!</b></span><br>Your pay has increased by $0.02. Your bonus pay is now $0.76.</p>\n            ","response":0,"trial_type":"html-button-response","trial_index":48,"time_elapsed":593049,"internal_node_id":"0.0-4.0-1.20","subject_id":"5fac1a3e935a7d133be5a4d7","study_id":"60edd13110225f80f9f3709b","session_id":"6196c4a5ca708fba99166d2a","condition":"contingent","relevant_dimensions":["antennae","wings"],"bee_group":{"antennae":"A","wings":"2","pattern":"X","legs":"X"},"bonus":1.5000000000000009},{"rt":1271.5999999642372,"stimulus":"bees-with-color/bee-A2DF.svg","response":1,"trial_type":"image-button-response","trial_index":49,"time_elapsed":594321,"internal_node_id":"0.0-4.0-0.21","subject_id":"5fac1a3e935a7d133be5a4d7","study_id":"60edd13110225f80f9f3709b","session_id":"6196c4a5ca708fba99166d2a","condition":"contingent","relevant_dimensions":["antennae","wings"],"bee_group":{"antennae":"A","wings":"2","pattern":"X","legs":"X"},"action":"avoid","summary":"good-avoid","bonus":1.5000000000000009},{"rt":627.5999999642372,"stimulus":"\n                    <p><b>Action: <em>avoid</em></b></p>\n                    <p>This is the bee that you just saw.</p>\n                    <img src=\"bees-with-color/bee-A2DF.svg\" width=\"200\">\n                    <p><br>Your bonus pay is unchanged, and remains at $0.76.</p>\n            ","response":0,"trial_type":"html-button-response","trial_index":50,"time_elapsed":594950,"internal_node_id":"0.0-4.0-1.21","subject_id":"5fac1a3e935a7d133be5a4d7","study_id":"60edd13110225f80f9f3709b","session_id":"6196c4a5ca708fba99166d2a","condition":"contingent","relevant_dimensions":["antennae","wings"],"bee_group":{"antennae":"A","wings":"2","pattern":"X","legs":"X"},"bonus":1.5000000000000009},{"rt":1495.7999999523163,"stimulus":"bees-with-color/bee-B1SM.svg","response":0,"trial_type":"image-button-response","trial_index":51,"time_elapsed":596447,"internal_node_id":"0.0-4.0-0.22","subject_id":"5fac1a3e935a7d133be5a4d7","study_id":"60edd13110225f80f9f3709b","session_id":"6196c4a5ca708fba99166d2a","condition":"contingent","relevant_dimensions":["antennae","wings"],"bee_group":{"antennae":"A","wings":"2","pattern":"X","legs":"X"},"action":"harvest","summary":"good-harvest","bonus":1.5000000000000009},{"rt":757.3999999761581,"stimulus":"\n                    <p><b>Action: <em>harvest</em></b></p>\n                    <p>This is the bee that you just saw.</p>\n                    <img src=\"bees-with-color/bee-B1SM.svg\" width=\"200\">\n                    <p><span class=\"greenText\"><b>Successful harvest!</b></span><br>Your pay has increased by $0.02. Your bonus pay is now $0.78.</p>\n            ","response":0,"trial_type":"html-button-response","trial_index":52,"time_elapsed":597206,"internal_node_id":"0.0-4.0-1.22","subject_id":"5fac1a3e935a7d133be5a4d7","study_id":"60edd13110225f80f9f3709b","session_id":"6196c4a5ca708fba99166d2a","condition":"contingent","relevant_dimensions":["antennae","wings"],"bee_group":{"antennae":"A","wings":"2","pattern":"X","legs":"X"},"bonus":1.5000000000000009},{"rt":1176.8999999761581,"stimulus":"bees-with-color/bee-B2DF.svg","response":0,"trial_type":"image-button-response","trial_index":53,"time_elapsed":598384,"internal_node_id":"0.0-4.0-0.23","subject_id":"5fac1a3e935a7d133be5a4d7","study_id":"60edd13110225f80f9f3709b","session_id":"6196c4a5ca708fba99166d2a","condition":"contingent","relevant_dimensions":["antennae","wings"],"bee_group":{"antennae":"A","wings":"2","pattern":"X","legs":"X"},"action":"harvest","summary":"good-harvest","bonus":1.5000000000000009},{"rt":982,"stimulus":"\n                    <p><b>Action: <em>harvest</em></b></p>\n                    <p>This is the bee that you just saw.</p>\n                    <img src=\"bees-with-color/bee-B2DF.svg\" width=\"200\">\n                    <p><span class=\"greenText\"><b>Successful harvest!</b></span><br>Your pay has increased by $0.02. Your bonus pay is now $0.80.</p>\n            ","response":0,"trial_type":"html-button-response","trial_index":54,"time_elapsed":599368,"internal_node_id":"0.0-4.0-1.23","subject_id":"5fac1a3e935a7d133be5a4d7","study_id":"60edd13110225f80f9f3709b","session_id":"6196c4a5ca708fba99166d2a","condition":"contingent","relevant_dimensions":["antennae","wings"],"bee_group":{"antennae":"A","wings":"2","pattern":"X","legs":"X"},"bonus":1.5000000000000009},{"rt":2342.699999988079,"stimulus":"bees-with-color/bee-A1SM.svg","response":1,"trial_type":"image-button-response","trial_index":55,"time_elapsed":601712,"internal_node_id":"0.0-4.0-0.24","subject_id":"5fac1a3e935a7d133be5a4d7","study_id":"60edd13110225f80f9f3709b","session_id":"6196c4a5ca708fba99166d2a","condition":"contingent","relevant_dimensions":["antennae","wings"],"bee_group":{"antennae":"A","wings":"2","pattern":"X","legs":"X"},"action":"avoid","summary":"bad-avoid","bonus":1.5000000000000009},{"rt":1479.699999988079,"stimulus":"\n                    <p><b>Action: <em>avoid</em></b></p>\n                    <p>This is the bee that you just saw.</p>\n                    <img src=\"bees-with-color/bee-A1SM.svg\" width=\"200\">\n                    <p><br>Your bonus pay is unchanged, and remains at $0.80.</p>\n            ","response":0,"trial_type":"html-button-response","trial_index":56,"time_elapsed":603193,"internal_node_id":"0.0-4.0-1.24","subject_id":"5fac1a3e935a7d133be5a4d7","study_id":"60edd13110225f80f9f3709b","session_id":"6196c4a5ca708fba99166d2a","condition":"contingent","relevant_dimensions":["antennae","wings"],"bee_group":{"antennae":"A","wings":"2","pattern":"X","legs":"X"},"bonus":1.5000000000000009},{"rt":891.8000000119209,"stimulus":"bees-with-color/bee-B1SF.svg","response":0,"trial_type":"image-button-response","trial_index":57,"time_elapsed":604087,"internal_node_id":"0.0-4.0-0.25","subject_id":"5fac1a3e935a7d133be5a4d7","study_id":"60edd13110225f80f9f3709b","session_id":"6196c4a5ca708fba99166d2a","condition":"contingent","relevant_dimensions":["antennae","wings"],"bee_group":{"antennae":"A","wings":"2","pattern":"X","legs":"X"},"action":"harvest","summary":"good-harvest","bonus":1.5000000000000009},{"rt":748.8000000119209,"stimulus":"\n                    <p><b>Action: <em>harvest</em></b></p>\n                    <p>This is the bee that you just saw.</p>\n                    <img src=\"bees-with-color/bee-B1SF.svg\" width=\"200\">\n                    <p><span class=\"greenText\"><b>Successful harvest!</b></span><br>Your pay has increased by $0.02. Your bonus pay is now $0.82.</p>\n            ","response":0,"trial_type":"html-button-response","trial_index":58,"time_elapsed":604837,"internal_node_id":"0.0-4.0-1.25","subject_id":"5fac1a3e935a7d133be5a4d7","study_id":"60edd13110225f80f9f3709b","session_id":"6196c4a5ca708fba99166d2a","condition":"contingent","relevant_dimensions":["antennae","wings"],"bee_group":{"antennae":"A","wings":"2","pattern":"X","legs":"X"},"bonus":1.5000000000000009},{"rt":1282.800000011921,"stimulus":"bees-with-color/bee-A2DM.svg","response":1,"trial_type":"image-button-response","trial_index":59,"time_elapsed":606122,"internal_node_id":"0.0-4.0-0.26","subject_id":"5fac1a3e935a7d133be5a4d7","study_id":"60edd13110225f80f9f3709b","session_id":"6196c4a5ca708fba99166d2a","condition":"contingent","relevant_dimensions":["antennae","wings"],"bee_group":{"antennae":"A","wings":"2","pattern":"X","legs":"X"},"action":"avoid","summary":"good-avoid","bonus":1.5000000000000009},{"rt":836.8999999761581,"stimulus":"\n                    <p><b>Action: <em>avoid</em></b></p>\n                    <p>This is the bee that you just saw.</p>\n                    <img src=\"bees-with-color/bee-A2DM.svg\" width=\"200\">\n                    <p><br>Your bonus pay is unchanged, and remains at $0.82.</p>\n            ","response":0,"trial_type":"html-button-response","trial_index":60,"time_elapsed":606960,"internal_node_id":"0.0-4.0-1.26","subject_id":"5fac1a3e935a7d133be5a4d7","study_id":"60edd13110225f80f9f3709b","session_id":"6196c4a5ca708fba99166d2a","condition":"contingent","relevant_dimensions":["antennae","wings"],"bee_group":{"antennae":"A","wings":"2","pattern":"X","legs":"X"},"bonus":1.5000000000000009},{"rt":823.7999999523163,"stimulus":"bees-with-color/bee-A2SF.svg","response":1,"trial_type":"image-button-response","trial_index":61,"time_elapsed":607786,"internal_node_id":"0.0-4.0-0.27","subject_id":"5fac1a3e935a7d133be5a4d7","study_id":"60edd13110225f80f9f3709b","session_id":"6196c4a5ca708fba99166d2a","condition":"contingent","relevant_dimensions":["antennae","wings"],"bee_group":{"antennae":"A","wings":"2","pattern":"X","legs":"X"},"action":"avoid","summary":"good-avoid","bonus":1.5000000000000009},{"rt":517.8000000119209,"stimulus":"\n                    <p><b>Action: <em>avoid</em></b></p>\n                    <p>This is the bee that you just saw.</p>\n                    <img src=\"bees-with-color/bee-A2SF.svg\" width=\"200\">\n                    <p><br>Your bonus pay is unchanged, and remains at $0.82.</p>\n            ","response":0,"trial_type":"html-button-response","trial_index":62,"time_elapsed":608306,"internal_node_id":"0.0-4.0-1.27","subject_id":"5fac1a3e935a7d133be5a4d7","study_id":"60edd13110225f80f9f3709b","session_id":"6196c4a5ca708fba99166d2a","condition":"contingent","relevant_dimensions":["antennae","wings"],"bee_group":{"antennae":"A","wings":"2","pattern":"X","legs":"X"},"bonus":1.5000000000000009},{"rt":993.0999999642372,"stimulus":"bees-with-color/bee-A1DF.svg","response":1,"trial_type":"image-button-response","trial_index":63,"time_elapsed":609300,"internal_node_id":"0.0-4.0-0.28","subject_id":"5fac1a3e935a7d133be5a4d7","study_id":"60edd13110225f80f9f3709b","session_id":"6196c4a5ca708fba99166d2a","condition":"contingent","relevant_dimensions":["antennae","wings"],"bee_group":{"antennae":"A","wings":"2","pattern":"X","legs":"X"},"action":"avoid","summary":"bad-avoid","bonus":1.5000000000000009},{"rt":471.5,"stimulus":"\n                    <p><b>Action: <em>avoid</em></b></p>\n                    <p>This is the bee that you just saw.</p>\n                    <img src=\"bees-with-color/bee-A1DF.svg\" width=\"200\">\n                    <p><br>Your bonus pay is unchanged, and remains at $0.82.</p>\n            ","response":0,"trial_type":"html-button-response","trial_index":64,"time_elapsed":609773,"internal_node_id":"0.0-4.0-1.28","subject_id":"5fac1a3e935a7d133be5a4d7","study_id":"60edd13110225f80f9f3709b","session_id":"6196c4a5ca708fba99166d2a","condition":"contingent","relevant_dimensions":["antennae","wings"],"bee_group":{"antennae":"A","wings":"2","pattern":"X","legs":"X"},"bonus":1.5000000000000009},{"rt":1038.5,"stimulus":"bees-with-color/bee-B2SM.svg","response":0,"trial_type":"image-button-response","trial_index":65,"time_elapsed":610813,"internal_node_id":"0.0-4.0-0.29","subject_id":"5fac1a3e935a7d133be5a4d7","study_id":"60edd13110225f80f9f3709b","session_id":"6196c4a5ca708fba99166d2a","condition":"contingent","relevant_dimensions":["antennae","wings"],"bee_group":{"antennae":"A","wings":"2","pattern":"X","legs":"X"},"action":"harvest","summary":"good-harvest","bonus":1.5000000000000009},{"rt":646.7999999523163,"stimulus":"\n                    <p><b>Action: <em>harvest</em></b></p>\n                    <p>This is the bee that you just saw.</p>\n                    <img src=\"bees-with-color/bee-B2SM.svg\" width=\"200\">\n                    <p><span class=\"greenText\"><b>Successful harvest!</b></span><br>Your pay has increased by $0.02. Your bonus pay is now $0.84.</p>\n            ","response":0,"trial_type":"html-button-response","trial_index":66,"time_elapsed":611461,"internal_node_id":"0.0-4.0-1.29","subject_id":"5fac1a3e935a7d133be5a4d7","study_id":"60edd13110225f80f9f3709b","session_id":"6196c4a5ca708fba99166d2a","condition":"contingent","relevant_dimensions":["antennae","wings"],"bee_group":{"antennae":"A","wings":"2","pattern":"X","legs":"X"},"bonus":1.5000000000000009},{"rt":854.5,"stimulus":"bees-with-color/bee-B2SF.svg","response":0,"trial_type":"image-button-response","trial_index":67,"time_elapsed":612317,"internal_node_id":"0.0-4.0-0.30","subject_id":"5fac1a3e935a7d133be5a4d7","study_id":"60edd13110225f80f9f3709b","session_id":"6196c4a5ca708fba99166d2a","condition":"contingent","relevant_dimensions":["antennae","wings"],"bee_group":{"antennae":"A","wings":"2","pattern":"X","legs":"X"},"action":"harvest","summary":"good-harvest","bonus":1.5000000000000009},{"rt":768.3999999761581,"stimulus":"\n                    <p><b>Action: <em>harvest</em></b></p>\n                    <p>This is the bee that you just saw.</p>\n                    <img src=\"bees-with-color/bee-B2SF.svg\" width=\"200\">\n                    <p><span class=\"greenText\"><b>Successful harvest!</b></span><br>Your pay has increased by $0.02. Your bonus pay is now $0.86.</p>\n            ","response":0,"trial_type":"html-button-response","trial_index":68,"time_elapsed":613087,"internal_node_id":"0.0-4.0-1.30","subject_id":"5fac1a3e935a7d133be5a4d7","study_id":"60edd13110225f80f9f3709b","session_id":"6196c4a5ca708fba99166d2a","condition":"contingent","relevant_dimensions":["antennae","wings"],"bee_group":{"antennae":"A","wings":"2","pattern":"X","legs":"X"},"bonus":1.5000000000000009},{"rt":909.6000000238419,"stimulus":"bees-with-color/bee-A1SF.svg","response":1,"trial_type":"image-button-response","trial_index":69,"time_elapsed":613999,"internal_node_id":"0.0-4.0-0.31","subject_id":"5fac1a3e935a7d133be5a4d7","study_id":"60edd13110225f80f9f3709b","session_id":"6196c4a5ca708fba99166d2a","condition":"contingent","relevant_dimensions":["antennae","wings"],"bee_group":{"antennae":"A","wings":"2","pattern":"X","legs":"X"},"action":"avoid","summary":"bad-avoid","bonus":1.5000000000000009},{"rt":552.3999999761581,"stimulus":"\n                    <p><b>Action: <em>avoid</em></b></p>\n                    <p>This is the bee that you just saw.</p>\n                    <img src=\"bees-with-color/bee-A1SF.svg\" width=\"200\">\n                    <p><br>Your bonus pay is unchanged, and remains at $0.86.</p>\n            ","response":0,"trial_type":"html-button-response","trial_index":70,"time_elapsed":614553,"internal_node_id":"0.0-4.0-1.31","subject_id":"5fac1a3e935a7d133be5a4d7","study_id":"60edd13110225f80f9f3709b","session_id":"6196c4a5ca708fba99166d2a","condition":"contingent","relevant_dimensions":["antennae","wings"],"bee_group":{"antennae":"A","wings":"2","pattern":"X","legs":"X"},"bonus":1.5000000000000009},{"rt":949.6999999880791,"stimulus":"bees-with-color/bee-B2DF.svg","response":0,"trial_type":"image-button-response","trial_index":71,"time_elapsed":615504,"internal_node_id":"0.0-4.0-0.32","subject_id":"5fac1a3e935a7d133be5a4d7","study_id":"60edd13110225f80f9f3709b","session_id":"6196c4a5ca708fba99166d2a","condition":"contingent","relevant_dimensions":["antennae","wings"],"bee_group":{"antennae":"A","wings":"2","pattern":"X","legs":"X"},"action":"harvest","summary":"good-harvest","bonus":1.5000000000000009},{"rt":728.8000000119209,"stimulus":"\n                    <p><b>Action: <em>harvest</em></b></p>\n                    <p>This is the bee that you just saw.</p>\n                    <img src=\"bees-with-color/bee-B2DF.svg\" width=\"200\">\n                    <p><span class=\"greenText\"><b>Successful harvest!</b></span><br>Your pay has increased by $0.02. Your bonus pay is now $0.88.</p>\n            ","response":0,"trial_type":"html-button-response","trial_index":72,"time_elapsed":616234,"internal_node_id":"0.0-4.0-1.32","subject_id":"5fac1a3e935a7d133be5a4d7","study_id":"60edd13110225f80f9f3709b","session_id":"6196c4a5ca708fba99166d2a","condition":"contingent","relevant_dimensions":["antennae","wings"],"bee_group":{"antennae":"A","wings":"2","pattern":"X","legs":"X"},"bonus":1.5000000000000009},{"rt":842,"stimulus":"bees-with-color/bee-B2DM.svg","response":0,"trial_type":"image-button-response","trial_index":73,"time_elapsed":617077,"internal_node_id":"0.0-4.0-0.33","subject_id":"5fac1a3e935a7d133be5a4d7","study_id":"60edd13110225f80f9f3709b","session_id":"6196c4a5ca708fba99166d2a","condition":"contingent","relevant_dimensions":["antennae","wings"],"bee_group":{"antennae":"A","wings":"2","pattern":"X","legs":"X"},"action":"harvest","summary":"good-harvest","bonus":1.5000000000000009},{"rt":447.80000001192093,"stimulus":"\n                    <p><b>Action: <em>harvest</em></b></p>\n                    <p>This is the bee that you just saw.</p>\n                    <img src=\"bees-with-color/bee-B2DM.svg\" width=\"200\">\n                    <p><span class=\"greenText\"><b>Successful harvest!</b></span><br>Your pay has increased by $0.02. Your bonus pay is now $0.90.</p>\n            ","response":0,"trial_type":"html-button-response","trial_index":74,"time_elapsed":617527,"internal_node_id":"0.0-4.0-1.33","subject_id":"5fac1a3e935a7d133be5a4d7","study_id":"60edd13110225f80f9f3709b","session_id":"6196c4a5ca708fba99166d2a","condition":"contingent","relevant_dimensions":["antennae","wings"],"bee_group":{"antennae":"A","wings":"2","pattern":"X","legs":"X"},"bonus":1.5000000000000009},{"rt":740.3000000119209,"stimulus":"bees-with-color/bee-B1SF.svg","response":0,"trial_type":"image-button-response","trial_index":75,"time_elapsed":618269,"internal_node_id":"0.0-4.0-0.34","subject_id":"5fac1a3e935a7d133be5a4d7","study_id":"60edd13110225f80f9f3709b","session_id":"6196c4a5ca708fba99166d2a","condition":"contingent","relevant_dimensions":["antennae","wings"],"bee_group":{"antennae":"A","wings":"2","pattern":"X","legs":"X"},"action":"harvest","summary":"good-harvest","bonus":1.5000000000000009},{"rt":504.5,"stimulus":"\n                    <p><b>Action: <em>harvest</em></b></p>\n                    <p>This is the bee that you just saw.</p>\n                    <img src=\"bees-with-color/bee-B1SF.svg\" width=\"200\">\n                    <p><span class=\"greenText\"><b>Successful harvest!</b></span><br>Your pay has increased by $0.02. Your bonus pay is now $0.92.</p>\n            ","response":0,"trial_type":"html-button-response","trial_index":76,"time_elapsed":618774,"internal_node_id":"0.0-4.0-1.34","subject_id":"5fac1a3e935a7d133be5a4d7","study_id":"60edd13110225f80f9f3709b","session_id":"6196c4a5ca708fba99166d2a","condition":"contingent","relevant_dimensions":["antennae","wings"],"bee_group":{"antennae":"A","wings":"2","pattern":"X","legs":"X"},"bonus":1.5000000000000009},{"rt":1395.1000000238419,"stimulus":"bees-with-color/bee-B1DF.svg","response":0,"trial_type":"image-button-response","trial_index":77,"time_elapsed":620171,"internal_node_id":"0.0-4.0-0.35","subject_id":"5fac1a3e935a7d133be5a4d7","study_id":"60edd13110225f80f9f3709b","session_id":"6196c4a5ca708fba99166d2a","condition":"contingent","relevant_dimensions":["antennae","wings"],"bee_group":{"antennae":"A","wings":"2","pattern":"X","legs":"X"},"action":"harvest","summary":"good-harvest","bonus":1.5000000000000009},{"rt":603.4000000357628,"stimulus":"\n                    <p><b>Action: <em>harvest</em></b></p>\n                    <p>This is the bee that you just saw.</p>\n                    <img src=\"bees-with-color/bee-B1DF.svg\" width=\"200\">\n                    <p><span class=\"greenText\"><b>Successful harvest!</b></span><br>Your pay has increased by $0.02. Your bonus pay is now $0.94.</p>\n            ","response":0,"trial_type":"html-button-response","trial_index":78,"time_elapsed":620776,"internal_node_id":"0.0-4.0-1.35","subject_id":"5fac1a3e935a7d133be5a4d7","study_id":"60edd13110225f80f9f3709b","session_id":"6196c4a5ca708fba99166d2a","condition":"contingent","relevant_dimensions":["antennae","wings"],"bee_group":{"antennae":"A","wings":"2","pattern":"X","legs":"X"},"bonus":1.5000000000000009},{"rt":948.3000000119209,"stimulus":"bees-with-color/bee-A2DM.svg","response":1,"trial_type":"image-button-response","trial_index":79,"time_elapsed":621727,"internal_node_id":"0.0-4.0-0.36","subject_id":"5fac1a3e935a7d133be5a4d7","study_id":"60edd13110225f80f9f3709b","session_id":"6196c4a5ca708fba99166d2a","condition":"contingent","relevant_dimensions":["antennae","wings"],"bee_group":{"antennae":"A","wings":"2","pattern":"X","legs":"X"},"action":"avoid","summary":"good-avoid","bonus":1.5000000000000009},{"rt":2180.099999964237,"stimulus":"\n                    <p><b>Action: <em>avoid</em></b></p>\n                    <p>This is the bee that you just saw.</p>\n                    <img src=\"bees-with-color/bee-A2DM.svg\" width=\"200\">\n                    <p><br>Your bonus pay is unchanged, and remains at $0.94.</p>\n            ","response":0,"trial_type":"html-button-response","trial_index":80,"time_elapsed":623908,"internal_node_id":"0.0-4.0-1.36","subject_id":"5fac1a3e935a7d133be5a4d7","study_id":"60edd13110225f80f9f3709b","session_id":"6196c4a5ca708fba99166d2a","condition":"contingent","relevant_dimensions":["antennae","wings"],"bee_group":{"antennae":"A","wings":"2","pattern":"X","legs":"X"},"bonus":1.5000000000000009},{"rt":774.6999999880791,"stimulus":"bees-with-color/bee-A2DF.svg","response":1,"trial_type":"image-button-response","trial_index":81,"time_elapsed":624684,"internal_node_id":"0.0-4.0-0.37","subject_id":"5fac1a3e935a7d133be5a4d7","study_id":"60edd13110225f80f9f3709b","session_id":"6196c4a5ca708fba99166d2a","condition":"contingent","relevant_dimensions":["antennae","wings"],"bee_group":{"antennae":"A","wings":"2","pattern":"X","legs":"X"},"action":"avoid","summary":"good-avoid","bonus":1.5000000000000009},{"rt":598.6000000238419,"stimulus":"\n                    <p><b>Action: <em>avoid</em></b></p>\n                    <p>This is the bee that you just saw.</p>\n                    <img src=\"bees-with-color/bee-A2DF.svg\" width=\"200\">\n                    <p><br>Your bonus pay is unchanged, and remains at $0.94.</p>\n            ","response":0,"trial_type":"html-button-response","trial_index":82,"time_elapsed":625284,"internal_node_id":"0.0-4.0-1.37","subject_id":"5fac1a3e935a7d133be5a4d7","study_id":"60edd13110225f80f9f3709b","session_id":"6196c4a5ca708fba99166d2a","condition":"contingent","relevant_dimensions":["antennae","wings"],"bee_group":{"antennae":"A","wings":"2","pattern":"X","legs":"X"},"bonus":1.5000000000000009},{"rt":1001.5,"stimulus":"bees-with-color/bee-B1DM.svg","response":0,"trial_type":"image-button-response","trial_index":83,"time_elapsed":626287,"internal_node_id":"0.0-4.0-0.38","subject_id":"5fac1a3e935a7d133be5a4d7","study_id":"60edd13110225f80f9f3709b","session_id":"6196c4a5ca708fba99166d2a","condition":"contingent","relevant_dimensions":["antennae","wings"],"bee_group":{"antennae":"A","wings":"2","pattern":"X","legs":"X"},"action":"harvest","summary":"good-harvest","bonus":1.5000000000000009},{"rt":575.8000000119209,"stimulus":"\n                    <p><b>Action: <em>harvest</em></b></p>\n                    <p>This is the bee that you just saw.</p>\n                    <img src=\"bees-with-color/bee-B1DM.svg\" width=\"200\">\n                    <p><span class=\"greenText\"><b>Successful harvest!</b></span><br>Your pay has increased by $0.02. Your bonus pay is now $0.96.</p>\n            ","response":0,"trial_type":"html-button-response","trial_index":84,"time_elapsed":626864,"internal_node_id":"0.0-4.0-1.38","subject_id":"5fac1a3e935a7d133be5a4d7","study_id":"60edd13110225f80f9f3709b","session_id":"6196c4a5ca708fba99166d2a","condition":"contingent","relevant_dimensions":["antennae","wings"],"bee_group":{"antennae":"A","wings":"2","pattern":"X","legs":"X"},"bonus":1.5000000000000009},{"rt":3559,"stimulus":"bees-with-color/bee-A1DM.svg","response":1,"trial_type":"image-button-response","trial_index":85,"time_elapsed":630424,"internal_node_id":"0.0-4.0-0.39","subject_id":"5fac1a3e935a7d133be5a4d7","study_id":"60edd13110225f80f9f3709b","session_id":"6196c4a5ca708fba99166d2a","condition":"contingent","relevant_dimensions":["antennae","wings"],"bee_group":{"antennae":"A","wings":"2","pattern":"X","legs":"X"},"action":"avoid","summary":"bad-avoid","bonus":1.5000000000000009},{"rt":775.0999999642372,"stimulus":"\n                    <p><b>Action: <em>avoid</em></b></p>\n                    <p>This is the bee that you just saw.</p>\n                    <img src=\"bees-with-color/bee-A1DM.svg\" width=\"200\">\n                    <p><br>Your bonus pay is unchanged, and remains at $0.96.</p>\n            ","response":0,"trial_type":"html-button-response","trial_index":86,"time_elapsed":631201,"internal_node_id":"0.0-4.0-1.39","subject_id":"5fac1a3e935a7d133be5a4d7","study_id":"60edd13110225f80f9f3709b","session_id":"6196c4a5ca708fba99166d2a","condition":"contingent","relevant_dimensions":["antennae","wings"],"bee_group":{"antennae":"A","wings":"2","pattern":"X","legs":"X"},"bonus":1.5000000000000009},{"rt":2309.5,"stimulus":"bees-with-color/bee-A1SM.svg","response":1,"trial_type":"image-button-response","trial_index":87,"time_elapsed":633513,"internal_node_id":"0.0-4.0-0.40","subject_id":"5fac1a3e935a7d133be5a4d7","study_id":"60edd13110225f80f9f3709b","session_id":"6196c4a5ca708fba99166d2a","condition":"contingent","relevant_dimensions":["antennae","wings"],"bee_group":{"antennae":"A","wings":"2","pattern":"X","legs":"X"},"action":"avoid","summary":"bad-avoid","bonus":1.5000000000000009},{"rt":575.3000000119209,"stimulus":"\n                    <p><b>Action: <em>avoid</em></b></p>\n                    <p>This is the bee that you just saw.</p>\n                    <img src=\"bees-with-color/bee-A1SM.svg\" width=\"200\">\n                    <p><br>Your bonus pay is unchanged, and remains at $0.96.</p>\n            ","response":0,"trial_type":"html-button-response","trial_index":88,"time_elapsed":634090,"internal_node_id":"0.0-4.0-1.40","subject_id":"5fac1a3e935a7d133be5a4d7","study_id":"60edd13110225f80f9f3709b","session_id":"6196c4a5ca708fba99166d2a","condition":"contingent","relevant_dimensions":["antennae","wings"],"bee_group":{"antennae":"A","wings":"2","pattern":"X","legs":"X"},"bonus":1.5000000000000009},{"rt":783.6000000238419,"stimulus":"bees-with-color/bee-A1SF.svg","response":1,"trial_type":"image-button-response","trial_index":89,"time_elapsed":634875,"internal_node_id":"0.0-4.0-0.41","subject_id":"5fac1a3e935a7d133be5a4d7","study_id":"60edd13110225f80f9f3709b","session_id":"6196c4a5ca708fba99166d2a","condition":"contingent","relevant_dimensions":["antennae","wings"],"bee_group":{"antennae":"A","wings":"2","pattern":"X","legs":"X"},"action":"avoid","summary":"bad-avoid","bonus":1.5000000000000009},{"rt":437.5,"stimulus":"\n                    <p><b>Action: <em>avoid</em></b></p>\n                    <p>This is the bee that you just saw.</p>\n                    <img src=\"bees-with-color/bee-A1SF.svg\" width=\"200\">\n                    <p><br>Your bonus pay is unchanged, and remains at $0.96.</p>\n            ","response":0,"trial_type":"html-button-response","trial_index":90,"time_elapsed":635314,"internal_node_id":"0.0-4.0-1.41","subject_id":"5fac1a3e935a7d133be5a4d7","study_id":"60edd13110225f80f9f3709b","session_id":"6196c4a5ca708fba99166d2a","condition":"contingent","relevant_dimensions":["antennae","wings"],"bee_group":{"antennae":"A","wings":"2","pattern":"X","legs":"X"},"bonus":1.5000000000000009},{"rt":783.8000000119209,"stimulus":"bees-with-color/bee-A1DF.svg","response":1,"trial_type":"image-button-response","trial_index":91,"time_elapsed":636099,"internal_node_id":"0.0-4.0-0.42","subject_id":"5fac1a3e935a7d133be5a4d7","study_id":"60edd13110225f80f9f3709b","session_id":"6196c4a5ca708fba99166d2a","condition":"contingent","relevant_dimensions":["antennae","wings"],"bee_group":{"antennae":"A","wings":"2","pattern":"X","legs":"X"},"action":"avoid","summary":"bad-avoid","bonus":1.5000000000000009},{"rt":525.6000000238419,"stimulus":"\n                    <p><b>Action: <em>avoid</em></b></p>\n                    <p>This is the bee that you just saw.</p>\n                    <img src=\"bees-with-color/bee-A1DF.svg\" width=\"200\">\n                    <p><br>Your bonus pay is unchanged, and remains at $0.96.</p>\n            ","response":0,"trial_type":"html-button-response","trial_index":92,"time_elapsed":636626,"internal_node_id":"0.0-4.0-1.42","subject_id":"5fac1a3e935a7d133be5a4d7","study_id":"60edd13110225f80f9f3709b","session_id":"6196c4a5ca708fba99166d2a","condition":"contingent","relevant_dimensions":["antennae","wings"],"bee_group":{"antennae":"A","wings":"2","pattern":"X","legs":"X"},"bonus":1.5000000000000009},{"rt":2706.399999976158,"stimulus":"bees-with-color/bee-B1SM.svg","response":0,"trial_type":"image-button-response","trial_index":93,"time_elapsed":639334,"internal_node_id":"0.0-4.0-0.43","subject_id":"5fac1a3e935a7d133be5a4d7","study_id":"60edd13110225f80f9f3709b","session_id":"6196c4a5ca708fba99166d2a","condition":"contingent","relevant_dimensions":["antennae","wings"],"bee_group":{"antennae":"A","wings":"2","pattern":"X","legs":"X"},"action":"harvest","summary":"good-harvest","bonus":1.5000000000000009},{"rt":893.5999999642372,"stimulus":"\n                    <p><b>Action: <em>harvest</em></b></p>\n                    <p>This is the bee that you just saw.</p>\n                    <img src=\"bees-with-color/bee-B1SM.svg\" width=\"200\">\n                    <p><span class=\"greenText\"><b>Successful harvest!</b></span><br>Your pay has increased by $0.02. Your bonus pay is now $0.98.</p>\n            ","response":0,"trial_type":"html-button-response","trial_index":94,"time_elapsed":640229,"internal_node_id":"0.0-4.0-1.43","subject_id":"5fac1a3e935a7d133be5a4d7","study_id":"60edd13110225f80f9f3709b","session_id":"6196c4a5ca708fba99166d2a","condition":"contingent","relevant_dimensions":["antennae","wings"],"bee_group":{"antennae":"A","wings":"2","pattern":"X","legs":"X"},"bonus":1.5000000000000009},{"rt":2615,"stimulus":"bees-with-color/bee-B2SM.svg","response":0,"trial_type":"image-button-response","trial_index":95,"time_elapsed":642845,"internal_node_id":"0.0-4.0-0.44","subject_id":"5fac1a3e935a7d133be5a4d7","study_id":"60edd13110225f80f9f3709b","session_id":"6196c4a5ca708fba99166d2a","condition":"contingent","relevant_dimensions":["antennae","wings"],"bee_group":{"antennae":"A","wings":"2","pattern":"X","legs":"X"},"action":"harvest","summary":"good-harvest","bonus":1.5000000000000009},{"rt":595.5,"stimulus":"\n                    <p><b>Action: <em>harvest</em></b></p>\n                    <p>This is the bee that you just saw.</p>\n                    <img src=\"bees-with-color/bee-B2SM.svg\" width=\"200\">\n                    <p><span class=\"greenText\"><b>Successful harvest!</b></span><br>Your pay has increased by $0.02. Your bonus pay is now $1.00.</p>\n            ","response":0,"trial_type":"html-button-response","trial_index":96,"time_elapsed":643442,"internal_node_id":"0.0-4.0-1.44","subject_id":"5fac1a3e935a7d133be5a4d7","study_id":"60edd13110225f80f9f3709b","session_id":"6196c4a5ca708fba99166d2a","condition":"contingent","relevant_dimensions":["antennae","wings"],"bee_group":{"antennae":"A","wings":"2","pattern":"X","legs":"X"},"bonus":1.5000000000000009},{"rt":1217.1000000238419,"stimulus":"bees-with-color/bee-A2SM.svg","response":1,"trial_type":"image-button-response","trial_index":97,"time_elapsed":644661,"internal_node_id":"0.0-4.0-0.45","subject_id":"5fac1a3e935a7d133be5a4d7","study_id":"60edd13110225f80f9f3709b","session_id":"6196c4a5ca708fba99166d2a","condition":"contingent","relevant_dimensions":["antennae","wings"],"bee_group":{"antennae":"A","wings":"2","pattern":"X","legs":"X"},"action":"avoid","summary":"good-avoid","bonus":1.5000000000000009},{"rt":675.3999999761581,"stimulus":"\n                    <p><b>Action: <em>avoid</em></b></p>\n                    <p>This is the bee that you just saw.</p>\n                    <img src=\"bees-with-color/bee-A2SM.svg\" width=\"200\">\n                    <p><br>Your bonus pay is unchanged, and remains at $1.00.</p>\n            ","response":0,"trial_type":"html-button-response","trial_index":98,"time_elapsed":645338,"internal_node_id":"0.0-4.0-1.45","subject_id":"5fac1a3e935a7d133be5a4d7","study_id":"60edd13110225f80f9f3709b","session_id":"6196c4a5ca708fba99166d2a","condition":"contingent","relevant_dimensions":["antennae","wings"],"bee_group":{"antennae":"A","wings":"2","pattern":"X","legs":"X"},"bonus":1.5000000000000009},{"rt":934.3000000119209,"stimulus":"bees-with-color/bee-A2SF.svg","response":1,"trial_type":"image-button-response","trial_index":99,"time_elapsed":646274,"internal_node_id":"0.0-4.0-0.46","subject_id":"5fac1a3e935a7d133be5a4d7","study_id":"60edd13110225f80f9f3709b","session_id":"6196c4a5ca708fba99166d2a","condition":"contingent","relevant_dimensions":["antennae","wings"],"bee_group":{"antennae":"A","wings":"2","pattern":"X","legs":"X"},"action":"avoid","summary":"good-avoid","bonus":1.5000000000000009},{"rt":1073,"stimulus":"\n                    <p><b>Action: <em>avoid</em></b></p>\n                    <p>This is the bee that you just saw.</p>\n                    <img src=\"bees-with-color/bee-A2SF.svg\" width=\"200\">\n                    <p><br>Your bonus pay is unchanged, and remains at $1.00.</p>\n            ","response":0,"trial_type":"html-button-response","trial_index":100,"time_elapsed":647348,"internal_node_id":"0.0-4.0-1.46","subject_id":"5fac1a3e935a7d133be5a4d7","study_id":"60edd13110225f80f9f3709b","session_id":"6196c4a5ca708fba99166d2a","condition":"contingent","relevant_dimensions":["antennae","wings"],"bee_group":{"antennae":"A","wings":"2","pattern":"X","legs":"X"},"bonus":1.5000000000000009},{"rt":1372.5,"stimulus":"bees-with-color/bee-B2SF.svg","response":0,"trial_type":"image-button-response","trial_index":101,"time_elapsed":648722,"internal_node_id":"0.0-4.0-0.47","subject_id":"5fac1a3e935a7d133be5a4d7","study_id":"60edd13110225f80f9f3709b","session_id":"6196c4a5ca708fba99166d2a","condition":"contingent","relevant_dimensions":["antennae","wings"],"bee_group":{"antennae":"A","wings":"2","pattern":"X","legs":"X"},"action":"harvest","summary":"good-harvest","bonus":1.5000000000000009},{"rt":1117.7999999523163,"stimulus":"\n                    <p><b>Action: <em>harvest</em></b></p>\n                    <p>This is the bee that you just saw.</p>\n                    <img src=\"bees-with-color/bee-B2SF.svg\" width=\"200\">\n                    <p><span class=\"greenText\"><b>Successful harvest!</b></span><br>Your pay has increased by $0.02. Your bonus pay is now $1.02.</p>\n            ","response":0,"trial_type":"html-button-response","trial_index":102,"time_elapsed":649841,"internal_node_id":"0.0-4.0-1.47","subject_id":"5fac1a3e935a7d133be5a4d7","study_id":"60edd13110225f80f9f3709b","session_id":"6196c4a5ca708fba99166d2a","condition":"contingent","relevant_dimensions":["antennae","wings"],"bee_group":{"antennae":"A","wings":"2","pattern":"X","legs":"X"},"bonus":1.5000000000000009},{"rt":4157.300000011921,"stimulus":"bees-with-color/bee-B2DF.svg","response":0,"trial_type":"image-button-response","trial_index":103,"time_elapsed":654000,"internal_node_id":"0.0-4.0-0.48","subject_id":"5fac1a3e935a7d133be5a4d7","study_id":"60edd13110225f80f9f3709b","session_id":"6196c4a5ca708fba99166d2a","condition":"contingent","relevant_dimensions":["antennae","wings"],"bee_group":{"antennae":"A","wings":"2","pattern":"X","legs":"X"},"action":"harvest","summary":"good-harvest","bonus":1.5000000000000009},{"rt":650.4000000357628,"stimulus":"\n                    <p><b>Action: <em>harvest</em></b></p>\n                    <p>This is the bee that you just saw.</p>\n                    <img src=\"bees-with-color/bee-B2DF.svg\" width=\"200\">\n                    <p><span class=\"greenText\"><b>Successful harvest!</b></span><br>Your pay has increased by $0.02. Your bonus pay is now $1.04.</p>\n            ","response":0,"trial_type":"html-button-response","trial_index":104,"time_elapsed":654652,"internal_node_id":"0.0-4.0-1.48","subject_id":"5fac1a3e935a7d133be5a4d7","study_id":"60edd13110225f80f9f3709b","session_id":"6196c4a5ca708fba99166d2a","condition":"contingent","relevant_dimensions":["antennae","wings"],"bee_group":{"antennae":"A","wings":"2","pattern":"X","legs":"X"},"bonus":1.5000000000000009},{"rt":1094,"stimulus":"bees-with-color/bee-B1SF.svg","response":0,"trial_type":"image-button-response","trial_index":105,"time_elapsed":655748,"internal_node_id":"0.0-4.0-0.49","subject_id":"5fac1a3e935a7d133be5a4d7","study_id":"60edd13110225f80f9f3709b","session_id":"6196c4a5ca708fba99166d2a","condition":"contingent","relevant_dimensions":["antennae","wings"],"bee_group":{"antennae":"A","wings":"2","pattern":"X","legs":"X"},"action":"harvest","summary":"good-harvest","bonus":1.5000000000000009},{"rt":659.9000000357628,"stimulus":"\n                    <p><b>Action: <em>harvest</em></b></p>\n                    <p>This is the bee that you just saw.</p>\n                    <img src=\"bees-with-color/bee-B1SF.svg\" width=\"200\">\n                    <p><span class=\"greenText\"><b>Successful harvest!</b></span><br>Your pay has increased by $0.02. Your bonus pay is now $1.06.</p>\n            ","response":0,"trial_type":"html-button-response","trial_index":106,"time_elapsed":656409,"internal_node_id":"0.0-4.0-1.49","subject_id":"5fac1a3e935a7d133be5a4d7","study_id":"60edd13110225f80f9f3709b","session_id":"6196c4a5ca708fba99166d2a","condition":"contingent","relevant_dimensions":["antennae","wings"],"bee_group":{"antennae":"A","wings":"2","pattern":"X","legs":"X"},"bonus":1.5000000000000009},{"rt":980.5,"stimulus":"bees-with-color/bee-A2DM.svg","response":1,"trial_type":"image-button-response","trial_index":107,"time_elapsed":657391,"internal_node_id":"0.0-4.0-0.50","subject_id":"5fac1a3e935a7d133be5a4d7","study_id":"60edd13110225f80f9f3709b","session_id":"6196c4a5ca708fba99166d2a","condition":"contingent","relevant_dimensions":["antennae","wings"],"bee_group":{"antennae":"A","wings":"2","pattern":"X","legs":"X"},"action":"avoid","summary":"good-avoid","bonus":1.5000000000000009},{"rt":539.8999999761581,"stimulus":"\n                    <p><b>Action: <em>avoid</em></b></p>\n                    <p>This is the bee that you just saw.</p>\n                    <img src=\"bees-with-color/bee-A2DM.svg\" width=\"200\">\n                    <p><br>Your bonus pay is unchanged, and remains at $1.06.</p>\n            ","response":0,"trial_type":"html-button-response","trial_index":108,"time_elapsed":657933,"internal_node_id":"0.0-4.0-1.50","subject_id":"5fac1a3e935a7d133be5a4d7","study_id":"60edd13110225f80f9f3709b","session_id":"6196c4a5ca708fba99166d2a","condition":"contingent","relevant_dimensions":["antennae","wings"],"bee_group":{"antennae":"A","wings":"2","pattern":"X","legs":"X"},"bonus":1.5000000000000009},{"rt":1021.6999999880791,"stimulus":"bees-with-color/bee-A2SM.svg","response":1,"trial_type":"image-button-response","trial_index":109,"time_elapsed":658956,"internal_node_id":"0.0-4.0-0.51","subject_id":"5fac1a3e935a7d133be5a4d7","study_id":"60edd13110225f80f9f3709b","session_id":"6196c4a5ca708fba99166d2a","condition":"contingent","relevant_dimensions":["antennae","wings"],"bee_group":{"antennae":"A","wings":"2","pattern":"X","legs":"X"},"action":"avoid","summary":"good-avoid","bonus":1.5000000000000009},{"rt":480.69999998807907,"stimulus":"\n                    <p><b>Action: <em>avoid</em></b></p>\n                    <p>This is the bee that you just saw.</p>\n                    <img src=\"bees-with-color/bee-A2SM.svg\" width=\"200\">\n                    <p><br>Your bonus pay is unchanged, and remains at $1.06.</p>\n            ","response":0,"trial_type":"html-button-response","trial_index":110,"time_elapsed":659438,"internal_node_id":"0.0-4.0-1.51","subject_id":"5fac1a3e935a7d133be5a4d7","study_id":"60edd13110225f80f9f3709b","session_id":"6196c4a5ca708fba99166d2a","condition":"contingent","relevant_dimensions":["antennae","wings"],"bee_group":{"antennae":"A","wings":"2","pattern":"X","legs":"X"},"bonus":1.5000000000000009},{"rt":1055.5999999642372,"stimulus":"bees-with-color/bee-B2DM.svg","response":0,"trial_type":"image-button-response","trial_index":111,"time_elapsed":660495,"internal_node_id":"0.0-4.0-0.52","subject_id":"5fac1a3e935a7d133be5a4d7","study_id":"60edd13110225f80f9f3709b","session_id":"6196c4a5ca708fba99166d2a","condition":"contingent","relevant_dimensions":["antennae","wings"],"bee_group":{"antennae":"A","wings":"2","pattern":"X","legs":"X"},"action":"harvest","summary":"good-harvest","bonus":1.5000000000000009},{"rt":916.3000000119209,"stimulus":"\n                    <p><b>Action: <em>harvest</em></b></p>\n                    <p>This is the bee that you just saw.</p>\n                    <img src=\"bees-with-color/bee-B2DM.svg\" width=\"200\">\n                    <p><span class=\"greenText\"><b>Successful harvest!</b></span><br>Your pay has increased by $0.02. Your bonus pay is now $1.08.</p>\n            ","response":0,"trial_type":"html-button-response","trial_index":112,"time_elapsed":661413,"internal_node_id":"0.0-4.0-1.52","subject_id":"5fac1a3e935a7d133be5a4d7","study_id":"60edd13110225f80f9f3709b","session_id":"6196c4a5ca708fba99166d2a","condition":"contingent","relevant_dimensions":["antennae","wings"],"bee_group":{"antennae":"A","wings":"2","pattern":"X","legs":"X"},"bonus":1.5000000000000009},{"rt":982.8000000119209,"stimulus":"bees-with-color/bee-B1DF.svg","response":0,"trial_type":"image-button-response","trial_index":113,"time_elapsed":662397,"internal_node_id":"0.0-4.0-0.53","subject_id":"5fac1a3e935a7d133be5a4d7","study_id":"60edd13110225f80f9f3709b","session_id":"6196c4a5ca708fba99166d2a","condition":"contingent","relevant_dimensions":["antennae","wings"],"bee_group":{"antennae":"A","wings":"2","pattern":"X","legs":"X"},"action":"harvest","summary":"good-harvest","bonus":1.5000000000000009},{"rt":513.0999999642372,"stimulus":"\n                    <p><b>Action: <em>harvest</em></b></p>\n                    <p>This is the bee that you just saw.</p>\n                    <img src=\"bees-with-color/bee-B1DF.svg\" width=\"200\">\n                    <p><span class=\"greenText\"><b>Successful harvest!</b></span><br>Your pay has increased by $0.02. Your bonus pay is now $1.10.</p>\n            ","response":0,"trial_type":"html-button-response","trial_index":114,"time_elapsed":662912,"internal_node_id":"0.0-4.0-1.53","subject_id":"5fac1a3e935a7d133be5a4d7","study_id":"60edd13110225f80f9f3709b","session_id":"6196c4a5ca708fba99166d2a","condition":"contingent","relevant_dimensions":["antennae","wings"],"bee_group":{"antennae":"A","wings":"2","pattern":"X","legs":"X"},"bonus":1.5000000000000009},{"rt":882.5,"stimulus":"bees-with-color/bee-B2SM.svg","response":0,"trial_type":"image-button-response","trial_index":115,"time_elapsed":663796,"internal_node_id":"0.0-4.0-0.54","subject_id":"5fac1a3e935a7d133be5a4d7","study_id":"60edd13110225f80f9f3709b","session_id":"6196c4a5ca708fba99166d2a","condition":"contingent","relevant_dimensions":["antennae","wings"],"bee_group":{"antennae":"A","wings":"2","pattern":"X","legs":"X"},"action":"harvest","summary":"good-harvest","bonus":1.5000000000000009},{"rt":485.5,"stimulus":"\n                    <p><b>Action: <em>harvest</em></b></p>\n                    <p>This is the bee that you just saw.</p>\n                    <img src=\"bees-with-color/bee-B2SM.svg\" width=\"200\">\n                    <p><span class=\"greenText\"><b>Successful harvest!</b></span><br>Your pay has increased by $0.02. Your bonus pay is now $1.12.</p>\n            ","response":0,"trial_type":"html-button-response","trial_index":116,"time_elapsed":664283,"internal_node_id":"0.0-4.0-1.54","subject_id":"5fac1a3e935a7d133be5a4d7","study_id":"60edd13110225f80f9f3709b","session_id":"6196c4a5ca708fba99166d2a","condition":"contingent","relevant_dimensions":["antennae","wings"],"bee_group":{"antennae":"A","wings":"2","pattern":"X","legs":"X"},"bonus":1.5000000000000009},{"rt":1039.6000000238419,"stimulus":"bees-with-color/bee-B2SF.svg","response":0,"trial_type":"image-button-response","trial_index":117,"time_elapsed":665324,"internal_node_id":"0.0-4.0-0.55","subject_id":"5fac1a3e935a7d133be5a4d7","study_id":"60edd13110225f80f9f3709b","session_id":"6196c4a5ca708fba99166d2a","condition":"contingent","relevant_dimensions":["antennae","wings"],"bee_group":{"antennae":"A","wings":"2","pattern":"X","legs":"X"},"action":"harvest","summary":"good-harvest","bonus":1.5000000000000009},{"rt":770.5,"stimulus":"\n                    <p><b>Action: <em>harvest</em></b></p>\n                    <p>This is the bee that you just saw.</p>\n                    <img src=\"bees-with-color/bee-B2SF.svg\" width=\"200\">\n                    <p><span class=\"greenText\"><b>Successful harvest!</b></span><br>Your pay has increased by $0.02. Your bonus pay is now $1.14.</p>\n            ","response":0,"trial_type":"html-button-response","trial_index":118,"time_elapsed":666096,"internal_node_id":"0.0-4.0-1.55","subject_id":"5fac1a3e935a7d133be5a4d7","study_id":"60edd13110225f80f9f3709b","session_id":"6196c4a5ca708fba99166d2a","condition":"contingent","relevant_dimensions":["antennae","wings"],"bee_group":{"antennae":"A","wings":"2","pattern":"X","legs":"X"},"bonus":1.5000000000000009},{"rt":934,"stimulus":"bees-with-color/bee-A1SF.svg","response":1,"trial_type":"image-button-response","trial_index":119,"time_elapsed":667032,"internal_node_id":"0.0-4.0-0.56","subject_id":"5fac1a3e935a7d133be5a4d7","study_id":"60edd13110225f80f9f3709b","session_id":"6196c4a5ca708fba99166d2a","condition":"contingent","relevant_dimensions":["antennae","wings"],"bee_group":{"antennae":"A","wings":"2","pattern":"X","legs":"X"},"action":"avoid","summary":"bad-avoid","bonus":1.5000000000000009},{"rt":507.80000001192093,"stimulus":"\n                    <p><b>Action: <em>avoid</em></b></p>\n                    <p>This is the bee that you just saw.</p>\n                    <img src=\"bees-with-color/bee-A1SF.svg\" width=\"200\">\n                    <p><br>Your bonus pay is unchanged, and remains at $1.14.</p>\n            ","response":0,"trial_type":"html-button-response","trial_index":120,"time_elapsed":667541,"internal_node_id":"0.0-4.0-1.56","subject_id":"5fac1a3e935a7d133be5a4d7","study_id":"60edd13110225f80f9f3709b","session_id":"6196c4a5ca708fba99166d2a","condition":"contingent","relevant_dimensions":["antennae","wings"],"bee_group":{"antennae":"A","wings":"2","pattern":"X","legs":"X"},"bonus":1.5000000000000009},{"rt":3489.800000011921,"stimulus":"bees-with-color/bee-A1SM.svg","response":1,"trial_type":"image-button-response","trial_index":121,"time_elapsed":671032,"internal_node_id":"0.0-4.0-0.57","subject_id":"5fac1a3e935a7d133be5a4d7","study_id":"60edd13110225f80f9f3709b","session_id":"6196c4a5ca708fba99166d2a","condition":"contingent","relevant_dimensions":["antennae","wings"],"bee_group":{"antennae":"A","wings":"2","pattern":"X","legs":"X"},"action":"avoid","summary":"bad-avoid","bonus":1.5000000000000009},{"rt":594.6000000238419,"stimulus":"\n                    <p><b>Action: <em>avoid</em></b></p>\n                    <p>This is the bee that you just saw.</p>\n                    <img src=\"bees-with-color/bee-A1SM.svg\" width=\"200\">\n                    <p><br>Your bonus pay is unchanged, and remains at $1.14.</p>\n            ","response":0,"trial_type":"html-button-response","trial_index":122,"time_elapsed":671628,"internal_node_id":"0.0-4.0-1.57","subject_id":"5fac1a3e935a7d133be5a4d7","study_id":"60edd13110225f80f9f3709b","session_id":"6196c4a5ca708fba99166d2a","condition":"contingent","relevant_dimensions":["antennae","wings"],"bee_group":{"antennae":"A","wings":"2","pattern":"X","legs":"X"},"bonus":1.5000000000000009},{"rt":1065.5999999642372,"stimulus":"bees-with-color/bee-B1DM.svg","response":0,"trial_type":"image-button-response","trial_index":123,"time_elapsed":672695,"internal_node_id":"0.0-4.0-0.58","subject_id":"5fac1a3e935a7d133be5a4d7","study_id":"60edd13110225f80f9f3709b","session_id":"6196c4a5ca708fba99166d2a","condition":"contingent","relevant_dimensions":["antennae","wings"],"bee_group":{"antennae":"A","wings":"2","pattern":"X","legs":"X"},"action":"harvest","summary":"good-harvest","bonus":1.5000000000000009},{"rt":595.0999999642372,"stimulus":"\n                    <p><b>Action: <em>harvest</em></b></p>\n                    <p>This is the bee that you just saw.</p>\n                    <img src=\"bees-with-color/bee-B1DM.svg\" width=\"200\">\n                    <p><span class=\"greenText\"><b>Successful harvest!</b></span><br>Your pay has increased by $0.02. Your bonus pay is now $1.16.</p>\n            ","response":0,"trial_type":"html-button-response","trial_index":124,"time_elapsed":673292,"internal_node_id":"0.0-4.0-1.58","subject_id":"5fac1a3e935a7d133be5a4d7","study_id":"60edd13110225f80f9f3709b","session_id":"6196c4a5ca708fba99166d2a","condition":"contingent","relevant_dimensions":["antennae","wings"],"bee_group":{"antennae":"A","wings":"2","pattern":"X","legs":"X"},"bonus":1.5000000000000009},{"rt":1358.800000011921,"stimulus":"bees-with-color/bee-A2DF.svg","response":1,"trial_type":"image-button-response","trial_index":125,"time_elapsed":674652,"internal_node_id":"0.0-4.0-0.59","subject_id":"5fac1a3e935a7d133be5a4d7","study_id":"60edd13110225f80f9f3709b","session_id":"6196c4a5ca708fba99166d2a","condition":"contingent","relevant_dimensions":["antennae","wings"],"bee_group":{"antennae":"A","wings":"2","pattern":"X","legs":"X"},"action":"avoid","summary":"good-avoid","bonus":1.5000000000000009},{"rt":603.5,"stimulus":"\n                    <p><b>Action: <em>avoid</em></b></p>\n                    <p>This is the bee that you just saw.</p>\n                    <img src=\"bees-with-color/bee-A2DF.svg\" width=\"200\">\n                    <p><br>Your bonus pay is unchanged, and remains at $1.16.</p>\n            ","response":0,"trial_type":"html-button-response","trial_index":126,"time_elapsed":675257,"internal_node_id":"0.0-4.0-1.59","subject_id":"5fac1a3e935a7d133be5a4d7","study_id":"60edd13110225f80f9f3709b","session_id":"6196c4a5ca708fba99166d2a","condition":"contingent","relevant_dimensions":["antennae","wings"],"bee_group":{"antennae":"A","wings":"2","pattern":"X","legs":"X"},"bonus":1.5000000000000009},{"rt":1013.5,"stimulus":"bees-with-color/bee-A2SF.svg","response":1,"trial_type":"image-button-response","trial_index":127,"time_elapsed":676272,"internal_node_id":"0.0-4.0-0.60","subject_id":"5fac1a3e935a7d133be5a4d7","study_id":"60edd13110225f80f9f3709b","session_id":"6196c4a5ca708fba99166d2a","condition":"contingent","relevant_dimensions":["antennae","wings"],"bee_group":{"antennae":"A","wings":"2","pattern":"X","legs":"X"},"action":"avoid","summary":"good-avoid","bonus":1.5000000000000009},{"rt":442.4000000357628,"stimulus":"\n                    <p><b>Action: <em>avoid</em></b></p>\n                    <p>This is the bee that you just saw.</p>\n                    <img src=\"bees-with-color/bee-A2SF.svg\" width=\"200\">\n                    <p><br>Your bonus pay is unchanged, and remains at $1.16.</p>\n            ","response":0,"trial_type":"html-button-response","trial_index":128,"time_elapsed":676716,"internal_node_id":"0.0-4.0-1.60","subject_id":"5fac1a3e935a7d133be5a4d7","study_id":"60edd13110225f80f9f3709b","session_id":"6196c4a5ca708fba99166d2a","condition":"contingent","relevant_dimensions":["antennae","wings"],"bee_group":{"antennae":"A","wings":"2","pattern":"X","legs":"X"},"bonus":1.5000000000000009},{"rt":746.5999999642372,"stimulus":"bees-with-color/bee-A1DM.svg","response":1,"trial_type":"image-button-response","trial_index":129,"time_elapsed":677464,"internal_node_id":"0.0-4.0-0.61","subject_id":"5fac1a3e935a7d133be5a4d7","study_id":"60edd13110225f80f9f3709b","session_id":"6196c4a5ca708fba99166d2a","condition":"contingent","relevant_dimensions":["antennae","wings"],"bee_group":{"antennae":"A","wings":"2","pattern":"X","legs":"X"},"action":"avoid","summary":"bad-avoid","bonus":1.5000000000000009},{"rt":548.1999999880791,"stimulus":"\n                    <p><b>Action: <em>avoid</em></b></p>\n                    <p>This is the bee that you just saw.</p>\n                    <img src=\"bees-with-color/bee-A1DM.svg\" width=\"200\">\n                    <p><br>Your bonus pay is unchanged, and remains at $1.16.</p>\n            ","response":0,"trial_type":"html-button-response","trial_index":130,"time_elapsed":678014,"internal_node_id":"0.0-4.0-1.61","subject_id":"5fac1a3e935a7d133be5a4d7","study_id":"60edd13110225f80f9f3709b","session_id":"6196c4a5ca708fba99166d2a","condition":"contingent","relevant_dimensions":["antennae","wings"],"bee_group":{"antennae":"A","wings":"2","pattern":"X","legs":"X"},"bonus":1.5000000000000009},{"rt":893.9000000357628,"stimulus":"bees-with-color/bee-B1SM.svg","response":0,"trial_type":"image-button-response","trial_index":131,"time_elapsed":678909,"internal_node_id":"0.0-4.0-0.62","subject_id":"5fac1a3e935a7d133be5a4d7","study_id":"60edd13110225f80f9f3709b","session_id":"6196c4a5ca708fba99166d2a","condition":"contingent","relevant_dimensions":["antennae","wings"],"bee_group":{"antennae":"A","wings":"2","pattern":"X","legs":"X"},"action":"harvest","summary":"good-harvest","bonus":1.5000000000000009},{"rt":579,"stimulus":"\n                    <p><b>Action: <em>harvest</em></b></p>\n                    <p>This is the bee that you just saw.</p>\n                    <img src=\"bees-with-color/bee-B1SM.svg\" width=\"200\">\n                    <p><span class=\"greenText\"><b>Successful harvest!</b></span><br>Your pay has increased by $0.02. Your bonus pay is now $1.18.</p>\n            ","response":0,"trial_type":"html-button-response","trial_index":132,"time_elapsed":679489,"internal_node_id":"0.0-4.0-1.62","subject_id":"5fac1a3e935a7d133be5a4d7","study_id":"60edd13110225f80f9f3709b","session_id":"6196c4a5ca708fba99166d2a","condition":"contingent","relevant_dimensions":["antennae","wings"],"bee_group":{"antennae":"A","wings":"2","pattern":"X","legs":"X"},"bonus":1.5000000000000009},{"rt":1228.5,"stimulus":"bees-with-color/bee-A1DF.svg","response":1,"trial_type":"image-button-response","trial_index":133,"time_elapsed":680719,"internal_node_id":"0.0-4.0-0.63","subject_id":"5fac1a3e935a7d133be5a4d7","study_id":"60edd13110225f80f9f3709b","session_id":"6196c4a5ca708fba99166d2a","condition":"contingent","relevant_dimensions":["antennae","wings"],"bee_group":{"antennae":"A","wings":"2","pattern":"X","legs":"X"},"action":"avoid","summary":"bad-avoid","bonus":1.5000000000000009},{"rt":1210.8999999761581,"stimulus":"\n                    <p><b>Action: <em>avoid</em></b></p>\n                    <p>This is the bee that you just saw.</p>\n                    <img src=\"bees-with-color/bee-A1DF.svg\" width=\"200\">\n                    <p><br>Your bonus pay is unchanged, and remains at $1.18.</p>\n            ","response":0,"trial_type":"html-button-response","trial_index":134,"time_elapsed":681931,"internal_node_id":"0.0-4.0-1.63","subject_id":"5fac1a3e935a7d133be5a4d7","study_id":"60edd13110225f80f9f3709b","session_id":"6196c4a5ca708fba99166d2a","condition":"contingent","relevant_dimensions":["antennae","wings"],"bee_group":{"antennae":"A","wings":"2","pattern":"X","legs":"X"},"bonus":1.5000000000000009},{"rt":18119.399999976158,"stimulus":"You have completed the first part of this experiment.<br><br>You will now begin a shorter second part, in which you will receive no feedback.<br>The same rules regarding bonus pay apply.<br><br>Press any key to begin.","response":" ","trial_type":"html-keyboard-response","trial_index":135,"time_elapsed":700052,"internal_node_id":"0.0-5.0","subject_id":"5fac1a3e935a7d133be5a4d7","study_id":"60edd13110225f80f9f3709b","session_id":"6196c4a5ca708fba99166d2a","condition":"contingent","relevant_dimensions":["antennae","wings"],"bee_group":{"antennae":"A","wings":"2","pattern":"X","legs":"X"},"bonus":1.5000000000000009},{"rt":6939,"stimulus":"bees-with-color/bee-B2DF.svg","response":0,"trial_type":"image-button-response","trial_index":136,"time_elapsed":706998,"internal_node_id":"0.0-6.0-0.0","subject_id":"5fac1a3e935a7d133be5a4d7","study_id":"60edd13110225f80f9f3709b","session_id":"6196c4a5ca708fba99166d2a","condition":"contingent","relevant_dimensions":["antennae","wings"],"bee_group":{"antennae":"A","wings":"2","pattern":"X","legs":"X"},"bonus":1.5000000000000009},{"rt":1287.9000000357628,"stimulus":"bees-with-color/bee-B1DM.svg","response":0,"trial_type":"image-button-response","trial_index":137,"time_elapsed":708289,"internal_node_id":"0.0-6.0-0.1","subject_id":"5fac1a3e935a7d133be5a4d7","study_id":"60edd13110225f80f9f3709b","session_id":"6196c4a5ca708fba99166d2a","condition":"contingent","relevant_dimensions":["antennae","wings"],"bee_group":{"antennae":"A","wings":"2","pattern":"X","legs":"X"},"bonus":1.5000000000000009},{"rt":658,"stimulus":"bees-with-color/bee-B2SM.svg","response":0,"trial_type":"image-button-response","trial_index":138,"time_elapsed":708949,"internal_node_id":"0.0-6.0-0.2","subject_id":"5fac1a3e935a7d133be5a4d7","study_id":"60edd13110225f80f9f3709b","session_id":"6196c4a5ca708fba99166d2a","condition":"contingent","relevant_dimensions":["antennae","wings"],"bee_group":{"antennae":"A","wings":"2","pattern":"X","legs":"X"},"bonus":1.5000000000000009},{"rt":1035.5,"stimulus":"bees-with-color/bee-A2DM.svg","response":1,"trial_type":"image-button-response","trial_index":139,"time_elapsed":709987,"internal_node_id":"0.0-6.0-0.3","subject_id":"5fac1a3e935a7d133be5a4d7","study_id":"60edd13110225f80f9f3709b","session_id":"6196c4a5ca708fba99166d2a","condition":"contingent","relevant_dimensions":["antennae","wings"],"bee_group":{"antennae":"A","wings":"2","pattern":"X","legs":"X"},"bonus":1.5000000000000009},{"rt":1099.1000000238419,"stimulus":"bees-with-color/bee-B1SM.svg","response":0,"trial_type":"image-button-response","trial_index":140,"time_elapsed":711088,"internal_node_id":"0.0-6.0-0.4","subject_id":"5fac1a3e935a7d133be5a4d7","study_id":"60edd13110225f80f9f3709b","session_id":"6196c4a5ca708fba99166d2a","condition":"contingent","relevant_dimensions":["antennae","wings"],"bee_group":{"antennae":"A","wings":"2","pattern":"X","legs":"X"},"bonus":1.5000000000000009},{"rt":728.3000000119209,"stimulus":"bees-with-color/bee-A1DF.svg","response":1,"trial_type":"image-button-response","trial_index":141,"time_elapsed":711818,"internal_node_id":"0.0-6.0-0.5","subject_id":"5fac1a3e935a7d133be5a4d7","study_id":"60edd13110225f80f9f3709b","session_id":"6196c4a5ca708fba99166d2a","condition":"contingent","relevant_dimensions":["antennae","wings"],"bee_group":{"antennae":"A","wings":"2","pattern":"X","legs":"X"},"bonus":1.5000000000000009},{"rt":856.6999999880791,"stimulus":"bees-with-color/bee-B1DF.svg","response":0,"trial_type":"image-button-response","trial_index":142,"time_elapsed":712677,"internal_node_id":"0.0-6.0-0.6","subject_id":"5fac1a3e935a7d133be5a4d7","study_id":"60edd13110225f80f9f3709b","session_id":"6196c4a5ca708fba99166d2a","condition":"contingent","relevant_dimensions":["antennae","wings"],"bee_group":{"antennae":"A","wings":"2","pattern":"X","legs":"X"},"bonus":1.5000000000000009},{"rt":756.8000000119209,"stimulus":"bees-with-color/bee-A2SF.svg","response":1,"trial_type":"image-button-response","trial_index":143,"time_elapsed":713436,"internal_node_id":"0.0-6.0-0.7","subject_id":"5fac1a3e935a7d133be5a4d7","study_id":"60edd13110225f80f9f3709b","session_id":"6196c4a5ca708fba99166d2a","condition":"contingent","relevant_dimensions":["antennae","wings"],"bee_group":{"antennae":"A","wings":"2","pattern":"X","legs":"X"},"bonus":1.5000000000000009},{"rt":1069.8999999761581,"stimulus":"bees-with-color/bee-B2DM.svg","response":0,"trial_type":"image-button-response","trial_index":144,"time_elapsed":714508,"internal_node_id":"0.0-6.0-0.8","subject_id":"5fac1a3e935a7d133be5a4d7","study_id":"60edd13110225f80f9f3709b","session_id":"6196c4a5ca708fba99166d2a","condition":"contingent","relevant_dimensions":["antennae","wings"],"bee_group":{"antennae":"A","wings":"2","pattern":"X","legs":"X"},"bonus":1.5000000000000009},{"rt":873.5,"stimulus":"bees-with-color/bee-B1SF.svg","response":0,"trial_type":"image-button-response","trial_index":145,"time_elapsed":715383,"internal_node_id":"0.0-6.0-0.9","subject_id":"5fac1a3e935a7d133be5a4d7","study_id":"60edd13110225f80f9f3709b","session_id":"6196c4a5ca708fba99166d2a","condition":"contingent","relevant_dimensions":["antennae","wings"],"bee_group":{"antennae":"A","wings":"2","pattern":"X","legs":"X"},"bonus":1.5000000000000009},{"rt":752.5999999642372,"stimulus":"bees-with-color/bee-B2SF.svg","response":0,"trial_type":"image-button-response","trial_index":146,"time_elapsed":716138,"internal_node_id":"0.0-6.0-0.10","subject_id":"5fac1a3e935a7d133be5a4d7","study_id":"60edd13110225f80f9f3709b","session_id":"6196c4a5ca708fba99166d2a","condition":"contingent","relevant_dimensions":["antennae","wings"],"bee_group":{"antennae":"A","wings":"2","pattern":"X","legs":"X"},"bonus":1.5000000000000009},{"rt":775.1000000238419,"stimulus":"bees-with-color/bee-A2DF.svg","response":1,"trial_type":"image-button-response","trial_index":147,"time_elapsed":716915,"internal_node_id":"0.0-6.0-0.11","subject_id":"5fac1a3e935a7d133be5a4d7","study_id":"60edd13110225f80f9f3709b","session_id":"6196c4a5ca708fba99166d2a","condition":"contingent","relevant_dimensions":["antennae","wings"],"bee_group":{"antennae":"A","wings":"2","pattern":"X","legs":"X"},"bonus":1.5000000000000009},{"rt":776.6000000238419,"stimulus":"bees-with-color/bee-A1DM.svg","response":1,"trial_type":"image-button-response","trial_index":148,"time_elapsed":717694,"internal_node_id":"0.0-6.0-0.12","subject_id":"5fac1a3e935a7d133be5a4d7","study_id":"60edd13110225f80f9f3709b","session_id":"6196c4a5ca708fba99166d2a","condition":"contingent","relevant_dimensions":["antennae","wings"],"bee_group":{"antennae":"A","wings":"2","pattern":"X","legs":"X"},"bonus":1.5000000000000009},{"rt":684.3000000119209,"stimulus":"bees-with-color/bee-A2SM.svg","response":1,"trial_type":"image-button-response","trial_index":149,"time_elapsed":718380,"internal_node_id":"0.0-6.0-0.13","subject_id":"5fac1a3e935a7d133be5a4d7","study_id":"60edd13110225f80f9f3709b","session_id":"6196c4a5ca708fba99166d2a","condition":"contingent","relevant_dimensions":["antennae","wings"],"bee_group":{"antennae":"A","wings":"2","pattern":"X","legs":"X"},"bonus":1.5000000000000009},{"rt":1855.5,"stimulus":"bees-with-color/bee-A1SM.svg","response":1,"trial_type":"image-button-response","trial_index":150,"time_elapsed":720238,"internal_node_id":"0.0-6.0-0.14","subject_id":"5fac1a3e935a7d133be5a4d7","study_id":"60edd13110225f80f9f3709b","session_id":"6196c4a5ca708fba99166d2a","condition":"contingent","relevant_dimensions":["antennae","wings"],"bee_group":{"antennae":"A","wings":"2","pattern":"X","legs":"X"},"bonus":1.5000000000000009},{"rt":811.9000000357628,"stimulus":"bees-with-color/bee-A1SF.svg","response":1,"trial_type":"image-button-response","trial_index":151,"time_elapsed":721052,"internal_node_id":"0.0-6.0-0.15","subject_id":"5fac1a3e935a7d133be5a4d7","study_id":"60edd13110225f80f9f3709b","session_id":"6196c4a5ca708fba99166d2a","condition":"contingent","relevant_dimensions":["antennae","wings"],"bee_group":{"antennae":"A","wings":"2","pattern":"X","legs":"X"},"bonus":1.5000000000000009},{"rt":947.9000000357628,"stimulus":"bees-with-color/bee-B1DF.svg","response":0,"trial_type":"image-button-response","trial_index":152,"time_elapsed":722002,"internal_node_id":"0.0-6.0-0.16","subject_id":"5fac1a3e935a7d133be5a4d7","study_id":"60edd13110225f80f9f3709b","session_id":"6196c4a5ca708fba99166d2a","condition":"contingent","relevant_dimensions":["antennae","wings"],"bee_group":{"antennae":"A","wings":"2","pattern":"X","legs":"X"},"bonus":1.5000000000000009},{"rt":865.3000000119209,"stimulus":"bees-with-color/bee-A2DF.svg","response":1,"trial_type":"image-button-response","trial_index":153,"time_elapsed":722869,"internal_node_id":"0.0-6.0-0.17","subject_id":"5fac1a3e935a7d133be5a4d7","study_id":"60edd13110225f80f9f3709b","session_id":"6196c4a5ca708fba99166d2a","condition":"contingent","relevant_dimensions":["antennae","wings"],"bee_group":{"antennae":"A","wings":"2","pattern":"X","legs":"X"},"bonus":1.5000000000000009},{"rt":1175.9000000357628,"stimulus":"bees-with-color/bee-B2DM.svg","response":0,"trial_type":"image-button-response","trial_index":154,"time_elapsed":724047,"internal_node_id":"0.0-6.0-0.18","subject_id":"5fac1a3e935a7d133be5a4d7","study_id":"60edd13110225f80f9f3709b","session_id":"6196c4a5ca708fba99166d2a","condition":"contingent","relevant_dimensions":["antennae","wings"],"bee_group":{"antennae":"A","wings":"2","pattern":"X","legs":"X"},"bonus":1.5000000000000009},{"rt":836,"stimulus":"bees-with-color/bee-A2SF.svg","response":1,"trial_type":"image-button-response","trial_index":155,"time_elapsed":724885,"internal_node_id":"0.0-6.0-0.19","subject_id":"5fac1a3e935a7d133be5a4d7","study_id":"60edd13110225f80f9f3709b","session_id":"6196c4a5ca708fba99166d2a","condition":"contingent","relevant_dimensions":["antennae","wings"],"bee_group":{"antennae":"A","wings":"2","pattern":"X","legs":"X"},"bonus":1.5000000000000009},{"rt":873.6000000238419,"stimulus":"bees-with-color/bee-B1DM.svg","response":0,"trial_type":"image-button-response","trial_index":156,"time_elapsed":725760,"internal_node_id":"0.0-6.0-0.20","subject_id":"5fac1a3e935a7d133be5a4d7","study_id":"60edd13110225f80f9f3709b","session_id":"6196c4a5ca708fba99166d2a","condition":"contingent","relevant_dimensions":["antennae","wings"],"bee_group":{"antennae":"A","wings":"2","pattern":"X","legs":"X"},"bonus":1.5000000000000009},{"rt":868.1999999880791,"stimulus":"bees-with-color/bee-B2DF.svg","response":0,"trial_type":"image-button-response","trial_index":157,"time_elapsed":726631,"internal_node_id":"0.0-6.0-0.21","subject_id":"5fac1a3e935a7d133be5a4d7","study_id":"60edd13110225f80f9f3709b","session_id":"6196c4a5ca708fba99166d2a","condition":"contingent","relevant_dimensions":["antennae","wings"],"bee_group":{"antennae":"A","wings":"2","pattern":"X","legs":"X"},"bonus":1.5000000000000009},{"rt":985.9000000357628,"stimulus":"bees-with-color/bee-A1DM.svg","response":1,"trial_type":"image-button-response","trial_index":158,"time_elapsed":727619,"internal_node_id":"0.0-6.0-0.22","subject_id":"5fac1a3e935a7d133be5a4d7","study_id":"60edd13110225f80f9f3709b","session_id":"6196c4a5ca708fba99166d2a","condition":"contingent","relevant_dimensions":["antennae","wings"],"bee_group":{"antennae":"A","wings":"2","pattern":"X","legs":"X"},"bonus":1.5000000000000009},{"rt":929.3999999761581,"stimulus":"bees-with-color/bee-A1SM.svg","response":1,"trial_type":"image-button-response","trial_index":159,"time_elapsed":728550,"internal_node_id":"0.0-6.0-0.23","subject_id":"5fac1a3e935a7d133be5a4d7","study_id":"60edd13110225f80f9f3709b","session_id":"6196c4a5ca708fba99166d2a","condition":"contingent","relevant_dimensions":["antennae","wings"],"bee_group":{"antennae":"A","wings":"2","pattern":"X","legs":"X"},"bonus":1.5000000000000009},{"rt":561.4000000357628,"stimulus":"bees-with-color/bee-A1DF.svg","response":1,"trial_type":"image-button-response","trial_index":160,"time_elapsed":729113,"internal_node_id":"0.0-6.0-0.24","subject_id":"5fac1a3e935a7d133be5a4d7","study_id":"60edd13110225f80f9f3709b","session_id":"6196c4a5ca708fba99166d2a","condition":"contingent","relevant_dimensions":["antennae","wings"],"bee_group":{"antennae":"A","wings":"2","pattern":"X","legs":"X"},"bonus":1.5000000000000009},{"rt":1015.8999999761581,"stimulus":"bees-with-color/bee-B1SM.svg","response":0,"trial_type":"image-button-response","trial_index":161,"time_elapsed":730131,"internal_node_id":"0.0-6.0-0.25","subject_id":"5fac1a3e935a7d133be5a4d7","study_id":"60edd13110225f80f9f3709b","session_id":"6196c4a5ca708fba99166d2a","condition":"contingent","relevant_dimensions":["antennae","wings"],"bee_group":{"antennae":"A","wings":"2","pattern":"X","legs":"X"},"bonus":1.5000000000000009},{"rt":811.7000000476837,"stimulus":"bees-with-color/bee-B2SM.svg","response":0,"trial_type":"image-button-response","trial_index":162,"time_elapsed":730945,"internal_node_id":"0.0-6.0-0.26","subject_id":"5fac1a3e935a7d133be5a4d7","study_id":"60edd13110225f80f9f3709b","session_id":"6196c4a5ca708fba99166d2a","condition":"contingent","relevant_dimensions":["antennae","wings"],"bee_group":{"antennae":"A","wings":"2","pattern":"X","legs":"X"},"bonus":1.5000000000000009},{"rt":612.5,"stimulus":"bees-with-color/bee-B2SF.svg","response":0,"trial_type":"image-button-response","trial_index":163,"time_elapsed":731559,"internal_node_id":"0.0-6.0-0.27","subject_id":"5fac1a3e935a7d133be5a4d7","study_id":"60edd13110225f80f9f3709b","session_id":"6196c4a5ca708fba99166d2a","condition":"contingent","relevant_dimensions":["antennae","wings"],"bee_group":{"antennae":"A","wings":"2","pattern":"X","legs":"X"},"bonus":1.5000000000000009},{"rt":1193,"stimulus":"bees-with-color/bee-B1SF.svg","response":0,"trial_type":"image-button-response","trial_index":164,"time_elapsed":732754,"internal_node_id":"0.0-6.0-0.28","subject_id":"5fac1a3e935a7d133be5a4d7","study_id":"60edd13110225f80f9f3709b","session_id":"6196c4a5ca708fba99166d2a","condition":"contingent","relevant_dimensions":["antenna