[{"success":true,"trial_type":"fullscreen","trial_index":0,"time_elapsed":24755,"internal_node_id":"0.0-0.0","subject_id":"5eac16121aa756036b67bc5d","study_id":"60edd13110225f80f9f3709b","session_id":"6196baa7cc47ce778269ec4a","condition":"full-information","relevant_dimensions":["wings","legs"],"bee_group":{"antennae":"X","wings":"2","pattern":"X","legs":"F"},"bonus":0.22000000000000078},{"success":true,"timeout":false,"failed_images":[],"failed_audio":[],"failed_video":[],"trial_type":"preload","trial_index":1,"time_elapsed":27155,"internal_node_id":"0.0-1.0","subject_id":"5eac16121aa756036b67bc5d","study_id":"60edd13110225f80f9f3709b","session_id":"6196baa7cc47ce778269ec4a","condition":"full-information","relevant_dimensions":["wings","legs"],"bee_group":{"antennae":"X","wings":"2","pattern":"X","legs":"F"},"bonus":0.22000000000000078},{"rt":5503.399999976158,"stimulus":"Welcome! Press any key to begin.","response":" ","trial_type":"html-keyboard-response","trial_index":2,"time_elapsed":32661,"internal_node_id":"0.0-2.0","subject_id":"5eac16121aa756036b67bc5d","study_id":"60edd13110225f80f9f3709b","session_id":"6196baa7cc47ce778269ec4a","condition":"full-information","relevant_dimensions":["wings","legs"],"bee_group":{"antennae":"X","wings":"2","pattern":"X","legs":"F"},"bonus":0.22000000000000078},{"view_history":[{"page_index":0,"viewing_time":23503.600000023842},{"page_index":1,"viewing_time":16167.700000047684},{"page_index":2,"viewing_time":9583.799999952316},{"page_index":3,"viewing_time":13135.899999976158},{"page_index":4,"viewing_time":6200.300000071526},{"page_index":5,"viewing_time":7223.699999928474},{"page_index":6,"viewing_time":3065.3000000715256},{"page_index":7,"viewing_time":5000.5},{"page_index":6,"viewing_time":12862.199999928474},{"page_index":7,"viewing_time":2976.2000000476837},{"page_index":8,"viewing_time":5967.399999976158},{"page_index":9,"viewing_time":5048.600000023842},{"page_index":10,"viewing_time":4231.899999976158},{"page_index":11,"viewing_time":8984.399999976158},{"page_index":12,"viewing_time":9311.100000023842},{"page_index":13,"viewing_time":1136.3999999761581},{"page_index":14,"viewing_time":3775.9000000953674}],"rt":138176.40000009537,"trial_type":"instructions","trial_index":3,"time_elapsed":170839,"internal_node_id":"0.0-3.0-0.0","subject_id":"5eac16121aa756036b67bc5d","study_id":"60edd13110225f80f9f3709b","session_id":"6196baa7cc47ce778269ec4a","condition":"full-information","relevant_dimensions":["wings","legs"],"bee_group":{"antennae":"X","wings":"2","pattern":"X","legs":"F"},"bonus":0.22000000000000078},{"rt":12448.600000023842,"response":{"Q0":["Two or six legs","Stripes or spots on body","Single or double wings","Antennae or no antennae"]},"question_order":[0],"trial_type":"survey-multi-select","trial_index":4,"time_elapsed":183308,"internal_node_id":"0.0-3.0-1.0","subject_id":"5eac16121aa756036b67bc5d","study_id":"60edd13110225f80f9f3709b","session_id":"6196baa7cc47ce778269ec4a","condition":"full-information","relevant_dimensions":["wings","legs"],"bee_group":{"antennae":"X","wings":"2","pattern":"X","legs":"F"},"correct":true,"bonus":0.22000000000000078},{"rt":28214.600000023842,"response":{"Q1":"No.","Q2":"Based on the four features of the bee.","Q3":"You do not learn if it was friendly or dangerous, and do not alter your bonus."},"question_order":[0,1,2],"trial_type":"survey-multi-choice","trial_index":5,"time_elapsed":211537,"internal_node_id":"0.0-3.0-2.0","subject_id":"5eac16121aa756036b67bc5d","study_id":"60edd13110225f80f9f3709b","session_id":"6196baa7cc47ce778269ec4a","condition":"full-information","relevant_dimensions":["wings","legs"],"bee_group":{"antennae":"X","wings":"2","pattern":"X","legs":"F"},"correct":false,"bonus":0.22000000000000078},{"rt":5589.300000071526,"stimulus":"<p>You did not answer all comprehension questions correctly.<br>Press <b>continue</b> to review the instructions again.</p>","response":0,"trial_type":"html-button-response","trial_index":6,"time_elapsed":217135,"internal_node_id":"0.0-3.0-3.0","subject_id":"5eac16121aa756036b67bc5d","study_id":"60edd13110225f80f9f3709b","session_id":"6196baa7cc47ce778269ec4a","condition":"full-information","relevant_dimensions":["wings","legs"],"bee_group":{"antennae":"X","wings":"2","pattern":"X","legs":"F"},"bonus":0.22000000000000078},{"view_history":[{"page_index":0,"viewing_time":1393.8999999761581},{"page_index":1,"viewing_time":84368.70000004768},{"page_index":2,"viewing_time":20999.299999952316},{"page_index":3,"viewing_time":30096.200000047684},{"page_index":4,"viewing_time":60023.89999997616},{"page_index":5,"viewing_time":19537},{"page_index":6,"viewing_time":97638.60000002384},{"page_index":7,"viewing_time":5937.5},{"page_index":8,"viewing_time":3078.6999999284744},{"page_index":9,"viewing_time":2472},{"page_index":10,"viewing_time":983.6000000238419},{"page_index":11,"viewing_time":11488.700000047684},{"page_index":12,"viewing_time":3095.399999976158},{"page_index":13,"viewing_time":1119.7999999523163},{"page_index":14,"viewing_time":936.4000000953674}],"rt":343170.7999999523,"trial_type":"instructions","trial_index":7,"time_elapsed":560309,"internal_node_id":"0.0-3.0-4.0-0.0","subject_id":"5eac16121aa756036b67bc5d","study_id":"60edd13110225f80f9f3709b","session_id":"6196baa7cc47ce778269ec4a","condition":"full-information","relevant_dimensions":["wings","legs"],"bee_group":{"antennae":"X","wings":"2","pattern":"X","legs":"F"},"bonus":0.22000000000000078},{"rt":13824.299999952316,"response":{"Q0":["Two or six legs","Stripes or spots on body","Single or double wings","Antennae or no antennae"]},"question_order":[0],"trial_type":"survey-multi-select","trial_index":8,"time_elapsed":574153,"internal_node_id":"0.0-3.0-4.0-1.0","subject_id":"5eac16121aa756036b67bc5d","study_id":"60edd13110225f80f9f3709b","session_id":"6196baa7cc47ce778269ec4a","condition":"full-information","relevant_dimensions":["wings","legs"],"bee_group":{"antennae":"X","wings":"2","pattern":"X","legs":"F"},"correct":true,"bonus":0.22000000000000078},{"rt":49687.39999997616,"response":{"Q1":"No.","Q2":"Based on the four features of the bee.","Q3":"You learn if it was friendly or dangerous, but do not alter your bonus."},"question_order":[0,1,2],"trial_type":"survey-multi-choice","trial_index":9,"time_elapsed":623847,"internal_node_id":"0.0-3.0-4.0-2.0","subject_id":"5eac16121aa756036b67bc5d","study_id":"60edd13110225f80f9f3709b","session_id":"6196baa7cc47ce778269ec4a","condition":"full-information","relevant_dimensions":["wings","legs"],"bee_group":{"antennae":"X","wings":"2","pattern":"X","legs":"F"},"correct":true,"bonus":0.22000000000000078},{"rt":2382.7000000476837,"stimulus":"<p>Congrats, you got everything right<br>When you're ready, click the button below to continue to the experiment.</p>","response":0,"trial_type":"html-button-response","trial_index":10,"time_elapsed":626238,"internal_node_id":"0.0-3.0-4.0-3.0","subject_id":"5eac16121aa756036b67bc5d","study_id":"60edd13110225f80f9f3709b","session_id":"6196baa7cc47ce778269ec4a","condition":"full-information","relevant_dimensions":["wings","legs"],"bee_group":{"antennae":"X","wings":"2","pattern":"X","legs":"F"},"bonus":0.22000000000000078},{"rt":4015,"stimulus":"bees-with-color/bee-B2DF.svg","response":0,"trial_type":"image-button-response","trial_index":11,"time_elapsed":630263,"internal_node_id":"0.0-4.0-0.0","subject_id":"5eac16121aa756036b67bc5d","study_id":"60edd13110225f80f9f3709b","session_id":"6196baa7cc47ce778269ec4a","condition":"full-information","relevant_dimensions":["wings","legs"],"bee_group":{"antennae":"X","wings":"2","pattern":"X","legs":"F"},"action":"harvest","summary":"bad-harvest","bonus":0.22000000000000078},{"rt":9373.699999928474,"stimulus":"\n                    <p><b>Action: <em>harvest</em></b></p>\n                    <p>This is the bee that you just saw.</p>\n                    <img src=\"bees-with-color/bee-B2DF.svg\" width=\"200\">\n                    <p><span class=\"redText\">Bad choice, the bee was angry.</span><br><b>You have been stung!</b><br>Your pay has been decreased by $0.10. Your bonus pay is now $0.44.</p>\n            ","response":0,"trial_type":"html-button-response","trial_index":12,"time_elapsed":639646,"internal_node_id":"0.0-4.0-1.0","subject_id":"5eac16121aa756036b67bc5d","study_id":"60edd13110225f80f9f3709b","session_id":"6196baa7cc47ce778269ec4a","condition":"full-information","relevant_dimensions":["wings","legs"],"bee_group":{"antennae":"X","wings":"2","pattern":"X","legs":"F"},"bonus":0.22000000000000078},{"rt":1758.1999999284744,"stimulus":"bees-with-color/bee-A1DF.svg","response":1,"trial_type":"image-button-response","trial_index":13,"time_elapsed":641414,"internal_node_id":"0.0-4.0-0.1","subject_id":"5eac16121aa756036b67bc5d","study_id":"60edd13110225f80f9f3709b","session_id":"6196baa7cc47ce778269ec4a","condition":"full-information","relevant_dimensions":["wings","legs"],"bee_group":{"antennae":"X","wings":"2","pattern":"X","legs":"F"},"action":"avoid","summary":"bad-avoid","bonus":0.22000000000000078},{"rt":7879.799999952316,"stimulus":"\n                    <p><b>Action: <em>avoid</em></b></p>\n                    <p>This is the bee that you just saw.</p>\n                    <img src=\"bees-with-color/bee-A1DF.svg\" width=\"200\">\n                    <p><span class=\"redText\">Bad choice,</span> the bee was friendly.<br>Your bonus pay is unchanged, and remains at $0.44.</p>\n            ","response":0,"trial_type":"html-button-response","trial_index":14,"time_elapsed":649303,"internal_node_id":"0.0-4.0-1.1","subject_id":"5eac16121aa756036b67bc5d","study_id":"60edd13110225f80f9f3709b","session_id":"6196baa7cc47ce778269ec4a","condition":"full-information","relevant_dimensions":["wings","legs"],"bee_group":{"antennae":"X","wings":"2","pattern":"X","legs":"F"},"bonus":0.22000000000000078},{"rt":2695.399999976158,"stimulus":"bees-with-color/bee-B1SM.svg","response":1,"trial_type":"image-button-response","trial_index":15,"time_elapsed":652006,"internal_node_id":"0.0-4.0-0.2","subject_id":"5eac16121aa756036b67bc5d","study_id":"60edd13110225f80f9f3709b","session_id":"6196baa7cc47ce778269ec4a","condition":"full-information","relevant_dimensions":["wings","legs"],"bee_group":{"antennae":"X","wings":"2","pattern":"X","legs":"F"},"action":"avoid","summary":"bad-avoid","bonus":0.22000000000000078},{"rt":1914.6000000238419,"stimulus":"\n                    <p><b>Action: <em>avoid</em></b></p>\n                    <p>This is the bee that you just saw.</p>\n                    <img src=\"bees-with-color/bee-B1SM.svg\" width=\"200\">\n                    <p><span class=\"redText\">Bad choice,</span> the bee was friendly.<br>Your bonus pay is unchanged, and remains at $0.44.</p>\n            ","response":0,"trial_type":"html-button-response","trial_index":16,"time_elapsed":653926,"internal_node_id":"0.0-4.0-1.2","subject_id":"5eac16121aa756036b67bc5d","study_id":"60edd13110225f80f9f3709b","session_id":"6196baa7cc47ce778269ec4a","condition":"full-information","relevant_dimensions":["wings","legs"],"bee_group":{"antennae":"X","wings":"2","pattern":"X","legs":"F"},"bonus":0.22000000000000078},{"rt":3258,"stimulus":"bees-with-color/bee-A1SF.svg","response":0,"trial_type":"image-button-response","trial_index":17,"time_elapsed":657190,"internal_node_id":"0.0-4.0-0.3","subject_id":"5eac16121aa756036b67bc5d","study_id":"60edd13110225f80f9f3709b","session_id":"6196baa7cc47ce778269ec4a","condition":"full-information","relevant_dimensions":["wings","legs"],"bee_group":{"antennae":"X","wings":"2","pattern":"X","legs":"F"},"action":"harvest","summary":"good-harvest","bonus":0.22000000000000078},{"rt":2040.8999999761581,"stimulus":"\n                    <p><b>Action: <em>harvest</em></b></p>\n                    <p>This is the bee that you just saw.</p>\n                    <img src=\"bees-with-color/bee-A1SF.svg\" width=\"200\">\n                    <p><span class=\"greenText\"><b>Successful harvest!</b></span><br>Your pay has increased by $0.02. Your bonus pay is now $0.46.</p>\n            ","response":0,"trial_type":"html-button-response","trial_index":18,"time_elapsed":659238,"internal_node_id":"0.0-4.0-1.3","subject_id":"5eac16121aa756036b67bc5d","study_id":"60edd13110225f80f9f3709b","session_id":"6196baa7cc47ce778269ec4a","condition":"full-information","relevant_dimensions":["wings","legs"],"bee_group":{"antennae":"X","wings":"2","pattern":"X","legs":"F"},"bonus":0.22000000000000078},{"rt":1442.6000000238419,"stimulus":"bees-with-color/bee-B2SM.svg","response":0,"trial_type":"image-button-response","trial_index":19,"time_elapsed":660687,"internal_node_id":"0.0-4.0-0.4","subject_id":"5eac16121aa756036b67bc5d","study_id":"60edd13110225f80f9f3709b","session_id":"6196baa7cc47ce778269ec4a","condition":"full-information","relevant_dimensions":["wings","legs"],"bee_group":{"antennae":"X","wings":"2","pattern":"X","legs":"F"},"action":"harvest","summary":"good-harvest","bonus":0.22000000000000078},{"rt":1767.6000000238419,"stimulus":"\n                    <p><b>Action: <em>harvest</em></b></p>\n                    <p>This is the bee that you just saw.</p>\n                    <img src=\"bees-with-color/bee-B2SM.svg\" width=\"200\">\n                    <p><span class=\"greenText\"><b>Successful harvest!</b></span><br>Your pay has increased by $0.02. Your bonus pay is now $0.48.</p>\n            ","response":0,"trial_type":"html-button-response","trial_index":20,"time_elapsed":662463,"internal_node_id":"0.0-4.0-1.4","subject_id":"5eac16121aa756036b67bc5d","study_id":"60edd13110225f80f9f3709b","session_id":"6196baa7cc47ce778269ec4a","condition":"full-information","relevant_dimensions":["wings","legs"],"bee_group":{"antennae":"X","wings":"2","pattern":"X","legs":"F"},"bonus":0.22000000000000078},{"rt":2030.6999999284744,"stimulus":"bees-with-color/bee-B2DM.svg","response":1,"trial_type":"image-button-response","trial_index":21,"time_elapsed":664503,"internal_node_id":"0.0-4.0-0.5","subject_id":"5eac16121aa756036b67bc5d","study_id":"60edd13110225f80f9f3709b","session_id":"6196baa7cc47ce778269ec4a","condition":"full-information","relevant_dimensions":["wings","legs"],"bee_group":{"antennae":"X","wings":"2","pattern":"X","legs":"F"},"action":"avoid","summary":"bad-avoid","bonus":0.22000000000000078},{"rt":984.1000000238419,"stimulus":"\n                    <p><b>Action: <em>avoid</em></b></p>\n                    <p>This is the bee that you just saw.</p>\n                    <img src=\"bees-with-color/bee-B2DM.svg\" width=\"200\">\n                    <p><span class=\"redText\">Bad choice,</span> the bee was friendly.<br>Your bonus pay is unchanged, and remains at $0.48.</p>\n            ","response":0,"trial_type":"html-button-response","trial_index":22,"time_elapsed":665493,"internal_node_id":"0.0-4.0-1.5","subject_id":"5eac16121aa756036b67bc5d","study_id":"60edd13110225f80f9f3709b","session_id":"6196baa7cc47ce778269ec4a","condition":"full-information","relevant_dimensions":["wings","legs"],"bee_group":{"antennae":"X","wings":"2","pattern":"X","legs":"F"},"bonus":0.22000000000000078},{"rt":2267.6999999284744,"stimulus":"bees-with-color/bee-A2SF.svg","response":0,"trial_type":"image-button-response","trial_index":23,"time_elapsed":667766,"internal_node_id":"0.0-4.0-0.6","subject_id":"5eac16121aa756036b67bc5d","study_id":"60edd13110225f80f9f3709b","session_id":"6196baa7cc47ce778269ec4a","condition":"full-information","relevant_dimensions":["wings","legs"],"bee_group":{"antennae":"X","wings":"2","pattern":"X","legs":"F"},"action":"harvest","summary":"bad-harvest","bonus":0.22000000000000078},{"rt":1073.1000000238419,"stimulus":"\n                    <p><b>Action: <em>harvest</em></b></p>\n                    <p>This is the bee that you just saw.</p>\n                    <img src=\"bees-with-color/bee-A2SF.svg\" width=\"200\">\n                    <p><span class=\"redText\">Bad choice, the bee was angry.</span><br><b>You have been stung!</b><br>Your pay has been decreased by $0.10. Your bonus pay is now $0.38.</p>\n            ","response":0,"trial_type":"html-button-response","trial_index":24,"time_elapsed":668846,"internal_node_id":"0.0-4.0-1.6","subject_id":"5eac16121aa756036b67bc5d","study_id":"60edd13110225f80f9f3709b","session_id":"6196baa7cc47ce778269ec4a","condition":"full-information","relevant_dimensions":["wings","legs"],"bee_group":{"antennae":"X","wings":"2","pattern":"X","legs":"F"},"bonus":0.22000000000000078},{"rt":1810.6000000238419,"stimulus":"bees-with-color/bee-B1SF.svg","response":1,"trial_type":"image-button-response","trial_index":25,"time_elapsed":670663,"internal_node_id":"0.0-4.0-0.7","subject_id":"5eac16121aa756036b67bc5d","study_id":"60edd13110225f80f9f3709b","session_id":"6196baa7cc47ce778269ec4a","condition":"full-information","relevant_dimensions":["wings","legs"],"bee_group":{"antennae":"X","wings":"2","pattern":"X","legs":"F"},"action":"avoid","summary":"bad-avoid","bonus":0.22000000000000078},{"rt":922,"stimulus":"\n                    <p><b>Action: <em>avoid</em></b></p>\n                    <p>This is the bee that you just saw.</p>\n                    <img src=\"bees-with-color/bee-B1SF.svg\" width=\"200\">\n                    <p><span class=\"redText\">Bad choice,</span> the bee was friendly.<br>Your bonus pay is unchanged, and remains at $0.38.</p>\n            ","response":0,"trial_type":"html-button-response","trial_index":26,"time_elapsed":671590,"internal_node_id":"0.0-4.0-1.7","subject_id":"5eac16121aa756036b67bc5d","study_id":"60edd13110225f80f9f3709b","session_id":"6196baa7cc47ce778269ec4a","condition":"full-information","relevant_dimensions":["wings","legs"],"bee_group":{"antennae":"X","wings":"2","pattern":"X","legs":"F"},"bonus":0.22000000000000078},{"rt":1215.8999999761581,"stimulus":"bees-with-color/bee-A1SM.svg","response":1,"trial_type":"image-button-response","trial_index":27,"time_elapsed":672815,"internal_node_id":"0.0-4.0-0.8","subject_id":"5eac16121aa756036b67bc5d","study_id":"60edd13110225f80f9f3709b","session_id":"6196baa7cc47ce778269ec4a","condition":"full-information","relevant_dimensions":["wings","legs"],"bee_group":{"antennae":"X","wings":"2","pattern":"X","legs":"F"},"action":"avoid","summary":"bad-avoid","bonus":0.22000000000000078},{"rt":592.1000000238419,"stimulus":"\n                    <p><b>Action: <em>avoid</em></b></p>\n                    <p>This is the bee that you just saw.</p>\n                    <img src=\"bees-with-color/bee-A1SM.svg\" width=\"200\">\n                    <p><span class=\"redText\">Bad choice,</span> the bee was friendly.<br>Your bonus pay is unchanged, and remains at $0.38.</p>\n            ","response":0,"trial_type":"html-button-response","trial_index":28,"time_elapsed":673414,"internal_node_id":"0.0-4.0-1.8","subject_id":"5eac16121aa756036b67bc5d","study_id":"60edd13110225f80f9f3709b","session_id":"6196baa7cc47ce778269ec4a","condition":"full-information","relevant_dimensions":["wings","legs"],"bee_group":{"antennae":"X","wings":"2","pattern":"X","legs":"F"},"bonus":0.22000000000000078},{"rt":801.1000000238419,"stimulus":"bees-with-color/bee-A2DF.svg","response":1,"trial_type":"image-button-response","trial_index":29,"time_elapsed":674223,"internal_node_id":"0.0-4.0-0.9","subject_id":"5eac16121aa756036b67bc5d","study_id":"60edd13110225f80f9f3709b","session_id":"6196baa7cc47ce778269ec4a","condition":"full-information","relevant_dimensions":["wings","legs"],"bee_group":{"antennae":"X","wings":"2","pattern":"X","legs":"F"},"action":"avoid","summary":"good-avoid","bonus":0.22000000000000078},{"rt":855.7000000476837,"stimulus":"\n                    <p><b>Action: <em>avoid</em></b></p>\n                    <p>This is the bee that you just saw.</p>\n                    <img src=\"bees-with-color/bee-A2DF.svg\" width=\"200\">\n                    <p><span class=\"greenText\">Good choice!</span>  This bee would have stung you.<br>Your bonus pay is unchanged, and remains at $0.38.</p>\n            ","response":0,"trial_type":"html-button-response","trial_index":30,"time_elapsed":675084,"internal_node_id":"0.0-4.0-1.9","subject_id":"5eac16121aa756036b67bc5d","study_id":"60edd13110225f80f9f3709b","session_id":"6196baa7cc47ce778269ec4a","condition":"full-information","relevant_dimensions":["wings","legs"],"bee_group":{"antennae":"X","wings":"2","pattern":"X","legs":"F"},"bonus":0.22000000000000078},{"rt":2998.1999999284744,"stimulus":"bees-with-color/bee-A1DM.svg","response":1,"trial_type":"image-button-response","trial_index":31,"time_elapsed":678089,"internal_node_id":"0.0-4.0-0.10","subject_id":"5eac16121aa756036b67bc5d","study_id":"60edd13110225f80f9f3709b","session_id":"6196baa7cc47ce778269ec4a","condition":"full-information","relevant_dimensions":["wings","legs"],"bee_group":{"antennae":"X","wings":"2","pattern":"X","legs":"F"},"action":"avoid","summary":"bad-avoid","bonus":0.22000000000000078},{"rt":847.8000000715256,"stimulus":"\n                    <p><b>Action: <em>avoid</em></b></p>\n                    <p>This is the bee that you just saw.</p>\n                    <img src=\"bees-with-color/bee-A1DM.svg\" width=\"200\">\n                    <p><span class=\"redText\">Bad choice,</span> the bee was friendly.<br>Your bonus pay is unchanged, and remains at $0.38.</p>\n            ","response":0,"trial_type":"html-button-response","trial_index":32,"time_elapsed":678942,"internal_node_id":"0.0-4.0-1.10","subject_id":"5eac16121aa756036b67bc5d","study_id":"60edd13110225f80f9f3709b","session_id":"6196baa7cc47ce778269ec4a","condition":"full-information","relevant_dimensions":["wings","legs"],"bee_group":{"antennae":"X","wings":"2","pattern":"X","legs":"F"},"bonus":0.22000000000000078},{"rt":1385.7000000476837,"stimulus":"bees-with-color/bee-B1DM.svg","response":1,"trial_type":"image-button-response","trial_index":33,"time_elapsed":680336,"internal_node_id":"0.0-4.0-0.11","subject_id":"5eac16121aa756036b67bc5d","study_id":"60edd13110225f80f9f3709b","session_id":"6196baa7cc47ce778269ec4a","condition":"full-information","relevant_dimensions":["wings","legs"],"bee_group":{"antennae":"X","wings":"2","pattern":"X","legs":"F"},"action":"avoid","summary":"bad-avoid","bonus":0.22000000000000078},{"rt":1015,"stimulus":"\n                    <p><b>Action: <em>avoid</em></b></p>\n                    <p>This is the bee that you just saw.</p>\n                    <img src=\"bees-with-color/bee-B1DM.svg\" width=\"200\">\n                    <p><span class=\"redText\">Bad choice,</span> the bee was friendly.<br>Your bonus pay is unchanged, and remains at $0.38.</p>\n            ","response":0,"trial_type":"html-button-response","trial_index":34,"time_elapsed":681358,"internal_node_id":"0.0-4.0-1.11","subject_id":"5eac16121aa756036b67bc5d","study_id":"60edd13110225f80f9f3709b","session_id":"6196baa7cc47ce778269ec4a","condition":"full-information","relevant_dimensions":["wings","legs"],"bee_group":{"antennae":"X","wings":"2","pattern":"X","legs":"F"},"bonus":0.22000000000000078},{"rt":1307.7000000476837,"stimulus":"bees-with-color/bee-A2SM.svg","response":0,"trial_type":"image-button-response","trial_index":35,"time_elapsed":682671,"internal_node_id":"0.0-4.0-0.12","subject_id":"5eac16121aa756036b67bc5d","study_id":"60edd13110225f80f9f3709b","session_id":"6196baa7cc47ce778269ec4a","condition":"full-information","relevant_dimensions":["wings","legs"],"bee_group":{"antennae":"X","wings":"2","pattern":"X","legs":"F"},"action":"harvest","summary":"good-harvest","bonus":0.22000000000000078},{"rt":1616.7999999523163,"stimulus":"\n                    <p><b>Action: <em>harvest</em></b></p>\n                    <p>This is the bee that you just saw.</p>\n                    <img src=\"bees-with-color/bee-A2SM.svg\" width=\"200\">\n                    <p><span class=\"greenText\"><b>Successful harvest!</b></span><br>Your pay has increased by $0.02. Your bonus pay is now $0.40.</p>\n            ","response":0,"trial_type":"html-button-response","trial_index":36,"time_elapsed":684294,"internal_node_id":"0.0-4.0-1.12","subject_id":"5eac16121aa756036b67bc5d","study_id":"60edd13110225f80f9f3709b","session_id":"6196baa7cc47ce778269ec4a","condition":"full-information","relevant_dimensions":["wings","legs"],"bee_group":{"antennae":"X","wings":"2","pattern":"X","legs":"F"},"bonus":0.22000000000000078},{"rt":1521,"stimulus":"bees-with-color/bee-A2DM.svg","response":1,"trial_type":"image-button-response","trial_index":37,"time_elapsed":685823,"internal_node_id":"0.0-4.0-0.13","subject_id":"5eac16121aa756036b67bc5d","study_id":"60edd13110225f80f9f3709b","session_id":"6196baa7cc47ce778269ec4a","condition":"full-information","relevant_dimensions":["wings","legs"],"bee_group":{"antennae":"X","wings":"2","pattern":"X","legs":"F"},"action":"avoid","summary":"bad-avoid","bonus":0.22000000000000078},{"rt":656.3999999761581,"stimulus":"\n                    <p><b>Action: <em>avoid</em></b></p>\n                    <p>This is the bee that you just saw.</p>\n                    <img src=\"bees-with-color/bee-A2DM.svg\" width=\"200\">\n                    <p><span class=\"redText\">Bad choice,</span> the bee was friendly.<br>Your bonus pay is unchanged, and remains at $0.40.</p>\n            ","response":0,"trial_type":"html-button-response","trial_index":38,"time_elapsed":686488,"internal_node_id":"0.0-4.0-1.13","subject_id":"5eac16121aa756036b67bc5d","study_id":"60edd13110225f80f9f3709b","session_id":"6196baa7cc47ce778269ec4a","condition":"full-information","relevant_dimensions":["wings","legs"],"bee_group":{"antennae":"X","wings":"2","pattern":"X","legs":"F"},"bonus":0.22000000000000078},{"rt":1544,"stimulus":"bees-with-color/bee-B2SF.svg","response":1,"trial_type":"image-button-response","trial_index":39,"time_elapsed":688039,"internal_node_id":"0.0-4.0-0.14","subject_id":"5eac16121aa756036b67bc5d","study_id":"60edd13110225f80f9f3709b","session_id":"6196baa7cc47ce778269ec4a","condition":"full-information","relevant_dimensions":["wings","legs"],"bee_group":{"antennae":"X","wings":"2","pattern":"X","legs":"F"},"action":"avoid","summary":"good-avoid","bonus":0.22000000000000078},{"rt":919.2000000476837,"stimulus":"\n                    <p><b>Action: <em>avoid</em></b></p>\n                    <p>This is the bee that you just saw.</p>\n                    <img src=\"bees-with-color/bee-B2SF.svg\" width=\"200\">\n                    <p><span class=\"greenText\">Good choice!</span>  This bee would have stung you.<br>Your bonus pay is unchanged, and remains at $0.40.</p>\n            ","response":0,"trial_type":"html-button-response","trial_index":40,"time_elapsed":688965,"internal_node_id":"0.0-4.0-1.14","subject_id":"5eac16121aa756036b67bc5d","study_id":"60edd13110225f80f9f3709b","session_id":"6196baa7cc47ce778269ec4a","condition":"full-information","relevant_dimensions":["wings","legs"],"bee_group":{"antennae":"X","wings":"2","pattern":"X","legs":"F"},"bonus":0.22000000000000078},{"rt":1772.5,"stimulus":"bees-with-color/bee-B1DF.svg","response":0,"trial_type":"image-button-response","trial_index":41,"time_elapsed":690742,"internal_node_id":"0.0-4.0-0.15","subject_id":"5eac16121aa756036b67bc5d","study_id":"60edd13110225f80f9f3709b","session_id":"6196baa7cc47ce778269ec4a","condition":"full-information","relevant_dimensions":["wings","legs"],"bee_group":{"antennae":"X","wings":"2","pattern":"X","legs":"F"},"action":"harvest","summary":"good-harvest","bonus":0.22000000000000078},{"rt":761.7999999523163,"stimulus":"\n                    <p><b>Action: <em>harvest</em></b></p>\n                    <p>This is the bee that you just saw.</p>\n                    <img src=\"bees-with-color/bee-B1DF.svg\" width=\"200\">\n                    <p><span class=\"greenText\"><b>Successful harvest!</b></span><br>Your pay has increased by $0.02. Your bonus pay is now $0.42.</p>\n            ","response":0,"trial_type":"html-button-response","trial_index":42,"time_elapsed":691510,"internal_node_id":"0.0-4.0-1.15","subject_id":"5eac16121aa756036b67bc5d","study_id":"60edd13110225f80f9f3709b","session_id":"6196baa7cc47ce778269ec4a","condition":"full-information","relevant_dimensions":["wings","legs"],"bee_group":{"antennae":"X","wings":"2","pattern":"X","legs":"F"},"bonus":0.22000000000000078},{"rt":1513,"stimulus":"bees-with-color/bee-B2DF.svg","response":1,"trial_type":"image-button-response","trial_index":43,"time_elapsed":693031,"internal_node_id":"0.0-4.0-0.16","subject_id":"5eac16121aa756036b67bc5d","study_id":"60edd13110225f80f9f3709b","session_id":"6196baa7cc47ce778269ec4a","condition":"full-information","relevant_dimensions":["wings","legs"],"bee_group":{"antennae":"X","wings":"2","pattern":"X","legs":"F"},"action":"avoid","summary":"good-avoid","bonus":0.22000000000000078},{"rt":1112.3999999761581,"stimulus":"\n                    <p><b>Action: <em>avoid</em></b></p>\n                    <p>This is the bee that you just saw.</p>\n                    <img src=\"bees-with-color/bee-B2DF.svg\" width=\"200\">\n                    <p><span class=\"greenText\">Good choice!</span>  This bee would have stung you.<br>Your bonus pay is unchanged, and remains at $0.42.</p>\n            ","response":0,"trial_type":"html-button-response","trial_index":44,"time_elapsed":694152,"internal_node_id":"0.0-4.0-1.16","subject_id":"5eac16121aa756036b67bc5d","study_id":"60edd13110225f80f9f3709b","session_id":"6196baa7cc47ce778269ec4a","condition":"full-information","relevant_dimensions":["wings","legs"],"bee_group":{"antennae":"X","wings":"2","pattern":"X","legs":"F"},"bonus":0.22000000000000078},{"rt":1445.5,"stimulus":"bees-with-color/bee-B1SF.svg","response":1,"trial_type":"image-button-response","trial_index":45,"time_elapsed":695607,"internal_node_id":"0.0-4.0-0.17","subject_id":"5eac16121aa756036b67bc5d","study_id":"60edd13110225f80f9f3709b","session_id":"6196baa7cc47ce778269ec4a","condition":"full-information","relevant_dimensions":["wings","legs"],"bee_group":{"antennae":"X","wings":"2","pattern":"X","legs":"F"},"action":"avoid","summary":"bad-avoid","bonus":0.22000000000000078},{"rt":761.5,"stimulus":"\n                    <p><b>Action: <em>avoid</em></b></p>\n                    <p>This is the bee that you just saw.</p>\n                    <img src=\"bees-with-color/bee-B1SF.svg\" width=\"200\">\n                    <p><span class=\"redText\">Bad choice,</span> the bee was friendly.<br>Your bonus pay is unchanged, and remains at $0.42.</p>\n            ","response":0,"trial_type":"html-button-response","trial_index":46,"time_elapsed":696375,"internal_node_id":"0.0-4.0-1.17","subject_id":"5eac16121aa756036b67bc5d","study_id":"60edd13110225f80f9f3709b","session_id":"6196baa7cc47ce778269ec4a","condition":"full-information","relevant_dimensions":["wings","legs"],"bee_group":{"antennae":"X","wings":"2","pattern":"X","legs":"F"},"bonus":0.22000000000000078},{"rt":1882,"stimulus":"bees-with-color/bee-A1DM.svg","response":0,"trial_type":"image-button-response","trial_index":47,"time_elapsed":698262,"internal_node_id":"0.0-4.0-0.18","subject_id":"5eac16121aa756036b67bc5d","study_id":"60edd13110225f80f9f3709b","session_id":"6196baa7cc47ce778269ec4a","condition":"full-information","relevant_dimensions":["wings","legs"],"bee_group":{"antennae":"X","wings":"2","pattern":"X","legs":"F"},"action":"harvest","summary":"good-harvest","bonus":0.22000000000000078},{"rt":674.1999999284744,"stimulus":"\n                    <p><b>Action: <em>harvest</em></b></p>\n                    <p>This is the bee that you just saw.</p>\n                    <img src=\"bees-with-color/bee-A1DM.svg\" width=\"200\">\n                    <p><span class=\"greenText\"><b>Successful harvest!</b></span><br>Your pay has increased by $0.02. Your bonus pay is now $0.44.</p>\n            ","response":0,"trial_type":"html-button-response","trial_index":48,"time_elapsed":698941,"internal_node_id":"0.0-4.0-1.18","subject_id":"5eac16121aa756036b67bc5d","study_id":"60edd13110225f80f9f3709b","session_id":"6196baa7cc47ce778269ec4a","condition":"full-information","relevant_dimensions":["wings","legs"],"bee_group":{"antennae":"X","wings":"2","pattern":"X","legs":"F"},"bonus":0.22000000000000078},{"rt":1316.8999999761581,"stimulus":"bees-with-color/bee-B2SM.svg","response":0,"trial_type":"image-button-response","trial_index":49,"time_elapsed":700262,"internal_node_id":"0.0-4.0-0.19","subject_id":"5eac16121aa756036b67bc5d","study_id":"60edd13110225f80f9f3709b","session_id":"6196baa7cc47ce778269ec4a","condition":"full-information","relevant_dimensions":["wings","legs"],"bee_group":{"antennae":"X","wings":"2","pattern":"X","legs":"F"},"action":"harvest","summary":"good-harvest","bonus":0.22000000000000078},{"rt":915,"stimulus":"\n                    <p><b>Action: <em>harvest</em></b></p>\n                    <p>This is the bee that you just saw.</p>\n                    <img src=\"bees-with-color/bee-B2SM.svg\" width=\"200\">\n                    <p><span class=\"greenText\"><b>Successful harvest!</b></span><br>Your pay has increased by $0.02. Your bonus pay is now $0.46.</p>\n            ","response":0,"trial_type":"html-button-response","trial_index":50,"time_elapsed":701182,"internal_node_id":"0.0-4.0-1.19","subject_id":"5eac16121aa756036b67bc5d","study_id":"60edd13110225f80f9f3709b","session_id":"6196baa7cc47ce778269ec4a","condition":"full-information","relevant_dimensions":["wings","legs"],"bee_group":{"antennae":"X","wings":"2","pattern":"X","legs":"F"},"bonus":0.22000000000000078},{"rt":1529.6000000238419,"stimulus":"bees-with-color/bee-A2SM.svg","response":0,"trial_type":"image-button-response","trial_index":51,"time_elapsed":702718,"internal_node_id":"0.0-4.0-0.20","subject_id":"5eac16121aa756036b67bc5d","study_id":"60edd13110225f80f9f3709b","session_id":"6196baa7cc47ce778269ec4a","condition":"full-information","relevant_dimensions":["wings","legs"],"bee_group":{"antennae":"X","wings":"2","pattern":"X","legs":"F"},"action":"harvest","summary":"good-harvest","bonus":0.22000000000000078},{"rt":697.3999999761581,"stimulus":"\n                    <p><b>Action: <em>harvest</em></b></p>\n                    <p>This is the bee that you just saw.</p>\n                    <img src=\"bees-with-color/bee-A2SM.svg\" width=\"200\">\n                    <p><span class=\"greenText\"><b>Successful harvest!</b></span><br>Your pay has increased by $0.02. Your bonus pay is now $0.48.</p>\n            ","response":0,"trial_type":"html-button-response","trial_index":52,"time_elapsed":703422,"internal_node_id":"0.0-4.0-1.20","subject_id":"5eac16121aa756036b67bc5d","study_id":"60edd13110225f80f9f3709b","session_id":"6196baa7cc47ce778269ec4a","condition":"full-information","relevant_dimensions":["wings","legs"],"bee_group":{"antennae":"X","wings":"2","pattern":"X","legs":"F"},"bonus":0.22000000000000078},{"rt":1019.4000000953674,"stimulus":"bees-with-color/bee-B1DF.svg","response":0,"trial_type":"image-button-response","trial_index":53,"time_elapsed":704446,"internal_node_id":"0.0-4.0-0.21","subject_id":"5eac16121aa756036b67bc5d","study_id":"60edd13110225f80f9f3709b","session_id":"6196baa7cc47ce778269ec4a","condition":"full-information","relevant_dimensions":["wings","legs"],"bee_group":{"antennae":"X","wings":"2","pattern":"X","legs":"F"},"action":"harvest","summary":"good-harvest","bonus":0.22000000000000078},{"rt":634,"stimulus":"\n                    <p><b>Action: <em>harvest</em></b></p>\n                    <p>This is the bee that you just saw.</p>\n                    <img src=\"bees-with-color/bee-B1DF.svg\" width=\"200\">\n                    <p><span class=\"greenText\"><b>Successful harvest!</b></span><br>Your pay has increased by $0.02. Your bonus pay is now $0.50.</p>\n            ","response":0,"trial_type":"html-button-response","trial_index":54,"time_elapsed":705088,"internal_node_id":"0.0-4.0-1.21","subject_id":"5eac16121aa756036b67bc5d","study_id":"60edd13110225f80f9f3709b","session_id":"6196baa7cc47ce778269ec4a","condition":"full-information","relevant_dimensions":["wings","legs"],"bee_group":{"antennae":"X","wings":"2","pattern":"X","legs":"F"},"bonus":0.22000000000000078},{"rt":1297.5,"stimulus":"bees-with-color/bee-A1SF.svg","response":1,"trial_type":"image-button-response","trial_index":55,"time_elapsed":706390,"internal_node_id":"0.0-4.0-0.22","subject_id":"5eac16121aa756036b67bc5d","study_id":"60edd13110225f80f9f3709b","session_id":"6196baa7cc47ce778269ec4a","condition":"full-information","relevant_dimensions":["wings","legs"],"bee_group":{"antennae":"X","wings":"2","pattern":"X","legs":"F"},"action":"avoid","summary":"bad-avoid","bonus":0.22000000000000078},{"rt":746.8000000715256,"stimulus":"\n                    <p><b>Action: <em>avoid</em></b></p>\n                    <p>This is the bee that you just saw.</p>\n                    <img src=\"bees-with-color/bee-A1SF.svg\" width=\"200\">\n                    <p><span class=\"redText\">Bad choice,</span> the bee was friendly.<br>Your bonus pay is unchanged, and remains at $0.50.</p>\n            ","response":0,"trial_type":"html-button-response","trial_index":56,"time_elapsed":707142,"internal_node_id":"0.0-4.0-1.22","subject_id":"5eac16121aa756036b67bc5d","study_id":"60edd13110225f80f9f3709b","session_id":"6196baa7cc47ce778269ec4a","condition":"full-information","relevant_dimensions":["wings","legs"],"bee_group":{"antennae":"X","wings":"2","pattern":"X","legs":"F"},"bonus":0.22000000000000078},{"rt":2143.0999999046326,"stimulus":"bees-with-color/bee-A2SF.svg","response":0,"trial_type":"image-button-response","trial_index":57,"time_elapsed":709292,"internal_node_id":"0.0-4.0-0.23","subject_id":"5eac16121aa756036b67bc5d","study_id":"60edd13110225f80f9f3709b","session_id":"6196baa7cc47ce778269ec4a","condition":"full-information","relevant_dimensions":["wings","legs"],"bee_group":{"antennae":"X","wings":"2","pattern":"X","legs":"F"},"action":"harvest","summary":"bad-harvest","bonus":0.22000000000000078},{"rt":625.6999999284744,"stimulus":"\n                    <p><b>Action: <em>harvest</em></b></p>\n                    <p>This is the bee that you just saw.</p>\n                    <img src=\"bees-with-color/bee-A2SF.svg\" width=\"200\">\n                    <p><span class=\"redText\">Bad choice, the bee was angry.</span><br><b>You have been stung!</b><br>Your pay has been decreased by $0.10. Your bonus pay is now $0.40.</p>\n            ","response":0,"trial_type":"html-button-response","trial_index":58,"time_elapsed":709926,"internal_node_id":"0.0-4.0-1.23","subject_id":"5eac16121aa756036b67bc5d","study_id":"60edd13110225f80f9f3709b","session_id":"6196baa7cc47ce778269ec4a","condition":"full-information","relevant_dimensions":["wings","legs"],"bee_group":{"antennae":"X","wings":"2","pattern":"X","legs":"F"},"bonus":0.22000000000000078},{"rt":1577.6999999284744,"stimulus":"bees-with-color/bee-B2SF.svg","response":1,"trial_type":"image-button-response","trial_index":59,"time_elapsed":711510,"internal_node_id":"0.0-4.0-0.24","subject_id":"5eac16121aa756036b67bc5d","study_id":"60edd13110225f80f9f3709b","session_id":"6196baa7cc47ce778269ec4a","condition":"full-information","relevant_dimensions":["wings","legs"],"bee_group":{"antennae":"X","wings":"2","pattern":"X","legs":"F"},"action":"avoid","summary":"good-avoid","bonus":0.22000000000000078},{"rt":562.5,"stimulus":"\n                    <p><b>Action: <em>avoid</em></b></p>\n                    <p>This is the bee that you just saw.</p>\n                    <img src=\"bees-with-color/bee-B2SF.svg\" width=\"200\">\n                    <p><span class=\"greenText\">Good choice!</span>  This bee would have stung you.<br>Your bonus pay is unchanged, and remains at $0.40.</p>\n            ","response":0,"trial_type":"html-button-response","trial_index":60,"time_elapsed":712078,"internal_node_id":"0.0-4.0-1.24","subject_id":"5eac16121aa756036b67bc5d","study_id":"60edd13110225f80f9f3709b","session_id":"6196baa7cc47ce778269ec4a","condition":"full-information","relevant_dimensions":["wings","legs"],"bee_group":{"antennae":"X","wings":"2","pattern":"X","legs":"F"},"bonus":0.22000000000000078},{"rt":1275,"stimulus":"bees-with-color/bee-B1SM.svg","response":0,"trial_type":"image-button-response","trial_index":61,"time_elapsed":713358,"internal_node_id":"0.0-4.0-0.25","subject_id":"5eac16121aa756036b67bc5d","study_id":"60edd13110225f80f9f3709b","session_id":"6196baa7cc47ce778269ec4a","condition":"full-information","relevant_dimensions":["wings","legs"],"bee_group":{"antennae":"X","wings":"2","pattern":"X","legs":"F"},"action":"harvest","summary":"good-harvest","bonus":0.22000000000000078},{"rt":642.5,"stimulus":"\n                    <p><b>Action: <em>harvest</em></b></p>\n                    <p>This is the bee that you just saw.</p>\n                    <img src=\"bees-with-color/bee-B1SM.svg\" width=\"200\">\n                    <p><span class=\"greenText\"><b>Successful harvest!</b></span><br>Your pay has increased by $0.02. Your bonus pay is now $0.42.</p>\n            ","response":0,"trial_type":"html-button-response","trial_index":62,"time_elapsed":714006,"internal_node_id":"0.0-4.0-1.25","subject_id":"5eac16121aa756036b67bc5d","study_id":"60edd13110225f80f9f3709b","session_id":"6196baa7cc47ce778269ec4a","condition":"full-information","relevant_dimensions":["wings","legs"],"bee_group":{"antennae":"X","wings":"2","pattern":"X","legs":"F"},"bonus":0.22000000000000078},{"rt":1779.2999999523163,"stimulus":"bees-with-color/bee-B2DM.svg","response":1,"trial_type":"image-button-response","trial_index":63,"time_elapsed":715790,"internal_node_id":"0.0-4.0-0.26","subject_id":"5eac16121aa756036b67bc5d","study_id":"60edd13110225f80f9f3709b","session_id":"6196baa7cc47ce778269ec4a","condition":"full-information","relevant_dimensions":["wings","legs"],"bee_group":{"antennae":"X","wings":"2","pattern":"X","legs":"F"},"action":"avoid","summary":"bad-avoid","bonus":0.22000000000000078},{"rt":570.4000000953674,"stimulus":"\n                    <p><b>Action: <em>avoid</em></b></p>\n                    <p>This is the bee that you just saw.</p>\n                    <img src=\"bees-with-color/bee-B2DM.svg\" width=\"200\">\n                    <p><span class=\"redText\">Bad choice,</span> the bee was friendly.<br>Your bonus pay is unchanged, and remains at $0.42.</p>\n            ","response":0,"trial_type":"html-button-response","trial_index":64,"time_elapsed":716366,"internal_node_id":"0.0-4.0-1.26","subject_id":"5eac16121aa756036b67bc5d","study_id":"60edd13110225f80f9f3709b","session_id":"6196baa7cc47ce778269ec4a","condition":"full-information","relevant_dimensions":["wings","legs"],"bee_group":{"antennae":"X","wings":"2","pattern":"X","legs":"F"},"bonus":0.22000000000000078},{"rt":1137.3000000715256,"stimulus":"bees-with-color/bee-A1DF.svg","response":0,"trial_type":"image-button-response","trial_index":65,"time_elapsed":717510,"internal_node_id":"0.0-4.0-0.27","subject_id":"5eac16121aa756036b67bc5d","study_id":"60edd13110225f80f9f3709b","session_id":"6196baa7cc47ce778269ec4a","condition":"full-information","relevant_dimensions":["wings","legs"],"bee_group":{"antennae":"X","wings":"2","pattern":"X","legs":"F"},"action":"harvest","summary":"good-harvest","bonus":0.22000000000000078},{"rt":698.2999999523163,"stimulus":"\n                    <p><b>Action: <em>harvest</em></b></p>\n                    <p>This is the bee that you just saw.</p>\n                    <img src=\"bees-with-color/bee-A1DF.svg\" width=\"200\">\n                    <p><span class=\"greenText\"><b>Successful harvest!</b></span><br>Your pay has increased by $0.02. Your bonus pay is now $0.44.</p>\n            ","response":0,"trial_type":"html-button-response","trial_index":66,"time_elapsed":718214,"internal_node_id":"0.0-4.0-1.27","subject_id":"5eac16121aa756036b67bc5d","study_id":"60edd13110225f80f9f3709b","session_id":"6196baa7cc47ce778269ec4a","condition":"full-information","relevant_dimensions":["wings","legs"],"bee_group":{"antennae":"X","wings":"2","pattern":"X","legs":"F"},"bonus":0.22000000000000078},{"rt":1426.3999999761581,"stimulus":"bees-with-color/bee-A2DM.svg","response":1,"trial_type":"image-button-response","trial_index":67,"time_elapsed":719646,"internal_node_id":"0.0-4.0-0.28","subject_id":"5eac16121aa756036b67bc5d","study_id":"60edd13110225f80f9f3709b","session_id":"6196baa7cc47ce778269ec4a","condition":"full-information","relevant_dimensions":["wings","legs"],"bee_group":{"antennae":"X","wings":"2","pattern":"X","legs":"F"},"action":"avoid","summary":"bad-avoid","bonus":0.22000000000000078},{"rt":641,"stimulus":"\n                    <p><b>Action: <em>avoid</em></b></p>\n                    <p>This is the bee that you just saw.</p>\n                    <img src=\"bees-with-color/bee-A2DM.svg\" width=\"200\">\n                    <p><span class=\"redText\">Bad choice,</span> the bee was friendly.<br>Your bonus pay is unchanged, and remains at $0.44.</p>\n            ","response":0,"trial_type":"html-button-response","trial_index":68,"time_elapsed":720292,"internal_node_id":"0.0-4.0-1.28","subject_id":"5eac16121aa756036b67bc5d","study_id":"60edd13110225f80f9f3709b","session_id":"6196baa7cc47ce778269ec4a","condition":"full-information","relevant_dimensions":["wings","legs"],"bee_group":{"antennae":"X","wings":"2","pattern":"X","legs":"F"},"bonus":0.22000000000000078},{"rt":1359.1999999284744,"stimulus":"bees-with-color/bee-A2DF.svg","response":0,"trial_type":"image-button-response","trial_index":69,"time_elapsed":721656,"internal_node_id":"0.0-4.0-0.29","subject_id":"5eac16121aa756036b67bc5d","study_id":"60edd13110225f80f9f3709b","session_id":"6196baa7cc47ce778269ec4a","condition":"full-information","relevant_dimensions":["wings","legs"],"bee_group":{"antennae":"X","wings":"2","pattern":"X","legs":"F"},"action":"harvest","summary":"bad-harvest","bonus":0.22000000000000078},{"rt":894.8999999761581,"stimulus":"\n                    <p><b>Action: <em>harvest</em></b></p>\n                    <p>This is the bee that you just saw.</p>\n                    <img src=\"bees-with-color/bee-A2DF.svg\" width=\"200\">\n                    <p><span class=\"redText\">Bad choice, the bee was angry.</span><br><b>You have been stung!</b><br>Your pay has been decreased by $0.10. Your bonus pay is now $0.34.</p>\n            ","response":0,"trial_type":"html-button-response","trial_index":70,"time_elapsed":722556,"internal_node_id":"0.0-4.0-1.29","subject_id":"5eac16121aa756036b67bc5d","study_id":"60edd13110225f80f9f3709b","session_id":"6196baa7cc47ce778269ec4a","condition":"full-information","relevant_dimensions":["wings","legs"],"bee_group":{"antennae":"X","wings":"2","pattern":"X","legs":"F"},"bonus":0.22000000000000078},{"rt":1629.7000000476837,"stimulus":"bees-with-color/bee-A1SM.svg","response":0,"trial_type":"image-button-response","trial_index":71,"time_elapsed":724190,"internal_node_id":"0.0-4.0-0.30","subject_id":"5eac16121aa756036b67bc5d","study_id":"60edd13110225f80f9f3709b","session_id":"6196baa7cc47ce778269ec4a","condition":"full-information","relevant_dimensions":["wings","legs"],"bee_group":{"antennae":"X","wings":"2","pattern":"X","legs":"F"},"action":"harvest","summary":"good-harvest","bonus":0.22000000000000078},{"rt":610,"stimulus":"\n                    <p><b>Action: <em>harvest</em></b></p>\n                    <p>This is the bee that you just saw.</p>\n                    <img src=\"bees-with-color/bee-A1SM.svg\" width=\"200\">\n                    <p><span class=\"greenText\"><b>Successful harvest!</b></span><br>Your pay has increased by $0.02. Your bonus pay is now $0.36.</p>\n            ","response":0,"trial_type":"html-button-response","trial_index":72,"time_elapsed":724806,"internal_node_id":"0.0-4.0-1.30","subject_id":"5eac16121aa756036b67bc5d","study_id":"60edd13110225f80f9f3709b","session_id":"6196baa7cc47ce778269ec4a","condition":"full-information","relevant_dimensions":["wings","legs"],"bee_group":{"antennae":"X","wings":"2","pattern":"X","legs":"F"},"bonus":0.22000000000000078},{"rt":1290.0999999046326,"stimulus":"bees-with-color/bee-B1DM.svg","response":1,"trial_type":"image-button-response","trial_index":73,"time_elapsed":726104,"internal_node_id":"0.0-4.0-0.31","subject_id":"5eac16121aa756036b67bc5d","study_id":"60edd13110225f80f9f3709b","session_id":"6196baa7cc47ce778269ec4a","condition":"full-information","relevant_dimensions":["wings","legs"],"bee_group":{"antennae":"X","wings":"2","pattern":"X","legs":"F"},"action":"avoid","summary":"bad-avoid","bonus":0.22000000000000078},{"rt":729.6999999284744,"stimulus":"\n                    <p><b>Action: <em>avoid</em></b></p>\n                    <p>This is the bee that you just saw.</p>\n                    <img src=\"bees-with-color/bee-B1DM.svg\" width=\"200\">\n                    <p><span class=\"redText\">Bad choice,</span> the bee was friendly.<br>Your bonus pay is unchanged, and remains at $0.36.</p>\n            ","response":0,"trial_type":"html-button-response","trial_index":74,"time_elapsed":726839,"internal_node_id":"0.0-4.0-1.31","subject_id":"5eac16121aa756036b67bc5d","study_id":"60edd13110225f80f9f3709b","session_id":"6196baa7cc47ce778269ec4a","condition":"full-information","relevant_dimensions":["wings","legs"],"bee_group":{"antennae":"X","wings":"2","pattern":"X","legs":"F"},"bonus":0.22000000000000078},{"rt":1945.3999999761581,"stimulus":"bees-with-color/bee-A2SF.svg","response":1,"trial_type":"image-button-response","trial_index":75,"time_elapsed":728790,"internal_node_id":"0.0-4.0-0.32","subject_id":"5eac16121aa756036b67bc5d","study_id":"60edd13110225f80f9f3709b","session_id":"6196baa7cc47ce778269ec4a","condition":"full-information","relevant_dimensions":["wings","legs"],"bee_group":{"antennae":"X","wings":"2","pattern":"X","legs":"F"},"action":"avoid","summary":"good-avoid","bonus":0.22000000000000078},{"rt":643,"stimulus":"\n                    <p><b>Action: <em>avoid</em></b></p>\n                    <p>This is the bee that you just saw.</p>\n                    <img src=\"bees-with-color/bee-A2SF.svg\" width=\"200\">\n                    <p><span class=\"greenText\">Good choice!</span>  This bee would have stung you.<br>Your bonus pay is unchanged, and remains at $0.36.</p>\n            ","response":0,"trial_type":"html-button-response","trial_index":76,"time_elapsed":729439,"internal_node_id":"0.0-4.0-1.32","subject_id":"5eac16121aa756036b67bc5d","study_id":"60edd13110225f80f9f3709b","session_id":"6196baa7cc47ce778269ec4a","condition":"full-information","relevant_dimensions":["wings","legs"],"bee_group":{"antennae":"X","wings":"2","pattern":"X","legs":"F"},"bonus":0.22000000000000078},{"rt":1296.8000000715256,"stimulus":"bees-with-color/bee-B2DM.svg","response":0,"trial_type":"image-button-response","trial_index":77,"time_elapsed":730742,"internal_node_id":"0.0-4.0-0.33","subject_id":"5eac16121aa756036b67bc5d","study_id":"60edd13110225f80f9f3709b","session_id":"6196baa7cc47ce778269ec4a","condition":"full-information","relevant_dimensions":["wings","legs"],"bee_group":{"antennae":"X","wings":"2","pattern":"X","legs":"F"},"action":"harvest","summary":"good-harvest","bonus":0.22000000000000078},{"rt":697.7999999523163,"stimulus":"\n                    <p><b>Action: <em>harvest</em></b></p>\n                    <p>This is the bee that you just saw.</p>\n                    <img src=\"bees-with-color/bee-B2DM.svg\" width=\"200\">\n                    <p><span class=\"greenText\"><b>Successful harvest!</b></span><br>Your pay has increased by $0.02. Your bonus pay is now $0.38.</p>\n            ","response":0,"trial_type":"html-button-response","trial_index":78,"time_elapsed":731446,"internal_node_id":"0.0-4.0-1.33","subject_id":"5eac16121aa756036b67bc5d","study_id":"60edd13110225f80f9f3709b","session_id":"6196baa7cc47ce778269ec4a","condition":"full-information","relevant_dimensions":["wings","legs"],"bee_group":{"antennae":"X","wings":"2","pattern":"X","legs":"F"},"bonus":0.22000000000000078},{"rt":1155.3000000715256,"stimulus":"bees-with-color/bee-B2SF.svg","response":1,"trial_type":"image-button-response","trial_index":79,"time_elapsed":732608,"internal_node_id":"0.0-4.0-0.34","subject_id":"5eac16121aa756036b67bc5d","study_id":"60edd13110225f80f9f3709b","session_id":"6196baa7cc47ce778269ec4a","condition":"full-information","relevant_dimensions":["wings","legs"],"bee_group":{"antennae":"X","wings":"2","pattern":"X","legs":"F"},"action":"avoid","summary":"good-avoid","bonus":0.22000000000000078},{"rt":567.6000000238419,"stimulus":"\n                    <p><b>Action: <em>avoid</em></b></p>\n                    <p>This is the bee that you just saw.</p>\n                    <img src=\"bees-with-color/bee-B2SF.svg\" width=\"200\">\n                    <p><span class=\"greenText\">Good choice!</span>  This bee would have stung you.<br>Your bonus pay is unchanged, and remains at $0.38.</p>\n            ","response":0,"trial_type":"html-button-response","trial_index":80,"time_elapsed":733182,"internal_node_id":"0.0-4.0-1.34","subject_id":"5eac16121aa756036b67bc5d","study_id":"60edd13110225f80f9f3709b","session_id":"6196baa7cc47ce778269ec4a","condition":"full-information","relevant_dimensions":["wings","legs"],"bee_group":{"antennae":"X","wings":"2","pattern":"X","legs":"F"},"bonus":0.22000000000000078},{"rt":732.0999999046326,"stimulus":"bees-with-color/bee-B2SM.svg","response":1,"trial_type":"image-button-response","trial_index":81,"time_elapsed":733927,"internal_node_id":"0.0-4.0-0.35","subject_id":"5eac16121aa756036b67bc5d","study_id":"60edd13110225f80f9f3709b","session_id":"6196baa7cc47ce778269ec4a","condition":"full-information","relevant_dimensions":["wings","legs"],"bee_group":{"antennae":"X","wings":"2","pattern":"X","legs":"F"},"action":"avoid","summary":"bad-avoid","bonus":0.22000000000000078},{"rt":880.8999999761581,"stimulus":"\n                    <p><b>Action: <em>avoid</em></b></p>\n                    <p>This is the bee that you just saw.</p>\n                    <img src=\"bees-with-color/bee-B2SM.svg\" width=\"200\">\n                    <p><span class=\"redText\">Bad choice,</span> the bee was friendly.<br>Your bonus pay is unchanged, and remains at $0.38.</p>\n            ","response":0,"trial_type":"html-button-response","trial_index":82,"time_elapsed":734814,"internal_node_id":"0.0-4.0-1.35","subject_id":"5eac16121aa756036b67bc5d","study_id":"60edd13110225f80f9f3709b","session_id":"6196baa7cc47ce778269ec4a","condition":"full-information","relevant_dimensions":["wings","legs"],"bee_group":{"antennae":"X","wings":"2","pattern":"X","legs":"F"},"bonus":0.22000000000000078},{"rt":1290.4000000953674,"stimulus":"bees-with-color/bee-A2DM.svg","response":1,"trial_type":"image-button-response","trial_index":83,"time_elapsed":736110,"internal_node_id":"0.0-4.0-0.36","subject_id":"5eac16121aa756036b67bc5d","study_id":"60edd13110225f80f9f3709b","session_id":"6196baa7cc47ce778269ec4a","condition":"full-information","relevant_dimensions":["wings","legs"],"bee_group":{"antennae":"X","wings":"2","pattern":"X","legs":"F"},"action":"avoid","summary":"bad-avoid","bonus":0.22000000000000078},{"rt":599.6000000238419,"stimulus":"\n                    <p><b>Action: <em>avoid</em></b></p>\n                    <p>This is the bee that you just saw.</p>\n                    <img src=\"bees-with-color/bee-A2DM.svg\" width=\"200\">\n                    <p><span class=\"redText\">Bad choice,</span> the bee was friendly.<br>Your bonus pay is unchanged, and remains at $0.38.</p>\n            ","response":0,"trial_type":"html-button-response","trial_index":84,"time_elapsed":736717,"internal_node_id":"0.0-4.0-1.36","subject_id":"5eac16121aa756036b67bc5d","study_id":"60edd13110225f80f9f3709b","session_id":"6196baa7cc47ce778269ec4a","condition":"full-information","relevant_dimensions":["wings","legs"],"bee_group":{"antennae":"X","wings":"2","pattern":"X","legs":"F"},"bonus":0.22000000000000078},{"rt":1890.6000000238419,"stimulus":"bees-with-color/bee-A2SM.svg","response":0,"trial_type":"image-button-response","trial_index":85,"time_elapsed":738614,"internal_node_id":"0.0-4.0-0.37","subject_id":"5eac16121aa756036b67bc5d","study_id":"60edd13110225f80f9f3709b","session_id":"6196baa7cc47ce778269ec4a","condition":"full-information","relevant_dimensions":["wings","legs"],"bee_group":{"antennae":"X","wings":"2","pattern":"X","legs":"F"},"action":"harvest","summary":"good-harvest","bonus":0.22000000000000078},{"rt":666.1000000238419,"stimulus":"\n                    <p><b>Action: <em>harvest</em></b></p>\n                    <p>This is the bee that you just saw.</p>\n                    <img src=\"bees-with-color/bee-A2SM.svg\" width=\"200\">\n                    <p><span class=\"greenText\"><b>Successful harvest!</b></span><br>Your pay has increased by $0.02. Your bonus pay is now $0.40.</p>\n            ","response":0,"trial_type":"html-button-response","trial_index":86,"time_elapsed":739287,"internal_node_id":"0.0-4.0-1.37","subject_id":"5eac16121aa756036b67bc5d","study_id":"60edd13110225f80f9f3709b","session_id":"6196baa7cc47ce778269ec4a","condition":"full-information","relevant_dimensions":["wings","legs"],"bee_group":{"antennae":"X","wings":"2","pattern":"X","legs":"F"},"bonus":0.22000000000000078},{"rt":1418.6000000238419,"stimulus":"bees-with-color/bee-B1SM.svg","response":0,"trial_type":"image-button-response","trial_index":87,"time_elapsed":740711,"internal_node_id":"0.0-4.0-0.38","subject_id":"5eac16121aa756036b67bc5d","study_id":"60edd13110225f80f9f3709b","session_id":"6196baa7cc47ce778269ec4a","condition":"full-information","relevant_dimensions":["wings","legs"],"bee_group":{"antennae":"X","wings":"2","pattern":"X","legs":"F"},"action":"harvest","summary":"good-harvest","bonus":0.22000000000000078},{"rt":753.8000000715256,"stimulus":"\n                    <p><b>Action: <em>harvest</em></b></p>\n                    <p>This is the bee that you just saw.</p>\n                    <img src=\"bees-with-color/bee-B1SM.svg\" width=\"200\">\n                    <p><span class=\"greenText\"><b>Successful harvest!</b></span><br>Your pay has increased by $0.02. Your bonus pay is now $0.42.</p>\n            ","response":0,"trial_type":"html-button-response","trial_index":88,"time_elapsed":741471,"internal_node_id":"0.0-4.0-1.38","subject_id":"5eac16121aa756036b67bc5d","study_id":"60edd13110225f80f9f3709b","session_id":"6196baa7cc47ce778269ec4a","condition":"full-information","relevant_dimensions":["wings","legs"],"bee_group":{"antennae":"X","wings":"2","pattern":"X","legs":"F"},"bonus":0.22000000000000078},{"rt":1201.5,"stimulus":"bees-with-color/bee-A1DF.svg","response":0,"trial_type":"image-button-response","trial_index":89,"time_elapsed":742677,"internal_node_id":"0.0-4.0-0.39","subject_id":"5eac16121aa756036b67bc5d","study_id":"60edd13110225f80f9f3709b","session_id":"6196baa7cc47ce778269ec4a","condition":"full-information","relevant_dimensions":["wings","legs"],"bee_group":{"antennae":"X","wings":"2","pattern":"X","legs":"F"},"action":"harvest","summary":"good-harvest","bonus":0.22000000000000078},{"rt":531.3000000715256,"stimulus":"\n                    <p><b>Action: <em>harvest</em></b></p>\n                    <p>This is the bee that you just saw.</p>\n                    <img src=\"bees-with-color/bee-A1DF.svg\" width=\"200\">\n                    <p><span class=\"greenText\"><b>Successful harvest!</b></span><br>Your pay has increased by $0.02. Your bonus pay is now $0.44.</p>\n            ","response":0,"trial_type":"html-button-response","trial_index":90,"time_elapsed":743214,"internal_node_id":"0.0-4.0-1.39","subject_id":"5eac16121aa756036b67bc5d","study_id":"60edd13110225f80f9f3709b","session_id":"6196baa7cc47ce778269ec4a","condition":"full-information","relevant_dimensions":["wings","legs"],"bee_group":{"antennae":"X","wings":"2","pattern":"X","legs":"F"},"bonus":0.22000000000000078},{"rt":891.5,"stimulus":"bees-with-color/bee-B1DF.svg","response":0,"trial_type":"image-button-response","trial_index":91,"time_elapsed":744110,"internal_node_id":"0.0-4.0-0.40","subject_id":"5eac16121aa756036b67bc5d","study_id":"60edd13110225f80f9f3709b","session_id":"6196baa7cc47ce778269ec4a","condition":"full-information","relevant_dimensions":["wings","legs"],"bee_group":{"antennae":"X","wings":"2","pattern":"X","legs":"F"},"action":"harvest","summary":"good-harvest","bonus":0.22000000000000078},{"rt":619.8999999761581,"stimulus":"\n                    <p><b>Action: <em>harvest</em></b></p>\n                    <p>This is the bee that you just saw.</p>\n                    <img src=\"bees-with-color/bee-B1DF.svg\" width=\"200\">\n                    <p><span class=\"greenText\"><b>Successful harvest!</b></span><br>Your pay has increased by $0.02. Your bonus pay is now $0.46.</p>\n            ","response":0,"trial_type":"html-button-response","trial_index":92,"time_elapsed":744739,"internal_node_id":"0.0-4.0-1.40","subject_id":"5eac16121aa756036b67bc5d","study_id":"60edd13110225f80f9f3709b","session_id":"6196baa7cc47ce778269ec4a","condition":"full-information","relevant_dimensions":["wings","legs"],"bee_group":{"antennae":"X","wings":"2","pattern":"X","legs":"F"},"bonus":0.22000000000000078},{"rt":1182.2000000476837,"stimulus":"bees-with-color/bee-B1SF.svg","response":1,"trial_type":"image-button-response","trial_index":93,"time_elapsed":745926,"internal_node_id":"0.0-4.0-0.41","subject_id":"5eac16121aa756036b67bc5d","study_id":"60edd13110225f80f9f3709b","session_id":"6196baa7cc47ce778269ec4a","condition":"full-information","relevant_dimensions":["wings","legs"],"bee_group":{"antennae":"X","wings":"2","pattern":"X","legs":"F"},"action":"avoid","summary":"bad-avoid","bonus":0.22000000000000078},{"rt":970.7999999523163,"stimulus":"\n                    <p><b>Action: <em>avoid</em></b></p>\n                    <p>This is the bee that you just saw.</p>\n                    <img src=\"bees-with-color/bee-B1SF.svg\" width=\"200\">\n                    <p><span class=\"redText\">Bad choice,</span> the bee was friendly.<br>Your bonus pay is unchanged, and remains at $0.46.</p>\n            ","response":0,"trial_type":"html-button-response","trial_index":94,"time_elapsed":746902,"internal_node_id":"0.0-4.0-1.41","subject_id":"5eac16121aa756036b67bc5d","study_id":"60edd13110225f80f9f3709b","session_id":"6196baa7cc47ce778269ec4a","condition":"full-information","relevant_dimensions":["wings","legs"],"bee_group":{"antennae":"X","wings":"2","pattern":"X","legs":"F"},"bonus":0.22000000000000078},{"rt":1224.1000000238419,"stimulus":"bees-with-color/bee-A2DF.svg","response":1,"trial_type":"image-button-response","trial_index":95,"time_elapsed":748133,"internal_node_id":"0.0-4.0-0.42","subject_id":"5eac16121aa756036b67bc5d","study_id":"60edd13110225f80f9f3709b","session_id":"6196baa7cc47ce778269ec4a","condition":"full-information","relevant_dimensions":["wings","legs"],"bee_group":{"antennae":"X","wings":"2","pattern":"X","legs":"F"},"action":"avoid","summary":"good-avoid","bonus":0.22000000000000078},{"rt":502.3000000715256,"stimulus":"\n                    <p><b>Action: <em>avoid</em></b></p>\n                    <p>This is the bee that you just saw.</p>\n                    <img src=\"bees-with-color/bee-A2DF.svg\" width=\"200\">\n                    <p><span class=\"greenText\">Good choice!</span>  This bee would have stung you.<br>Your bonus pay is unchanged, and remains at $0.46.</p>\n            ","response":0,"trial_type":"html-button-response","trial_index":96,"time_elapsed":748639,"internal_node_id":"0.0-4.0-1.42","subject_id":"5eac16121aa756036b67bc5d","study_id":"60edd13110225f80f9f3709b","session_id":"6196baa7cc47ce778269ec4a","condition":"full-information","relevant_dimensions":["wings","legs"],"bee_group":{"antennae":"X","wings":"2","pattern":"X","legs":"F"},"bonus":0.22000000000000078},{"rt":1337.4000000953674,"stimulus":"bees-with-color/bee-B2DF.svg","response":1,"trial_type":"image-button-response","trial_index":97,"time_elapsed":749982,"internal_node_id":"0.0-4.0-0.43","subject_id":"5eac16121aa756036b67bc5d","study_id":"60edd13110225f80f9f3709b","session_id":"6196baa7cc47ce778269ec4a","condition":"full-information","relevant_dimensions":["wings","legs"],"bee_group":{"antennae":"X","wings":"2","pattern":"X","legs":"F"},"action":"avoid","summary":"good-avoid","bonus":0.22000000000000078},{"rt":592.8000000715256,"stimulus":"\n                    <p><b>Action: <em>avoid</em></b></p>\n                    <p>This is the bee that you just saw.</p>\n                    <img src=\"bees-with-color/bee-B2DF.svg\" width=\"200\">\n                    <p><span class=\"greenText\">Good choice!</span>  This bee would have stung you.<br>Your bonus pay is unchanged, and remains at $0.46.</p>\n            ","response":0,"trial_type":"html-button-response","trial_index":98,"time_elapsed":750582,"internal_node_id":"0.0-4.0-1.43","subject_id":"5eac16121aa756036b67bc5d","study_id":"60edd13110225f80f9f3709b","session_id":"6196baa7cc47ce778269ec4a","condition":"full-information","relevant_dimensions":["wings","legs"],"bee_group":{"antennae":"X","wings":"2","pattern":"X","legs":"F"},"bonus":0.22000000000000078},{"rt":1763.3000000715256,"stimulus":"bees-with-color/bee-A1SM.svg","response":0,"trial_type":"image-button-response","trial_index":99,"time_elapsed":752350,"internal_node_id":"0.0-4.0-0.44","subject_id":"5eac16121aa756036b67bc5d","study_id":"60edd13110225f80f9f3709b","session_id":"6196baa7cc47ce778269ec4a","condition":"full-information","relevant_dimensions":["wings","legs"],"bee_group":{"antennae":"X","wings":"2","pattern":"X","legs":"F"},"action":"harvest","summary":"good-harvest","bonus":0.22000000000000078},{"rt":512.2999999523163,"stimulus":"\n                    <p><b>Action: <em>harvest</em></b></p>\n                    <p>This is the bee that you just saw.</p>\n                    <img src=\"bees-with-color/bee-A1SM.svg\" width=\"200\">\n                    <p><span class=\"greenText\"><b>Successful harvest!</b></span><br>Your pay has increased by $0.02. Your bonus pay is now $0.48.</p>\n            ","response":0,"trial_type":"html-button-response","trial_index":100,"time_elapsed":752871,"internal_node_id":"0.0-4.0-1.44","subject_id":"5eac16121aa756036b67bc5d","study_id":"60edd13110225f80f9f3709b","session_id":"6196baa7cc47ce778269ec4a","condition":"full-information","relevant_dimensions":["wings","legs"],"bee_group":{"antennae":"X","wings":"2","pattern":"X","legs":"F"},"bonus":0.22000000000000078},{"rt":1249.1000000238419,"stimulus":"bees-with-color/bee-A1SF.svg","response":1,"trial_type":"image-button-response","trial_index":101,"time_elapsed":754126,"internal_node_id":"0.0-4.0-0.45","subject_id":"5eac16121aa756036b67bc5d","study_id":"60edd13110225f80f9f3709b","session_id":"6196baa7cc47ce778269ec4a","condition":"full-information","relevant_dimensions":["wings","legs"],"bee_group":{"antennae":"X","wings":"2","pattern":"X","legs":"F"},"action":"avoid","summary":"bad-avoid","bonus":0.22000000000000078},{"rt":570.2000000476837,"stimulus":"\n                    <p><b>Action: <em>avoid</em></b></p>\n                    <p>This is the bee that you just saw.</p>\n                    <img src=\"bees-with-color/bee-A1SF.svg\" width=\"200\">\n                    <p><span class=\"redText\">Bad choice,</span> the bee was friendly.<br>Your bonus pay is unchanged, and remains at $0.48.</p>\n            ","response":0,"trial_type":"html-button-response","trial_index":102,"time_elapsed":754702,"internal_node_id":"0.0-4.0-1.45","subject_id":"5eac16121aa756036b67bc5d","study_id":"60edd13110225f80f9f3709b","session_id":"6196baa7cc47ce778269ec4a","condition":"full-information","relevant_dimensions":["wings","legs"],"bee_group":{"antennae":"X","wings":"2","pattern":"X","legs":"F"},"bonus":0.22000000000000078},{"rt":1417.0999999046326,"stimulus":"bees-with-color/bee-A1DM.svg","response":1,"trial_type":"image-button-response","trial_index":103,"time_elapsed":756126,"internal_node_id":"0.0-4.0-0.46","subject_id":"5eac16121aa756036b67bc5d","study_id":"60edd13110225f80f9f3709b","session_id":"6196baa7cc47ce778269ec4a","condition":"full-information","relevant_dimensions":["wings","legs"],"bee_group":{"antennae":"X","wings":"2","pattern":"X","legs":"F"},"action":"avoid","summary":"bad-avoid","bonus":0.22000000000000078},{"rt":529.9000000953674,"stimulus":"\n                    <p><b>Action: <em>avoid</em></b></p>\n                    <p>This is the bee that you just saw.</p>\n                    <img src=\"bees-with-color/bee-A1DM.svg\" width=\"200\">\n                    <p><span class=\"redText\">Bad choice,</span> the bee was friendly.<br>Your bonus pay is unchanged, and remains at $0.48.</p>\n            ","response":0,"trial_type":"html-button-response","trial_index":104,"time_elapsed":756662,"internal_node_id":"0.0-4.0-1.46","subject_id":"5eac16121aa756036b67bc5d","study_id":"60edd13110225f80f9f3709b","session_id":"6196baa7cc47ce778269ec4a","condition":"full-information","relevant_dimensions":["wings","legs"],"bee_group":{"antennae":"X","wings":"2","pattern":"X","legs":"F"},"bonus":0.22000000000000078},{"rt":1177.5,"stimulus":"bees-with-color/bee-B1DM.svg","response":0,"trial_type":"image-button-response","trial_index":105,"time_elapsed":757845,"internal_node_id":"0.0-4.0-0.47","subject_id":"5eac16121aa756036b67bc5d","study_id":"60edd13110225f80f9f3709b","session_id":"6196baa7cc47ce778269ec4a","condition":"full-information","relevant_dimensions":["wings","legs"],"bee_group":{"antennae":"X","wings":"2","pattern":"X","legs":"F"},"action":"harvest","summary":"good-harvest","bonus":0.22000000000000078},{"rt":482.1999999284744,"stimulus":"\n                    <p><b>Action: <em>harvest</em></b></p>\n                    <p>This is the bee that you just saw.</p>\n                    <img src=\"bees-with-color/bee-B1DM.svg\" width=\"200\">\n                    <p><span class=\"greenText\"><b>Successful harvest!</b></span><br>Your pay has increased by $0.02. Your bonus pay is now $0.50.</p>\n            ","response":0,"trial_type":"html-button-response","trial_index":106,"time_elapsed":758334,"internal_node_id":"0.0-4.0-1.47","subject_id":"5eac16121aa756036b67bc5d","study_id":"60edd13110225f80f9f3709b","session_id":"6196baa7cc47ce778269ec4a","condition":"full-information","relevant_dimensions":["wings","legs"],"bee_group":{"antennae":"X","wings":"2","pattern":"X","legs":"F"},"bonus":0.22000000000000078},{"rt":1347.7000000476837,"stimulus":"bees-with-color/bee-B1DF.svg","response":0,"trial_type":"image-button-response","trial_index":107,"time_elapsed":759689,"internal_node_id":"0.0-4.0-0.48","subject_id":"5eac16121aa756036b67bc5d","study_id":"60edd13110225f80f9f3709b","session_id":"6196baa7cc47ce778269ec4a","condition":"full-information","relevant_dimensions":["wings","legs"],"bee_group":{"antennae":"X","wings":"2","pattern":"X","legs":"F"},"action":"harvest","summary":"good-harvest","bonus":0.22000000000000078},{"rt":439,"stimulus":"\n                    <p><b>Action: <em>harvest</em></b></p>\n                    <p>This is the bee that you just saw.</p>\n                    <img src=\"bees-with-color/bee-B1DF.svg\" width=\"200\">\n                    <p><span class=\"greenText\"><b>Successful harvest!</b></span><br>Your pay has increased by $0.02. Your bonus pay is now $0.52.</p>\n            ","response":0,"trial_type":"html-button-response","trial_index":108,"time_elapsed":760134,"internal_node_id":"0.0-4.0-1.48","subject_id":"5eac16121aa756036b67bc5d","study_id":"60edd13110225f80f9f3709b","session_id":"6196baa7cc47ce778269ec4a","condition":"full-information","relevant_dimensions":["wings","legs"],"bee_group":{"antennae":"X","wings":"2","pattern":"X","legs":"F"},"bonus":0.22000000000000078},{"rt":1073.6999999284744,"stimulus":"bees-with-color/bee-B2SM.svg","response":1,"trial_type":"image-button-response","trial_index":109,"time_elapsed":761215,"internal_node_id":"0.0-4.0-0.49","subject_id":"5eac16121aa756036b67bc5d","study_id":"60edd13110225f80f9f3709b","session_id":"6196baa7cc47ce778269ec4a","condition":"full-information","relevant_dimensions":["wings","legs"],"bee_group":{"antennae":"X","wings":"2","pattern":"X","legs":"F"},"action":"avoid","summary":"bad-avoid","bonus":0.22000000000000078},{"rt":686.2999999523163,"stimulus":"\n                    <p><b>Action: <em>avoid</em></b></p>\n                    <p>This is the bee that you just saw.</p>\n                    <img src=\"bees-with-color/bee-B2SM.svg\" width=\"200\">\n                    <p><span class=\"redText\">Bad choice,</span> the bee was friendly.<br>Your bonus pay is unchanged, and remains at $0.52.</p>\n            ","response":0,"trial_type":"html-button-response","trial_index":110,"time_elapsed":761910,"internal_node_id":"0.0-4.0-1.49","subject_id":"5eac16121aa756036b67bc5d","study_id":"60edd13110225f80f9f3709b","session_id":"6196baa7cc47ce778269ec4a","condition":"full-information","relevant_dimensions":["wings","legs"],"bee_group":{"antennae":"X","wings":"2","pattern":"X","legs":"F"},"bonus":0.22000000000000078},{"rt":1323.7999999523163,"stimulus":"bees-with-color/bee-B1SF.svg","response":1,"trial_type":"image-button-response","trial_index":111,"time_elapsed":763239,"internal_node_id":"0.0-4.0-0.50","subject_id":"5eac16121aa756036b67bc5d","study_id":"60edd13110225f80f9f3709b","session_id":"6196baa7cc47ce778269ec4a","condition":"full-information","relevant_dimensions":["wings","legs"],"bee_group":{"antennae":"X","wings":"2","pattern":"X","legs":"F"},"action":"avoid","summary":"bad-avoid","bonus":0.22000000000000078},{"rt":513,"stimulus":"\n                    <p><b>Action: <em>avoid</em></b></p>\n                    <p>This is the bee that you just saw.</p>\n                    <img src=\"bees-with-color/bee-B1SF.svg\" width=\"200\">\n                    <p><span class=\"redText\">Bad choice,</span> the bee was friendly.<br>Your bonus pay is unchanged, and remains at $0.52.</p>\n            ","response":0,"trial_type":"html-button-response","trial_index":112,"time_elapsed":763759,"internal_node_id":"0.0-4.0-1.50","subject_id":"5eac16121aa756036b67bc5d","study_id":"60edd13110225f80f9f3709b","session_id":"6196baa7cc47ce778269ec4a","condition":"full-information","relevant_dimensions":["wings","legs"],"bee_group":{"antennae":"X","wings":"2","pattern":"X","legs":"F"},"bonus":0.22000000000000078},{"rt":1178.3000000715256,"stimulus":"bees-with-color/bee-A2SM.svg","response":0,"trial_type":"image-button-response","trial_index":113,"time_elapsed":764942,"internal_node_id":"0.0-4.0-0.51","subject_id":"5eac16121aa756036b67bc5d","study_id":"60edd13110225f80f9f3709b","session_id":"6196baa7cc47ce778269ec4a","condition":"full-information","relevant_dimensions":["wings","legs"],"bee_group":{"antennae":"X","wings":"2","pattern":"X","legs":"F"},"action":"harvest","summary":"good-harvest","bonus":0.22000000000000078},{"rt":745.7000000476837,"stimulus":"\n                    <p><b>Action: <em>harvest</em></b></p>\n                    <p>This is the bee that you just saw.</p>\n                    <img src=\"bees-with-color/bee-A2SM.svg\" width=\"200\">\n                    <p><span class=\"greenText\"><b>Successful harvest!</b></span><br>Your pay has increased by $0.02. Your bonus pay is now $0.54.</p>\n            ","response":0,"trial_type":"html-button-response","trial_index":114,"time_elapsed":765694,"internal_node_id":"0.0-4.0-1.51","subject_id":"5eac16121aa756036b67bc5d","study_id":"60edd13110225f80f9f3709b","session_id":"6196baa7cc47ce778269ec4a","condition":"full-information","relevant_dimensions":["wings","legs"],"bee_group":{"antennae":"X","wings":"2","pattern":"X","legs":"F"},"bonus":0.22000000000000078},{"rt":1162.2999999523163,"stimulus":"bees-with-color/bee-A2DM.svg","response":0,"trial_type":"image-button-response","trial_index":115,"time_elapsed":766862,"internal_node_id":"0.0-4.0-0.52","subject_id":"5eac16121aa756036b67bc5d","study_id":"60edd13110225f80f9f3709b","session_id":"6196baa7cc47ce778269ec4a","condition":"full-information","relevant_dimensions":["wings","legs"],"bee_group":{"antennae":"X","wings":"2","pattern":"X","legs":"F"},"action":"harvest","summary":"good-harvest","bonus":0.22000000000000078},{"rt":529.6999999284744,"stimulus":"\n                    <p><b>Action: <em>harvest</em></b></p>\n                    <p>This is the bee that you just saw.</p>\n                    <img src=\"bees-with-color/bee-A2DM.svg\" width=\"200\">\n                    <p><span class=\"greenText\"><b>Successful harvest!</b></span><br>Your pay has increased by $0.02. Your bonus pay is now $0.56.</p>\n            ","response":0,"trial_type":"html-button-response","trial_index":116,"time_elapsed":767398,"internal_node_id":"0.0-4.0-1.52","subject_id":"5eac16121aa756036b67bc5d","study_id":"60edd13110225f80f9f3709b","session_id":"6196baa7cc47ce778269ec4a","condition":"full-information","relevant_dimensions":["wings","legs"],"bee_group":{"antennae":"X","wings":"2","pattern":"X","legs":"F"},"bonus":0.22000000000000078},{"rt":1066.3999999761581,"stimulus":"bees-with-color/bee-B2DF.svg","response":1,"trial_type":"image-button-response","trial_index":117,"time_elapsed":768472,"internal_node_id":"0.0-4.0-0.53","subject_id":"5eac16121aa756036b67bc5d","study_id":"60edd13110225f80f9f3709b","session_id":"6196baa7cc47ce778269ec4a","condition":"full-information","relevant_dimensions":["wings","legs"],"bee_group":{"antennae":"X","wings":"2","pattern":"X","legs":"F"},"action":"avoid","summary":"good-avoid","bonus":0.22000000000000078},{"rt":761.5,"stimulus":"\n                    <p><b>Action: <em>avoid</em></b></p>\n                    <p>This is the bee that you just saw.</p>\n                    <img src=\"bees-with-color/bee-B2DF.svg\" width=\"200\">\n                    <p><span class=\"greenText\">Good choice!</span>  This bee would have stung you.<br>Your bonus pay is unchanged, and remains at $0.56.</p>\n            ","response":0,"trial_type":"html-button-response","trial_index":118,"time_elapsed":769239,"internal_node_id":"0.0-4.0-1.53","subject_id":"5eac16121aa756036b67bc5d","study_id":"60edd13110225f80f9f3709b","session_id":"6196baa7cc47ce778269ec4a","condition":"full-information","relevant_dimensions":["wings","legs"],"bee_group":{"antennae":"X","wings":"2","pattern":"X","legs":"F"},"bonus":0.22000000000000078},{"rt":1680.8999999761581,"stimulus":"bees-with-color/bee-A1SF.svg","response":1,"trial_type":"image-button-response","trial_index":119,"time_elapsed":770926,"internal_node_id":"0.0-4.0-0.54","subject_id":"5eac16121aa756036b67bc5d","study_id":"60edd13110225f80f9f3709b","session_id":"6196baa7cc47ce778269ec4a","condition":"full-information","relevant_dimensions":["wings","legs"],"bee_group":{"antennae":"X","wings":"2","pattern":"X","legs":"F"},"action":"avoid","summary":"bad-avoid","bonus":0.22000000000000078},{"rt":577.6000000238419,"stimulus":"\n                    <p><b>Action: <em>avoid</em></b></p>\n                    <p>This is the bee that you just saw.</p>\n                    <img src=\"bees-with-color/bee-A1SF.svg\" width=\"200\">\n                    <p><span class=\"redText\">Bad choice,</span> the bee was friendly.<br>Your bonus pay is unchanged, and remains at $0.56.</p>\n            ","response":0,"trial_type":"html-button-response","trial_index":120,"time_elapsed":771510,"internal_node_id":"0.0-4.0-1.54","subject_id":"5eac16121aa756036b67bc5d","study_id":"60edd13110225f80f9f3709b","session_id":"6196baa7cc47ce778269ec4a","condition":"full-information","relevant_dimensions":["wings","legs"],"bee_group":{"antennae":"X","wings":"2","pattern":"X","legs":"F"},"bonus":0.22000000000000078},{"rt":1282.1000000238419,"stimulus":"bees-with-color/bee-A2DF.svg","response":0,"trial_type":"image-button-response","trial_index":121,"time_elapsed":772798,"internal_node_id":"0.0-4.0-0.55","subject_id":"5eac16121aa756036b67bc5d","study_id":"60edd13110225f80f9f3709b","session_id":"6196baa7cc47ce778269ec4a","condition":"full-information","relevant_dimensions":["wings","legs"],"bee_group":{"antennae":"X","wings":"2","pattern":"X","legs":"F"},"action":"harvest","summary":"bad-harvest","bonus":0.22000000000000078},{"rt":1131.8000000715256,"stimulus":"\n                    <p><b>Action: <em>harvest</em></b></p>\n                    <p>This is the bee that you just saw.</p>\n                    <img src=\"bees-with-color/bee-A2DF.svg\" width=\"200\">\n                    <p><span class=\"redText\">Bad choice, the bee was angry.</span><br><b>You have been stung!</b><br>Your pay has been decreased by $0.10. Your bonus pay is now $0.46.</p>\n            ","response":0,"trial_type":"html-button-response","trial_index":122,"time_elapsed":773942,"internal_node_id":"0.0-4.0-1.55","subject_id":"5eac16121aa756036b67bc5d","study_id":"60edd13110225f80f9f3709b","session_id":"6196baa7cc47ce778269ec4a","condition":"full-information","relevant_dimensions":["wings","legs"],"bee_group":{"antennae":"X","wings":"2","pattern":"X","legs":"F"},"bonus":0.22000000000000078},{"rt":3713.100000023842,"stimulus":"bees-with-color/bee-B1DM.svg","response":1,"trial_type":"image-button-response","trial_index":123,"time_elapsed":777662,"internal_node_id":"0.0-4.0-0.56","subject_id":"5eac16121aa756036b67bc5d","study_id":"60edd13110225f80f9f3709b","session_id":"6196baa7cc47ce778269ec4a","condition":"full-information","relevant_dimensions":["wings","legs"],"bee_group":{"antennae":"X","wings":"2","pattern":"X","legs":"F"},"action":"avoid","summary":"bad-avoid","bonus":0.22000000000000078},{"rt":1458.1000000238419,"stimulus":"\n                    <p><b>Action: <em>avoid</em></b></p>\n                    <p>This is the bee that you just saw.</p>\n                    <img src=\"bees-with-color/bee-B1DM.svg\" width=\"200\">\n                    <p><span class=\"redText\">Bad choice,</span> the bee was friendly.<br>Your bonus pay is unchanged, and remains at $0.46.</p>\n            ","response":0,"trial_type":"html-button-response","trial_index":124,"time_elapsed":779126,"internal_node_id":"0.0-4.0-1.56","subject_id":"5eac16121aa756036b67bc5d","study_id":"60edd13110225f80f9f3709b","session_id":"6196baa7cc47ce778269ec4a","condition":"full-information","relevant_dimensions":["wings","legs"],"bee_group":{"antennae":"X","wings":"2","pattern":"X","legs":"F"},"bonus":0.22000000000000078},{"rt":1393.8999999761581,"stimulus":"bees-with-color/bee-A1DF.svg","response":0,"trial_type":"image-button-response","trial_index":125,"time_elapsed":780526,"internal_node_id":"0.0-4.0-0.57","subject_id":"5eac16121aa756036b67bc5d","study_id":"60edd13110225f80f9f3709b","session_id":"6196baa7cc47ce778269ec4a","condition":"full-information","relevant_dimensions":["wings","legs"],"bee_group":{"antennae":"X","wings":"2","pattern":"X","legs":"F"},"action":"harvest","summary":"good-harvest","bonus":0.22000000000000078},{"rt":1416.3999999761581,"stimulus":"\n                    <p><b>Action: <em>harvest</em></b></p>\n                    <p>This is the bee that you just saw.</p>\n                    <img src=\"bees-with-color/bee-A1DF.svg\" width=\"200\">\n                    <p><span class=\"greenText\"><b>Successful harvest!</b></span><br>Your pay has increased by $0.02. Your bonus pay is now $0.48.</p>\n            ","response":0,"trial_type":"html-button-response","trial_index":126,"time_elapsed":781949,"internal_node_id":"0.0-4.0-1.57","subject_id":"5eac16121aa756036b67bc5d","study_id":"60edd13110225f80f9f3709b","session_id":"6196baa7cc47ce778269ec4a","condition":"full-information","relevant_dimensions":["wings","legs"],"bee_group":{"antennae":"X","wings":"2","pattern":"X","legs":"F"},"bonus":0.22000000000000078},{"rt":1556.3000000715256,"stimulus":"bees-with-color/bee-B1SM.svg","response":0,"trial_type":"image-button-response","trial_index":127,"time_elapsed":783510,"internal_node_id":"0.0-4.0-0.58","subject_id":"5eac16121aa756036b67bc5d","study_id":"60edd13110225f80f9f3709b","session_id":"6196baa7cc47ce778269ec4a","condition":"full-information","relevant_dimensions":["wings","legs"],"bee_group":{"antennae":"X","wings":"2","pattern":"X","legs":"F"},"action":"harvest","summary":"good-harvest","bonus":0.22000000000000078},{"rt":914.7000000476837,"stimulus":"\n                    <p><b>Action: <em>harvest</em></b></p>\n                    <p>This is the bee that you just saw.</p>\n                    <img src=\"bees-with-color/bee-B1SM.svg\" width=\"200\">\n                    <p><span class=\"greenText\"><b>Successful harvest!</b></span><br>Your pay has increased by $0.02. Your bonus pay is now $0.50.</p>\n            ","response":0,"trial_type":"html-button-response","trial_index":128,"time_elapsed":784430,"internal_node_id":"0.0-4.0-1.58","subject_id":"5eac16121aa756036b67bc5d","study_id":"60edd13110225f80f9f3709b","session_id":"6196baa7cc47ce778269ec4a","condition":"full-information","relevant_dimensions":["wings","legs"],"bee_group":{"antennae":"X","wings":"2","pattern":"X","legs":"F"},"bonus":0.22000000000000078},{"rt":1147.5,"stimulus":"bees-with-color/bee-B2SF.svg","response":1,"trial_type":"image-button-response","trial_index":129,"time_elapsed":785582,"internal_node_id":"0.0-4.0-0.59","subject_id":"5eac16121aa756036b67bc5d","study_id":"60edd13110225f80f9f3709b","session_id":"6196baa7cc47ce778269ec4a","condition":"full-information","relevant_dimensions":["wings","legs"],"bee_group":{"antennae":"X","wings":"2","pattern":"X","legs":"F"},"action":"avoid","summary":"good-avoid","bonus":0.22000000000000078},{"rt":987.6000000238419,"stimulus":"\n                    <p><b>Action: <em>avoid</em></b></p>\n                    <p>This is the bee that you just saw.</p>\n                    <img src=\"bees-with-color/bee-B2SF.svg\" width=\"200\">\n                    <p><span class=\"greenText\">Good choice!</span>  This bee would have stung you.<br>Your bonus pay is unchanged, and remains at $0.50.</p>\n            ","response":0,"trial_type":"html-button-response","trial_index":130,"time_elapsed":786574,"internal_node_id":"0.0-4.0-1.59","subject_id":"5eac16121aa756036b67bc5d","study_id":"60edd13110225f80f9f3709b","session_id":"6196baa7cc47ce778269ec4a","condition":"full-information","relevant_dimensions":["wings","legs"],"bee_group":{"antennae":"X","wings":"2","pattern":"X","legs":"F"},"bonus":0.22000000000000078},{"rt":1938.6000000238419,"stimulus":"bees-with-color/bee-A1SM.svg","response":1,"trial_type":"image-button-response","trial_index":131,"time_elapsed":788518,"internal_node_id":"0.0-4.0-0.60","subject_id":"5eac16121aa756036b67bc5d","study_id":"60edd13110225f80f9f3709b","session_id":"6196baa7cc47ce778269ec4a","condition":"full-information","relevant_dimensions":["wings","legs"],"bee_group":{"antennae":"X","wings":"2","pattern":"X","legs":"F"},"action":"avoid","summary":"bad-avoid","bonus":0.22000000000000078},{"rt":552.6000000238419,"stimulus":"\n                    <p><b>Action: <em>avoid</em></b></p>\n                    <p>This is the bee that you just saw.</p>\n                    <img src=\"bees-with-color/bee-A1SM.svg\" width=\"200\">\n                    <p><span class=\"redText\">Bad choice,</span> the bee was friendly.<br>Your bonus pay is unchanged, and remains at $0.50.</p>\n            ","response":0,"trial_type":"html-button-response","trial_index":132,"time_elapsed":789078,"internal_node_id":"0.0-4.0-1.60","subject_id":"5eac16121aa756036b67bc5d","study_id":"60edd13110225f80f9f3709b","session_id":"6196baa7cc47ce778269ec4a","condition":"full-information","relevant_dimensions":["wings","legs"],"bee_group":{"antennae":"X","wings":"2","pattern":"X","legs":"F"},"bonus":0.22000000000000078},{"rt":907.4000000953674,"stimulus":"bees-with-color/bee-A2SF.svg","response":1,"trial_type":"image-button-response","trial_index":133,"time_elapsed":789990,"internal_node_id":"0.0-4.0-0.61","subject_id":"5eac16121aa756036b67bc5d","study_id":"60edd13110225f80f9f3709b","session_id":"6196baa7cc47ce778269ec4a","condition":"full-information","relevant_dimensions":["wings","legs"],"bee_group":{"antennae":"X","wings":"2","pattern":"X","legs":"F"},"action":"avoid","summary":"good-avoid","bonus":0.22000000000000078},{"rt":1065.1000000238419,"stimulus":"\n                    <p><b>Action: <em>avoid</em></b></p>\n                    <p>This is the bee that you just saw.</p>\n                    <img src=\"bees-with-color/bee-A2SF.svg\" width=\"200\">\n                    <p><span class=\"greenText\">Good choice!</span>  This bee would have stung you.<br>Your bonus pay is unchanged, and remains at $0.50.</p>\n            ","response":0,"trial_type":"html-button-response","trial_index":134,"time_elapsed":791062,"internal_node_id":"0.0-4.0-1.61","subject_id":"5eac16121aa756036b67bc5d","study_id":"60edd13110225f80f9f3709b","session_id":"6196baa7cc47ce778269ec4a","condition":"full-information","relevant_dimensions":["wings","legs"],"bee_group":{"antennae":"X","wings":"2","pattern":"X","legs":"F"},"bonus":0.22000000000000078},{"rt":2715.2000000476837,"stimulus":"bees-with-color/bee-A1DM.svg","response":1,"trial_type":"image-button-response","trial_index":135,"time_elapsed":793782,"internal_node_id":"0.0-4.0-0.62","subject_id":"5eac16121aa756036b67bc5d","study_id":"60edd13110225f80f9f3709b","session_id":"6196baa7cc47ce778269ec4a","condition":"full-information","relevant_dimensions":["wings","legs"],"bee_group":{"antennae":"X","wings":"2","pattern":"X","legs":"F"},"action":"avoid","summary":"bad-avoid","bonus":0.22000000000000078},{"rt":762.3999999761581,"stimulus":"\n                    <p><b>Action: <em>avoid</em></b></p>\n                    <p>This is the bee that you just saw.</p>\n                    <img src=\"bees-with-color/bee-A1DM.svg\" width=\"200\">\n                    <p><span class=\"redText\">Bad choice,</span> the bee was friendly.<br>Your bonus pay is unchanged, and remains at $0.50.</p>\n            ","response":0,"trial_type":"html-button-response","trial_index":136,"time_elapsed":794550,"internal_node_id":"0.0-4.0-1.62","subject_id":"5eac16121aa756036b67bc5d","study_id":"60edd13110225f80f9f3709b","session_id":"6196baa7cc47ce778269ec4a","condition":"full-information","relevant_dimensions":["wings","legs"],"bee_group":{"antennae":"X","wings":"2","pattern":"X","legs":"F"},"bonus":0.22000000000000078},{"rt":1223.9000000953674,"stimulus":"bees-with-color/bee-B2DM.svg","response":1,"trial_type":"image-button-response","trial_index":137,"time_elapsed":795782,"internal_node_id":"0.0-4.0-0.63","subject_id":"5eac16121aa756036b67bc5d","study_id":"60edd13110225f80f9f3709b","session_id":"6196baa7cc47ce778269ec4a","condition":"full-information","relevant_dimensions":["wings","legs"],"bee_group":{"antennae":"X","wings":"2","pattern":"X","legs":"F"},"action":"avoid","summary":"bad-avoid","bonus":0.22000000000000078},{"rt":682.6000000238419,"stimulus":"\n                    <p><b>Action: <em>avoid</em></b></p>\n                    <p>This is the bee that you just saw.</p>\n                    <img src=\"bees-with-color/bee-B2DM.svg\" width=\"200\">\n                    <p><span class=\"redText\">Bad choice,</span> the bee was friendly.<br>Your bonus pay is unchanged, and remains at $0.50.</p>\n            ","response":0,"trial_type":"html-button-response","trial_index":138,"time_elapsed":796471,"internal_node_id":"0.0-4.0-1.63","subject_id":"5eac16121aa756036b67bc5d","study_id":"60edd13110225f80f9f3709b","session_id":"6196baa7cc47ce778269ec4a","condition":"full-information","relevant_dimensions":["wings","legs"],"bee_group":{"antennae":"X","wings":"2","pattern":"X","legs":"F"},"bonus":0.22000000000000078},{"rt":6863.700000047684,"stimulus":"You have completed the first part of this experiment.<br><br>You will now begin a shorter second part, in which you will receive no feedback.<br>The same rules regarding bonus pay apply.<br><br>Press any key to begin.","response":" ","trial_type":"html-keyboard-response","trial_index":139,"time_elapsed":803340,"internal_node_id":"0.0-5.0","subject_id":"5eac16121aa756036b67bc5d","study_id":"60edd13110225f80f9f3709b","session_id":"6196baa7cc47ce778269ec4a","condition":"full-information","relevant_dimensions":["wings","legs"],"bee_group":{"antennae":"X","wings":"2","pattern":"X","legs":"F"},"bonus":0.22000000000000078},{"rt":1796.0999999046326,"stimulus":"bees-with-color/bee-B2DF.svg","response":1,"trial_type":"image-button-response","trial_index":140,"time_elapsed":805174,"internal_node_id":"0.0-6.0-0.0","subject_id":"5eac16121aa756036b67bc5d","study_id":"60edd13110225f80f9f3709b","session_id":"6196baa7cc47ce778269ec4a","condition":"full-information","relevant_dimensions":["wings","legs"],"bee_group":{"antennae":"X","wings":"2","pattern":"X","legs":"F"},"bonus":0.22000000000000078},{"rt":2374.7000000476837,"stimulus":"bees-with-color/bee-A2DM.svg","response":1,"trial_type":"image-button-response","trial_index":141,"time_elapsed":807558,"internal_node_id":"0.0-6.0-0.1","subject_id":"5eac16121aa756036b67bc5d","study_id":"60edd13110225f80f9f3709b","session_id":"6196baa7cc47ce778269ec4a","condition":"full-information","relevant_dimensions":["wings","legs"],"bee_group":{"antennae":"X","wings":"2","pattern":"X","legs":"F"},"bonus":0.22000000000000078},{"rt":879.6000000238419,"stimulus":"bees-with-color/bee-A1SF.svg","response":0,"trial_type":"image-button-response","trial_index":142,"time_elapsed":808446,"internal_node_id":"0.0-6.0-0.2","subject_id":"5eac16121aa756036b67bc5d","study_id":"60edd13110225f80f9f3709b","session_id":"6196baa7cc47ce778269ec4a","condition":"full-information","relevant_dimensions":["wings","legs"],"bee_group":{"antennae":"X","wings":"2","pattern":"X","legs":"F"},"bonus":0.22000000000000078},{"rt":2008.2000000476837,"stimulus":"bees-with-color/bee-B1DM.svg","response":1,"trial_type":"image-button-response","trial_index":143,"time_elapsed":810462,"internal_node_id":"0.0-6.0-0.3","subject_id":"5eac16121aa756036b67bc5d","study_id":"60edd13110225f80f9f3709b","session_id":"6196baa7cc47ce778269ec4a","condition":"full-information","relevant_dimensions":["wings","legs"],"bee_group":{"antennae":"X","wings":"2","pattern":"X","legs":"F"},"bonus":0.22000000000000078},{"rt":533.7999999523163,"stimulus":"bees-with-color/bee-A1DM.svg","response":0,"trial_type":"image-button-response","trial_index":144,"time_elapsed":811007,"internal_node_id":"0.0-6.0-0.4","subject_id":"5eac16121aa756036b67bc5d","study_id":"60edd13110225f80f9f3709b","session_id":"6196baa7cc47ce778269ec4a","condition":"full-information","relevant_dimensions":["wings","legs"],"bee_group":{"antennae":"X","wings":"2","pattern":"X","legs":"F"},"bonus":0.22000000000000078},{"rt":958.3999999761581,"stimulus":"bees-with-color/bee-A2SF.svg","response":0,"trial_type":"image-button-response","trial_index":145,"time_elapsed":811973,"internal_node_id":"0.0-6.0-0.5","subject_id":"5eac16121aa756036b67bc5d","study_id":"60edd13110225f80f9f3709b","session_id":"6196baa7cc47ce778269ec4a","condition":"full-information","relevant_dimensions":["wings","legs"],"bee_group":{"antennae":"X","wings":"2","pattern":"X","legs":"F"},"bonus":0.22000000000000078},{"rt":2305.2999999523163,"stimulus":"bees-with-color/bee-A1DF.svg","response":1,"trial_type":"image-button-response","trial_index":146,"time_elapsed":814286,"internal_node_id":"0.0-6.0-0.6","subject_id":"5eac16121aa756036b67bc5d","study_id":"60edd13110225f80f9f3709b","session_id":"6196baa7cc47ce778269ec4a","condition":"full-information","relevant_dimensions":["wings","legs"],"bee_group":{"antennae":"X","wings":"2","pattern":"X","legs":"F"},"bonus":0.22000000000000078},{"rt":1749.5,"stimulus":"bees-with-color/bee-B1DF.svg","response":1,"trial_type":"image-button-response","trial_index":147,"time_elapsed":816046,"internal_node_id":"0.0-6.0-0.7","subject_id":"5eac16121aa756036b67bc5d","study_id":"60edd13110225f80f9f3709b","session_id":"6196baa7cc47ce778269ec4a","condition":"full-information","relevant_dimensions":["wings","legs"],"bee_group":{"antennae":"X","wings":"2","pattern":"X","legs":"F"},"bonus":0.22000000000000078},{"rt":1270.3999999761581,"stimulus":"bees-with-color/bee-B2SM.svg","response":1,"trial_type":"image-button-response","trial_index":148,"time_elapsed":817325,"internal_node_id":"0.0-6.0-0.8","subject_id":"5eac16121aa756036b67bc5d","study_id":"60edd13110225f80f9f3709b","session_id":"6196baa7cc47ce778269ec4a","condition":"full-information","relevant_dimensions":["wings","legs"],"bee_group":{"antennae":"X","wings":"2","pattern":"X","legs":"F"},"bonus":0.22000000000000078},{"rt":696.8999999761581,"stimulus":"bees-with-color/bee-A1SM.svg","response":0,"trial_type":"image-button-response","trial_index":149,"time_elapsed":818030,"internal_node_id":"0.0-6.0-0.9","subject_id":"5eac16121aa756036b67bc5d","study_id":"60edd13110225f80f9f3709b","session_id":"6196baa7cc47ce778269ec4a","condition":"full-information","relevant_dimensions":["wings","legs"],"bee_group":{"antennae":"X","wings":"2","pattern":"X","legs":"F"},"bonus":0.22000000000000078},{"rt":855.8000000715256,"stimulus":"bees-with-color/bee-B1SM.svg","response":0,"trial_type":"image-button-response","trial_index":150,"time_elapsed":818894,"internal_node_id":"0.0-6.0-0.10","subject_id":"5eac16121aa756036b67bc5d","study_id":"60edd13110225f80f9f3709b","session_id":"6196baa7cc47ce778269ec4a","condition":"full-information","relevant_dimensions":["wings","legs"],"bee_group":{"antennae":"X","wings":"2","pattern":"X","legs":"F"},"bonus":0.22000000000000078},{"rt":1224.8999999761581,"stimulus":"bees-with-color/bee-B1SF.svg","response":0,"trial_type":"image-button-response","trial_index":151,"time_elapsed":820125,"internal_node_id":"0.0-6.0-0.11","subject_id":"5eac16121aa756036b67bc5d","study_id":"60edd13110225f80f9f3709b","session_id":"6196baa7cc47ce778269ec4a","condition":"full-information","relevant_dimensions":["wings","legs"],"bee_group":{"antennae":"X","wings":"2","pattern":"X","legs":"F"},"bonus":0.22000000000000078},{"rt":592.0999999046326,"stimulus":"bees-with-color/bee-B2SF.svg","response":1,"trial_type":"image-button-response","trial_index":152,"time_elapsed":820725,"internal_node_id":"0.0-6.0-0.12","subject_id":"5eac16121aa756036b67bc5d","study_id":"60edd13110225f80f9f3709b","session_id":"6196baa7cc47ce778269ec4a","condition":"full-information","relevant_dimensions":["wings","legs"],"bee_group":{"antennae":"X","wings":"2","pattern":"X","legs":"F"},"bonus":0.22000000000000078},{"rt":745.3999999761581,"stimulus":"bees-with-color/bee-B2DM.svg","response":0,"trial_type":"image-button-response","trial_index":153,"time_elapsed":821478,"internal_node_id":"0.0-6.0-0.13","subject_id":"5eac16121aa756036b67bc5d","study_id":"60edd13110225f80f9f3709b","session_id":"6196baa7cc47ce778269ec4a","condition":"full-information","relevant_dimensions":["wings","legs"],"bee_group":{"antennae":"X","wings":"2","pattern":"X","legs":"F"},"bonus":0.22000000000000078},{"rt":879.8000000715256,"stimulus":"bees-with-color/bee-A2SM.svg","response":1,"trial_type":"image-button-response","trial_index":154,"time_elapsed":822365,"internal_node_id":"0.0-6.0-0.14","subject_id":"5eac16121aa756036b67bc5d","study_id":"60edd13110225f80f9f3709b","session_id":"6196baa7cc47ce778269ec4a","condition":"full-information","relevant_dimensions":["wings","legs"],"bee_group":{"antennae":"X","wings":"2","pattern":"X","legs":"F"},"bonus":0.22000000000000078},{"rt":1543.1000000238419,"stimulus":"bees-with-color/bee-A2DF.svg","response":1,"trial_type":"image-button-response","trial_index":155,"time_elapsed":823917,"internal_node_id":"0.0-6.0-0.15","subject_id":"5eac16121aa756036b67bc5d","study_id":"60edd13110225f80f9f3709b","session_id":"6196baa7cc47ce778269ec4a","condition":"full-information","relevant_dimensions":["wings","legs"],"bee_group":{"antennae":"X","wings":"2","pattern":"X","legs":"F"},"bonus":0.22000000000000078},{"rt":1736.799999952316