[{"success":true,"trial_type":"fullscreen","trial_index":0,"time_elapsed":7164,"internal_node_id":"0.0-0.0","subject_id":"609594df07c06a009e5e1c1d","study_id":"60edd13110225f80f9f3709b","session_id":"6196c85e8b5787454145193e","condition":"full-information","relevant_dimensions":["pattern","legs"],"bee_group":{"antennae":"X","wings":"X","pattern":"S","legs":"M"},"bonus":1.6600000000000013},{"success":true,"timeout":false,"failed_images":[],"failed_audio":[],"failed_video":[],"trial_type":"preload","trial_index":1,"time_elapsed":9425,"internal_node_id":"0.0-1.0","subject_id":"609594df07c06a009e5e1c1d","study_id":"60edd13110225f80f9f3709b","session_id":"6196c85e8b5787454145193e","condition":"full-information","relevant_dimensions":["pattern","legs"],"bee_group":{"antennae":"X","wings":"X","pattern":"S","legs":"M"},"bonus":1.6600000000000013},{"rt":1678.8999999761581,"stimulus":"Welcome! Press any key to begin.","response":" ","trial_type":"html-keyboard-response","trial_index":2,"time_elapsed":11105,"internal_node_id":"0.0-2.0","subject_id":"609594df07c06a009e5e1c1d","study_id":"60edd13110225f80f9f3709b","session_id":"6196c85e8b5787454145193e","condition":"full-information","relevant_dimensions":["pattern","legs"],"bee_group":{"antennae":"X","wings":"X","pattern":"S","legs":"M"},"bonus":1.6600000000000013},{"view_history":[{"page_index":0,"viewing_time":7944.200000017881},{"page_index":1,"viewing_time":22188.79999998212},{"page_index":2,"viewing_time":16259.100000023842},{"page_index":3,"viewing_time":17878},{"page_index":4,"viewing_time":6960},{"page_index":5,"viewing_time":5322.899999976158},{"page_index":6,"viewing_time":14525.200000017881},{"page_index":7,"viewing_time":6377.0999999940395},{"page_index":6,"viewing_time":17102.40000000596},{"page_index":7,"viewing_time":1145.5},{"page_index":8,"viewing_time":4682},{"page_index":7,"viewing_time":996.0999999940395},{"page_index":8,"viewing_time":487.69999998807907},{"page_index":9,"viewing_time":6209.300000011921},{"page_index":8,"viewing_time":1043.800000011921},{"page_index":9,"viewing_time":2851.0999999940395},{"page_index":8,"viewing_time":410},{"page_index":7,"viewing_time":2083},{"page_index":8,"viewing_time":684.0999999940395},{"page_index":9,"viewing_time":2168},{"page_index":8,"viewing_time":567.5999999940395},{"page_index":7,"viewing_time":22061.40000000596},{"page_index":8,"viewing_time":19351.90000000596},{"page_index":9,"viewing_time":5913.0999999940395},{"page_index":10,"viewing_time":29360.69999998808},{"page_index":11,"viewing_time":10943.300000011921},{"page_index":12,"viewing_time":5289},{"page_index":13,"viewing_time":1153.9000000059605},{"page_index":14,"viewing_time":5699.9000000059605}],"rt":237659.90000000596,"trial_type":"instructions","trial_index":3,"time_elapsed":248766,"internal_node_id":"0.0-3.0-0.0","subject_id":"609594df07c06a009e5e1c1d","study_id":"60edd13110225f80f9f3709b","session_id":"6196c85e8b5787454145193e","condition":"full-information","relevant_dimensions":["pattern","legs"],"bee_group":{"antennae":"X","wings":"X","pattern":"S","legs":"M"},"bonus":1.6600000000000013},{"rt":16866.600000023842,"response":{"Q0":["Two or six legs","Stripes or spots on body","Single or double wings","Antennae or no antennae"]},"question_order":[0],"trial_type":"survey-multi-select","trial_index":4,"time_elapsed":265637,"internal_node_id":"0.0-3.0-1.0","subject_id":"609594df07c06a009e5e1c1d","study_id":"60edd13110225f80f9f3709b","session_id":"6196c85e8b5787454145193e","condition":"full-information","relevant_dimensions":["pattern","legs"],"bee_group":{"antennae":"X","wings":"X","pattern":"S","legs":"M"},"correct":true,"bonus":1.6600000000000013},{"rt":72187.60000002384,"response":{"Q1":"No.","Q2":"Based on the four features of the bee.","Q3":"You do not learn if it was friendly or dangerous, and do not alter your bonus."},"question_order":[0,1,2],"trial_type":"survey-multi-choice","trial_index":5,"time_elapsed":337830,"internal_node_id":"0.0-3.0-2.0","subject_id":"609594df07c06a009e5e1c1d","study_id":"60edd13110225f80f9f3709b","session_id":"6196c85e8b5787454145193e","condition":"full-information","relevant_dimensions":["pattern","legs"],"bee_group":{"antennae":"X","wings":"X","pattern":"S","legs":"M"},"correct":false,"bonus":1.6600000000000013},{"rt":4080.5,"stimulus":"<p>You did not answer all comprehension questions correctly.<br>Press <b>continue</b> to review the instructions again.</p>","response":0,"trial_type":"html-button-response","trial_index":6,"time_elapsed":341915,"internal_node_id":"0.0-3.0-3.0","subject_id":"609594df07c06a009e5e1c1d","study_id":"60edd13110225f80f9f3709b","session_id":"6196c85e8b5787454145193e","condition":"full-information","relevant_dimensions":["pattern","legs"],"bee_group":{"antennae":"X","wings":"X","pattern":"S","legs":"M"},"bonus":1.6600000000000013},{"view_history":[{"page_index":0,"viewing_time":1287.699999988079},{"page_index":1,"viewing_time":1032.7000000178814},{"page_index":2,"viewing_time":1613.199999988079},{"page_index":3,"viewing_time":1244.9000000059605},{"page_index":2,"viewing_time":10930.09999999404},{"page_index":3,"viewing_time":10590},{"page_index":4,"viewing_time":5207.0999999940395},{"page_index":5,"viewing_time":2078.800000011921},{"page_index":6,"viewing_time":3840},{"page_index":7,"viewing_time":993.1999999880791},{"page_index":8,"viewing_time":384.7000000178814},{"page_index":9,"viewing_time":733.0999999940395},{"page_index":10,"viewing_time":1113.2999999821186},{"page_index":11,"viewing_time":18087.600000023842},{"page_index":12,"viewing_time":1466.2999999821186},{"page_index":13,"viewing_time":1134.800000011921},{"page_index":14,"viewing_time":1419.199999988079}],"rt":63157,"trial_type":"instructions","trial_index":7,"time_elapsed":405073,"internal_node_id":"0.0-3.0-4.0-0.0","subject_id":"609594df07c06a009e5e1c1d","study_id":"60edd13110225f80f9f3709b","session_id":"6196c85e8b5787454145193e","condition":"full-information","relevant_dimensions":["pattern","legs"],"bee_group":{"antennae":"X","wings":"X","pattern":"S","legs":"M"},"bonus":1.6600000000000013},{"rt":11688.5,"response":{"Q0":["Two or six legs","Stripes or spots on body","Single or double wings","Antennae or no antennae"]},"question_order":[0],"trial_type":"survey-multi-select","trial_index":8,"time_elapsed":416765,"internal_node_id":"0.0-3.0-4.0-1.0","subject_id":"609594df07c06a009e5e1c1d","study_id":"60edd13110225f80f9f3709b","session_id":"6196c85e8b5787454145193e","condition":"full-information","relevant_dimensions":["pattern","legs"],"bee_group":{"antennae":"X","wings":"X","pattern":"S","legs":"M"},"correct":true,"bonus":1.6600000000000013},{"rt":12443,"response":{"Q1":"No.","Q2":"Based on the four features of the bee.","Q3":"You learn if it was friendly or dangerous, but do not alter your bonus."},"question_order":[0,1,2],"trial_type":"survey-multi-choice","trial_index":9,"time_elapsed":429211,"internal_node_id":"0.0-3.0-4.0-2.0","subject_id":"609594df07c06a009e5e1c1d","study_id":"60edd13110225f80f9f3709b","session_id":"6196c85e8b5787454145193e","condition":"full-information","relevant_dimensions":["pattern","legs"],"bee_group":{"antennae":"X","wings":"X","pattern":"S","legs":"M"},"correct":true,"bonus":1.6600000000000013},{"rt":1368.2999999821186,"stimulus":"<p>Congrats, you got everything right<br>When you're ready, click the button below to continue to the experiment.</p>","response":0,"trial_type":"html-button-response","trial_index":10,"time_elapsed":430583,"internal_node_id":"0.0-3.0-4.0-3.0","subject_id":"609594df07c06a009e5e1c1d","study_id":"60edd13110225f80f9f3709b","session_id":"6196c85e8b5787454145193e","condition":"full-information","relevant_dimensions":["pattern","legs"],"bee_group":{"antennae":"X","wings":"X","pattern":"S","legs":"M"},"bonus":1.6600000000000013},{"rt":2981.899999976158,"stimulus":"bees-with-color/bee-B1DM.svg","response":0,"trial_type":"image-button-response","trial_index":11,"time_elapsed":433567,"internal_node_id":"0.0-4.0-0.0","subject_id":"609594df07c06a009e5e1c1d","study_id":"60edd13110225f80f9f3709b","session_id":"6196c85e8b5787454145193e","condition":"full-information","relevant_dimensions":["pattern","legs"],"bee_group":{"antennae":"X","wings":"X","pattern":"S","legs":"M"},"action":"harvest","summary":"good-harvest","bonus":1.6600000000000013},{"rt":22718.90000000596,"stimulus":"\n                    <p><b>Action: <em>harvest</em></b></p>\n                    <p>This is the bee that you just saw.</p>\n                    <img src=\"bees-with-color/bee-B1DM.svg\" width=\"200\">\n                    <p><span class=\"greenText\"><b>Successful harvest!</b></span><br>Your pay has increased by $0.02. Your bonus pay is now $0.56.</p>\n            ","response":0,"trial_type":"html-button-response","trial_index":12,"time_elapsed":456288,"internal_node_id":"0.0-4.0-1.0","subject_id":"609594df07c06a009e5e1c1d","study_id":"60edd13110225f80f9f3709b","session_id":"6196c85e8b5787454145193e","condition":"full-information","relevant_dimensions":["pattern","legs"],"bee_group":{"antennae":"X","wings":"X","pattern":"S","legs":"M"},"bonus":1.6600000000000013},{"rt":3001.2000000178814,"stimulus":"bees-with-color/bee-B2SF.svg","response":0,"trial_type":"image-button-response","trial_index":13,"time_elapsed":459291,"internal_node_id":"0.0-4.0-0.1","subject_id":"609594df07c06a009e5e1c1d","study_id":"60edd13110225f80f9f3709b","session_id":"6196c85e8b5787454145193e","condition":"full-information","relevant_dimensions":["pattern","legs"],"bee_group":{"antennae":"X","wings":"X","pattern":"S","legs":"M"},"action":"harvest","summary":"good-harvest","bonus":1.6600000000000013},{"rt":9721.09999999404,"stimulus":"\n                    <p><b>Action: <em>harvest</em></b></p>\n                    <p>This is the bee that you just saw.</p>\n                    <img src=\"bees-with-color/bee-B2SF.svg\" width=\"200\">\n                    <p><span class=\"greenText\"><b>Successful harvest!</b></span><br>Your pay has increased by $0.02. Your bonus pay is now $0.58.</p>\n            ","response":0,"trial_type":"html-button-response","trial_index":14,"time_elapsed":469014,"internal_node_id":"0.0-4.0-1.1","subject_id":"609594df07c06a009e5e1c1d","study_id":"60edd13110225f80f9f3709b","session_id":"6196c85e8b5787454145193e","condition":"full-information","relevant_dimensions":["pattern","legs"],"bee_group":{"antennae":"X","wings":"X","pattern":"S","legs":"M"},"bonus":1.6600000000000013},{"rt":3218,"stimulus":"bees-with-color/bee-B1DF.svg","response":0,"trial_type":"image-button-response","trial_index":15,"time_elapsed":472234,"internal_node_id":"0.0-4.0-0.2","subject_id":"609594df07c06a009e5e1c1d","study_id":"60edd13110225f80f9f3709b","session_id":"6196c85e8b5787454145193e","condition":"full-information","relevant_dimensions":["pattern","legs"],"bee_group":{"antennae":"X","wings":"X","pattern":"S","legs":"M"},"action":"harvest","summary":"good-harvest","bonus":1.6600000000000013},{"rt":9349.09999999404,"stimulus":"\n                    <p><b>Action: <em>harvest</em></b></p>\n                    <p>This is the bee that you just saw.</p>\n                    <img src=\"bees-with-color/bee-B1DF.svg\" width=\"200\">\n                    <p><span class=\"greenText\"><b>Successful harvest!</b></span><br>Your pay has increased by $0.02. Your bonus pay is now $0.60.</p>\n            ","response":0,"trial_type":"html-button-response","trial_index":16,"time_elapsed":481584,"internal_node_id":"0.0-4.0-1.2","subject_id":"609594df07c06a009e5e1c1d","study_id":"60edd13110225f80f9f3709b","session_id":"6196c85e8b5787454145193e","condition":"full-information","relevant_dimensions":["pattern","legs"],"bee_group":{"antennae":"X","wings":"X","pattern":"S","legs":"M"},"bonus":1.6600000000000013},{"rt":4141.700000017881,"stimulus":"bees-with-color/bee-A1DM.svg","response":1,"trial_type":"image-button-response","trial_index":17,"time_elapsed":485727,"internal_node_id":"0.0-4.0-0.3","subject_id":"609594df07c06a009e5e1c1d","study_id":"60edd13110225f80f9f3709b","session_id":"6196c85e8b5787454145193e","condition":"full-information","relevant_dimensions":["pattern","legs"],"bee_group":{"antennae":"X","wings":"X","pattern":"S","legs":"M"},"action":"avoid","summary":"bad-avoid","bonus":1.6600000000000013},{"rt":21043.40000000596,"stimulus":"\n                    <p><b>Action: <em>avoid</em></b></p>\n                    <p>This is the bee that you just saw.</p>\n                    <img src=\"bees-with-color/bee-A1DM.svg\" width=\"200\">\n                    <p><span class=\"redText\">Bad choice,</span> the bee was friendly.<br>Your bonus pay is unchanged, and remains at $0.60.</p>\n            ","response":0,"trial_type":"html-button-response","trial_index":18,"time_elapsed":506772,"internal_node_id":"0.0-4.0-1.3","subject_id":"609594df07c06a009e5e1c1d","study_id":"60edd13110225f80f9f3709b","session_id":"6196c85e8b5787454145193e","condition":"full-information","relevant_dimensions":["pattern","legs"],"bee_group":{"antennae":"X","wings":"X","pattern":"S","legs":"M"},"bonus":1.6600000000000013},{"rt":6584.5999999940395,"stimulus":"bees-with-color/bee-A2SM.svg","response":0,"trial_type":"image-button-response","trial_index":19,"time_elapsed":513358,"internal_node_id":"0.0-4.0-0.4","subject_id":"609594df07c06a009e5e1c1d","study_id":"60edd13110225f80f9f3709b","session_id":"6196c85e8b5787454145193e","condition":"full-information","relevant_dimensions":["pattern","legs"],"bee_group":{"antennae":"X","wings":"X","pattern":"S","legs":"M"},"action":"harvest","summary":"bad-harvest","bonus":1.6600000000000013},{"rt":19187,"stimulus":"\n                    <p><b>Action: <em>harvest</em></b></p>\n                    <p>This is the bee that you just saw.</p>\n                    <img src=\"bees-with-color/bee-A2SM.svg\" width=\"200\">\n                    <p><span class=\"redText\">Bad choice, the bee was angry.</span><br><b>You have been stung!</b><br>Your pay has been decreased by $0.10. Your bonus pay is now $0.50.</p>\n            ","response":0,"trial_type":"html-button-response","trial_index":20,"time_elapsed":532546,"internal_node_id":"0.0-4.0-1.4","subject_id":"609594df07c06a009e5e1c1d","study_id":"60edd13110225f80f9f3709b","session_id":"6196c85e8b5787454145193e","condition":"full-information","relevant_dimensions":["pattern","legs"],"bee_group":{"antennae":"X","wings":"X","pattern":"S","legs":"M"},"bonus":1.6600000000000013},{"rt":9190.59999999404,"stimulus":"bees-with-color/bee-A1DF.svg","response":1,"trial_type":"image-button-response","trial_index":21,"time_elapsed":541738,"internal_node_id":"0.0-4.0-0.5","subject_id":"609594df07c06a009e5e1c1d","study_id":"60edd13110225f80f9f3709b","session_id":"6196c85e8b5787454145193e","condition":"full-information","relevant_dimensions":["pattern","legs"],"bee_group":{"antennae":"X","wings":"X","pattern":"S","legs":"M"},"action":"avoid","summary":"bad-avoid","bonus":1.6600000000000013},{"rt":7288.5,"stimulus":"\n                    <p><b>Action: <em>avoid</em></b></p>\n                    <p>This is the bee that you just saw.</p>\n                    <img src=\"bees-with-color/bee-A1DF.svg\" width=\"200\">\n                    <p><span class=\"redText\">Bad choice,</span> the bee was friendly.<br>Your bonus pay is unchanged, and remains at $0.50.</p>\n            ","response":0,"trial_type":"html-button-response","trial_index":22,"time_elapsed":549028,"internal_node_id":"0.0-4.0-1.5","subject_id":"609594df07c06a009e5e1c1d","study_id":"60edd13110225f80f9f3709b","session_id":"6196c85e8b5787454145193e","condition":"full-information","relevant_dimensions":["pattern","legs"],"bee_group":{"antennae":"X","wings":"X","pattern":"S","legs":"M"},"bonus":1.6600000000000013},{"rt":14199.59999999404,"stimulus":"bees-with-color/bee-B2SM.svg","response":0,"trial_type":"image-button-response","trial_index":23,"time_elapsed":563229,"internal_node_id":"0.0-4.0-0.6","subject_id":"609594df07c06a009e5e1c1d","study_id":"60edd13110225f80f9f3709b","session_id":"6196c85e8b5787454145193e","condition":"full-information","relevant_dimensions":["pattern","legs"],"bee_group":{"antennae":"X","wings":"X","pattern":"S","legs":"M"},"action":"harvest","summary":"bad-harvest","bonus":1.6600000000000013},{"rt":20204.80000001192,"stimulus":"\n                    <p><b>Action: <em>harvest</em></b></p>\n                    <p>This is the bee that you just saw.</p>\n                    <img src=\"bees-with-color/bee-B2SM.svg\" width=\"200\">\n                    <p><span class=\"redText\">Bad choice, the bee was angry.</span><br><b>You have been stung!</b><br>Your pay has been decreased by $0.10. Your bonus pay is now $0.40.</p>\n            ","response":0,"trial_type":"html-button-response","trial_index":24,"time_elapsed":583435,"internal_node_id":"0.0-4.0-1.6","subject_id":"609594df07c06a009e5e1c1d","study_id":"60edd13110225f80f9f3709b","session_id":"6196c85e8b5787454145193e","condition":"full-information","relevant_dimensions":["pattern","legs"],"bee_group":{"antennae":"X","wings":"X","pattern":"S","legs":"M"},"bonus":1.6600000000000013},{"rt":1264.4000000059605,"stimulus":"bees-with-color/bee-B2DM.svg","response":0,"trial_type":"image-button-response","trial_index":25,"time_elapsed":584701,"internal_node_id":"0.0-4.0-0.7","subject_id":"609594df07c06a009e5e1c1d","study_id":"60edd13110225f80f9f3709b","session_id":"6196c85e8b5787454145193e","condition":"full-information","relevant_dimensions":["pattern","legs"],"bee_group":{"antennae":"X","wings":"X","pattern":"S","legs":"M"},"action":"harvest","summary":"good-harvest","bonus":1.6600000000000013},{"rt":8733.59999999404,"stimulus":"\n                    <p><b>Action: <em>harvest</em></b></p>\n                    <p>This is the bee that you just saw.</p>\n                    <img src=\"bees-with-color/bee-B2DM.svg\" width=\"200\">\n                    <p><span class=\"greenText\"><b>Successful harvest!</b></span><br>Your pay has increased by $0.02. Your bonus pay is now $0.42.</p>\n            ","response":0,"trial_type":"html-button-response","trial_index":26,"time_elapsed":593436,"internal_node_id":"0.0-4.0-1.7","subject_id":"609594df07c06a009e5e1c1d","study_id":"60edd13110225f80f9f3709b","session_id":"6196c85e8b5787454145193e","condition":"full-information","relevant_dimensions":["pattern","legs"],"bee_group":{"antennae":"X","wings":"X","pattern":"S","legs":"M"},"bonus":1.6600000000000013},{"rt":12770.90000000596,"stimulus":"bees-with-color/bee-A1SF.svg","response":0,"trial_type":"image-button-response","trial_index":27,"time_elapsed":606209,"internal_node_id":"0.0-4.0-0.8","subject_id":"609594df07c06a009e5e1c1d","study_id":"60edd13110225f80f9f3709b","session_id":"6196c85e8b5787454145193e","condition":"full-information","relevant_dimensions":["pattern","legs"],"bee_group":{"antennae":"X","wings":"X","pattern":"S","legs":"M"},"action":"harvest","summary":"good-harvest","bonus":1.6600000000000013},{"rt":8604.59999999404,"stimulus":"\n                    <p><b>Action: <em>harvest</em></b></p>\n                    <p>This is the bee that you just saw.</p>\n                    <img src=\"bees-with-color/bee-A1SF.svg\" width=\"200\">\n                    <p><span class=\"greenText\"><b>Successful harvest!</b></span><br>Your pay has increased by $0.02. Your bonus pay is now $0.44.</p>\n            ","response":0,"trial_type":"html-button-response","trial_index":28,"time_elapsed":614815,"internal_node_id":"0.0-4.0-1.8","subject_id":"609594df07c06a009e5e1c1d","study_id":"60edd13110225f80f9f3709b","session_id":"6196c85e8b5787454145193e","condition":"full-information","relevant_dimensions":["pattern","legs"],"bee_group":{"antennae":"X","wings":"X","pattern":"S","legs":"M"},"bonus":1.6600000000000013},{"rt":8137.300000011921,"stimulus":"bees-with-color/bee-B1SF.svg","response":0,"trial_type":"image-button-response","trial_index":29,"time_elapsed":622954,"internal_node_id":"0.0-4.0-0.9","subject_id":"609594df07c06a009e5e1c1d","study_id":"60edd13110225f80f9f3709b","session_id":"6196c85e8b5787454145193e","condition":"full-information","relevant_dimensions":["pattern","legs"],"bee_group":{"antennae":"X","wings":"X","pattern":"S","legs":"M"},"action":"harvest","summary":"good-harvest","bonus":1.6600000000000013},{"rt":7883,"stimulus":"\n                    <p><b>Action: <em>harvest</em></b></p>\n                    <p>This is the bee that you just saw.</p>\n                    <img src=\"bees-with-color/bee-B1SF.svg\" width=\"200\">\n                    <p><span class=\"greenText\"><b>Successful harvest!</b></span><br>Your pay has increased by $0.02. Your bonus pay is now $0.46.</p>\n            ","response":0,"trial_type":"html-button-response","trial_index":30,"time_elapsed":630838,"internal_node_id":"0.0-4.0-1.9","subject_id":"609594df07c06a009e5e1c1d","study_id":"60edd13110225f80f9f3709b","session_id":"6196c85e8b5787454145193e","condition":"full-information","relevant_dimensions":["pattern","legs"],"bee_group":{"antennae":"X","wings":"X","pattern":"S","legs":"M"},"bonus":1.6600000000000013},{"rt":14840.59999999404,"stimulus":"bees-with-color/bee-B1SM.svg","response":1,"trial_type":"image-button-response","trial_index":31,"time_elapsed":645680,"internal_node_id":"0.0-4.0-0.10","subject_id":"609594df07c06a009e5e1c1d","study_id":"60edd13110225f80f9f3709b","session_id":"6196c85e8b5787454145193e","condition":"full-information","relevant_dimensions":["pattern","legs"],"bee_group":{"antennae":"X","wings":"X","pattern":"S","legs":"M"},"action":"avoid","summary":"good-avoid","bonus":1.6600000000000013},{"rt":12427.800000011921,"stimulus":"\n                    <p><b>Action: <em>avoid</em></b></p>\n                    <p>This is the bee that you just saw.</p>\n                    <img src=\"bees-with-color/bee-B1SM.svg\" width=\"200\">\n                    <p><span class=\"greenText\">Good choice!</span>  This bee would have stung you.<br>Your bonus pay is unchanged, and remains at $0.46.</p>\n            ","response":0,"trial_type":"html-button-response","trial_index":32,"time_elapsed":658109,"internal_node_id":"0.0-4.0-1.10","subject_id":"609594df07c06a009e5e1c1d","study_id":"60edd13110225f80f9f3709b","session_id":"6196c85e8b5787454145193e","condition":"full-information","relevant_dimensions":["pattern","legs"],"bee_group":{"antennae":"X","wings":"X","pattern":"S","legs":"M"},"bonus":1.6600000000000013},{"rt":3858.4000000059605,"stimulus":"bees-with-color/bee-A2DM.svg","response":0,"trial_type":"image-button-response","trial_index":33,"time_elapsed":661969,"internal_node_id":"0.0-4.0-0.11","subject_id":"609594df07c06a009e5e1c1d","study_id":"60edd13110225f80f9f3709b","session_id":"6196c85e8b5787454145193e","condition":"full-information","relevant_dimensions":["pattern","legs"],"bee_group":{"antennae":"X","wings":"X","pattern":"S","legs":"M"},"action":"harvest","summary":"good-harvest","bonus":1.6600000000000013},{"rt":8965.800000011921,"stimulus":"\n                    <p><b>Action: <em>harvest</em></b></p>\n                    <p>This is the bee that you just saw.</p>\n                    <img src=\"bees-with-color/bee-A2DM.svg\" width=\"200\">\n                    <p><span class=\"greenText\"><b>Successful harvest!</b></span><br>Your pay has increased by $0.02. Your bonus pay is now $0.48.</p>\n            ","response":0,"trial_type":"html-button-response","trial_index":34,"time_elapsed":670936,"internal_node_id":"0.0-4.0-1.11","subject_id":"609594df07c06a009e5e1c1d","study_id":"60edd13110225f80f9f3709b","session_id":"6196c85e8b5787454145193e","condition":"full-information","relevant_dimensions":["pattern","legs"],"bee_group":{"antennae":"X","wings":"X","pattern":"S","legs":"M"},"bonus":1.6600000000000013},{"rt":17661.30000001192,"stimulus":"bees-with-color/bee-A1SM.svg","response":1,"trial_type":"image-button-response","trial_index":35,"time_elapsed":688599,"internal_node_id":"0.0-4.0-0.12","subject_id":"609594df07c06a009e5e1c1d","study_id":"60edd13110225f80f9f3709b","session_id":"6196c85e8b5787454145193e","condition":"full-information","relevant_dimensions":["pattern","legs"],"bee_group":{"antennae":"X","wings":"X","pattern":"S","legs":"M"},"action":"avoid","summary":"good-avoid","bonus":1.6600000000000013},{"rt":21364.30000001192,"stimulus":"\n                    <p><b>Action: <em>avoid</em></b></p>\n                    <p>This is the bee that you just saw.</p>\n                    <img src=\"bees-with-color/bee-A1SM.svg\" width=\"200\">\n                    <p><span class=\"greenText\">Good choice!</span>  This bee would have stung you.<br>Your bonus pay is unchanged, and remains at $0.48.</p>\n            ","response":0,"trial_type":"html-button-response","trial_index":36,"time_elapsed":709964,"internal_node_id":"0.0-4.0-1.12","subject_id":"609594df07c06a009e5e1c1d","study_id":"60edd13110225f80f9f3709b","session_id":"6196c85e8b5787454145193e","condition":"full-information","relevant_dimensions":["pattern","legs"],"bee_group":{"antennae":"X","wings":"X","pattern":"S","legs":"M"},"bonus":1.6600000000000013},{"rt":63948.90000000596,"stimulus":"bees-with-color/bee-A2SF.svg","response":1,"trial_type":"image-button-response","trial_index":37,"time_elapsed":773914,"internal_node_id":"0.0-4.0-0.13","subject_id":"609594df07c06a009e5e1c1d","study_id":"60edd13110225f80f9f3709b","session_id":"6196c85e8b5787454145193e","condition":"full-information","relevant_dimensions":["pattern","legs"],"bee_group":{"antennae":"X","wings":"X","pattern":"S","legs":"M"},"action":"avoid","summary":"bad-avoid","bonus":1.6600000000000013},{"rt":38835,"stimulus":"\n                    <p><b>Action: <em>avoid</em></b></p>\n                    <p>This is the bee that you just saw.</p>\n                    <img src=\"bees-with-color/bee-A2SF.svg\" width=\"200\">\n                    <p><span class=\"redText\">Bad choice,</span> the bee was friendly.<br>Your bonus pay is unchanged, and remains at $0.48.</p>\n            ","response":0,"trial_type":"html-button-response","trial_index":38,"time_elapsed":812750,"internal_node_id":"0.0-4.0-1.13","subject_id":"609594df07c06a009e5e1c1d","study_id":"60edd13110225f80f9f3709b","session_id":"6196c85e8b5787454145193e","condition":"full-information","relevant_dimensions":["pattern","legs"],"bee_group":{"antennae":"X","wings":"X","pattern":"S","legs":"M"},"bonus":1.6600000000000013},{"rt":14503.59999999404,"stimulus":"bees-with-color/bee-A2DF.svg","response":0,"trial_type":"image-button-response","trial_index":39,"time_elapsed":827255,"internal_node_id":"0.0-4.0-0.14","subject_id":"609594df07c06a009e5e1c1d","study_id":"60edd13110225f80f9f3709b","session_id":"6196c85e8b5787454145193e","condition":"full-information","relevant_dimensions":["pattern","legs"],"bee_group":{"antennae":"X","wings":"X","pattern":"S","legs":"M"},"action":"harvest","summary":"good-harvest","bonus":1.6600000000000013},{"rt":11541.200000017881,"stimulus":"\n                    <p><b>Action: <em>harvest</em></b></p>\n                    <p>This is the bee that you just saw.</p>\n                    <img src=\"bees-with-color/bee-A2DF.svg\" width=\"200\">\n                    <p><span class=\"greenText\"><b>Successful harvest!</b></span><br>Your pay has increased by $0.02. Your bonus pay is now $0.50.</p>\n            ","response":0,"trial_type":"html-button-response","trial_index":40,"time_elapsed":838798,"internal_node_id":"0.0-4.0-1.14","subject_id":"609594df07c06a009e5e1c1d","study_id":"60edd13110225f80f9f3709b","session_id":"6196c85e8b5787454145193e","condition":"full-information","relevant_dimensions":["pattern","legs"],"bee_group":{"antennae":"X","wings":"X","pattern":"S","legs":"M"},"bonus":1.6600000000000013},{"rt":16759.399999976158,"stimulus":"bees-with-color/bee-B2DF.svg","response":1,"trial_type":"image-button-response","trial_index":41,"time_elapsed":855559,"internal_node_id":"0.0-4.0-0.15","subject_id":"609594df07c06a009e5e1c1d","study_id":"60edd13110225f80f9f3709b","session_id":"6196c85e8b5787454145193e","condition":"full-information","relevant_dimensions":["pattern","legs"],"bee_group":{"antennae":"X","wings":"X","pattern":"S","legs":"M"},"action":"avoid","summary":"bad-avoid","bonus":1.6600000000000013},{"rt":5915.799999982119,"stimulus":"\n                    <p><b>Action: <em>avoid</em></b></p>\n                    <p>This is the bee that you just saw.</p>\n                    <img src=\"bees-with-color/bee-B2DF.svg\" width=\"200\">\n                    <p><span class=\"redText\">Bad choice,</span> the bee was friendly.<br>Your bonus pay is unchanged, and remains at $0.50.</p>\n            ","response":0,"trial_type":"html-button-response","trial_index":42,"time_elapsed":861476,"internal_node_id":"0.0-4.0-1.15","subject_id":"609594df07c06a009e5e1c1d","study_id":"60edd13110225f80f9f3709b","session_id":"6196c85e8b5787454145193e","condition":"full-information","relevant_dimensions":["pattern","legs"],"bee_group":{"antennae":"X","wings":"X","pattern":"S","legs":"M"},"bonus":1.6600000000000013},{"rt":9446.59999999404,"stimulus":"bees-with-color/bee-A1SM.svg","response":1,"trial_type":"image-button-response","trial_index":43,"time_elapsed":870924,"internal_node_id":"0.0-4.0-0.16","subject_id":"609594df07c06a009e5e1c1d","study_id":"60edd13110225f80f9f3709b","session_id":"6196c85e8b5787454145193e","condition":"full-information","relevant_dimensions":["pattern","legs"],"bee_group":{"antennae":"X","wings":"X","pattern":"S","legs":"M"},"action":"avoid","summary":"good-avoid","bonus":1.6600000000000013},{"rt":2963,"stimulus":"\n                    <p><b>Action: <em>avoid</em></b></p>\n                    <p>This is the bee that you just saw.</p>\n                    <img src=\"bees-with-color/bee-A1SM.svg\" width=\"200\">\n                    <p><span class=\"greenText\">Good choice!</span>  This bee would have stung you.<br>Your bonus pay is unchanged, and remains at $0.50.</p>\n            ","response":0,"trial_type":"html-button-response","trial_index":44,"time_elapsed":873888,"internal_node_id":"0.0-4.0-1.16","subject_id":"609594df07c06a009e5e1c1d","study_id":"60edd13110225f80f9f3709b","session_id":"6196c85e8b5787454145193e","condition":"full-information","relevant_dimensions":["pattern","legs"],"bee_group":{"antennae":"X","wings":"X","pattern":"S","legs":"M"},"bonus":1.6600000000000013},{"rt":15045.5,"stimulus":"bees-with-color/bee-A1SF.svg","response":1,"trial_type":"image-button-response","trial_index":45,"time_elapsed":888935,"internal_node_id":"0.0-4.0-0.17","subject_id":"609594df07c06a009e5e1c1d","study_id":"60edd13110225f80f9f3709b","session_id":"6196c85e8b5787454145193e","condition":"full-information","relevant_dimensions":["pattern","legs"],"bee_group":{"antennae":"X","wings":"X","pattern":"S","legs":"M"},"action":"avoid","summary":"bad-avoid","bonus":1.6600000000000013},{"rt":12325.799999982119,"stimulus":"\n                    <p><b>Action: <em>avoid</em></b></p>\n                    <p>This is the bee that you just saw.</p>\n                    <img src=\"bees-with-color/bee-A1SF.svg\" width=\"200\">\n                    <p><span class=\"redText\">Bad choice,</span> the bee was friendly.<br>Your bonus pay is unchanged, and remains at $0.50.</p>\n            ","response":0,"trial_type":"html-button-response","trial_index":46,"time_elapsed":901262,"internal_node_id":"0.0-4.0-1.17","subject_id":"609594df07c06a009e5e1c1d","study_id":"60edd13110225f80f9f3709b","session_id":"6196c85e8b5787454145193e","condition":"full-information","relevant_dimensions":["pattern","legs"],"bee_group":{"antennae":"X","wings":"X","pattern":"S","legs":"M"},"bonus":1.6600000000000013},{"rt":11016.600000023842,"stimulus":"bees-with-color/bee-B1DF.svg","response":0,"trial_type":"image-button-response","trial_index":47,"time_elapsed":912280,"internal_node_id":"0.0-4.0-0.18","subject_id":"609594df07c06a009e5e1c1d","study_id":"60edd13110225f80f9f3709b","session_id":"6196c85e8b5787454145193e","condition":"full-information","relevant_dimensions":["pattern","legs"],"bee_group":{"antennae":"X","wings":"X","pattern":"S","legs":"M"},"action":"harvest","summary":"good-harvest","bonus":1.6600000000000013},{"rt":720.5999999940395,"stimulus":"\n                    <p><b>Action: <em>harvest</em></b></p>\n                    <p>This is the bee that you just saw.</p>\n                    <img src=\"bees-with-color/bee-B1DF.svg\" width=\"200\">\n                    <p><span class=\"greenText\"><b>Successful harvest!</b></span><br>Your pay has increased by $0.02. Your bonus pay is now $0.52.</p>\n            ","response":0,"trial_type":"html-button-response","trial_index":48,"time_elapsed":913002,"internal_node_id":"0.0-4.0-1.18","subject_id":"609594df07c06a009e5e1c1d","study_id":"60edd13110225f80f9f3709b","session_id":"6196c85e8b5787454145193e","condition":"full-information","relevant_dimensions":["pattern","legs"],"bee_group":{"antennae":"X","wings":"X","pattern":"S","legs":"M"},"bonus":1.6600000000000013},{"rt":15249,"stimulus":"bees-with-color/bee-A2SF.svg","response":0,"trial_type":"image-button-response","trial_index":49,"time_elapsed":928252,"internal_node_id":"0.0-4.0-0.19","subject_id":"609594df07c06a009e5e1c1d","study_id":"60edd13110225f80f9f3709b","session_id":"6196c85e8b5787454145193e","condition":"full-information","relevant_dimensions":["pattern","legs"],"bee_group":{"antennae":"X","wings":"X","pattern":"S","legs":"M"},"action":"harvest","summary":"good-harvest","bonus":1.6600000000000013},{"rt":1234.7999999821186,"stimulus":"\n                    <p><b>Action: <em>harvest</em></b></p>\n                    <p>This is the bee that you just saw.</p>\n                    <img src=\"bees-with-color/bee-A2SF.svg\" width=\"200\">\n                    <p><span class=\"greenText\"><b>Successful harvest!</b></span><br>Your pay has increased by $0.02. Your bonus pay is now $0.54.</p>\n            ","response":0,"trial_type":"html-button-response","trial_index":50,"time_elapsed":929488,"internal_node_id":"0.0-4.0-1.19","subject_id":"609594df07c06a009e5e1c1d","study_id":"60edd13110225f80f9f3709b","session_id":"6196c85e8b5787454145193e","condition":"full-information","relevant_dimensions":["pattern","legs"],"bee_group":{"antennae":"X","wings":"X","pattern":"S","legs":"M"},"bonus":1.6600000000000013},{"rt":10504.600000023842,"stimulus":"bees-with-color/bee-A1DM.svg","response":0,"trial_type":"image-button-response","trial_index":51,"time_elapsed":939994,"internal_node_id":"0.0-4.0-0.20","subject_id":"609594df07c06a009e5e1c1d","study_id":"60edd13110225f80f9f3709b","session_id":"6196c85e8b5787454145193e","condition":"full-information","relevant_dimensions":["pattern","legs"],"bee_group":{"antennae":"X","wings":"X","pattern":"S","legs":"M"},"action":"harvest","summary":"good-harvest","bonus":1.6600000000000013},{"rt":633.5999999940395,"stimulus":"\n                    <p><b>Action: <em>harvest</em></b></p>\n                    <p>This is the bee that you just saw.</p>\n                    <img src=\"bees-with-color/bee-A1DM.svg\" width=\"200\">\n                    <p><span class=\"greenText\"><b>Successful harvest!</b></span><br>Your pay has increased by $0.02. Your bonus pay is now $0.56.</p>\n            ","response":0,"trial_type":"html-button-response","trial_index":52,"time_elapsed":940629,"internal_node_id":"0.0-4.0-1.20","subject_id":"609594df07c06a009e5e1c1d","study_id":"60edd13110225f80f9f3709b","session_id":"6196c85e8b5787454145193e","condition":"full-information","relevant_dimensions":["pattern","legs"],"bee_group":{"antennae":"X","wings":"X","pattern":"S","legs":"M"},"bonus":1.6600000000000013},{"rt":14363.90000000596,"stimulus":"bees-with-color/bee-A2SM.svg","response":1,"trial_type":"image-button-response","trial_index":53,"time_elapsed":954994,"internal_node_id":"0.0-4.0-0.21","subject_id":"609594df07c06a009e5e1c1d","study_id":"60edd13110225f80f9f3709b","session_id":"6196c85e8b5787454145193e","condition":"full-information","relevant_dimensions":["pattern","legs"],"bee_group":{"antennae":"X","wings":"X","pattern":"S","legs":"M"},"action":"avoid","summary":"good-avoid","bonus":1.6600000000000013},{"rt":841,"stimulus":"\n                    <p><b>Action: <em>avoid</em></b></p>\n                    <p>This is the bee that you just saw.</p>\n                    <img src=\"bees-with-color/bee-A2SM.svg\" width=\"200\">\n                    <p><span class=\"greenText\">Good choice!</span>  This bee would have stung you.<br>Your bonus pay is unchanged, and remains at $0.56.</p>\n            ","response":0,"trial_type":"html-button-response","trial_index":54,"time_elapsed":955836,"internal_node_id":"0.0-4.0-1.21","subject_id":"609594df07c06a009e5e1c1d","study_id":"60edd13110225f80f9f3709b","session_id":"6196c85e8b5787454145193e","condition":"full-information","relevant_dimensions":["pattern","legs"],"bee_group":{"antennae":"X","wings":"X","pattern":"S","legs":"M"},"bonus":1.6600000000000013},{"rt":4671.600000023842,"stimulus":"bees-with-color/bee-A1DF.svg","response":0,"trial_type":"image-button-response","trial_index":55,"time_elapsed":960509,"internal_node_id":"0.0-4.0-0.22","subject_id":"609594df07c06a009e5e1c1d","study_id":"60edd13110225f80f9f3709b","session_id":"6196c85e8b5787454145193e","condition":"full-information","relevant_dimensions":["pattern","legs"],"bee_group":{"antennae":"X","wings":"X","pattern":"S","legs":"M"},"action":"harvest","summary":"good-harvest","bonus":1.6600000000000013},{"rt":875.8000000119209,"stimulus":"\n                    <p><b>Action: <em>harvest</em></b></p>\n                    <p>This is the bee that you just saw.</p>\n                    <img src=\"bees-with-color/bee-A1DF.svg\" width=\"200\">\n                    <p><span class=\"greenText\"><b>Successful harvest!</b></span><br>Your pay has increased by $0.02. Your bonus pay is now $0.58.</p>\n            ","response":0,"trial_type":"html-button-response","trial_index":56,"time_elapsed":961386,"internal_node_id":"0.0-4.0-1.22","subject_id":"609594df07c06a009e5e1c1d","study_id":"60edd13110225f80f9f3709b","session_id":"6196c85e8b5787454145193e","condition":"full-information","relevant_dimensions":["pattern","legs"],"bee_group":{"antennae":"X","wings":"X","pattern":"S","legs":"M"},"bonus":1.6600000000000013},{"rt":920.6000000238419,"stimulus":"bees-with-color/bee-B2DF.svg","response":0,"trial_type":"image-button-response","trial_index":57,"time_elapsed":962308,"internal_node_id":"0.0-4.0-0.23","subject_id":"609594df07c06a009e5e1c1d","study_id":"60edd13110225f80f9f3709b","session_id":"6196c85e8b5787454145193e","condition":"full-information","relevant_dimensions":["pattern","legs"],"bee_group":{"antennae":"X","wings":"X","pattern":"S","legs":"M"},"action":"harvest","summary":"good-harvest","bonus":1.6600000000000013},{"rt":552.5999999940395,"stimulus":"\n                    <p><b>Action: <em>harvest</em></b></p>\n                    <p>This is the bee that you just saw.</p>\n                    <img src=\"bees-with-color/bee-B2DF.svg\" width=\"200\">\n                    <p><span class=\"greenText\"><b>Successful harvest!</b></span><br>Your pay has increased by $0.02. Your bonus pay is now $0.60.</p>\n            ","response":0,"trial_type":"html-button-response","trial_index":58,"time_elapsed":962861,"internal_node_id":"0.0-4.0-1.23","subject_id":"609594df07c06a009e5e1c1d","study_id":"60edd13110225f80f9f3709b","session_id":"6196c85e8b5787454145193e","condition":"full-information","relevant_dimensions":["pattern","legs"],"bee_group":{"antennae":"X","wings":"X","pattern":"S","legs":"M"},"bonus":1.6600000000000013},{"rt":1271.199999988079,"stimulus":"bees-with-color/bee-B2SM.svg","response":1,"trial_type":"image-button-response","trial_index":59,"time_elapsed":964134,"internal_node_id":"0.0-4.0-0.24","subject_id":"609594df07c06a009e5e1c1d","study_id":"60edd13110225f80f9f3709b","session_id":"6196c85e8b5787454145193e","condition":"full-information","relevant_dimensions":["pattern","legs"],"bee_group":{"antennae":"X","wings":"X","pattern":"S","legs":"M"},"action":"avoid","summary":"good-avoid","bonus":1.6600000000000013},{"rt":520.9000000059605,"stimulus":"\n                    <p><b>Action: <em>avoid</em></b></p>\n                    <p>This is the bee that you just saw.</p>\n                    <img src=\"bees-with-color/bee-B2SM.svg\" width=\"200\">\n                    <p><span class=\"greenText\">Good choice!</span>  This bee would have stung you.<br>Your bonus pay is unchanged, and remains at $0.60.</p>\n            ","response":0,"trial_type":"html-button-response","trial_index":60,"time_elapsed":964657,"internal_node_id":"0.0-4.0-1.24","subject_id":"609594df07c06a009e5e1c1d","study_id":"60edd13110225f80f9f3709b","session_id":"6196c85e8b5787454145193e","condition":"full-information","relevant_dimensions":["pattern","legs"],"bee_group":{"antennae":"X","wings":"X","pattern":"S","legs":"M"},"bonus":1.6600000000000013},{"rt":1152.0999999940395,"stimulus":"bees-with-color/bee-A2DM.svg","response":0,"trial_type":"image-button-response","trial_index":61,"time_elapsed":965811,"internal_node_id":"0.0-4.0-0.25","subject_id":"609594df07c06a009e5e1c1d","study_id":"60edd13110225f80f9f3709b","session_id":"6196c85e8b5787454145193e","condition":"full-information","relevant_dimensions":["pattern","legs"],"bee_group":{"antennae":"X","wings":"X","pattern":"S","legs":"M"},"action":"harvest","summary":"good-harvest","bonus":1.6600000000000013},{"rt":822.9000000059605,"stimulus":"\n                    <p><b>Action: <em>harvest</em></b></p>\n                    <p>This is the bee that you just saw.</p>\n                    <img src=\"bees-with-color/bee-A2DM.svg\" width=\"200\">\n                    <p><span class=\"greenText\"><b>Successful harvest!</b></span><br>Your pay has increased by $0.02. Your bonus pay is now $0.62.</p>\n            ","response":0,"trial_type":"html-button-response","trial_index":62,"time_elapsed":966635,"internal_node_id":"0.0-4.0-1.25","subject_id":"609594df07c06a009e5e1c1d","study_id":"60edd13110225f80f9f3709b","session_id":"6196c85e8b5787454145193e","condition":"full-information","relevant_dimensions":["pattern","legs"],"bee_group":{"antennae":"X","wings":"X","pattern":"S","legs":"M"},"bonus":1.6600000000000013},{"rt":1006.6999999880791,"stimulus":"bees-with-color/bee-A2DF.svg","response":0,"trial_type":"image-button-response","trial_index":63,"time_elapsed":967642,"internal_node_id":"0.0-4.0-0.26","subject_id":"609594df07c06a009e5e1c1d","study_id":"60edd13110225f80f9f3709b","session_id":"6196c85e8b5787454145193e","condition":"full-information","relevant_dimensions":["pattern","legs"],"bee_group":{"antennae":"X","wings":"X","pattern":"S","legs":"M"},"action":"harvest","summary":"good-harvest","bonus":1.6600000000000013},{"rt":509.2000000178814,"stimulus":"\n                    <p><b>Action: <em>harvest</em></b></p>\n                    <p>This is the bee that you just saw.</p>\n                    <img src=\"bees-with-color/bee-A2DF.svg\" width=\"200\">\n                    <p><span class=\"greenText\"><b>Successful harvest!</b></span><br>Your pay has increased by $0.02. Your bonus pay is now $0.64.</p>\n            ","response":0,"trial_type":"html-button-response","trial_index":64,"time_elapsed":968153,"internal_node_id":"0.0-4.0-1.26","subject_id":"609594df07c06a009e5e1c1d","study_id":"60edd13110225f80f9f3709b","session_id":"6196c85e8b5787454145193e","condition":"full-information","relevant_dimensions":["pattern","legs"],"bee_group":{"antennae":"X","wings":"X","pattern":"S","legs":"M"},"bonus":1.6600000000000013},{"rt":6086.9000000059605,"stimulus":"bees-with-color/bee-B2SF.svg","response":0,"trial_type":"image-button-response","trial_index":65,"time_elapsed":974240,"internal_node_id":"0.0-4.0-0.27","subject_id":"609594df07c06a009e5e1c1d","study_id":"60edd13110225f80f9f3709b","session_id":"6196c85e8b5787454145193e","condition":"full-information","relevant_dimensions":["pattern","legs"],"bee_group":{"antennae":"X","wings":"X","pattern":"S","legs":"M"},"action":"harvest","summary":"good-harvest","bonus":1.6600000000000013},{"rt":535.0999999940395,"stimulus":"\n                    <p><b>Action: <em>harvest</em></b></p>\n                    <p>This is the bee that you just saw.</p>\n                    <img src=\"bees-with-color/bee-B2SF.svg\" width=\"200\">\n                    <p><span class=\"greenText\"><b>Successful harvest!</b></span><br>Your pay has increased by $0.02. Your bonus pay is now $0.66.</p>\n            ","response":0,"trial_type":"html-button-response","trial_index":66,"time_elapsed":974776,"internal_node_id":"0.0-4.0-1.27","subject_id":"609594df07c06a009e5e1c1d","study_id":"60edd13110225f80f9f3709b","session_id":"6196c85e8b5787454145193e","condition":"full-information","relevant_dimensions":["pattern","legs"],"bee_group":{"antennae":"X","wings":"X","pattern":"S","legs":"M"},"bonus":1.6600000000000013},{"rt":1032.800000011921,"stimulus":"bees-with-color/bee-B2DM.svg","response":0,"trial_type":"image-button-response","trial_index":67,"time_elapsed":975811,"internal_node_id":"0.0-4.0-0.28","subject_id":"609594df07c06a009e5e1c1d","study_id":"60edd13110225f80f9f3709b","session_id":"6196c85e8b5787454145193e","condition":"full-information","relevant_dimensions":["pattern","legs"],"bee_group":{"antennae":"X","wings":"X","pattern":"S","legs":"M"},"action":"harvest","summary":"good-harvest","bonus":1.6600000000000013},{"rt":475.89999997615814,"stimulus":"\n                    <p><b>Action: <em>harvest</em></b></p>\n                    <p>This is the bee that you just saw.</p>\n                    <img src=\"bees-with-color/bee-B2DM.svg\" width=\"200\">\n                    <p><span class=\"greenText\"><b>Successful harvest!</b></span><br>Your pay has increased by $0.02. Your bonus pay is now $0.68.</p>\n            ","response":0,"trial_type":"html-button-response","trial_index":68,"time_elapsed":976287,"internal_node_id":"0.0-4.0-1.28","subject_id":"609594df07c06a009e5e1c1d","study_id":"60edd13110225f80f9f3709b","session_id":"6196c85e8b5787454145193e","condition":"full-information","relevant_dimensions":["pattern","legs"],"bee_group":{"antennae":"X","wings":"X","pattern":"S","legs":"M"},"bonus":1.6600000000000013},{"rt":9898.09999999404,"stimulus":"bees-with-color/bee-B1SF.svg","response":0,"trial_type":"image-button-response","trial_index":69,"time_elapsed":986186,"internal_node_id":"0.0-4.0-0.29","subject_id":"609594df07c06a009e5e1c1d","study_id":"60edd13110225f80f9f3709b","session_id":"6196c85e8b5787454145193e","condition":"full-information","relevant_dimensions":["pattern","legs"],"bee_group":{"antennae":"X","wings":"X","pattern":"S","legs":"M"},"action":"harvest","summary":"good-harvest","bonus":1.6600000000000013},{"rt":594.2000000178814,"stimulus":"\n                    <p><b>Action: <em>harvest</em></b></p>\n                    <p>This is the bee that you just saw.</p>\n                    <img src=\"bees-with-color/bee-B1SF.svg\" width=\"200\">\n                    <p><span class=\"greenText\"><b>Successful harvest!</b></span><br>Your pay has increased by $0.02. Your bonus pay is now $0.70.</p>\n            ","response":0,"trial_type":"html-button-response","trial_index":70,"time_elapsed":986782,"internal_node_id":"0.0-4.0-1.29","subject_id":"609594df07c06a009e5e1c1d","study_id":"60edd13110225f80f9f3709b","session_id":"6196c85e8b5787454145193e","condition":"full-information","relevant_dimensions":["pattern","legs"],"bee_group":{"antennae":"X","wings":"X","pattern":"S","legs":"M"},"bonus":1.6600000000000013},{"rt":2797.800000011921,"stimulus":"bees-with-color/bee-B1SM.svg","response":1,"trial_type":"image-button-response","trial_index":71,"time_elapsed":989581,"internal_node_id":"0.0-4.0-0.30","subject_id":"609594df07c06a009e5e1c1d","study_id":"60edd13110225f80f9f3709b","session_id":"6196c85e8b5787454145193e","condition":"full-information","relevant_dimensions":["pattern","legs"],"bee_group":{"antennae":"X","wings":"X","pattern":"S","legs":"M"},"action":"avoid","summary":"good-avoid","bonus":1.6600000000000013},{"rt":753.6999999880791,"stimulus":"\n                    <p><b>Action: <em>avoid</em></b></p>\n                    <p>This is the bee that you just saw.</p>\n                    <img src=\"bees-with-color/bee-B1SM.svg\" width=\"200\">\n                    <p><span class=\"greenText\">Good choice!</span>  This bee would have stung you.<br>Your bonus pay is unchanged, and remains at $0.70.</p>\n            ","response":0,"trial_type":"html-button-response","trial_index":72,"time_elapsed":990336,"internal_node_id":"0.0-4.0-1.30","subject_id":"609594df07c06a009e5e1c1d","study_id":"60edd13110225f80f9f3709b","session_id":"6196c85e8b5787454145193e","condition":"full-information","relevant_dimensions":["pattern","legs"],"bee_group":{"antennae":"X","wings":"X","pattern":"S","legs":"M"},"bonus":1.6600000000000013},{"rt":1255.300000011921,"stimulus":"bees-with-color/bee-B1DM.svg","response":0,"trial_type":"image-button-response","trial_index":73,"time_elapsed":991593,"internal_node_id":"0.0-4.0-0.31","subject_id":"609594df07c06a009e5e1c1d","study_id":"60edd13110225f80f9f3709b","session_id":"6196c85e8b5787454145193e","condition":"full-information","relevant_dimensions":["pattern","legs"],"bee_group":{"antennae":"X","wings":"X","pattern":"S","legs":"M"},"action":"harvest","summary":"good-harvest","bonus":1.6600000000000013},{"rt":599.5999999940395,"stimulus":"\n                    <p><b>Action: <em>harvest</em></b></p>\n                    <p>This is the bee that you just saw.</p>\n                    <img src=\"bees-with-color/bee-B1DM.svg\" width=\"200\">\n                    <p><span class=\"greenText\"><b>Successful harvest!</b></span><br>Your pay has increased by $0.02. Your bonus pay is now $0.72.</p>\n            ","response":0,"trial_type":"html-button-response","trial_index":74,"time_elapsed":992193,"internal_node_id":"0.0-4.0-1.31","subject_id":"609594df07c06a009e5e1c1d","study_id":"60edd13110225f80f9f3709b","session_id":"6196c85e8b5787454145193e","condition":"full-information","relevant_dimensions":["pattern","legs"],"bee_group":{"antennae":"X","wings":"X","pattern":"S","legs":"M"},"bonus":1.6600000000000013},{"rt":6385.0999999940395,"stimulus":"bees-with-color/bee-A1DM.svg","response":0,"trial_type":"image-button-response","trial_index":75,"time_elapsed":998580,"internal_node_id":"0.0-4.0-0.32","subject_id":"609594df07c06a009e5e1c1d","study_id":"60edd13110225f80f9f3709b","session_id":"6196c85e8b5787454145193e","condition":"full-information","relevant_dimensions":["pattern","legs"],"bee_group":{"antennae":"X","wings":"X","pattern":"S","legs":"M"},"action":"harvest","summary":"good-harvest","bonus":1.6600000000000013},{"rt":571,"stimulus":"\n                    <p><b>Action: <em>harvest</em></b></p>\n                    <p>This is the bee that you just saw.</p>\n                    <img src=\"bees-with-color/bee-A1DM.svg\" width=\"200\">\n                    <p><span class=\"greenText\"><b>Successful harvest!</b></span><br>Your pay has increased by $0.02. Your bonus pay is now $0.74.</p>\n            ","response":0,"trial_type":"html-button-response","trial_index":76,"time_elapsed":999152,"internal_node_id":"0.0-4.0-1.32","subject_id":"609594df07c06a009e5e1c1d","study_id":"60edd13110225f80f9f3709b","session_id":"6196c85e8b5787454145193e","condition":"full-information","relevant_dimensions":["pattern","legs"],"bee_group":{"antennae":"X","wings":"X","pattern":"S","legs":"M"},"bonus":1.6600000000000013},{"rt":11044.199999988079,"stimulus":"bees-with-color/bee-A1SF.svg","response":0,"trial_type":"image-button-response","trial_index":77,"time_elapsed":1010197,"internal_node_id":"0.0-4.0-0.33","subject_id":"609594df07c06a009e5e1c1d","study_id":"60edd13110225f80f9f3709b","session_id":"6196c85e8b5787454145193e","condition":"full-information","relevant_dimensions":["pattern","legs"],"bee_group":{"antennae":"X","wings":"X","pattern":"S","legs":"M"},"action":"harvest","summary":"good-harvest","bonus":1.6600000000000013},{"rt":752.3999999761581,"stimulus":"\n                    <p><b>Action: <em>harvest</em></b></p>\n                    <p>This is the bee that you just saw.</p>\n                    <img src=\"bees-with-color/bee-A1SF.svg\" width=\"200\">\n                    <p><span class=\"greenText\"><b>Successful harvest!</b></span><br>Your pay has increased by $0.02. Your bonus pay is now $0.76.</p>\n            ","response":0,"trial_type":"html-button-response","trial_index":78,"time_elapsed":1010952,"internal_node_id":"0.0-4.0-1.33","subject_id":"609594df07c06a009e5e1c1d","study_id":"60edd13110225f80f9f3709b","session_id":"6196c85e8b5787454145193e","condition":"full-information","relevant_dimensions":["pattern","legs"],"bee_group":{"antennae":"X","wings":"X","pattern":"S","legs":"M"},"bonus":1.6600000000000013},{"rt":5764.600000023842,"stimulus":"bees-with-color/bee-A2SF.svg","response":0,"trial_type":"image-button-response","trial_index":79,"time_elapsed":1016718,"internal_node_id":"0.0-4.0-0.34","subject_id":"609594df07c06a009e5e1c1d","study_id":"60edd13110225f80f9f3709b","session_id":"6196c85e8b5787454145193e","condition":"full-information","relevant_dimensions":["pattern","legs"],"bee_group":{"antennae":"X","wings":"X","pattern":"S","legs":"M"},"action":"harvest","summary":"good-harvest","bonus":1.6600000000000013},{"rt":557.5999999940395,"stimulus":"\n                    <p><b>Action: <em>harvest</em></b></p>\n                    <p>This is the bee that you just saw.</p>\n                    <img src=\"bees-with-color/bee-A2SF.svg\" width=\"200\">\n                    <p><span class=\"greenText\"><b>Successful harvest!</b></span><br>Your pay has increased by $0.02. Your bonus pay is now $0.78.</p>\n            ","response":0,"trial_type":"html-button-response","trial_index":80,"time_elapsed":1017276,"internal_node_id":"0.0-4.0-1.34","subject_id":"609594df07c06a009e5e1c1d","study_id":"60edd13110225f80f9f3709b","session_id":"6196c85e8b5787454145193e","condition":"full-information","relevant_dimensions":["pattern","legs"],"bee_group":{"antennae":"X","wings":"X","pattern":"S","legs":"M"},"bonus":1.6600000000000013},{"rt":747.9000000059605,"stimulus":"bees-with-color/bee-B1SF.svg","response":0,"trial_type":"image-button-response","trial_index":81,"time_elapsed":1018026,"internal_node_id":"0.0-4.0-0.35","subject_id":"609594df07c06a009e5e1c1d","study_id":"60edd13110225f80f9f3709b","session_id":"6196c85e8b5787454145193e","condition":"full-information","relevant_dimensions":["pattern","legs"],"bee_group":{"antennae":"X","wings":"X","pattern":"S","legs":"M"},"action":"harvest","summary":"good-harvest","bonus":1.6600000000000013},{"rt":508.90000000596046,"stimulus":"\n                    <p><b>Action: <em>harvest</em></b></p>\n                    <p>This is the bee that you just saw.</p>\n                    <img src=\"bees-with-color/bee-B1SF.svg\" width=\"200\">\n                    <p><span class=\"greenText\"><b>Successful harvest!</b></span><br>Your pay has increased by $0.02. Your bonus pay is now $0.80.</p>\n            ","response":0,"trial_type":"html-button-response","trial_index":82,"time_elapsed":1018536,"internal_node_id":"0.0-4.0-1.35","subject_id":"609594df07c06a009e5e1c1d","study_id":"60edd13110225f80f9f3709b","session_id":"6196c85e8b5787454145193e","condition":"full-information","relevant_dimensions":["pattern","legs"],"bee_group":{"antennae":"X","wings":"X","pattern":"S","legs":"M"},"bonus":1.6600000000000013},{"rt":1365.300000011921,"stimulus":"bees-with-color/bee-B2DM.svg","response":0,"trial_type":"image-button-response","trial_index":83,"time_elapsed":1019902,"internal_node_id":"0.0-4.0-0.36","subject_id":"609594df07c06a009e5e1c1d","study_id":"60edd13110225f80f9f3709b","session_id":"6196c85e8b5787454145193e","condition":"full-information","relevant_dimensions":["pattern","legs"],"bee_group":{"antennae":"X","wings":"X","pattern":"S","legs":"M"},"action":"harvest","summary":"good-harvest","bonus":1.6600000000000013},{"rt":681.1999999880791,"stimulus":"\n                    <p><b>Action: <em>harvest</em></b></p>\n                    <p>This is the bee that you just saw.</p>\n                    <img src=\"bees-with-color/bee-B2DM.svg\" width=\"200\">\n                    <p><span class=\"greenText\"><b>Successful harvest!</b></span><br>Your pay has increased by $0.02. Your bonus pay is now $0.82.</p>\n            ","response":0,"trial_type":"html-button-response","trial_index":84,"time_elapsed":1020584,"internal_node_id":"0.0-4.0-1.36","subject_id":"609594df07c06a009e5e1c1d","study_id":"60edd13110225f80f9f3709b","session_id":"6196c85e8b5787454145193e","condition":"full-information","relevant_dimensions":["pattern","legs"],"bee_group":{"antennae":"X","wings":"X","pattern":"S","legs":"M"},"bonus":1.6600000000000013},{"rt":934.3000000119209,"stimulus":"bees-with-color/bee-B2SF.svg","response":0,"trial_type":"image-button-response","trial_index":85,"time_elapsed":1021520,"internal_node_id":"0.0-4.0-0.37","subject_id":"609594df07c06a009e5e1c1d","study_id":"60edd13110225f80f9f3709b","session_id":"6196c85e8b5787454145193e","condition":"full-information","relevant_dimensions":["pattern","legs"],"bee_group":{"antennae":"X","wings":"X","pattern":"S","legs":"M"},"action":"harvest","summary":"good-harvest","bonus":1.6600000000000013},{"rt":620.6000000238419,"stimulus":"\n                    <p><b>Action: <em>harvest</em></b></p>\n                    <p>This is the bee that you just saw.</p>\n                    <img src=\"bees-with-color/bee-B2SF.svg\" width=\"200\">\n                    <p><span class=\"greenText\"><b>Successful harvest!</b></span><br>Your pay has increased by $0.02. Your bonus pay is now $0.84.</p>\n            ","response":0,"trial_type":"html-button-response","trial_index":86,"time_elapsed":1022141,"internal_node_id":"0.0-4.0-1.37","subject_id":"609594df07c06a009e5e1c1d","study_id":"60edd13110225f80f9f3709b","session_id":"6196c85e8b5787454145193e","condition":"full-information","relevant_dimensions":["pattern","legs"],"bee_group":{"antennae":"X","wings":"X","pattern":"S","legs":"M"},"bonus":1.6600000000000013},{"rt":1551,"stimulus":"bees-with-color/bee-A1SM.svg","response":1,"trial_type":"image-button-response","trial_index":87,"time_elapsed":1023693,"internal_node_id":"0.0-4.0-0.38","subject_id":"609594df07c06a009e5e1c1d","study_id":"60edd13110225f80f9f3709b","session_id":"6196c85e8b5787454145193e","condition":"full-information","relevant_dimensions":["pattern","legs"],"bee_group":{"antennae":"X","wings":"X","pattern":"S","legs":"M"},"action":"avoid","summary":"good-avoid","bonus":1.6600000000000013},{"rt":492.69999998807907,"stimulus":"\n                    <p><b>Action: <em>avoid</em></b></p>\n                    <p>This is the bee that you just saw.</p>\n                    <img src=\"bees-with-color/bee-A1SM.svg\" width=\"200\">\n                    <p><span class=\"greenText\">Good choice!</span>  This bee would have stung you.<br>Your bonus pay is unchanged, and remains at $0.84.</p>\n            ","response":0,"trial_type":"html-button-response","trial_index":88,"time_elapsed":1024187,"internal_node_id":"0.0-4.0-1.38","subject_id":"609594df07c06a009e5e1c1d","study_id":"60edd13110225f80f9f3709b","session_id":"6196c85e8b5787454145193e","condition":"full-information","relevant_dimensions":["pattern","legs"],"bee_group":{"antennae":"X","wings":"X","pattern":"S","legs":"M"},"bonus":1.6600000000000013},{"rt":902.3000000119209,"stimulus":"bees-with-color/bee-B2SM.svg","response":1,"trial_type":"image-button-response","trial_index":89,"time_elapsed":1025090,"internal_node_id":"0.0-4.0-0.39","subject_id":"609594df07c06a009e5e1c1d","study_id":"60edd13110225f80f9f3709b","session_id":"6196c85e8b5787454145193e","condition":"full-information","relevant_dimensions":["pattern","legs"],"bee_group":{"antennae":"X","wings":"X","pattern":"S","legs":"M"},"action":"avoid","summary":"good-avoid","bonus":1.6600000000000013},{"rt":444.09999999403954,"stimulus":"\n                    <p><b>Action: <em>avoid</em></b></p>\n                    <p>This is the bee that you just saw.</p>\n                    <img src=\"bees-with-color/bee-B2SM.svg\" width=\"200\">\n                    <p><span class=\"greenText\">Good choice!</span>  This bee would have stung you.<br>Your bonus pay is unchanged, and remains at $0.84.</p>\n            ","response":0,"trial_type":"html-button-response","trial_index":90,"time_elapsed":1025535,"internal_node_id":"0.0-4.0-1.39","subject_id":"609594df07c06a009e5e1c1d","study_id":"60edd13110225f80f9f3709b","session_id":"6196c85e8b5787454145193e","condition":"full-information","relevant_dimensions":["pattern","legs"],"bee_group":{"antennae":"X","wings":"X","pattern":"S","legs":"M"},"bonus":1.6600000000000013},{"rt":1195,"stimulus":"bees-with-color/bee-A2DF.svg","response":0,"trial_type":"image-button-response","trial_index":91,"time_elapsed":1026731,"internal_node_id":"0.0-4.0-0.40","subject_id":"609594df07c06a009e5e1c1d","study_id":"60edd13110225f80f9f3709b","session_id":"6196c85e8b5787454145193e","condition":"full-information","relevant_dimensions":["pattern","legs"],"bee_group":{"antennae":"X","wings":"X","pattern":"S","legs":"M"},"action":"harvest","summary":"good-harvest","bonus":1.6600000000000013},{"rt":404.2000000178814,"stimulus":"\n                    <p><b>Action: <em>harvest</em></b></p>\n                    <p>This is the bee that you just saw.</p>\n                    <img src=\"bees-with-color/bee-A2DF.svg\" width=\"200\">\n                    <p><span class=\"greenText\"><b>Successful harvest!</b></span><br>Your pay has increased by $0.02. Your bonus pay is now $0.86.</p>\n            ","response":0,"trial_type":"html-button-response","trial_index":92,"time_elapsed":1027136,"internal_node_id":"0.0-4.0-1.40","subject_id":"609594df07c06a009e5e1c1d","study_id":"60edd13110225f80f9f3709b","session_id":"6196c85e8b5787454145193e","condition":"full-information","relevant_dimensions":["pattern","legs"],"bee_group":{"antennae":"X","wings":"X","pattern":"S","legs":"M"},"bonus":1.6600000000000013},{"rt":1072.9000000059605,"stimulus":"bees-with-color/bee-B1DM.svg","response":1,"trial_type":"image-button-response","trial_index":93,"time_elapsed":1028210,"internal_node_id":"0.0-4.0-0.41","subject_id":"609594df07c06a009e5e1c1d","study_id":"60edd13110225f80f9f3709b","session_id":"6196c85e8b5787454145193e","condition":"full-information","relevant_dimensions":["pattern","legs"],"bee_group":{"antennae":"X","wings":"X","pattern":"S","legs":"M"},"action":"avoid","summary":"bad-avoid","bonus":1.6600000000000013},{"rt":788,"stimulus":"\n                    <p><b>Action: <em>avoid</em></b></p>\n                    <p>This is the bee that you just saw.</p>\n                    <img src=\"bees-with-color/bee-B1DM.svg\" width=\"200\">\n                    <p><span class=\"redText\">Bad choice,</span> the bee was friendly.<br>Your bonus pay is unchanged, and remains at $0.86.</p>\n            ","response":0,"trial_type":"html-button-response","trial_index":94,"time_elapsed":1028999,"internal_node_id":"0.0-4.0-1.41","subject_id":"609594df07c06a009e5e1c1d","study_id":"60edd13110225f80f9f3709b","session_id":"6196c85e8b5787454145193e","condition":"full-information","relevant_dimensions":["pattern","legs"],"bee_group":{"antennae":"X","wings":"X","pattern":"S","legs":"M"},"bonus":1.6600000000000013},{"rt":1809.9000000059605,"stimulus":"bees-with-color/bee-B1SM.svg","response":1,"trial_type":"image-button-response","trial_index":95,"time_elapsed":1030810,"internal_node_id":"0.0-4.0-0.42","subject_id":"609594df07c06a009e5e1c1d","study_id":"60edd13110225f80f9f3709b","session_id":"6196c85e8b5787454145193e","condition":"full-information","relevant_dimensions":["pattern","legs"],"bee_group":{"antennae":"X","wings":"X","pattern":"S","legs":"M"},"action":"avoid","summary":"good-avoid","bonus":1.6600000000000013},{"rt":426.90000000596046,"stimulus":"\n                    <p><b>Action: <em>avoid</em></b></p>\n                    <p>This is the bee that you just saw.</p>\n                    <img src=\"bees-with-color/bee-B1SM.svg\" width=\"200\">\n                    <p><span class=\"greenText\">Good choice!</span>  This bee would have stung you.<br>Your bonus pay is unchanged, and remains at $0.86.</p>\n            ","response":0,"trial_type":"html-button-response","trial_index":96,"time_elapsed":1031238,"internal_node_id":"0.0-4.0-1.42","subject_id":"609594df07c06a009e5e1c1d","study_id":"60edd13110225f80f9f3709b","session_id":"6196c85e8b5787454145193e","condition":"full-information","relevant_dimensions":["pattern","legs"],"bee_group":{"antennae":"X","wings":"X","pattern":"S","legs":"M"},"bonus":1.6600000000000013},{"rt":767.1999999880791,"stimulus":"bees-with-color/bee-B2DF.svg","response":0,"trial_type":"image-button-response","trial_index":97,"time_elapsed":1032006,"internal_node_id":"0.0-4.0-0.43","subject_id":"609594df07c06a009e5e1c1d","study_id":"60edd13110225f80f9f3709b","session_id":"6196c85e8b5787454145193e","condition":"full-information","relevant_dimensions":["pattern","legs"],"bee_group":{"antennae":"X","wings":"X","pattern":"S","legs":"M"},"action":"harvest","summary":"good-harvest","bonus":1.6600000000000013},{"rt":415.89999997615814,"stimulus":"\n                    <p><b>Action: <em>harvest</em></b></p>\n                    <p>This is the bee that you just saw.</p>\n                    <img src=\"bees-with-color/bee-B2DF.svg\" width=\"200\">\n                    <p><span class=\"greenText\"><b>Successful harvest!</b></span><br>Your pay has increased by $0.02. Your bonus pay is now $0.88.</p>\n            ","response":0,"trial_type":"html-button-response","trial_index":98,"time_elapsed":1032423,"internal_node_id":"0.0-4.0-1.43","subject_id":"609594df07c06a009e5e1c1d","study_id":"60edd13110225f80f9f3709b","session_id":"6196c85e8b5787454145193e","condition":"full-information","relevant_dimensions":["pattern","legs"],"bee_group":{"antennae":"X","wings":"X","pattern":"S","legs":"M"},"bonus":1.6600000000000013},{"rt":1234.0999999940395,"stimulus":"bees-with-color/bee-A2SM.svg","response":1,"trial_type":"image-button-response","trial_index":99,"time_elapsed":1033658,"internal_node_id":"0.0-4.0-0.44","subject_id":"609594df07c06a009e5e1c1d","study_id":"60edd13110225f80f9f3709b","session_id":"6196c85e8b5787454145193e","condition":"full-information","relevant_dimensions":["pattern","legs"],"bee_group":{"antennae":"X","wings":"X","pattern":"S","legs":"M"},"action":"avoid","summary":"good-avoid","bonus":1.6600000000000013},{"rt":475.90000000596046,"stimulus":"\n                    <p><b>Action: <em>avoid</em></b></p>\n                    <p>This is the bee that you just saw.</p>\n                    <img src=\"bees-with-color/bee-A2SM.svg\" width=\"200\">\n                    <p><span class=\"greenText\">Good choice!</span>  This bee would have stung you.<br>Your bonus pay is unchanged, and remains at $0.88.</p>\n            ","response":0,"trial_type":"html-button-response","trial_index":100,"time_elapsed":1034135,"internal_node_id":"0.0-4.0-1.44","subject_id":"609594df07c06a009e5e1c1d","study_id":"60edd13110225f80f9f3709b","session_id":"6196c85e8b5787454145193e","condition":"full-information","relevant_dimensions":["pattern","legs"],"bee_group":{"antennae":"X","wings":"X","pattern":"S","legs":"M"},"bonus":1.6600000000000013},{"rt":1585.4000000059605,"stimulus":"bees-with-color/bee-B1DF.svg","response":0,"trial_type":"image-button-response","trial_index":101,"time_elapsed":1035721,"internal_node_id":"0.0-4.0-0.45","subject_id":"609594df07c06a009e5e1c1d","study_id":"60edd13110225f80f9f3709b","session_id":"6196c85e8b5787454145193e","condition":"full-information","relevant_dimensions":["pattern","legs"],"bee_group":{"antennae":"X","wings":"X","pattern":"S","legs":"M"},"action":"harvest","summary":"good-harvest","bonus":1.6600000000000013},{"rt":1353.7999999821186,"stimulus":"\n                    <p><b>Action: <em>harvest</em></b></p>\n                    <p>This is the bee that you just saw.</p>\n                    <img src=\"bees-with-color/bee-B1DF.svg\" width=\"200\">\n                    <p><span class=\"greenText\"><b>Successful harvest!</b></span><br>Your pay has increased by $0.02. Your bonus pay is now $0.90.</p>\n            ","response":0,"trial_type":"html-button-response","trial_index":102,"time_elapsed":1037076,"internal_node_id":"0.0-4.0-1.45","subject_id":"609594df07c06a009e5e1c1d","study_id":"60edd13110225f80f9f3709b","session_id":"6196c85e8b5787454145193e","condition":"full-information","relevant_dimensions":["pattern","legs"],"bee_group":{"antennae":"X","wings":"X","pattern":"S","legs":"M"},"bonus":1.6600000000000013},{"rt":1314.9000000059605,"stimulus":"bees-with-color/bee-A2DM.svg","response":0,"trial_type":"image-button-response","trial_index":103,"time_elapsed":1038392,"internal_node_id":"0.0-4.0-0.46","subject_id":"609594df07c06a009e5e1c1d","study_id":"60edd13110225f80f9f3709b","session_id":"6196c85e8b5787454145193e","condition":"full-information","relevant_dimensions":["pattern","legs"],"bee_group":{"antennae":"X","wings":"X","pattern":"S","legs":"M"},"action":"harvest","summary":"good-harvest","bonus":1.6600000000000013},{"rt":355.90000000596046,"stimulus":"\n                    <p><b>Action: <em>harvest</em></b></p>\n                    <p>This is the bee that you just saw.</p>\n                    <img src=\"bees-with-color/bee-A2DM.svg\" width=\"200\">\n                    <p><span class=\"greenText\"><b>Successful harvest!</b></span><br>Your pay has increased by $0.02. Your bonus pay is now $0.92.</p>\n            ","response":0,"trial_type":"html-button-response","trial_index":104,"time_elapsed":1038749,"internal_node_id":"0.0-4.0-1.46","subject_id":"609594df07c06a009e5e1c1d","study_id":"60edd13110225f80f9f3709b","session_id":"6196c85e8b5787454145193e","condition":"full-information","relevant_dimensions":["pattern","legs"],"bee_group":{"antennae":"X","wings":"X","pattern":"S","legs":"M"},"bonus":1.6600000000000013},{"rt":738.7999999821186,"stimulus":"bees-with-color/bee-A1DF.svg","response":0,"trial_type":"image-button-response","trial_index":105,"time_elapsed":1039489,"internal_node_id":"0.0-4.0-0.47","subject_id":"609594df07c06a009e5e1c1d","study_id":"60edd13110225f80f9f3709b","session_id":"6196c85e8b5787454145193e","condition":"full-information","relevant_dimensions":["pattern","legs"],"bee_group":{"antennae":"X","wings":"X","pattern":"S","legs":"M"},"action":"harvest","summary":"good-harvest","bonus":1.6600000000000013},{"rt":801.1999999880791,"stimulus":"\n                    <p><b>Action: <em>harvest</em></b></p>\n                    <p>This is the bee that you just saw.</p>\n                    <img src=\"bees-with-color/bee-A1DF.svg\" width=\"200\">\n                    <p><span class=\"greenText\"><b>Successful harvest!</b></span><br>Your pay has increased by $0.02. Your bonus pay is now $0.94.</p>\n            ","response":0,"trial_type":"html-button-response","trial_index":106,"time_elapsed":1040291,"internal_node_id":"0.0-4.0-1.47","subject_id":"609594df07c06a009e5e1c1d","study_id":"60edd13110225f80f9f3709b","session_id":"6196c85e8b5787454145193e","condition":"full-information","relevant_dimensions":["pattern","legs"],"bee_group":{"antennae":"X","wings":"X","pattern":"S","legs":"M"},"bonus":1.6600000000000013},{"rt":967.5999999940395,"stimulus":"bees-with-color/bee-A2SM.svg","response":1,"trial_type":"image-button-response","trial_index":107,"time_elapsed":1041260,"internal_node_id":"0.0-4.0-0.48","subject_id":"609594df07c06a009e5e1c1d","study_id":"60edd13110225f80f9f3709b","session_id":"6196c85e8b5787454145193e","condition":"full-information","relevant_dimensions":["pattern","legs"],"bee_group":{"antennae":"X","wings":"X","pattern":"S","legs":"M"},"action":"avoid","summary":"good-avoid","bonus":1.6600000000000013},{"rt":388.7999999821186,"stimulus":"\n                    <p><b>Action: <em>avoid</em></b></p>\n                    <p>This is the bee that you just saw.</p>\n                    <img src=\"bees-with-color/bee-A2SM.svg\" width=\"200\">\n                    <p><span class=\"greenText\">Good choice!</span>  This bee would have stung you.<br>Your bonus pay is unchanged, and remains at $0.94.</p>\n            ","response":0,"trial_type":"html-button-response","trial_index":108,"time_elapsed":1041650,"internal_node_id":"0.0-4.0-1.48","subject_id":"609594df07c06a009e5e1c1d","study_id":"60edd13110225f80f9f3709b","session_id":"6196c85e8b5787454145193e","condition":"full-information","relevant_dimensions":["pattern","legs"],"bee_group":{"antennae":"X","wings":"X","pattern":"S","legs":"M"},"bonus":1.6600000000000013},{"rt":768,"stimulus":"bees-with-color/bee-B1SF.svg","response":0,"trial_type":"image-button-response","trial_index":109,"time_elapsed":1042419,"internal_node_id":"0.0-4.0-0.49","subject_id":"609594df07c06a009e5e1c1d","study_id":"60edd13110225f80f9f3709b","session_id":"6196c85e8b5787454145193e","condition":"full-information","relevant_dimensions":["pattern","legs"],"bee_group":{"antennae":"X","wings":"X","pattern":"S","legs":"M"},"action":"harvest","summary":"good-harvest","bonus":1.6600000000000013},{"rt":379.69999998807907,"stimulus":"\n                    <p><b>Action: <em>harvest</em></b></p>\n                    <p>This is the bee that you just saw.</p>\n                    <img src=\"bees-with-color/bee-B1SF.svg\" width=\"200\">\n                    <p><span class=\"greenText\"><b>Successful harvest!</b></span><br>Your pay has increased by $0.02. Your bonus pay is now $0.96.</p>\n            ","response":0,"trial_type":"html-button-response","trial_index":110,"time_elapsed":1042800,"internal_node_id":"0.0-4.0-1.49","subject_id":"609594df07c06a009e5e1c1d","study_id":"60edd13110225f80f9f3709b","session_id":"6196c85e8b5787454145193e","condition":"full-information","relevant_dimensions":["pattern","legs"],"bee_group":{"antennae":"X","wings":"X","pattern":"S","legs":"M"},"bonus":1.6600000000000013},{"rt":1442.4000000059605,"stimulus":"bees-with-color/bee-B1DM.svg","response":0,"trial_type":"image-button-response","trial_index":111,"time_elapsed":1044243,"internal_node_id":"0.0-4.0-0.50","subject_id":"609594df07c06a009e5e1c1d","study_id":"60edd13110225f80f9f3709b","session_id":"6196c85e8b5787454145193e","condition":"full-information","relevant_dimensions":["pattern","legs"],"bee_group":{"antennae":"X","wings":"X","pattern":"S","legs":"M"},"action":"harvest","summary":"good-harvest","bonus":1.6600000000000013},{"rt":421,"stimulus":"\n                    <p><b>Action: <em>harvest</em></b></p>\n                    <p>This is the bee that you just saw.</p>\n                    <img src=\"bees-with-color/bee-B1DM.svg\" width=\"200\">\n                    <p><span class=\"greenText\"><b>Successful harvest!</b></span><br>Your pay has increased by $0.02. Your bonus pay is now $0.98.</p>\n            ","response":0,"trial_type":"html-button-response","trial_index":112,"time_elapsed":1044665,"internal_node_id":"0.0-4.0-1.50","subject_id":"609594df07c06a009e5e1c1d","study_id":"60edd13110225f80f9f3709b","session_id":"6196c85e8b5787454145193e","condition":"full-information","relevant_dimensions":["pattern","legs"],"bee_group":{"antennae":"X","wings":"X","pattern":"S","legs":"M"},"bonus":1.6600000000000013},{"rt":1351.300000011921,"stimulus":"bees-with-color/bee-B2DF.svg","response":0,"trial_type":"image-button-response","trial_index":113,"time_elapsed":1046017,"internal_node_id":"0.0-4.0-0.51","subject_id":"609594df07c06a009e5e1c1d","study_id":"60edd13110225f80f9f3709b","session_id":"6196c85e8b5787454145193e","condition":"full-information","relevant_dimensions":["pattern","legs"],"bee_group":{"antennae":"X","wings":"X","pattern":"S","legs":"M"},"action":"harvest","summary":"good-harvest","bonus":1.6600000000000013},{"rt":424,"stimulus":"\n                    <p><b>Action: <em>harvest</em></b></p>\n                    <p>This is the bee that you just saw.</p>\n                    <img src=\"bees-with-color/bee-B2DF.svg\" width=\"200\">\n                    <p><span class=\"greenText\"><b>Successful harvest!</b></span><br>Your pay has increased by $0.02. Your bonus pay is now $1.00.</p>\n            ","response":0,"trial_type":"html-button-response","trial_index":114,"time_elapsed":1046442,"internal_node_id":"0.0-4.0-1.51","subject_id":"609594df07c06a009e5e1c1d","study_id":"60edd13110225f80f9f3709b","session_id":"6196c85e8b5787454145193e","condition":"full-information","relevant_dimensions":["pattern","legs"],"bee_group":{"antennae":"X","wings":"X","pattern":"S","legs":"M"},"bonus":1.6600000000000013},{"rt":12099.200000017881,"stimulus":"bees-with-color/bee-A2SF.svg","response":0,"trial_type":"image-button-response","trial_index":115,"time_elapsed":1058542,"internal_node_id":"0.0-4.0-0.52","subject_id":"609594df07c06a009e5e1c1d","study_id":"60edd13110225f80f9f3709b","session_id":"6196c85e8b5787454145193e","condition":"full-information","relevant_dimensions":["pattern","legs"],"bee_group":{"antennae":"X","wings":"X","pattern":"S","legs":"M"},"action":"harvest","summary":"good-harvest","bonus":1.6600000000000013},{"rt":14187.899999976158,"stimulus":"\n                    <p><b>Action: <em>harvest</em></b></p>\n                    <p>This is the bee that you just saw.</p>\n                    <img src=\"bees-with-color/bee-A2SF.svg\" width=\"200\">\n                    <p><span class=\"greenText\"><b>Successful harvest!</b></span><br>Your pay has increased by $0.02. Your bonus pay is now $1.02.</p>\n            ","response":0,"trial_type":"html-button-response","trial_index":116,"time_elapsed":1072731,"internal_node_id":"0.0-4.0-1.52","subject_id":"609594df07c06a009e5e1c1d","study_id":"60edd13110225f80f9f3709b","session_id":"6196c85e8b5787454145193e","condition":"full-information","relevant_dimensions":["pattern","legs"],"bee_group":{"antennae":"X","wings":"X","pattern":"S","legs":"M"},"bonus":1.6600000000000013},{"rt":1065.699999988079,"stimulus":"bees-with-color/bee-A1SF.svg","response":0,"trial_type":"image-button-response","trial_index":117,"time_elapsed":1073798,"internal_node_id":"0.0-4.0-0.53","subject_id":"609594df07c06a009e5e1c1d","study_id":"60edd13110225f80f9f3709b","session_id":"6196c85e8b5787454145193e","condition":"full-information","relevant_dimensions":["pattern","legs"],"bee_group":{"antennae":"X","wings":"X","pattern":"S","legs":"M"},"action":"harvest","summary":"good-harvest","bonus":1.6600000000000013},{"rt":405,"stimulus":"\n                    <p><b>Action: <em>harvest</em></b></p>\n                    <p>This is the bee that you just saw.</p>\n                    <img src=\"bees-with-color/bee-A1SF.svg\" width=\"200\">\n                    <p><span class=\"greenText\"><b>Successful harvest!</b></span><br>Your pay has increased by $0.02. Your bonus pay is now $1.04.</p>\n            ","response":0,"trial_type":"html-button-response","trial_index":118,"time_elapsed":1074204,"internal_node_id":"0.0-4.0-1.53","subject_id":"609594df07c06a009e5e1c1d","study_id":"60edd13110225f80f9f3709b","session_id":"6196c85e8b5787454145193e","condition":"full-information","relevant_dimensions":["pattern","legs"],"bee_group":{"antennae":"X","wings":"X","pattern":"S","legs":"M"},"bonus":1.6600000000000013},{"rt":841.0999999940395,"stimulus":"bees-with-color/bee-A2DM.svg","response":0,"trial_type":"image-button-response","trial_index":119,"time_elapsed":1075046,"internal_node_id":"0.0-4.0-0.54","subject_id":"609594df07c06a009e5e1c1d","study_id":"60edd13110225f80f9f3709b","session_id":"6196c85e8b5787454145193e","condition":"full-information","relevant_dimensions":["pattern","legs"],"bee_group":{"antennae":"X","wings":"X","pattern":"S","legs":"M"},"action":"harvest","summary":"good-harvest","bonus":1.6600000000000013},{"rt":312.59999999403954,"stimulus":"\n                    <p><b>Action: <em>harvest</em></b></p>\n                    <p>This is the bee that you just saw.</p>\n                    <img src=\"bees-with-color/bee-A2DM.svg\" width=\"200\">\n                    <p><span class=\"greenText\"><b>Successful harvest!</b></span><br>Your pay has increased by $0.02. Your bonus pay is now $1.06.</p>\n            ","response":0,"trial_type":"html-button-response","trial_index":120,"time_elapsed":1075360,"internal_node_id":"0.0-4.0-1.54","subject_id":"609594df07c06a009e5e1c1d","study_id":"60edd13110225f80f9f3709b","session_id":"6196c85e8b5787454145193e","condition":"full-information","relevant_dimensions":["pattern","legs"],"bee_group":{"antennae":"X","wings":"X","pattern":"S","legs":"M"},"bonus":1.6600000000000013},{"rt":814.4000000059605,"stimulus":"bees-with-color/bee-B1SM.svg","response":1,"trial_type":"image-button-response","trial_index":121,"time_elapsed":1076175,"internal_node_id":"0.0-4.0-0.55","subject_id":"609594df07c06a009e5e1c1d","study_id":"60edd13110225f80f9f3709b","session_id":"6196c85e8b5787454145193e","condition":"full-information","relevant_dimensions":["pattern","legs"],"bee_group":{"antennae":"X","wings":"X","pattern":"S","legs":"M"},"action":"avoid","summary":"good-avoid","bonus":1.6600000000000013},{"rt":409.7999999821186,"stimulus":"\n                    <p><b>Action: <em>avoid</em></b></p>\n                    <p>This is the bee that you just saw.</p>\n                    <img src=\"bees-with-color/bee-B1SM.svg\" width=\"200\">\n                    <p><span class=\"greenText\">Good choice!</span>  This bee would have stung you.<br>Your bonus pay is unchanged, and remains at $1.06.</p>\n            ","response":0,"trial_type":"html-button-response","trial_index":122,"time_elapsed":1076586,"internal_node_id":"0.0-4.0-1.55","subject_id":"609594df07c06a009e5e1c1d","study_id":"60edd13110225f80f9f3709b","session_id":"6196c85e8b5787454145193e","condition":"full-information","relevant_dimensions":["pattern","legs"],"bee_group":{"antennae":"X","wings":"X","pattern":"S","legs":"M"},"bonus":1.6600000000000013},{"rt":707.2000000178814,"stimulus":"bees-with-color/bee-A1SM.svg","response":1,"trial_type":"image-button-response","trial_index":123,"time_elapsed":1077294,"internal_node_id":"0.0-4.0-0.56","subject_id":"609594df07c06a009e5e1c1d","study_id":"60edd13110225f80f9f3709b","session_id":"6196c85e8b5787454145193e","condition":"full-information","relevant_dimensions":["pattern","legs"],"bee_group":{"antennae":"X","wings":"X","pattern":"S","legs":"M"},"action":"avoid","summary":"good-avoid","bonus":1.6600000000000013},{"rt":329.59999999403954,"stimulus":"\n                    <p><b>Action: <em>avoid</em></b></p>\n                    <p>This is the bee that you just saw.</p>\n                    <img src=\"bees-with-color/bee-A1SM.svg\" width=\"200\">\n                    <p><span class=\"greenText\">Good choice!</span>  This bee would have stung you.<br>Your bonus pay is unchanged, and remains at $1.06.</p>\n            ","response":0,"trial_type":"html-button-response","trial_index":124,"time_elapsed":1077625,"internal_node_id":"0.0-4.0-1.56","subject_id":"609594df07c06a009e5e1c1d","study_id":"60edd13110225f80f9f3709b","session_id":"6196c85e8b5787454145193e","condition":"full-information","relevant_dimensions":["pattern","legs"],"bee_group":{"antennae":"X","wings":"X","pattern":"S","legs":"M"},"bonus":1.6600000000000013},{"rt":622.4000000059605,"stimulus":"bees-with-color/bee-B2DM.svg","response":0,"trial_type":"image-button-response","trial_index":125,"time_elapsed":1078248,"internal_node_id":"0.0-4.0-0.57","subject_id":"609594df07c06a009e5e1c1d","study_id":"60edd13110225f80f9f3709b","session_id":"6196c85e8b5787454145193e","condition":"full-information","relevant_dimensions":["pattern","legs"],"bee_group":{"antennae":"X","wings":"X","pattern":"S","legs":"M"},"action":"harvest","summary":"good-harvest","bonus":1.6600000000000013},{"rt":346,"stimulus":"\n                    <p><b>Action: <em>harvest</em></b></p>\n                    <p>This is the bee that you just saw.</p>\n                    <img src=\"bees-with-color/bee-B2DM.svg\" width=\"200\">\n                    <p><span class=\"greenText\"><b>Successful harvest!</b></span><br>Your pay has increased by $0.02. Your bonus pay is now $1.08.</p>\n            ","response":0,"trial_type":"html-button-response","trial_index":126,"time_elapsed":1078595,"internal_node_id":"0.0-4.0-1.57","subject_id":"609594df07c06a009e5e1c1d","study_id":"60edd13110225f80f9f3709b","session_id":"6196c85e8b5787454145193e","condition":"full-information","relevant_dimensions":["pattern","legs"],"bee_group":{"antennae":"X","wings":"X","pattern":"S","legs":"M"},"bonus":1.6600000000000013},{"rt":659.1999999880791,"stimulus":"bees-with-color/bee-A2DF.svg","response":0,"trial_type":"image-button-response","trial_index":127,"time_elapsed":1079255,"internal_node_id":"0.0-4.0-0.58","subject_id":"609594df07c06a009e5e1c1d","study_id":"60edd13110225f80f9f3709b","session_id":"6196c85e8b5787454145193e","condition":"full-information","relevant_dimensions":["pattern","legs"],"bee_group":{"antennae":"X","wings":"X","pattern":"S","legs":"M"},"action":"harvest","summary":"good-harvest","bonus":1.6600000000000013},{"rt":275.80000001192093,"stimulus":"\n                    <p><b>Action: <em>harvest</em></b></p>\n                    <p>This is the bee that you just saw.</p>\n                    <img src=\"bees-with-color/bee-A2DF.svg\" width=\"200\">\n                    <p><span class=\"greenText\"><b>Successful harvest!</b></span><br>Your pay has increased by $0.02. Your bonus pay is now $1.10.</p>\n            ","response":0,"trial_type":"html-button-response","trial_index":128,"time_elapsed":1079532,"internal_node_id":"0.0-4.0-1.58","subject_id":"609594df07c06a009e5e1c1d","study_id":"60edd13110225f80f9f3709b","session_id":"6196c85e8b5787454145193e","condition":"full-information","relevant_dimensions":["pattern","legs"],"bee_group":{"antennae":"X","wings":"X","pattern":"S","legs":"M"},"bonus":1.6600000000000013},{"rt":1110,"stimulus":"bees-with-color/bee-B2SF.svg","response":0,"trial_type":"image-button-response","trial_index":129,"time_elapsed":1080643,"internal_node_id":"0.0-4.0-0.59","subject_id":"609594df07c06a009e5e1c1d","study_id":"60edd13110225f80f9f3709b","session_id":"6196c85e8b5787454145193e","condition":"full-information","relevant_dimensions":["pattern","legs"],"bee_group":{"antennae":"X","wings":"X","pattern":"S","legs":"M"},"action":"harvest","summary":"good-harvest","bonus":1.6600000000000013},{"rt":400,"stimulus":"\n                    <p><b>Action: <em>harvest</em></b></p>\n                    <p>This is the bee that you just saw.</p>\n                    <img src=\"bees-with-color/bee-B2SF.svg\" width=\"200\">\n                    <p><span class=\"greenText\"><b>Successful harvest!</b></span><br>Your pay has increased by $0.02. Your bonus pay is now $1.12.</p>\n            ","response":0,"trial_type":"html-button-response","trial_index":130,"time_elapsed":1081044,"internal_node_id":"0.0-4.0-1.59","subject_id":"609594df07c06a009e5e1c1d","study_id":"60edd13110225f80f9f3709b","session_id":"6196c85e8b5787454145193e","condition":"full-information","relevant_dimensions":["pattern","legs"],"bee_group":{"antennae":"X","wings":"X","pattern":"S","legs":"M"},"bonus":1.6600000000000013},{"rt":622.9000000059605,"stimulus":"bees-with-color/bee-A1DF.svg","response":0,"trial_type":"image-button-response","trial_index":131,"time_elapsed":1081668,"internal_node_id":"0.0-4.0-0.60","subject_id":"609594df07c06a009e5e1c1d","study_id":"60edd13110225f80f9f3709b","session_id":"6196c85e8b5787454145193e","condition":"full-information","relevant_dimensions":["pattern","legs"],"bee_group":{"antennae":"X","wings":"X","pattern":"S","legs":"M"},"action":"harvest","summary":"good-harvest","bonus":1.6600000000000013},{"rt":294.7999999821186,"stimulus":"\n                    <p><b>Action: <em>harvest</em></b></p>\n                    <p>This is the bee that you just saw.</p>\n                    <img src=\"bees-with-color/bee-A1DF.svg\" width=\"200\">\n                    <p><span class=\"greenText\"><b>Successful harvest!</b></span><br>Your pay has increased by $0.02. Your bonus pay is now $1.14.</p>\n            ","response":0,"trial_type":"html-button-response","trial_index":132,"time_elapsed":1081964,"internal_node_id":"0.0-4.0-1.60","subject_id":"609594df07c06a009e5e1c1d","study_id":"60edd13110225f80f9f3709b","session_id":"6196c85e8b5787454145193e","condition":"full-information","relevant_dimensions":["pattern","legs"],"bee_group":{"antennae":"X","wings":"X","pattern":"S","legs":"M"},"bonus":1.6600000000000013},{"rt":1004,"stimulus":"bees-with-color/bee-B2SM.svg","response":1,"trial_type":"image-button-response","trial_index":133,"time_elapsed":1082969,"internal_node_id":"0.0-4.0-0.61","subject_id":"609594df07c06a009e5e1c1d","study_id":"60edd13110225f80f9f3709b","session_id":"6196c85e8b5787454145193e","condition":"full-information","relevant_dimensions":["pattern","legs"],"bee_group":{"antennae":"X","wings":"X","pattern":"S","legs":"M"},"action":"avoid","summary":"good-avoid","bonus":1.6600000000000013},{"rt":394.90000000596046,"stimulus":"\n                    <p><b>Action: <em>avoid</em></b></p>\n                    <p>This is the bee that you just saw.</p>\n                    <img src=\"bees-with-color/bee-B2SM.svg\" width=\"200\">\n                    <p><span class=\"greenText\">Good choice!</span>  This bee would have stung you.<br>Your bonus pay is unchanged, and remains at $1.14.</p>\n            ","response":0,"trial_type":"html-button-response","trial_index":134,"time_elapsed":1083365,"internal_node_id":"0.0-4.0-1.61","subject_id":"609594df07c06a009e5e1c1d","study_id":"60edd13110225f80f9f3709b","session_id":"6196c85e8b5787454145193e","condition":"full-information","relevant_dimensions":["pattern","legs"],"bee_group":{"antennae":"X","wings":"X","pattern":"S","legs":"M"},"bonus":1.6600000000000013},{"rt":629.2000000178814,"stimulus":"bees-with-color/bee-B1DF.svg","response":0,"trial_type":"image-button-response","trial_index":135,"time_elapsed":1083995,"internal_node_id":"0.0-4.0-0.62","subject_id":"609594df07c06a009e5e1c1d","study_id":"60edd13110225f80f9f3709b","session_id":"6196c85e8b5787454145193e","condition":"full-information","relevant_dimensions":["pattern","legs"],"bee_group":{"antennae":"X","wings":"X","pattern":"S","legs":"M"},"action":"harvest","summary":"good-harvest","bonus":1.6600000000000013},{"rt":283.09999999403954,"stimulus":"\n                    <p><b>Action: <em>harvest</em></b></p>\n                    <p>This is the bee that you just saw.</p>\n                    <img src=\"bees-with-color/bee-B1DF.svg\" width=\"200\">\n                    <p><span class=\"greenText\"><b>Successful harvest!</b></span><br>Your pay has increased by $0.02. Your bonus pay is now $1.16.</p>\n            ","response":0,"trial_type":"html-button-response","trial_index":136,"time_elapsed":1084279,"internal_node_id":"0.0-4.0-1.62","subject_id":"609594df07c06a009e5e1c1d","study_id":"60edd13110225f80f9f3709b","session_id":"6196c85e8b5787454145193e","condition":"full-information","relevant_dimensions":["pattern","legs"],"bee_group":{"antennae":"X","wings":"X","pattern":"S","legs":"M"},"bonus":1.6600000000000013},{"rt":1364.300000011921,"stimulus":"bees-with-color/bee-A1DM.svg","response":0,"trial_type":"image-button-response","trial_index":137,"time_elapsed":1085644,"internal_node_id":"0.0-4.0-0.63","subject_id":"609594df07c06a009e5e1c1d","study_id":"60edd13110225f80f9f3709b","session_id":"6196c85e8b5787454145193e","condition":"full-information","relevant_dimensions":["pattern","legs"],"bee_group":{"antennae":"X","wings":"X","pattern":"S","legs":"M"},"action":"harvest","summary":"good-harvest","bonus":1.6600000000000013},{"rt":395.59999999403954,"stimulus":"\n                    <p><b>Action: <em>harvest</em></b></p>\n                    <p>This is the bee that you just saw.</p>\n                    <img src=\"bees-with-color/bee-A1DM.svg\" width=\"200\">\n                    <p><span class=\"greenText\"><b>Successful harvest!</b></span><br>Your pay has increased by $0.02. Your bonus pay is now $1.18.</p>\n            ","response":0,"trial_type":"html-button-response","trial_index":138,"time_elapsed":1086041,"internal_node_id":"0.0-4.0-1.63","subject_id":"609594df07c06a009e5e1c1d","study_id":"60edd13110225f80f9f3709b","session_id":"6196c85e8b5787454145193e","condition":"full-information","relevant_dimensions":["pattern","legs"],"bee_group":{"antennae":"X","wings":"X","pattern":"S","legs":"M"},"bonus":1.6600000000000013},{"rt":1870.2000000178814,"stimulus":"You have completed the first part of this experiment.<br><br>You will now begin a shorter second part, in which you will receive no feedback.<br>The same rules regarding bonus pay apply.<br><br>Press any key to begin.","response":" ","trial_type":"html-keyboard-response","trial_index":139,"time_elapsed":1087912,"internal_node_id":"0.0-5.0","subject_id":"609594df07c06a009e5e1c1d","study_id":"60edd13110225f80f9f3709b","session_id":"6196c85e8b5787454145193e","condition":"full-information","relevant_dimensions":["pattern","legs"],"bee_group":{"antennae":"X","wings":"X","pattern":"S","legs":"M"},"bonus":1.6600000000000013},{"rt":4344.399999976158,"stimulus":"bees-with-color/bee-B2DF.svg","response":0,"trial_type":"image-button-response","trial_index":140,"time_elapsed":1092280,"internal_node_id":"0.0-6.0-0.0","subject_id":"609594df07c06a009e5e1c1d","study_id":"60edd13110225f80f9f3709b","session_id":"6196c85e8b5787454145193e","condition":"full-information","relevant_dimensions":["pattern","legs"],"bee_group":{"antennae":"X","wings":"X","pattern":"S","legs":"M"},"bonus":1.6600000000000013},{"rt":3700,"stimulus":"bees-with-color/bee-A1DM.svg","response":0,"trial_type":"image-button-response","trial_index":141,"time_elapsed":1095982,"internal_node_id":"0.0-6.0-0.1","subject_id":"609594df07c06a009e5e1c1d","study_id":"60edd13110225f80f9f3709b","session_id":"6196c85e8b5787454145193e","condition":"full-information","relevant_dimensions":["pattern","legs"],"bee_group":{"antennae":"X","wings":"X","pattern":"S","legs":"M"},"bonus":1.6600000000000013},{"rt":1402.300000011921,"stimulus":"bees-with-color/bee-B2SM.svg","response":1,"trial_type":"image-button-response","trial_index":142,"time_elapsed":1097386,"internal_node_id":"0.0-6.0-0.2","subject_id":"609594df07c06a009e5e1c1d","study_id":"60edd13110225f80f9f3709b","session_id":"6196c85e8b5787454145193e","condition":"full-information","relevant_dimensions":["pattern","legs"],"bee_group":{"antennae":"X","wings":"X","pattern":"S","legs":"M"},"bonus":1.6600000000000013},{"rt":2536.7000000178814,"stimulus":"bees-with-color/bee-A2DM.svg","response":0,"trial_type":"image-button-response","trial_index":143,"time_elapsed":1099924,"internal_node_id":"0.0-6.0-0.3","subject_id":"609594df07c06a009e5e1c1d","study_id":"60edd13110225f80f9f3709b","session_id":"6196c85e8b5787454145193e","condition":"full-information","relevant_dimensions":["pattern","legs"],"bee_group":{"antennae":"X","wings":"X","pattern":"S","legs":"M"},"bonus":1.6600000000000013},{"rt":815.6999999880791,"stimulus":"bees-with-color/bee-A1SM.svg","response":1,"trial_type":"image-button-response","trial_index":144,"time_elapsed":1100741,"internal_node_id":"0.0-6.0-0.4","subject_id":"609594df07c06a009e5e1c1d","study_id":"60edd13110225f80f9f3709b","session_id":"6196c85e8b5787454145193e","condition":"full-information","relevant_dimensions":["pattern","legs"],"bee_group":{"antennae":"X","wings":"X","pattern":"S","legs":"M"},"bonus":1.6600000000000013},{"rt":837.3000000119209,"stimulus":"bees-with-color/bee-B1DF.svg","response":0,"trial_type":"image-button-response","trial_index":145,"time_elapsed":1101580,"internal_node_id":"0.0-6.0-0.5","subject_id":"609594df07c06a009e5e1c1d","study_id":"60edd13110225f80f9f3709b","session_id":"6196c85e8b5787454145193e","condition":"full-information","relevant_dimensions":["pattern","legs"],"bee_group":{"antennae":"X","wings":"X","pattern":"S","legs":"M"},"bonus":1.6600000000000013},{"rt":794.3999999761581,"stimulus":"bees-with-color/bee-A1SF.svg","response":0,"trial_type":"image-button-response","trial_index":146,"time_elapsed":1102376,"internal_node_id":"0.0-6.0-0.6","subject_id":"609594df07c06a009e5e1c1d","study_id":"60edd13110225f80f9f3709b","session_id":"6196c85e8b5787454145193e","condition":"full-information","relevant_dimensions":["pattern","legs"],"bee_group":{"antennae":"X","wings":"X","pattern":"S","legs":"M"},"bonus":1.6600000000000013},{"rt":491.5,"stimulus":"bees-with-color/bee-B1SF.svg","response":0,"trial_type":"image-button-response","trial_index":147,"time_elapsed":1102869,"internal_node_id":"0.0-6.0-0.7","subject_id":"609594df07c06a009e5e1c1d","study_id":"60edd13110225f80f9f3709b","session_id":"6196c85e8b5787454145193e","condition":"full-information","relevant_dimensions":["pattern","legs"],"bee_group":{"antennae":"X","wings":"X","pattern":"S","legs":"M"},"bonus":1.6600000000000013},{"rt":1075.4000000059605,"stimulus":"bees-with-color/bee-A1DF.svg","response":0,"trial_type":"image-button-response","trial_index":148,"time_elapsed":1103946,"internal_node_id":"0.0-6.0-0.8","subject_id":"609594df07c06a009e5e1c1d","study_id":"60edd13110225f80f9f3709b","session_id":"6196c85e8b5787454145193e","condition":"full-information","relevant_dimensions":["pattern","legs"],"bee_group":{"antennae":"X","wings":"X","pattern":"S","legs":"M"},"bonus":1.6600000000000013},{"rt":1114.5,"stimulus":"bees-with-color/bee-B1DM.svg","response":0,"trial_type":"image-button-response","trial_index":149,"time_elapsed":1105062,"internal_node_id":"0.0-6.0-0.9","subject_id":"609594df07c06a009e5e1c1d","study_id":"60edd13110225f80f9f3709b","session_id":"6196c85e8b5787454145193e","condition":"full-information","relevant_dimensions":["pattern","legs"],"bee_group":{"antennae":"X","wings":"X","pattern":"S","legs":"M"},"bonus":1.6600000000000013},{"rt":863.5,"stimulus":"bees-with-color/bee-A2SF.svg","response":0,"trial_type":"image-button-response","trial_index":150,"time_elapsed":1105927,"internal_node_id":"0.0-6.0-0.10","subject_id":"609594df07c06a009e5e1c1d","study_id":"60edd13110225f80f9f3709b","session_id":"6196c85e8b5787454145193e","condition":"full-information","relevant_dimensions":["pattern","legs"],"bee_group":{"antennae":"X","wings":"X","pattern":"S","legs":"M"},"bonus":1.6600000000000013},{"rt":874.7000000178814,"stimulus":"bees-with-color/bee-A2SM.svg","response":1,"trial_type":"image-button-response","trial_index":151,"time_elapsed":1106803,"internal_node_id":"0.0-6.0-0.11","subject_id":"609594df07c06a009e5e1c1d","study_id":"60edd13110225f80f9f3709b","session_id":"6196c85e8b5787454145193e","condition":"full-information","relevant_dimensions":["pattern","legs"],"bee_group":{"antennae":"X","wings":"X","pattern":"S","legs":"M"},"bonus":1.6600000000000013},{"rt":1233.199999988079,"stimulus":"bees-with-color/bee-B2DM.svg","response":0,"trial_type":"image-button-response","trial_index":152,"time_elapsed":1108038,"internal_node_id":"0.0-6.0-0.12","subject_id":"609594df07c06a009e5e1c1d","study_id":"60edd13110225f80f9f3709b","session_id":"6196c85e8b5787454145193e","condition":"full-information","relevant_dimensions":["pattern","legs"],"bee_group":{"antennae":"X","wings":"X","pattern":"S","legs":"M"},"bonus":1.6600000000000013},{"rt":545.4000000059605,"stimulus":"bees-with-color/bee-A2DF.svg","response":0,"trial_type":"image-button-response","trial_index":153,"time_elapsed":1108585,"internal_node_id":"0.0-6.0-0.13","subject_id":"609594df07c06a009e5e1c1d","study_id":"60edd13110225f80f9f3709b","session_id":"6196c85e8b5787454145193e","condition":"full-information","relevant_dimensions":["pattern","legs"],"bee_group":{"antennae":"X","wings":"X","pattern":"S","legs":"M"},"bonus":1.6600000000000013},{"rt":893.29999998211