[{"success":true,"trial_type":"fullscreen","trial_index":0,"time_elapsed":2972,"internal_node_id":"0.0-0.0","subject_id":"5e580bcf4782bd01723249e2","study_id":"60edd13110225f80f9f3709b","session_id":"6196c4a3cfcaefbaaa6cfa33","condition":"full-information","relevant_dimensions":["antennae","pattern"],"bee_group":{"antennae":"A","wings":"X","pattern":"S","legs":"X"},"bonus":1.7800000000000011},{"success":true,"timeout":false,"failed_images":[],"failed_audio":[],"failed_video":[],"trial_type":"preload","trial_index":1,"time_elapsed":4421,"internal_node_id":"0.0-1.0","subject_id":"5e580bcf4782bd01723249e2","study_id":"60edd13110225f80f9f3709b","session_id":"6196c4a3cfcaefbaaa6cfa33","condition":"full-information","relevant_dimensions":["antennae","pattern"],"bee_group":{"antennae":"A","wings":"X","pattern":"S","legs":"X"},"bonus":1.7800000000000011},{"rt":2273.899999976158,"stimulus":"Welcome! Press any key to begin.","response":" ","trial_type":"html-keyboard-response","trial_index":2,"time_elapsed":6696,"internal_node_id":"0.0-2.0","subject_id":"5e580bcf4782bd01723249e2","study_id":"60edd13110225f80f9f3709b","session_id":"6196c4a3cfcaefbaaa6cfa33","condition":"full-information","relevant_dimensions":["antennae","pattern"],"bee_group":{"antennae":"A","wings":"X","pattern":"S","legs":"X"},"bonus":1.7800000000000011},{"view_history":[{"page_index":0,"viewing_time":3215.2999999523163},{"page_index":1,"viewing_time":9060},{"page_index":2,"viewing_time":11721.5},{"page_index":3,"viewing_time":15937.800000011921},{"page_index":4,"viewing_time":5580.800000011921},{"page_index":5,"viewing_time":7917.5},{"page_index":6,"viewing_time":9563.100000023842},{"page_index":7,"viewing_time":5953.599999964237},{"page_index":8,"viewing_time":3608.600000023842},{"page_index":9,"viewing_time":2545.899999976158},{"page_index":10,"viewing_time":2445.300000011921},{"page_index":11,"viewing_time":7396.5},{"page_index":12,"viewing_time":8328},{"page_index":13,"viewing_time":1614.300000011921},{"page_index":14,"viewing_time":1947.8999999761581}],"rt":96836.39999997616,"trial_type":"instructions","trial_index":3,"time_elapsed":103533,"internal_node_id":"0.0-3.0-0.0","subject_id":"5e580bcf4782bd01723249e2","study_id":"60edd13110225f80f9f3709b","session_id":"6196c4a3cfcaefbaaa6cfa33","condition":"full-information","relevant_dimensions":["antennae","pattern"],"bee_group":{"antennae":"A","wings":"X","pattern":"S","legs":"X"},"bonus":1.7800000000000011},{"rt":10012.800000011921,"response":{"Q0":["Two or six legs","Stripes or spots on body","Single or double wings","Antennae or no antennae"]},"question_order":[0],"trial_type":"survey-multi-select","trial_index":4,"time_elapsed":113549,"internal_node_id":"0.0-3.0-1.0","subject_id":"5e580bcf4782bd01723249e2","study_id":"60edd13110225f80f9f3709b","session_id":"6196c4a3cfcaefbaaa6cfa33","condition":"full-information","relevant_dimensions":["antennae","pattern"],"bee_group":{"antennae":"A","wings":"X","pattern":"S","legs":"X"},"correct":true,"bonus":1.7800000000000011},{"rt":16771.099999964237,"response":{"Q1":"No.","Q2":"Based on the four features of the bee.","Q3":"You learn if it was friendly or dangerous, but do not alter your bonus."},"question_order":[0,1,2],"trial_type":"survey-multi-choice","trial_index":5,"time_elapsed":130323,"internal_node_id":"0.0-3.0-2.0","subject_id":"5e580bcf4782bd01723249e2","study_id":"60edd13110225f80f9f3709b","session_id":"6196c4a3cfcaefbaaa6cfa33","condition":"full-information","relevant_dimensions":["antennae","pattern"],"bee_group":{"antennae":"A","wings":"X","pattern":"S","legs":"X"},"correct":true,"bonus":1.7800000000000011},{"rt":2613.2999999523163,"stimulus":"<p>Congrats, you got everything right<br>When you're ready, click the button below to continue to the experiment.</p>","response":0,"trial_type":"html-button-response","trial_index":6,"time_elapsed":132938,"internal_node_id":"0.0-3.0-3.0","subject_id":"5e580bcf4782bd01723249e2","study_id":"60edd13110225f80f9f3709b","session_id":"6196c4a3cfcaefbaaa6cfa33","condition":"full-information","relevant_dimensions":["antennae","pattern"],"bee_group":{"antennae":"A","wings":"X","pattern":"S","legs":"X"},"bonus":1.7800000000000011},{"rt":2628.400000035763,"stimulus":"bees-with-color/bee-B2DF.svg","response":1,"trial_type":"image-button-response","trial_index":7,"time_elapsed":135569,"internal_node_id":"0.0-4.0-0.0","subject_id":"5e580bcf4782bd01723249e2","study_id":"60edd13110225f80f9f3709b","session_id":"6196c4a3cfcaefbaaa6cfa33","condition":"full-information","relevant_dimensions":["antennae","pattern"],"bee_group":{"antennae":"A","wings":"X","pattern":"S","legs":"X"},"action":"avoid","summary":"bad-avoid","bonus":1.7800000000000011},{"rt":14075.600000023842,"stimulus":"\n                    <p><b>Action: <em>avoid</em></b></p>\n                    <p>This is the bee that you just saw.</p>\n                    <img src=\"bees-with-color/bee-B2DF.svg\" width=\"200\">\n                    <p><span class=\"redText\">Bad choice,</span> the bee was friendly.<br>Your bonus pay is unchanged, and remains at $0.54.</p>\n            ","response":0,"trial_type":"html-button-response","trial_index":8,"time_elapsed":149651,"internal_node_id":"0.0-4.0-1.0","subject_id":"5e580bcf4782bd01723249e2","study_id":"60edd13110225f80f9f3709b","session_id":"6196c4a3cfcaefbaaa6cfa33","condition":"full-information","relevant_dimensions":["antennae","pattern"],"bee_group":{"antennae":"A","wings":"X","pattern":"S","legs":"X"},"bonus":1.7800000000000011},{"rt":2201,"stimulus":"bees-with-color/bee-A2SF.svg","response":1,"trial_type":"image-button-response","trial_index":9,"time_elapsed":151855,"internal_node_id":"0.0-4.0-0.1","subject_id":"5e580bcf4782bd01723249e2","study_id":"60edd13110225f80f9f3709b","session_id":"6196c4a3cfcaefbaaa6cfa33","condition":"full-information","relevant_dimensions":["antennae","pattern"],"bee_group":{"antennae":"A","wings":"X","pattern":"S","legs":"X"},"action":"avoid","summary":"good-avoid","bonus":1.7800000000000011},{"rt":19233.399999976158,"stimulus":"\n                    <p><b>Action: <em>avoid</em></b></p>\n                    <p>This is the bee that you just saw.</p>\n                    <img src=\"bees-with-color/bee-A2SF.svg\" width=\"200\">\n                    <p><span class=\"greenText\">Good choice!</span>  This bee would have stung you.<br>Your bonus pay is unchanged, and remains at $0.54.</p>\n            ","response":0,"trial_type":"html-button-response","trial_index":10,"time_elapsed":171090,"internal_node_id":"0.0-4.0-1.1","subject_id":"5e580bcf4782bd01723249e2","study_id":"60edd13110225f80f9f3709b","session_id":"6196c4a3cfcaefbaaa6cfa33","condition":"full-information","relevant_dimensions":["antennae","pattern"],"bee_group":{"antennae":"A","wings":"X","pattern":"S","legs":"X"},"bonus":1.7800000000000011},{"rt":1813.3999999761581,"stimulus":"bees-with-color/bee-B1SM.svg","response":1,"trial_type":"image-button-response","trial_index":11,"time_elapsed":172906,"internal_node_id":"0.0-4.0-0.2","subject_id":"5e580bcf4782bd01723249e2","study_id":"60edd13110225f80f9f3709b","session_id":"6196c4a3cfcaefbaaa6cfa33","condition":"full-information","relevant_dimensions":["antennae","pattern"],"bee_group":{"antennae":"A","wings":"X","pattern":"S","legs":"X"},"action":"avoid","summary":"bad-avoid","bonus":1.7800000000000011},{"rt":12824.600000023842,"stimulus":"\n                    <p><b>Action: <em>avoid</em></b></p>\n                    <p>This is the bee that you just saw.</p>\n                    <img src=\"bees-with-color/bee-B1SM.svg\" width=\"200\">\n                    <p><span class=\"redText\">Bad choice,</span> the bee was friendly.<br>Your bonus pay is unchanged, and remains at $0.54.</p>\n            ","response":0,"trial_type":"html-button-response","trial_index":12,"time_elapsed":185732,"internal_node_id":"0.0-4.0-1.2","subject_id":"5e580bcf4782bd01723249e2","study_id":"60edd13110225f80f9f3709b","session_id":"6196c4a3cfcaefbaaa6cfa33","condition":"full-information","relevant_dimensions":["antennae","pattern"],"bee_group":{"antennae":"A","wings":"X","pattern":"S","legs":"X"},"bonus":1.7800000000000011},{"rt":4233.399999976158,"stimulus":"bees-with-color/bee-A2DM.svg","response":1,"trial_type":"image-button-response","trial_index":13,"time_elapsed":189968,"internal_node_id":"0.0-4.0-0.3","subject_id":"5e580bcf4782bd01723249e2","study_id":"60edd13110225f80f9f3709b","session_id":"6196c4a3cfcaefbaaa6cfa33","condition":"full-information","relevant_dimensions":["antennae","pattern"],"bee_group":{"antennae":"A","wings":"X","pattern":"S","legs":"X"},"action":"avoid","summary":"bad-avoid","bonus":1.7800000000000011},{"rt":3816.199999988079,"stimulus":"\n                    <p><b>Action: <em>avoid</em></b></p>\n                    <p>This is the bee that you just saw.</p>\n                    <img src=\"bees-with-color/bee-A2DM.svg\" width=\"200\">\n                    <p><span class=\"redText\">Bad choice,</span> the bee was friendly.<br>Your bonus pay is unchanged, and remains at $0.54.</p>\n            ","response":0,"trial_type":"html-button-response","trial_index":14,"time_elapsed":193785,"internal_node_id":"0.0-4.0-1.3","subject_id":"5e580bcf4782bd01723249e2","study_id":"60edd13110225f80f9f3709b","session_id":"6196c4a3cfcaefbaaa6cfa33","condition":"full-information","relevant_dimensions":["antennae","pattern"],"bee_group":{"antennae":"A","wings":"X","pattern":"S","legs":"X"},"bonus":1.7800000000000011},{"rt":2333.7999999523163,"stimulus":"bees-with-color/bee-A1SM.svg","response":1,"trial_type":"image-button-response","trial_index":15,"time_elapsed":196121,"internal_node_id":"0.0-4.0-0.4","subject_id":"5e580bcf4782bd01723249e2","study_id":"60edd13110225f80f9f3709b","session_id":"6196c4a3cfcaefbaaa6cfa33","condition":"full-information","relevant_dimensions":["antennae","pattern"],"bee_group":{"antennae":"A","wings":"X","pattern":"S","legs":"X"},"action":"avoid","summary":"good-avoid","bonus":1.7800000000000011},{"rt":4467.300000011921,"stimulus":"\n                    <p><b>Action: <em>avoid</em></b></p>\n                    <p>This is the bee that you just saw.</p>\n                    <img src=\"bees-with-color/bee-A1SM.svg\" width=\"200\">\n                    <p><span class=\"greenText\">Good choice!</span>  This bee would have stung you.<br>Your bonus pay is unchanged, and remains at $0.54.</p>\n            ","response":0,"trial_type":"html-button-response","trial_index":16,"time_elapsed":200590,"internal_node_id":"0.0-4.0-1.4","subject_id":"5e580bcf4782bd01723249e2","study_id":"60edd13110225f80f9f3709b","session_id":"6196c4a3cfcaefbaaa6cfa33","condition":"full-information","relevant_dimensions":["antennae","pattern"],"bee_group":{"antennae":"A","wings":"X","pattern":"S","legs":"X"},"bonus":1.7800000000000011},{"rt":2326.400000035763,"stimulus":"bees-with-color/bee-A1DF.svg","response":1,"trial_type":"image-button-response","trial_index":17,"time_elapsed":202918,"internal_node_id":"0.0-4.0-0.5","subject_id":"5e580bcf4782bd01723249e2","study_id":"60edd13110225f80f9f3709b","session_id":"6196c4a3cfcaefbaaa6cfa33","condition":"full-information","relevant_dimensions":["antennae","pattern"],"bee_group":{"antennae":"A","wings":"X","pattern":"S","legs":"X"},"action":"avoid","summary":"bad-avoid","bonus":1.7800000000000011},{"rt":2543.400000035763,"stimulus":"\n                    <p><b>Action: <em>avoid</em></b></p>\n                    <p>This is the bee that you just saw.</p>\n                    <img src=\"bees-with-color/bee-A1DF.svg\" width=\"200\">\n                    <p><span class=\"redText\">Bad choice,</span> the bee was friendly.<br>Your bonus pay is unchanged, and remains at $0.54.</p>\n            ","response":0,"trial_type":"html-button-response","trial_index":18,"time_elapsed":205462,"internal_node_id":"0.0-4.0-1.5","subject_id":"5e580bcf4782bd01723249e2","study_id":"60edd13110225f80f9f3709b","session_id":"6196c4a3cfcaefbaaa6cfa33","condition":"full-information","relevant_dimensions":["antennae","pattern"],"bee_group":{"antennae":"A","wings":"X","pattern":"S","legs":"X"},"bonus":1.7800000000000011},{"rt":4289,"stimulus":"bees-with-color/bee-B2DM.svg","response":0,"trial_type":"image-button-response","trial_index":19,"time_elapsed":209753,"internal_node_id":"0.0-4.0-0.6","subject_id":"5e580bcf4782bd01723249e2","study_id":"60edd13110225f80f9f3709b","session_id":"6196c4a3cfcaefbaaa6cfa33","condition":"full-information","relevant_dimensions":["antennae","pattern"],"bee_group":{"antennae":"A","wings":"X","pattern":"S","legs":"X"},"action":"harvest","summary":"good-harvest","bonus":1.7800000000000011},{"rt":2503.899999976158,"stimulus":"\n                    <p><b>Action: <em>harvest</em></b></p>\n                    <p>This is the bee that you just saw.</p>\n                    <img src=\"bees-with-color/bee-B2DM.svg\" width=\"200\">\n                    <p><span class=\"greenText\"><b>Successful harvest!</b></span><br>Your pay has increased by $0.02. Your bonus pay is now $0.56.</p>\n            ","response":0,"trial_type":"html-button-response","trial_index":20,"time_elapsed":212259,"internal_node_id":"0.0-4.0-1.6","subject_id":"5e580bcf4782bd01723249e2","study_id":"60edd13110225f80f9f3709b","session_id":"6196c4a3cfcaefbaaa6cfa33","condition":"full-information","relevant_dimensions":["antennae","pattern"],"bee_group":{"antennae":"A","wings":"X","pattern":"S","legs":"X"},"bonus":1.7800000000000011},{"rt":1620,"stimulus":"bees-with-color/bee-A1DM.svg","response":1,"trial_type":"image-button-response","trial_index":21,"time_elapsed":213881,"internal_node_id":"0.0-4.0-0.7","subject_id":"5e580bcf4782bd01723249e2","study_id":"60edd13110225f80f9f3709b","session_id":"6196c4a3cfcaefbaaa6cfa33","condition":"full-information","relevant_dimensions":["antennae","pattern"],"bee_group":{"antennae":"A","wings":"X","pattern":"S","legs":"X"},"action":"avoid","summary":"bad-avoid","bonus":1.7800000000000011},{"rt":3652.7999999523163,"stimulus":"\n                    <p><b>Action: <em>avoid</em></b></p>\n                    <p>This is the bee that you just saw.</p>\n                    <img src=\"bees-with-color/bee-A1DM.svg\" width=\"200\">\n                    <p><span class=\"redText\">Bad choice,</span> the bee was friendly.<br>Your bonus pay is unchanged, and remains at $0.56.</p>\n            ","response":0,"trial_type":"html-button-response","trial_index":22,"time_elapsed":217535,"internal_node_id":"0.0-4.0-1.7","subject_id":"5e580bcf4782bd01723249e2","study_id":"60edd13110225f80f9f3709b","session_id":"6196c4a3cfcaefbaaa6cfa33","condition":"full-information","relevant_dimensions":["antennae","pattern"],"bee_group":{"antennae":"A","wings":"X","pattern":"S","legs":"X"},"bonus":1.7800000000000011},{"rt":3831.2999999523163,"stimulus":"bees-with-color/bee-A2DF.svg","response":1,"trial_type":"image-button-response","trial_index":23,"time_elapsed":221368,"internal_node_id":"0.0-4.0-0.8","subject_id":"5e580bcf4782bd01723249e2","study_id":"60edd13110225f80f9f3709b","session_id":"6196c4a3cfcaefbaaa6cfa33","condition":"full-information","relevant_dimensions":["antennae","pattern"],"bee_group":{"antennae":"A","wings":"X","pattern":"S","legs":"X"},"action":"avoid","summary":"bad-avoid","bonus":1.7800000000000011},{"rt":1698,"stimulus":"\n                    <p><b>Action: <em>avoid</em></b></p>\n                    <p>This is the bee that you just saw.</p>\n                    <img src=\"bees-with-color/bee-A2DF.svg\" width=\"200\">\n                    <p><span class=\"redText\">Bad choice,</span> the bee was friendly.<br>Your bonus pay is unchanged, and remains at $0.56.</p>\n            ","response":0,"trial_type":"html-button-response","trial_index":24,"time_elapsed":223067,"internal_node_id":"0.0-4.0-1.8","subject_id":"5e580bcf4782bd01723249e2","study_id":"60edd13110225f80f9f3709b","session_id":"6196c4a3cfcaefbaaa6cfa33","condition":"full-information","relevant_dimensions":["antennae","pattern"],"bee_group":{"antennae":"A","wings":"X","pattern":"S","legs":"X"},"bonus":1.7800000000000011},{"rt":1713.199999988079,"stimulus":"bees-with-color/bee-A2SM.svg","response":1,"trial_type":"image-button-response","trial_index":25,"time_elapsed":224782,"internal_node_id":"0.0-4.0-0.9","subject_id":"5e580bcf4782bd01723249e2","study_id":"60edd13110225f80f9f3709b","session_id":"6196c4a3cfcaefbaaa6cfa33","condition":"full-information","relevant_dimensions":["antennae","pattern"],"bee_group":{"antennae":"A","wings":"X","pattern":"S","legs":"X"},"action":"avoid","summary":"good-avoid","bonus":1.7800000000000011},{"rt":1449.199999988079,"stimulus":"\n                    <p><b>Action: <em>avoid</em></b></p>\n                    <p>This is the bee that you just saw.</p>\n                    <img src=\"bees-with-color/bee-A2SM.svg\" width=\"200\">\n                    <p><span class=\"greenText\">Good choice!</span>  This bee would have stung you.<br>Your bonus pay is unchanged, and remains at $0.56.</p>\n            ","response":0,"trial_type":"html-button-response","trial_index":26,"time_elapsed":226233,"internal_node_id":"0.0-4.0-1.9","subject_id":"5e580bcf4782bd01723249e2","study_id":"60edd13110225f80f9f3709b","session_id":"6196c4a3cfcaefbaaa6cfa33","condition":"full-information","relevant_dimensions":["antennae","pattern"],"bee_group":{"antennae":"A","wings":"X","pattern":"S","legs":"X"},"bonus":1.7800000000000011},{"rt":2481.5,"stimulus":"bees-with-color/bee-B1DF.svg","response":0,"trial_type":"image-button-response","trial_index":27,"time_elapsed":228716,"internal_node_id":"0.0-4.0-0.10","subject_id":"5e580bcf4782bd01723249e2","study_id":"60edd13110225f80f9f3709b","session_id":"6196c4a3cfcaefbaaa6cfa33","condition":"full-information","relevant_dimensions":["antennae","pattern"],"bee_group":{"antennae":"A","wings":"X","pattern":"S","legs":"X"},"action":"harvest","summary":"good-harvest","bonus":1.7800000000000011},{"rt":1643.2000000476837,"stimulus":"\n                    <p><b>Action: <em>harvest</em></b></p>\n                    <p>This is the bee that you just saw.</p>\n                    <img src=\"bees-with-color/bee-B1DF.svg\" width=\"200\">\n                    <p><span class=\"greenText\"><b>Successful harvest!</b></span><br>Your pay has increased by $0.02. Your bonus pay is now $0.58.</p>\n            ","response":0,"trial_type":"html-button-response","trial_index":28,"time_elapsed":230360,"internal_node_id":"0.0-4.0-1.10","subject_id":"5e580bcf4782bd01723249e2","study_id":"60edd13110225f80f9f3709b","session_id":"6196c4a3cfcaefbaaa6cfa33","condition":"full-information","relevant_dimensions":["antennae","pattern"],"bee_group":{"antennae":"A","wings":"X","pattern":"S","legs":"X"},"bonus":1.7800000000000011},{"rt":1721.199999988079,"stimulus":"bees-with-color/bee-A1SF.svg","response":1,"trial_type":"image-button-response","trial_index":29,"time_elapsed":232083,"internal_node_id":"0.0-4.0-0.11","subject_id":"5e580bcf4782bd01723249e2","study_id":"60edd13110225f80f9f3709b","session_id":"6196c4a3cfcaefbaaa6cfa33","condition":"full-information","relevant_dimensions":["antennae","pattern"],"bee_group":{"antennae":"A","wings":"X","pattern":"S","legs":"X"},"action":"avoid","summary":"good-avoid","bonus":1.7800000000000011},{"rt":1325.3999999761581,"stimulus":"\n                    <p><b>Action: <em>avoid</em></b></p>\n                    <p>This is the bee that you just saw.</p>\n                    <img src=\"bees-with-color/bee-A1SF.svg\" width=\"200\">\n                    <p><span class=\"greenText\">Good choice!</span>  This bee would have stung you.<br>Your bonus pay is unchanged, and remains at $0.58.</p>\n            ","response":0,"trial_type":"html-button-response","trial_index":30,"time_elapsed":233410,"internal_node_id":"0.0-4.0-1.11","subject_id":"5e580bcf4782bd01723249e2","study_id":"60edd13110225f80f9f3709b","session_id":"6196c4a3cfcaefbaaa6cfa33","condition":"full-information","relevant_dimensions":["antennae","pattern"],"bee_group":{"antennae":"A","wings":"X","pattern":"S","legs":"X"},"bonus":1.7800000000000011},{"rt":1254.9000000357628,"stimulus":"bees-with-color/bee-B1SF.svg","response":1,"trial_type":"image-button-response","trial_index":31,"time_elapsed":234666,"internal_node_id":"0.0-4.0-0.12","subject_id":"5e580bcf4782bd01723249e2","study_id":"60edd13110225f80f9f3709b","session_id":"6196c4a3cfcaefbaaa6cfa33","condition":"full-information","relevant_dimensions":["antennae","pattern"],"bee_group":{"antennae":"A","wings":"X","pattern":"S","legs":"X"},"action":"avoid","summary":"bad-avoid","bonus":1.7800000000000011},{"rt":5383,"stimulus":"\n                    <p><b>Action: <em>avoid</em></b></p>\n                    <p>This is the bee that you just saw.</p>\n                    <img src=\"bees-with-color/bee-B1SF.svg\" width=\"200\">\n                    <p><span class=\"redText\">Bad choice,</span> the bee was friendly.<br>Your bonus pay is unchanged, and remains at $0.58.</p>\n            ","response":0,"trial_type":"html-button-response","trial_index":32,"time_elapsed":240050,"internal_node_id":"0.0-4.0-1.12","subject_id":"5e580bcf4782bd01723249e2","study_id":"60edd13110225f80f9f3709b","session_id":"6196c4a3cfcaefbaaa6cfa33","condition":"full-information","relevant_dimensions":["antennae","pattern"],"bee_group":{"antennae":"A","wings":"X","pattern":"S","legs":"X"},"bonus":1.7800000000000011},{"rt":1838.1000000238419,"stimulus":"bees-with-color/bee-B1DM.svg","response":0,"trial_type":"image-button-response","trial_index":33,"time_elapsed":241890,"internal_node_id":"0.0-4.0-0.13","subject_id":"5e580bcf4782bd01723249e2","study_id":"60edd13110225f80f9f3709b","session_id":"6196c4a3cfcaefbaaa6cfa33","condition":"full-information","relevant_dimensions":["antennae","pattern"],"bee_group":{"antennae":"A","wings":"X","pattern":"S","legs":"X"},"action":"harvest","summary":"good-harvest","bonus":1.7800000000000011},{"rt":1402.8999999761581,"stimulus":"\n                    <p><b>Action: <em>harvest</em></b></p>\n                    <p>This is the bee that you just saw.</p>\n                    <img src=\"bees-with-color/bee-B1DM.svg\" width=\"200\">\n                    <p><span class=\"greenText\"><b>Successful harvest!</b></span><br>Your pay has increased by $0.02. Your bonus pay is now $0.60.</p>\n            ","response":0,"trial_type":"html-button-response","trial_index":34,"time_elapsed":243294,"internal_node_id":"0.0-4.0-1.13","subject_id":"5e580bcf4782bd01723249e2","study_id":"60edd13110225f80f9f3709b","session_id":"6196c4a3cfcaefbaaa6cfa33","condition":"full-information","relevant_dimensions":["antennae","pattern"],"bee_group":{"antennae":"A","wings":"X","pattern":"S","legs":"X"},"bonus":1.7800000000000011},{"rt":1324.8999999761581,"stimulus":"bees-with-color/bee-B2SF.svg","response":1,"trial_type":"image-button-response","trial_index":35,"time_elapsed":244621,"internal_node_id":"0.0-4.0-0.14","subject_id":"5e580bcf4782bd01723249e2","study_id":"60edd13110225f80f9f3709b","session_id":"6196c4a3cfcaefbaaa6cfa33","condition":"full-information","relevant_dimensions":["antennae","pattern"],"bee_group":{"antennae":"A","wings":"X","pattern":"S","legs":"X"},"action":"avoid","summary":"bad-avoid","bonus":1.7800000000000011},{"rt":1836.699999988079,"stimulus":"\n                    <p><b>Action: <em>avoid</em></b></p>\n                    <p>This is the bee that you just saw.</p>\n                    <img src=\"bees-with-color/bee-B2SF.svg\" width=\"200\">\n                    <p><span class=\"redText\">Bad choice,</span> the bee was friendly.<br>Your bonus pay is unchanged, and remains at $0.60.</p>\n            ","response":0,"trial_type":"html-button-response","trial_index":36,"time_elapsed":246460,"internal_node_id":"0.0-4.0-1.14","subject_id":"5e580bcf4782bd01723249e2","study_id":"60edd13110225f80f9f3709b","session_id":"6196c4a3cfcaefbaaa6cfa33","condition":"full-information","relevant_dimensions":["antennae","pattern"],"bee_group":{"antennae":"A","wings":"X","pattern":"S","legs":"X"},"bonus":1.7800000000000011},{"rt":3381.400000035763,"stimulus":"bees-with-color/bee-B2SM.svg","response":1,"trial_type":"image-button-response","trial_index":37,"time_elapsed":249843,"internal_node_id":"0.0-4.0-0.15","subject_id":"5e580bcf4782bd01723249e2","study_id":"60edd13110225f80f9f3709b","session_id":"6196c4a3cfcaefbaaa6cfa33","condition":"full-information","relevant_dimensions":["antennae","pattern"],"bee_group":{"antennae":"A","wings":"X","pattern":"S","legs":"X"},"action":"avoid","summary":"bad-avoid","bonus":1.7800000000000011},{"rt":1503.6000000238419,"stimulus":"\n                    <p><b>Action: <em>avoid</em></b></p>\n                    <p>This is the bee that you just saw.</p>\n                    <img src=\"bees-with-color/bee-B2SM.svg\" width=\"200\">\n                    <p><span class=\"redText\">Bad choice,</span> the bee was friendly.<br>Your bonus pay is unchanged, and remains at $0.60.</p>\n            ","response":0,"trial_type":"html-button-response","trial_index":38,"time_elapsed":251348,"internal_node_id":"0.0-4.0-1.15","subject_id":"5e580bcf4782bd01723249e2","study_id":"60edd13110225f80f9f3709b","session_id":"6196c4a3cfcaefbaaa6cfa33","condition":"full-information","relevant_dimensions":["antennae","pattern"],"bee_group":{"antennae":"A","wings":"X","pattern":"S","legs":"X"},"bonus":1.7800000000000011},{"rt":1557.699999988079,"stimulus":"bees-with-color/bee-A2SF.svg","response":1,"trial_type":"image-button-response","trial_index":39,"time_elapsed":252907,"internal_node_id":"0.0-4.0-0.16","subject_id":"5e580bcf4782bd01723249e2","study_id":"60edd13110225f80f9f3709b","session_id":"6196c4a3cfcaefbaaa6cfa33","condition":"full-information","relevant_dimensions":["antennae","pattern"],"bee_group":{"antennae":"A","wings":"X","pattern":"S","legs":"X"},"action":"avoid","summary":"good-avoid","bonus":1.7800000000000011},{"rt":2745.100000023842,"stimulus":"\n                    <p><b>Action: <em>avoid</em></b></p>\n                    <p>This is the bee that you just saw.</p>\n                    <img src=\"bees-with-color/bee-A2SF.svg\" width=\"200\">\n                    <p><span class=\"greenText\">Good choice!</span>  This bee would have stung you.<br>Your bonus pay is unchanged, and remains at $0.60.</p>\n            ","response":0,"trial_type":"html-button-response","trial_index":40,"time_elapsed":255654,"internal_node_id":"0.0-4.0-1.16","subject_id":"5e580bcf4782bd01723249e2","study_id":"60edd13110225f80f9f3709b","session_id":"6196c4a3cfcaefbaaa6cfa33","condition":"full-information","relevant_dimensions":["antennae","pattern"],"bee_group":{"antennae":"A","wings":"X","pattern":"S","legs":"X"},"bonus":1.7800000000000011},{"rt":1758.8999999761581,"stimulus":"bees-with-color/bee-B1DF.svg","response":0,"trial_type":"image-button-response","trial_index":41,"time_elapsed":257415,"internal_node_id":"0.0-4.0-0.17","subject_id":"5e580bcf4782bd01723249e2","study_id":"60edd13110225f80f9f3709b","session_id":"6196c4a3cfcaefbaaa6cfa33","condition":"full-information","relevant_dimensions":["antennae","pattern"],"bee_group":{"antennae":"A","wings":"X","pattern":"S","legs":"X"},"action":"harvest","summary":"good-harvest","bonus":1.7800000000000011},{"rt":1472.6000000238419,"stimulus":"\n                    <p><b>Action: <em>harvest</em></b></p>\n                    <p>This is the bee that you just saw.</p>\n                    <img src=\"bees-with-color/bee-B1DF.svg\" width=\"200\">\n                    <p><span class=\"greenText\"><b>Successful harvest!</b></span><br>Your pay has increased by $0.02. Your bonus pay is now $0.62.</p>\n            ","response":0,"trial_type":"html-button-response","trial_index":42,"time_elapsed":258889,"internal_node_id":"0.0-4.0-1.17","subject_id":"5e580bcf4782bd01723249e2","study_id":"60edd13110225f80f9f3709b","session_id":"6196c4a3cfcaefbaaa6cfa33","condition":"full-information","relevant_dimensions":["antennae","pattern"],"bee_group":{"antennae":"A","wings":"X","pattern":"S","legs":"X"},"bonus":1.7800000000000011},{"rt":2262.800000011921,"stimulus":"bees-with-color/bee-B2SM.svg","response":0,"trial_type":"image-button-response","trial_index":43,"time_elapsed":261154,"internal_node_id":"0.0-4.0-0.18","subject_id":"5e580bcf4782bd01723249e2","study_id":"60edd13110225f80f9f3709b","session_id":"6196c4a3cfcaefbaaa6cfa33","condition":"full-information","relevant_dimensions":["antennae","pattern"],"bee_group":{"antennae":"A","wings":"X","pattern":"S","legs":"X"},"action":"harvest","summary":"good-harvest","bonus":1.7800000000000011},{"rt":1604.5,"stimulus":"\n                    <p><b>Action: <em>harvest</em></b></p>\n                    <p>This is the bee that you just saw.</p>\n                    <img src=\"bees-with-color/bee-B2SM.svg\" width=\"200\">\n                    <p><span class=\"greenText\"><b>Successful harvest!</b></span><br>Your pay has increased by $0.02. Your bonus pay is now $0.64.</p>\n            ","response":0,"trial_type":"html-button-response","trial_index":44,"time_elapsed":262760,"internal_node_id":"0.0-4.0-1.18","subject_id":"5e580bcf4782bd01723249e2","study_id":"60edd13110225f80f9f3709b","session_id":"6196c4a3cfcaefbaaa6cfa33","condition":"full-information","relevant_dimensions":["antennae","pattern"],"bee_group":{"antennae":"A","wings":"X","pattern":"S","legs":"X"},"bonus":1.7800000000000011},{"rt":2527.399999976158,"stimulus":"bees-with-color/bee-A1DM.svg","response":0,"trial_type":"image-button-response","trial_index":45,"time_elapsed":265289,"internal_node_id":"0.0-4.0-0.19","subject_id":"5e580bcf4782bd01723249e2","study_id":"60edd13110225f80f9f3709b","session_id":"6196c4a3cfcaefbaaa6cfa33","condition":"full-information","relevant_dimensions":["antennae","pattern"],"bee_group":{"antennae":"A","wings":"X","pattern":"S","legs":"X"},"action":"harvest","summary":"good-harvest","bonus":1.7800000000000011},{"rt":1324.800000011921,"stimulus":"\n                    <p><b>Action: <em>harvest</em></b></p>\n                    <p>This is the bee that you just saw.</p>\n                    <img src=\"bees-with-color/bee-A1DM.svg\" width=\"200\">\n                    <p><span class=\"greenText\"><b>Successful harvest!</b></span><br>Your pay has increased by $0.02. Your bonus pay is now $0.66.</p>\n            ","response":0,"trial_type":"html-button-response","trial_index":46,"time_elapsed":266616,"internal_node_id":"0.0-4.0-1.19","subject_id":"5e580bcf4782bd01723249e2","study_id":"60edd13110225f80f9f3709b","session_id":"6196c4a3cfcaefbaaa6cfa33","condition":"full-information","relevant_dimensions":["antennae","pattern"],"bee_group":{"antennae":"A","wings":"X","pattern":"S","legs":"X"},"bonus":1.7800000000000011},{"rt":1363.800000011921,"stimulus":"bees-with-color/bee-A1SF.svg","response":1,"trial_type":"image-button-response","trial_index":47,"time_elapsed":267981,"internal_node_id":"0.0-4.0-0.20","subject_id":"5e580bcf4782bd01723249e2","study_id":"60edd13110225f80f9f3709b","session_id":"6196c4a3cfcaefbaaa6cfa33","condition":"full-information","relevant_dimensions":["antennae","pattern"],"bee_group":{"antennae":"A","wings":"X","pattern":"S","legs":"X"},"action":"avoid","summary":"good-avoid","bonus":1.7800000000000011},{"rt":1433.9000000357628,"stimulus":"\n                    <p><b>Action: <em>avoid</em></b></p>\n                    <p>This is the bee that you just saw.</p>\n                    <img src=\"bees-with-color/bee-A1SF.svg\" width=\"200\">\n                    <p><span class=\"greenText\">Good choice!</span>  This bee would have stung you.<br>Your bonus pay is unchanged, and remains at $0.66.</p>\n            ","response":0,"trial_type":"html-button-response","trial_index":48,"time_elapsed":269416,"internal_node_id":"0.0-4.0-1.20","subject_id":"5e580bcf4782bd01723249e2","study_id":"60edd13110225f80f9f3709b","session_id":"6196c4a3cfcaefbaaa6cfa33","condition":"full-information","relevant_dimensions":["antennae","pattern"],"bee_group":{"antennae":"A","wings":"X","pattern":"S","legs":"X"},"bonus":1.7800000000000011},{"rt":2039.6000000238419,"stimulus":"bees-with-color/bee-A2DF.svg","response":0,"trial_type":"image-button-response","trial_index":49,"time_elapsed":271457,"internal_node_id":"0.0-4.0-0.21","subject_id":"5e580bcf4782bd01723249e2","study_id":"60edd13110225f80f9f3709b","session_id":"6196c4a3cfcaefbaaa6cfa33","condition":"full-information","relevant_dimensions":["antennae","pattern"],"bee_group":{"antennae":"A","wings":"X","pattern":"S","legs":"X"},"action":"harvest","summary":"good-harvest","bonus":1.7800000000000011},{"rt":1285.699999988079,"stimulus":"\n                    <p><b>Action: <em>harvest</em></b></p>\n                    <p>This is the bee that you just saw.</p>\n                    <img src=\"bees-with-color/bee-A2DF.svg\" width=\"200\">\n                    <p><span class=\"greenText\"><b>Successful harvest!</b></span><br>Your pay has increased by $0.02. Your bonus pay is now $0.68.</p>\n            ","response":0,"trial_type":"html-button-response","trial_index":50,"time_elapsed":272744,"internal_node_id":"0.0-4.0-1.21","subject_id":"5e580bcf4782bd01723249e2","study_id":"60edd13110225f80f9f3709b","session_id":"6196c4a3cfcaefbaaa6cfa33","condition":"full-information","relevant_dimensions":["antennae","pattern"],"bee_group":{"antennae":"A","wings":"X","pattern":"S","legs":"X"},"bonus":1.7800000000000011},{"rt":2147.599999964237,"stimulus":"bees-with-color/bee-A1DF.svg","response":0,"trial_type":"image-button-response","trial_index":51,"time_elapsed":274893,"internal_node_id":"0.0-4.0-0.22","subject_id":"5e580bcf4782bd01723249e2","study_id":"60edd13110225f80f9f3709b","session_id":"6196c4a3cfcaefbaaa6cfa33","condition":"full-information","relevant_dimensions":["antennae","pattern"],"bee_group":{"antennae":"A","wings":"X","pattern":"S","legs":"X"},"action":"harvest","summary":"good-harvest","bonus":1.7800000000000011},{"rt":1278.2999999523163,"stimulus":"\n                    <p><b>Action: <em>harvest</em></b></p>\n                    <p>This is the bee that you just saw.</p>\n                    <img src=\"bees-with-color/bee-A1DF.svg\" width=\"200\">\n                    <p><span class=\"greenText\"><b>Successful harvest!</b></span><br>Your pay has increased by $0.02. Your bonus pay is now $0.70.</p>\n            ","response":0,"trial_type":"html-button-response","trial_index":52,"time_elapsed":276173,"internal_node_id":"0.0-4.0-1.22","subject_id":"5e580bcf4782bd01723249e2","study_id":"60edd13110225f80f9f3709b","session_id":"6196c4a3cfcaefbaaa6cfa33","condition":"full-information","relevant_dimensions":["antennae","pattern"],"bee_group":{"antennae":"A","wings":"X","pattern":"S","legs":"X"},"bonus":1.7800000000000011},{"rt":2023.3999999761581,"stimulus":"bees-with-color/bee-B1SM.svg","response":0,"trial_type":"image-button-response","trial_index":53,"time_elapsed":278198,"internal_node_id":"0.0-4.0-0.23","subject_id":"5e580bcf4782bd01723249e2","study_id":"60edd13110225f80f9f3709b","session_id":"6196c4a3cfcaefbaaa6cfa33","condition":"full-information","relevant_dimensions":["antennae","pattern"],"bee_group":{"antennae":"A","wings":"X","pattern":"S","legs":"X"},"action":"harvest","summary":"good-harvest","bonus":1.7800000000000011},{"rt":1315.800000011921,"stimulus":"\n                    <p><b>Action: <em>harvest</em></b></p>\n                    <p>This is the bee that you just saw.</p>\n                    <img src=\"bees-with-color/bee-B1SM.svg\" width=\"200\">\n                    <p><span class=\"greenText\"><b>Successful harvest!</b></span><br>Your pay has increased by $0.02. Your bonus pay is now $0.72.</p>\n            ","response":0,"trial_type":"html-button-response","trial_index":54,"time_elapsed":279515,"internal_node_id":"0.0-4.0-1.23","subject_id":"5e580bcf4782bd01723249e2","study_id":"60edd13110225f80f9f3709b","session_id":"6196c4a3cfcaefbaaa6cfa33","condition":"full-information","relevant_dimensions":["antennae","pattern"],"bee_group":{"antennae":"A","wings":"X","pattern":"S","legs":"X"},"bonus":1.7800000000000011},{"rt":1334.2000000476837,"stimulus":"bees-with-color/bee-A1SM.svg","response":1,"trial_type":"image-button-response","trial_index":55,"time_elapsed":280851,"internal_node_id":"0.0-4.0-0.24","subject_id":"5e580bcf4782bd01723249e2","study_id":"60edd13110225f80f9f3709b","session_id":"6196c4a3cfcaefbaaa6cfa33","condition":"full-information","relevant_dimensions":["antennae","pattern"],"bee_group":{"antennae":"A","wings":"X","pattern":"S","legs":"X"},"action":"avoid","summary":"good-avoid","bonus":1.7800000000000011},{"rt":1301.9000000357628,"stimulus":"\n                    <p><b>Action: <em>avoid</em></b></p>\n                    <p>This is the bee that you just saw.</p>\n                    <img src=\"bees-with-color/bee-A1SM.svg\" width=\"200\">\n                    <p><span class=\"greenText\">Good choice!</span>  This bee would have stung you.<br>Your bonus pay is unchanged, and remains at $0.72.</p>\n            ","response":0,"trial_type":"html-button-response","trial_index":56,"time_elapsed":282154,"internal_node_id":"0.0-4.0-1.24","subject_id":"5e580bcf4782bd01723249e2","study_id":"60edd13110225f80f9f3709b","session_id":"6196c4a3cfcaefbaaa6cfa33","condition":"full-information","relevant_dimensions":["antennae","pattern"],"bee_group":{"antennae":"A","wings":"X","pattern":"S","legs":"X"},"bonus":1.7800000000000011},{"rt":2977.599999964237,"stimulus":"bees-with-color/bee-B2DM.svg","response":1,"trial_type":"image-button-response","trial_index":57,"time_elapsed":285133,"internal_node_id":"0.0-4.0-0.25","subject_id":"5e580bcf4782bd01723249e2","study_id":"60edd13110225f80f9f3709b","session_id":"6196c4a3cfcaefbaaa6cfa33","condition":"full-information","relevant_dimensions":["antennae","pattern"],"bee_group":{"antennae":"A","wings":"X","pattern":"S","legs":"X"},"action":"avoid","summary":"bad-avoid","bonus":1.7800000000000011},{"rt":1332.8999999761581,"stimulus":"\n                    <p><b>Action: <em>avoid</em></b></p>\n                    <p>This is the bee that you just saw.</p>\n                    <img src=\"bees-with-color/bee-B2DM.svg\" width=\"200\">\n                    <p><span class=\"redText\">Bad choice,</span> the bee was friendly.<br>Your bonus pay is unchanged, and remains at $0.72.</p>\n            ","response":0,"trial_type":"html-button-response","trial_index":58,"time_elapsed":286468,"internal_node_id":"0.0-4.0-1.25","subject_id":"5e580bcf4782bd01723249e2","study_id":"60edd13110225f80f9f3709b","session_id":"6196c4a3cfcaefbaaa6cfa33","condition":"full-information","relevant_dimensions":["antennae","pattern"],"bee_group":{"antennae":"A","wings":"X","pattern":"S","legs":"X"},"bonus":1.7800000000000011},{"rt":2472.699999988079,"stimulus":"bees-with-color/bee-A2DM.svg","response":0,"trial_type":"image-button-response","trial_index":59,"time_elapsed":288942,"internal_node_id":"0.0-4.0-0.26","subject_id":"5e580bcf4782bd01723249e2","study_id":"60edd13110225f80f9f3709b","session_id":"6196c4a3cfcaefbaaa6cfa33","condition":"full-information","relevant_dimensions":["antennae","pattern"],"bee_group":{"antennae":"A","wings":"X","pattern":"S","legs":"X"},"action":"harvest","summary":"good-harvest","bonus":1.7800000000000011},{"rt":1394.8999999761581,"stimulus":"\n                    <p><b>Action: <em>harvest</em></b></p>\n                    <p>This is the bee that you just saw.</p>\n                    <img src=\"bees-with-color/bee-A2DM.svg\" width=\"200\">\n                    <p><span class=\"greenText\"><b>Successful harvest!</b></span><br>Your pay has increased by $0.02. Your bonus pay is now $0.74.</p>\n            ","response":0,"trial_type":"html-button-response","trial_index":60,"time_elapsed":290338,"internal_node_id":"0.0-4.0-1.26","subject_id":"5e580bcf4782bd01723249e2","study_id":"60edd13110225f80f9f3709b","session_id":"6196c4a3cfcaefbaaa6cfa33","condition":"full-information","relevant_dimensions":["antennae","pattern"],"bee_group":{"antennae":"A","wings":"X","pattern":"S","legs":"X"},"bonus":1.7800000000000011},{"rt":1689.6000000238419,"stimulus":"bees-with-color/bee-B2SF.svg","response":0,"trial_type":"image-button-response","trial_index":61,"time_elapsed":292030,"internal_node_id":"0.0-4.0-0.27","subject_id":"5e580bcf4782bd01723249e2","study_id":"60edd13110225f80f9f3709b","session_id":"6196c4a3cfcaefbaaa6cfa33","condition":"full-information","relevant_dimensions":["antennae","pattern"],"bee_group":{"antennae":"A","wings":"X","pattern":"S","legs":"X"},"action":"harvest","summary":"good-harvest","bonus":1.7800000000000011},{"rt":1278.199999988079,"stimulus":"\n                    <p><b>Action: <em>harvest</em></b></p>\n                    <p>This is the bee that you just saw.</p>\n                    <img src=\"bees-with-color/bee-B2SF.svg\" width=\"200\">\n                    <p><span class=\"greenText\"><b>Successful harvest!</b></span><br>Your pay has increased by $0.02. Your bonus pay is now $0.76.</p>\n            ","response":0,"trial_type":"html-button-response","trial_index":62,"time_elapsed":293309,"internal_node_id":"0.0-4.0-1.27","subject_id":"5e580bcf4782bd01723249e2","study_id":"60edd13110225f80f9f3709b","session_id":"6196c4a3cfcaefbaaa6cfa33","condition":"full-information","relevant_dimensions":["antennae","pattern"],"bee_group":{"antennae":"A","wings":"X","pattern":"S","legs":"X"},"bonus":1.7800000000000011},{"rt":2310.099999964237,"stimulus":"bees-with-color/bee-B2DF.svg","response":0,"trial_type":"image-button-response","trial_index":63,"time_elapsed":295621,"internal_node_id":"0.0-4.0-0.28","subject_id":"5e580bcf4782bd01723249e2","study_id":"60edd13110225f80f9f3709b","session_id":"6196c4a3cfcaefbaaa6cfa33","condition":"full-information","relevant_dimensions":["antennae","pattern"],"bee_group":{"antennae":"A","wings":"X","pattern":"S","legs":"X"},"action":"harvest","summary":"good-harvest","bonus":1.7800000000000011},{"rt":1200.2000000476837,"stimulus":"\n                    <p><b>Action: <em>harvest</em></b></p>\n                    <p>This is the bee that you just saw.</p>\n                    <img src=\"bees-with-color/bee-B2DF.svg\" width=\"200\">\n                    <p><span class=\"greenText\"><b>Successful harvest!</b></span><br>Your pay has increased by $0.02. Your bonus pay is now $0.78.</p>\n            ","response":0,"trial_type":"html-button-response","trial_index":64,"time_elapsed":296823,"internal_node_id":"0.0-4.0-1.28","subject_id":"5e580bcf4782bd01723249e2","study_id":"60edd13110225f80f9f3709b","session_id":"6196c4a3cfcaefbaaa6cfa33","condition":"full-information","relevant_dimensions":["antennae","pattern"],"bee_group":{"antennae":"A","wings":"X","pattern":"S","legs":"X"},"bonus":1.7800000000000011},{"rt":1697.5,"stimulus":"bees-with-color/bee-B1DM.svg","response":0,"trial_type":"image-button-response","trial_index":65,"time_elapsed":298522,"internal_node_id":"0.0-4.0-0.29","subject_id":"5e580bcf4782bd01723249e2","study_id":"60edd13110225f80f9f3709b","session_id":"6196c4a3cfcaefbaaa6cfa33","condition":"full-information","relevant_dimensions":["antennae","pattern"],"bee_group":{"antennae":"A","wings":"X","pattern":"S","legs":"X"},"action":"harvest","summary":"good-harvest","bonus":1.7800000000000011},{"rt":1402.300000011921,"stimulus":"\n                    <p><b>Action: <em>harvest</em></b></p>\n                    <p>This is the bee that you just saw.</p>\n                    <img src=\"bees-with-color/bee-B1DM.svg\" width=\"200\">\n                    <p><span class=\"greenText\"><b>Successful harvest!</b></span><br>Your pay has increased by $0.02. Your bonus pay is now $0.80.</p>\n            ","response":0,"trial_type":"html-button-response","trial_index":66,"time_elapsed":299926,"internal_node_id":"0.0-4.0-1.29","subject_id":"5e580bcf4782bd01723249e2","study_id":"60edd13110225f80f9f3709b","session_id":"6196c4a3cfcaefbaaa6cfa33","condition":"full-information","relevant_dimensions":["antennae","pattern"],"bee_group":{"antennae":"A","wings":"X","pattern":"S","legs":"X"},"bonus":1.7800000000000011},{"rt":1658.0999999642372,"stimulus":"bees-with-color/bee-B1SF.svg","response":0,"trial_type":"image-button-response","trial_index":67,"time_elapsed":301586,"internal_node_id":"0.0-4.0-0.30","subject_id":"5e580bcf4782bd01723249e2","study_id":"60edd13110225f80f9f3709b","session_id":"6196c4a3cfcaefbaaa6cfa33","condition":"full-information","relevant_dimensions":["antennae","pattern"],"bee_group":{"antennae":"A","wings":"X","pattern":"S","legs":"X"},"action":"harvest","summary":"good-harvest","bonus":1.7800000000000011},{"rt":1395.300000011921,"stimulus":"\n                    <p><b>Action: <em>harvest</em></b></p>\n                    <p>This is the bee that you just saw.</p>\n                    <img src=\"bees-with-color/bee-B1SF.svg\" width=\"200\">\n                    <p><span class=\"greenText\"><b>Successful harvest!</b></span><br>Your pay has increased by $0.02. Your bonus pay is now $0.82.</p>\n            ","response":0,"trial_type":"html-button-response","trial_index":68,"time_elapsed":302983,"internal_node_id":"0.0-4.0-1.30","subject_id":"5e580bcf4782bd01723249e2","study_id":"60edd13110225f80f9f3709b","session_id":"6196c4a3cfcaefbaaa6cfa33","condition":"full-information","relevant_dimensions":["antennae","pattern"],"bee_group":{"antennae":"A","wings":"X","pattern":"S","legs":"X"},"bonus":1.7800000000000011},{"rt":1192.5,"stimulus":"bees-with-color/bee-A2SM.svg","response":1,"trial_type":"image-button-response","trial_index":69,"time_elapsed":304176,"internal_node_id":"0.0-4.0-0.31","subject_id":"5e580bcf4782bd01723249e2","study_id":"60edd13110225f80f9f3709b","session_id":"6196c4a3cfcaefbaaa6cfa33","condition":"full-information","relevant_dimensions":["antennae","pattern"],"bee_group":{"antennae":"A","wings":"X","pattern":"S","legs":"X"},"action":"avoid","summary":"good-avoid","bonus":1.7800000000000011},{"rt":1394.800000011921,"stimulus":"\n                    <p><b>Action: <em>avoid</em></b></p>\n                    <p>This is the bee that you just saw.</p>\n                    <img src=\"bees-with-color/bee-A2SM.svg\" width=\"200\">\n                    <p><span class=\"greenText\">Good choice!</span>  This bee would have stung you.<br>Your bonus pay is unchanged, and remains at $0.82.</p>\n            ","response":0,"trial_type":"html-button-response","trial_index":70,"time_elapsed":305573,"internal_node_id":"0.0-4.0-1.31","subject_id":"5e580bcf4782bd01723249e2","study_id":"60edd13110225f80f9f3709b","session_id":"6196c4a3cfcaefbaaa6cfa33","condition":"full-information","relevant_dimensions":["antennae","pattern"],"bee_group":{"antennae":"A","wings":"X","pattern":"S","legs":"X"},"bonus":1.7800000000000011},{"rt":1697.699999988079,"stimulus":"bees-with-color/bee-B2DF.svg","response":0,"trial_type":"image-button-response","trial_index":71,"time_elapsed":307272,"internal_node_id":"0.0-4.0-0.32","subject_id":"5e580bcf4782bd01723249e2","study_id":"60edd13110225f80f9f3709b","session_id":"6196c4a3cfcaefbaaa6cfa33","condition":"full-information","relevant_dimensions":["antennae","pattern"],"bee_group":{"antennae":"A","wings":"X","pattern":"S","legs":"X"},"action":"harvest","summary":"good-harvest","bonus":1.7800000000000011},{"rt":1324.9000000357628,"stimulus":"\n                    <p><b>Action: <em>harvest</em></b></p>\n                    <p>This is the bee that you just saw.</p>\n                    <img src=\"bees-with-color/bee-B2DF.svg\" width=\"200\">\n                    <p><span class=\"greenText\"><b>Successful harvest!</b></span><br>Your pay has increased by $0.02. Your bonus pay is now $0.84.</p>\n            ","response":0,"trial_type":"html-button-response","trial_index":72,"time_elapsed":308598,"internal_node_id":"0.0-4.0-1.32","subject_id":"5e580bcf4782bd01723249e2","study_id":"60edd13110225f80f9f3709b","session_id":"6196c4a3cfcaefbaaa6cfa33","condition":"full-information","relevant_dimensions":["antennae","pattern"],"bee_group":{"antennae":"A","wings":"X","pattern":"S","legs":"X"},"bonus":1.7800000000000011},{"rt":1659.2000000476837,"stimulus":"bees-with-color/bee-B1DF.svg","response":0,"trial_type":"image-button-response","trial_index":73,"time_elapsed":310259,"internal_node_id":"0.0-4.0-0.33","subject_id":"5e580bcf4782bd01723249e2","study_id":"60edd13110225f80f9f3709b","session_id":"6196c4a3cfcaefbaaa6cfa33","condition":"full-information","relevant_dimensions":["antennae","pattern"],"bee_group":{"antennae":"A","wings":"X","pattern":"S","legs":"X"},"action":"harvest","summary":"good-harvest","bonus":1.7800000000000011},{"rt":1316,"stimulus":"\n                    <p><b>Action: <em>harvest</em></b></p>\n                    <p>This is the bee that you just saw.</p>\n                    <img src=\"bees-with-color/bee-B1DF.svg\" width=\"200\">\n                    <p><span class=\"greenText\"><b>Successful harvest!</b></span><br>Your pay has increased by $0.02. Your bonus pay is now $0.86.</p>\n            ","response":0,"trial_type":"html-button-response","trial_index":74,"time_elapsed":311577,"internal_node_id":"0.0-4.0-1.33","subject_id":"5e580bcf4782bd01723249e2","study_id":"60edd13110225f80f9f3709b","session_id":"6196c4a3cfcaefbaaa6cfa33","condition":"full-information","relevant_dimensions":["antennae","pattern"],"bee_group":{"antennae":"A","wings":"X","pattern":"S","legs":"X"},"bonus":1.7800000000000011},{"rt":1278.800000011921,"stimulus":"bees-with-color/bee-A1SM.svg","response":1,"trial_type":"image-button-response","trial_index":75,"time_elapsed":312857,"internal_node_id":"0.0-4.0-0.34","subject_id":"5e580bcf4782bd01723249e2","study_id":"60edd13110225f80f9f3709b","session_id":"6196c4a3cfcaefbaaa6cfa33","condition":"full-information","relevant_dimensions":["antennae","pattern"],"bee_group":{"antennae":"A","wings":"X","pattern":"S","legs":"X"},"action":"avoid","summary":"good-avoid","bonus":1.7800000000000011},{"rt":1184.9000000357628,"stimulus":"\n                    <p><b>Action: <em>avoid</em></b></p>\n                    <p>This is the bee that you just saw.</p>\n                    <img src=\"bees-with-color/bee-A1SM.svg\" width=\"200\">\n                    <p><span class=\"greenText\">Good choice!</span>  This bee would have stung you.<br>Your bonus pay is unchanged, and remains at $0.86.</p>\n            ","response":0,"trial_type":"html-button-response","trial_index":76,"time_elapsed":314043,"internal_node_id":"0.0-4.0-1.34","subject_id":"5e580bcf4782bd01723249e2","study_id":"60edd13110225f80f9f3709b","session_id":"6196c4a3cfcaefbaaa6cfa33","condition":"full-information","relevant_dimensions":["antennae","pattern"],"bee_group":{"antennae":"A","wings":"X","pattern":"S","legs":"X"},"bonus":1.7800000000000011},{"rt":1992.2000000476837,"stimulus":"bees-with-color/bee-B2SF.svg","response":0,"trial_type":"image-button-response","trial_index":77,"time_elapsed":316037,"internal_node_id":"0.0-4.0-0.35","subject_id":"5e580bcf4782bd01723249e2","study_id":"60edd13110225f80f9f3709b","session_id":"6196c4a3cfcaefbaaa6cfa33","condition":"full-information","relevant_dimensions":["antennae","pattern"],"bee_group":{"antennae":"A","wings":"X","pattern":"S","legs":"X"},"action":"harvest","summary":"good-harvest","bonus":1.7800000000000011},{"rt":1154,"stimulus":"\n                    <p><b>Action: <em>harvest</em></b></p>\n                    <p>This is the bee that you just saw.</p>\n                    <img src=\"bees-with-color/bee-B2SF.svg\" width=\"200\">\n                    <p><span class=\"greenText\"><b>Successful harvest!</b></span><br>Your pay has increased by $0.02. Your bonus pay is now $0.88.</p>\n            ","response":0,"trial_type":"html-button-response","trial_index":78,"time_elapsed":317193,"internal_node_id":"0.0-4.0-1.35","subject_id":"5e580bcf4782bd01723249e2","study_id":"60edd13110225f80f9f3709b","session_id":"6196c4a3cfcaefbaaa6cfa33","condition":"full-information","relevant_dimensions":["antennae","pattern"],"bee_group":{"antennae":"A","wings":"X","pattern":"S","legs":"X"},"bonus":1.7800000000000011},{"rt":1565.4000000357628,"stimulus":"bees-with-color/bee-A1DF.svg","response":0,"trial_type":"image-button-response","trial_index":79,"time_elapsed":318760,"internal_node_id":"0.0-4.0-0.36","subject_id":"5e580bcf4782bd01723249e2","study_id":"60edd13110225f80f9f3709b","session_id":"6196c4a3cfcaefbaaa6cfa33","condition":"full-information","relevant_dimensions":["antennae","pattern"],"bee_group":{"antennae":"A","wings":"X","pattern":"S","legs":"X"},"action":"harvest","summary":"good-harvest","bonus":1.7800000000000011},{"rt":1200.2999999523163,"stimulus":"\n                    <p><b>Action: <em>harvest</em></b></p>\n                    <p>This is the bee that you just saw.</p>\n                    <img src=\"bees-with-color/bee-A1DF.svg\" width=\"200\">\n                    <p><span class=\"greenText\"><b>Successful harvest!</b></span><br>Your pay has increased by $0.02. Your bonus pay is now $0.90.</p>\n            ","response":0,"trial_type":"html-button-response","trial_index":80,"time_elapsed":319962,"internal_node_id":"0.0-4.0-1.36","subject_id":"5e580bcf4782bd01723249e2","study_id":"60edd13110225f80f9f3709b","session_id":"6196c4a3cfcaefbaaa6cfa33","condition":"full-information","relevant_dimensions":["antennae","pattern"],"bee_group":{"antennae":"A","wings":"X","pattern":"S","legs":"X"},"bonus":1.7800000000000011},{"rt":1782.300000011921,"stimulus":"bees-with-color/bee-A2DF.svg","response":0,"trial_type":"image-button-response","trial_index":81,"time_elapsed":321746,"internal_node_id":"0.0-4.0-0.37","subject_id":"5e580bcf4782bd01723249e2","study_id":"60edd13110225f80f9f3709b","session_id":"6196c4a3cfcaefbaaa6cfa33","condition":"full-information","relevant_dimensions":["antennae","pattern"],"bee_group":{"antennae":"A","wings":"X","pattern":"S","legs":"X"},"action":"harvest","summary":"good-harvest","bonus":1.7800000000000011},{"rt":1177,"stimulus":"\n                    <p><b>Action: <em>harvest</em></b></p>\n                    <p>This is the bee that you just saw.</p>\n                    <img src=\"bees-with-color/bee-A2DF.svg\" width=\"200\">\n                    <p><span class=\"greenText\"><b>Successful harvest!</b></span><br>Your pay has increased by $0.02. Your bonus pay is now $0.92.</p>\n            ","response":0,"trial_type":"html-button-response","trial_index":82,"time_elapsed":322924,"internal_node_id":"0.0-4.0-1.37","subject_id":"5e580bcf4782bd01723249e2","study_id":"60edd13110225f80f9f3709b","session_id":"6196c4a3cfcaefbaaa6cfa33","condition":"full-information","relevant_dimensions":["antennae","pattern"],"bee_group":{"antennae":"A","wings":"X","pattern":"S","legs":"X"},"bonus":1.7800000000000011},{"rt":1488.0999999642372,"stimulus":"bees-with-color/bee-B2DM.svg","response":0,"trial_type":"image-button-response","trial_index":83,"time_elapsed":324414,"internal_node_id":"0.0-4.0-0.38","subject_id":"5e580bcf4782bd01723249e2","study_id":"60edd13110225f80f9f3709b","session_id":"6196c4a3cfcaefbaaa6cfa33","condition":"full-information","relevant_dimensions":["antennae","pattern"],"bee_group":{"antennae":"A","wings":"X","pattern":"S","legs":"X"},"action":"harvest","summary":"good-harvest","bonus":1.7800000000000011},{"rt":1154.699999988079,"stimulus":"\n                    <p><b>Action: <em>harvest</em></b></p>\n                    <p>This is the bee that you just saw.</p>\n                    <img src=\"bees-with-color/bee-B2DM.svg\" width=\"200\">\n                    <p><span class=\"greenText\"><b>Successful harvest!</b></span><br>Your pay has increased by $0.02. Your bonus pay is now $0.94.</p>\n            ","response":0,"trial_type":"html-button-response","trial_index":84,"time_elapsed":325570,"internal_node_id":"0.0-4.0-1.38","subject_id":"5e580bcf4782bd01723249e2","study_id":"60edd13110225f80f9f3709b","session_id":"6196c4a3cfcaefbaaa6cfa33","condition":"full-information","relevant_dimensions":["antennae","pattern"],"bee_group":{"antennae":"A","wings":"X","pattern":"S","legs":"X"},"bonus":1.7800000000000011},{"rt":1224.5,"stimulus":"bees-with-color/bee-A1SF.svg","response":1,"trial_type":"image-button-response","trial_index":85,"time_elapsed":326795,"internal_node_id":"0.0-4.0-0.39","subject_id":"5e580bcf4782bd01723249e2","study_id":"60edd13110225f80f9f3709b","session_id":"6196c4a3cfcaefbaaa6cfa33","condition":"full-information","relevant_dimensions":["antennae","pattern"],"bee_group":{"antennae":"A","wings":"X","pattern":"S","legs":"X"},"action":"avoid","summary":"good-avoid","bonus":1.7800000000000011},{"rt":1239.699999988079,"stimulus":"\n                    <p><b>Action: <em>avoid</em></b></p>\n                    <p>This is the bee that you just saw.</p>\n                    <img src=\"bees-with-color/bee-A1SF.svg\" width=\"200\">\n                    <p><span class=\"greenText\">Good choice!</span>  This bee would have stung you.<br>Your bonus pay is unchanged, and remains at $0.94.</p>\n            ","response":0,"trial_type":"html-button-response","trial_index":86,"time_elapsed":328036,"internal_node_id":"0.0-4.0-1.39","subject_id":"5e580bcf4782bd01723249e2","study_id":"60edd13110225f80f9f3709b","session_id":"6196c4a3cfcaefbaaa6cfa33","condition":"full-information","relevant_dimensions":["antennae","pattern"],"bee_group":{"antennae":"A","wings":"X","pattern":"S","legs":"X"},"bonus":1.7800000000000011},{"rt":1232.2999999523163,"stimulus":"bees-with-color/bee-A2SF.svg","response":1,"trial_type":"image-button-response","trial_index":87,"time_elapsed":329270,"internal_node_id":"0.0-4.0-0.40","subject_id":"5e580bcf4782bd01723249e2","study_id":"60edd13110225f80f9f3709b","session_id":"6196c4a3cfcaefbaaa6cfa33","condition":"full-information","relevant_dimensions":["antennae","pattern"],"bee_group":{"antennae":"A","wings":"X","pattern":"S","legs":"X"},"action":"avoid","summary":"good-avoid","bonus":1.7800000000000011},{"rt":1084.800000011921,"stimulus":"\n                    <p><b>Action: <em>avoid</em></b></p>\n                    <p>This is the bee that you just saw.</p>\n                    <img src=\"bees-with-color/bee-A2SF.svg\" width=\"200\">\n                    <p><span class=\"greenText\">Good choice!</span>  This bee would have stung you.<br>Your bonus pay is unchanged, and remains at $0.94.</p>\n            ","response":0,"trial_type":"html-button-response","trial_index":88,"time_elapsed":330356,"internal_node_id":"0.0-4.0-1.40","subject_id":"5e580bcf4782bd01723249e2","study_id":"60edd13110225f80f9f3709b","session_id":"6196c4a3cfcaefbaaa6cfa33","condition":"full-information","relevant_dimensions":["antennae","pattern"],"bee_group":{"antennae":"A","wings":"X","pattern":"S","legs":"X"},"bonus":1.7800000000000011},{"rt":1511.2000000476837,"stimulus":"bees-with-color/bee-B2SM.svg","response":0,"trial_type":"image-button-response","trial_index":89,"time_elapsed":331868,"internal_node_id":"0.0-4.0-0.41","subject_id":"5e580bcf4782bd01723249e2","study_id":"60edd13110225f80f9f3709b","session_id":"6196c4a3cfcaefbaaa6cfa33","condition":"full-information","relevant_dimensions":["antennae","pattern"],"bee_group":{"antennae":"A","wings":"X","pattern":"S","legs":"X"},"action":"harvest","summary":"good-harvest","bonus":1.7800000000000011},{"rt":1123.2999999523163,"stimulus":"\n                    <p><b>Action: <em>harvest</em></b></p>\n                    <p>This is the bee that you just saw.</p>\n                    <img src=\"bees-with-color/bee-B2SM.svg\" width=\"200\">\n                    <p><span class=\"greenText\"><b>Successful harvest!</b></span><br>Your pay has increased by $0.02. Your bonus pay is now $0.96.</p>\n            ","response":0,"trial_type":"html-button-response","trial_index":90,"time_elapsed":332993,"internal_node_id":"0.0-4.0-1.41","subject_id":"5e580bcf4782bd01723249e2","study_id":"60edd13110225f80f9f3709b","session_id":"6196c4a3cfcaefbaaa6cfa33","condition":"full-information","relevant_dimensions":["antennae","pattern"],"bee_group":{"antennae":"A","wings":"X","pattern":"S","legs":"X"},"bonus":1.7800000000000011},{"rt":1340.1000000238419,"stimulus":"bees-with-color/bee-A1DM.svg","response":0,"trial_type":"image-button-response","trial_index":91,"time_elapsed":334335,"internal_node_id":"0.0-4.0-0.42","subject_id":"5e580bcf4782bd01723249e2","study_id":"60edd13110225f80f9f3709b","session_id":"6196c4a3cfcaefbaaa6cfa33","condition":"full-information","relevant_dimensions":["antennae","pattern"],"bee_group":{"antennae":"A","wings":"X","pattern":"S","legs":"X"},"action":"harvest","summary":"good-harvest","bonus":1.7800000000000011},{"rt":1107.800000011921,"stimulus":"\n                    <p><b>Action: <em>harvest</em></b></p>\n                    <p>This is the bee that you just saw.</p>\n                    <img src=\"bees-with-color/bee-A1DM.svg\" width=\"200\">\n                    <p><span class=\"greenText\"><b>Successful harvest!</b></span><br>Your pay has increased by $0.02. Your bonus pay is now $0.98.</p>\n            ","response":0,"trial_type":"html-button-response","trial_index":92,"time_elapsed":335444,"internal_node_id":"0.0-4.0-1.42","subject_id":"5e580bcf4782bd01723249e2","study_id":"60edd13110225f80f9f3709b","session_id":"6196c4a3cfcaefbaaa6cfa33","condition":"full-information","relevant_dimensions":["antennae","pattern"],"bee_group":{"antennae":"A","wings":"X","pattern":"S","legs":"X"},"bonus":1.7800000000000011},{"rt":1216.800000011921,"stimulus":"bees-with-color/bee-B1DM.svg","response":0,"trial_type":"image-button-response","trial_index":93,"time_elapsed":336662,"internal_node_id":"0.0-4.0-0.43","subject_id":"5e580bcf4782bd01723249e2","study_id":"60edd13110225f80f9f3709b","session_id":"6196c4a3cfcaefbaaa6cfa33","condition":"full-information","relevant_dimensions":["antennae","pattern"],"bee_group":{"antennae":"A","wings":"X","pattern":"S","legs":"X"},"action":"harvest","summary":"good-harvest","bonus":1.7800000000000011},{"rt":1042.199999988079,"stimulus":"\n                    <p><b>Action: <em>harvest</em></b></p>\n                    <p>This is the bee that you just saw.</p>\n                    <img src=\"bees-with-color/bee-B1DM.svg\" width=\"200\">\n                    <p><span class=\"greenText\"><b>Successful harvest!</b></span><br>Your pay has increased by $0.02. Your bonus pay is now $1.00.</p>\n            ","response":0,"trial_type":"html-button-response","trial_index":94,"time_elapsed":337709,"internal_node_id":"0.0-4.0-1.43","subject_id":"5e580bcf4782bd01723249e2","study_id":"60edd13110225f80f9f3709b","session_id":"6196c4a3cfcaefbaaa6cfa33","condition":"full-information","relevant_dimensions":["antennae","pattern"],"bee_group":{"antennae":"A","wings":"X","pattern":"S","legs":"X"},"bonus":1.7800000000000011},{"rt":1253.300000011921,"stimulus":"bees-with-color/bee-A2DM.svg","response":0,"trial_type":"image-button-response","trial_index":95,"time_elapsed":338964,"internal_node_id":"0.0-4.0-0.44","subject_id":"5e580bcf4782bd01723249e2","study_id":"60edd13110225f80f9f3709b","session_id":"6196c4a3cfcaefbaaa6cfa33","condition":"full-information","relevant_dimensions":["antennae","pattern"],"bee_group":{"antennae":"A","wings":"X","pattern":"S","legs":"X"},"action":"harvest","summary":"good-harvest","bonus":1.7800000000000011},{"rt":1279.7999999523163,"stimulus":"\n                    <p><b>Action: <em>harvest</em></b></p>\n                    <p>This is the bee that you just saw.</p>\n                    <img src=\"bees-with-color/bee-A2DM.svg\" width=\"200\">\n                    <p><span class=\"greenText\"><b>Successful harvest!</b></span><br>Your pay has increased by $0.02. Your bonus pay is now $1.02.</p>\n            ","response":0,"trial_type":"html-button-response","trial_index":96,"time_elapsed":340245,"internal_node_id":"0.0-4.0-1.44","subject_id":"5e580bcf4782bd01723249e2","study_id":"60edd13110225f80f9f3709b","session_id":"6196c4a3cfcaefbaaa6cfa33","condition":"full-information","relevant_dimensions":["antennae","pattern"],"bee_group":{"antennae":"A","wings":"X","pattern":"S","legs":"X"},"bonus":1.7800000000000011},{"rt":1588.9000000357628,"stimulus":"bees-with-color/bee-B1SF.svg","response":0,"trial_type":"image-button-response","trial_index":97,"time_elapsed":341835,"internal_node_id":"0.0-4.0-0.45","subject_id":"5e580bcf4782bd01723249e2","study_id":"60edd13110225f80f9f3709b","session_id":"6196c4a3cfcaefbaaa6cfa33","condition":"full-information","relevant_dimensions":["antennae","pattern"],"bee_group":{"antennae":"A","wings":"X","pattern":"S","legs":"X"},"action":"harvest","summary":"good-harvest","bonus":1.7800000000000011},{"rt":1068.7999999523163,"stimulus":"\n                    <p><b>Action: <em>harvest</em></b></p>\n                    <p>This is the bee that you just saw.</p>\n                    <img src=\"bees-with-color/bee-B1SF.svg\" width=\"200\">\n                    <p><span class=\"greenText\"><b>Successful harvest!</b></span><br>Your pay has increased by $0.02. Your bonus pay is now $1.04.</p>\n            ","response":0,"trial_type":"html-button-response","trial_index":98,"time_elapsed":342905,"internal_node_id":"0.0-4.0-1.45","subject_id":"5e580bcf4782bd01723249e2","study_id":"60edd13110225f80f9f3709b","session_id":"6196c4a3cfcaefbaaa6cfa33","condition":"full-information","relevant_dimensions":["antennae","pattern"],"bee_group":{"antennae":"A","wings":"X","pattern":"S","legs":"X"},"bonus":1.7800000000000011},{"rt":1138.5999999642372,"stimulus":"bees-with-color/bee-A2SM.svg","response":1,"trial_type":"image-button-response","trial_index":99,"time_elapsed":344045,"internal_node_id":"0.0-4.0-0.46","subject_id":"5e580bcf4782bd01723249e2","study_id":"60edd13110225f80f9f3709b","session_id":"6196c4a3cfcaefbaaa6cfa33","condition":"full-information","relevant_dimensions":["antennae","pattern"],"bee_group":{"antennae":"A","wings":"X","pattern":"S","legs":"X"},"action":"avoid","summary":"good-avoid","bonus":1.7800000000000011},{"rt":1045,"stimulus":"\n                    <p><b>Action: <em>avoid</em></b></p>\n                    <p>This is the bee that you just saw.</p>\n                    <img src=\"bees-with-color/bee-A2SM.svg\" width=\"200\">\n                    <p><span class=\"greenText\">Good choice!</span>  This bee would have stung you.<br>Your bonus pay is unchanged, and remains at $1.04.</p>\n            ","response":0,"trial_type":"html-button-response","trial_index":100,"time_elapsed":345092,"internal_node_id":"0.0-4.0-1.46","subject_id":"5e580bcf4782bd01723249e2","study_id":"60edd13110225f80f9f3709b","session_id":"6196c4a3cfcaefbaaa6cfa33","condition":"full-information","relevant_dimensions":["antennae","pattern"],"bee_group":{"antennae":"A","wings":"X","pattern":"S","legs":"X"},"bonus":1.7800000000000011},{"rt":1269.800000011921,"stimulus":"bees-with-color/bee-B1SM.svg","response":0,"trial_type":"image-button-response","trial_index":101,"time_elapsed":346364,"internal_node_id":"0.0-4.0-0.47","subject_id":"5e580bcf4782bd01723249e2","study_id":"60edd13110225f80f9f3709b","session_id":"6196c4a3cfcaefbaaa6cfa33","condition":"full-information","relevant_dimensions":["antennae","pattern"],"bee_group":{"antennae":"A","wings":"X","pattern":"S","legs":"X"},"action":"harvest","summary":"good-harvest","bonus":1.7800000000000011},{"rt":1046.6000000238419,"stimulus":"\n                    <p><b>Action: <em>harvest</em></b></p>\n                    <p>This is the bee that you just saw.</p>\n                    <img src=\"bees-with-color/bee-B1SM.svg\" width=\"200\">\n                    <p><span class=\"greenText\"><b>Successful harvest!</b></span><br>Your pay has increased by $0.02. Your bonus pay is now $1.06.</p>\n            ","response":0,"trial_type":"html-button-response","trial_index":102,"time_elapsed":347412,"internal_node_id":"0.0-4.0-1.47","subject_id":"5e580bcf4782bd01723249e2","study_id":"60edd13110225f80f9f3709b","session_id":"6196c4a3cfcaefbaaa6cfa33","condition":"full-information","relevant_dimensions":["antennae","pattern"],"bee_group":{"antennae":"A","wings":"X","pattern":"S","legs":"X"},"bonus":1.7800000000000011},{"rt":1705,"stimulus":"bees-with-color/bee-A2DM.svg","response":0,"trial_type":"image-button-response","trial_index":103,"time_elapsed":349118,"internal_node_id":"0.0-4.0-0.48","subject_id":"5e580bcf4782bd01723249e2","study_id":"60edd13110225f80f9f3709b","session_id":"6196c4a3cfcaefbaaa6cfa33","condition":"full-information","relevant_dimensions":["antennae","pattern"],"bee_group":{"antennae":"A","wings":"X","pattern":"S","legs":"X"},"action":"harvest","summary":"good-harvest","bonus":1.7800000000000011},{"rt":1146.2999999523163,"stimulus":"\n                    <p><b>Action: <em>harvest</em></b></p>\n                    <p>This is the bee that you just saw.</p>\n                    <img src=\"bees-with-color/bee-A2DM.svg\" width=\"200\">\n                    <p><span class=\"greenText\"><b>Successful harvest!</b></span><br>Your pay has increased by $0.02. Your bonus pay is now $1.08.</p>\n            ","response":0,"trial_type":"html-button-response","trial_index":104,"time_elapsed":350266,"internal_node_id":"0.0-4.0-1.48","subject_id":"5e580bcf4782bd01723249e2","study_id":"60edd13110225f80f9f3709b","session_id":"6196c4a3cfcaefbaaa6cfa33","condition":"full-information","relevant_dimensions":["antennae","pattern"],"bee_group":{"antennae":"A","wings":"X","pattern":"S","legs":"X"},"bonus":1.7800000000000011},{"rt":1332.800000011921,"stimulus":"bees-with-color/bee-A1DF.svg","response":0,"trial_type":"image-button-response","trial_index":105,"time_elapsed":351600,"internal_node_id":"0.0-4.0-0.49","subject_id":"5e580bcf4782bd01723249e2","study_id":"60edd13110225f80f9f3709b","session_id":"6196c4a3cfcaefbaaa6cfa33","condition":"full-information","relevant_dimensions":["antennae","pattern"],"bee_group":{"antennae":"A","wings":"X","pattern":"S","legs":"X"},"action":"harvest","summary":"good-harvest","bonus":1.7800000000000011},{"rt":1200.5,"stimulus":"\n                    <p><b>Action: <em>harvest</em></b></p>\n                    <p>This is the bee that you just saw.</p>\n                    <img src=\"bees-with-color/bee-A1DF.svg\" width=\"200\">\n                    <p><span class=\"greenText\"><b>Successful harvest!</b></span><br>Your pay has increased by $0.02. Your bonus pay is now $1.10.</p>\n            ","response":0,"trial_type":"html-button-response","trial_index":106,"time_elapsed":352802,"internal_node_id":"0.0-4.0-1.49","subject_id":"5e580bcf4782bd01723249e2","study_id":"60edd13110225f80f9f3709b","session_id":"6196c4a3cfcaefbaaa6cfa33","condition":"full-information","relevant_dimensions":["antennae","pattern"],"bee_group":{"antennae":"A","wings":"X","pattern":"S","legs":"X"},"bonus":1.7800000000000011},{"rt":1216.300000011921,"stimulus":"bees-with-color/bee-A2SF.svg","response":1,"trial_type":"image-button-response","trial_index":107,"time_elapsed":354020,"internal_node_id":"0.0-4.0-0.50","subject_id":"5e580bcf4782bd01723249e2","study_id":"60edd13110225f80f9f3709b","session_id":"6196c4a3cfcaefbaaa6cfa33","condition":"full-information","relevant_dimensions":["antennae","pattern"],"bee_group":{"antennae":"A","wings":"X","pattern":"S","legs":"X"},"action":"avoid","summary":"good-avoid","bonus":1.7800000000000011},{"rt":1099.699999988079,"stimulus":"\n                    <p><b>Action: <em>avoid</em></b></p>\n                    <p>This is the bee that you just saw.</p>\n                    <img src=\"bees-with-color/bee-A2SF.svg\" width=\"200\">\n                    <p><span class=\"greenText\">Good choice!</span>  This bee would have stung you.<br>Your bonus pay is unchanged, and remains at $1.10.</p>\n            ","response":0,"trial_type":"html-button-response","trial_index":108,"time_elapsed":355121,"internal_node_id":"0.0-4.0-1.50","subject_id":"5e580bcf4782bd01723249e2","study_id":"60edd13110225f80f9f3709b","session_id":"6196c4a3cfcaefbaaa6cfa33","condition":"full-information","relevant_dimensions":["antennae","pattern"],"bee_group":{"antennae":"A","wings":"X","pattern":"S","legs":"X"},"bonus":1.7800000000000011},{"rt":1642.699999988079,"stimulus":"bees-with-color/bee-A2DF.svg","response":0,"trial_type":"image-button-response","trial_index":109,"time_elapsed":356765,"internal_node_id":"0.0-4.0-0.51","subject_id":"5e580bcf4782bd01723249e2","study_id":"60edd13110225f80f9f3709b","session_id":"6196c4a3cfcaefbaaa6cfa33","condition":"full-information","relevant_dimensions":["antennae","pattern"],"bee_group":{"antennae":"A","wings":"X","pattern":"S","legs":"X"},"action":"harvest","summary":"good-harvest","bonus":1.7800000000000011},{"rt":1131.1000000238419,"stimulus":"\n                    <p><b>Action: <em>harvest</em></b></p>\n                    <p>This is the bee that you just saw.</p>\n                    <img src=\"bees-with-color/bee-A2DF.svg\" width=\"200\">\n                    <p><span class=\"greenText\"><b>Successful harvest!</b></span><br>Your pay has increased by $0.02. Your bonus pay is now $1.12.</p>\n            ","response":0,"trial_type":"html-button-response","trial_index":110,"time_elapsed":357898,"internal_node_id":"0.0-4.0-1.51","subject_id":"5e580bcf4782bd01723249e2","study_id":"60edd13110225f80f9f3709b","session_id":"6196c4a3cfcaefbaaa6cfa33","condition":"full-information","relevant_dimensions":["antennae","pattern"],"bee_group":{"antennae":"A","wings":"X","pattern":"S","legs":"X"},"bonus":1.7800000000000011},{"rt":1200.800000011921,"stimulus":"bees-with-color/bee-B2DF.svg","response":0,"trial_type":"image-button-response","trial_index":111,"time_elapsed":359100,"internal_node_id":"0.0-4.0-0.52","subject_id":"5e580bcf4782bd01723249e2","study_id":"60edd13110225f80f9f3709b","session_id":"6196c4a3cfcaefbaaa6cfa33","condition":"full-information","relevant_dimensions":["antennae","pattern"],"bee_group":{"antennae":"A","wings":"X","pattern":"S","legs":"X"},"action":"harvest","summary":"good-harvest","bonus":1.7800000000000011},{"rt":1053.2000000476837,"stimulus":"\n                    <p><b>Action: <em>harvest</em></b></p>\n                    <p>This is the bee that you just saw.</p>\n                    <img src=\"bees-with-color/bee-B2DF.svg\" width=\"200\">\n                    <p><span class=\"greenText\"><b>Successful harvest!</b></span><br>Your pay has increased by $0.02. Your bonus pay is now $1.14.</p>\n            ","response":0,"trial_type":"html-button-response","trial_index":112,"time_elapsed":360155,"internal_node_id":"0.0-4.0-1.52","subject_id":"5e580bcf4782bd01723249e2","study_id":"60edd13110225f80f9f3709b","session_id":"6196c4a3cfcaefbaaa6cfa33","condition":"full-information","relevant_dimensions":["antennae","pattern"],"bee_group":{"antennae":"A","wings":"X","pattern":"S","legs":"X"},"bonus":1.7800000000000011},{"rt":1472.800000011921,"stimulus":"bees-with-color/bee-B2SM.svg","response":0,"trial_type":"image-button-response","trial_index":113,"time_elapsed":361628,"internal_node_id":"0.0-4.0-0.53","subject_id":"5e580bcf4782bd01723249e2","study_id":"60edd13110225f80f9f3709b","session_id":"6196c4a3cfcaefbaaa6cfa33","condition":"full-information","relevant_dimensions":["antennae","pattern"],"bee_group":{"antennae":"A","wings":"X","pattern":"S","legs":"X"},"action":"harvest","summary":"good-harvest","bonus":1.7800000000000011},{"rt":1154,"stimulus":"\n                    <p><b>Action: <em>harvest</em></b></p>\n                    <p>This is the bee that you just saw.</p>\n                    <img src=\"bees-with-color/bee-B2SM.svg\" width=\"200\">\n                    <p><span class=\"greenText\"><b>Successful harvest!</b></span><br>Your pay has increased by $0.02. Your bonus pay is now $1.16.</p>\n            ","response":0,"trial_type":"html-button-response","trial_index":114,"time_elapsed":362784,"internal_node_id":"0.0-4.0-1.53","subject_id":"5e580bcf4782bd01723249e2","study_id":"60edd13110225f80f9f3709b","session_id":"6196c4a3cfcaefbaaa6cfa33","condition":"full-information","relevant_dimensions":["antennae","pattern"],"bee_group":{"antennae":"A","wings":"X","pattern":"S","legs":"X"},"bonus":1.7800000000000011},{"rt":1379,"stimulus":"bees-with-color/bee-A1DM.svg","response":0,"trial_type":"image-button-response","trial_index":115,"time_elapsed":364165,"internal_node_id":"0.0-4.0-0.54","subject_id":"5e580bcf4782bd01723249e2","study_id":"60edd13110225f80f9f3709b","session_id":"6196c4a3cfcaefbaaa6cfa33","condition":"full-information","relevant_dimensions":["antennae","pattern"],"bee_group":{"antennae":"A","wings":"X","pattern":"S","legs":"X"},"action":"harvest","summary":"good-harvest","bonus":1.7800000000000011},{"rt":1293.199999988079,"stimulus":"\n                    <p><b>Action: <em>harvest</em></b></p>\n                    <p>This is the bee that you just saw.</p>\n                    <img src=\"bees-with-color/bee-A1DM.svg\" width=\"200\">\n                    <p><span class=\"greenText\"><b>Successful harvest!</b></span><br>Your pay has increased by $0.02. Your bonus pay is now $1.18.</p>\n            ","response":0,"trial_type":"html-button-response","trial_index":116,"time_elapsed":365460,"internal_node_id":"0.0-4.0-1.54","subject_id":"5e580bcf4782bd01723249e2","study_id":"60edd13110225f80f9f3709b","session_id":"6196c4a3cfcaefbaaa6cfa33","condition":"full-information","relevant_dimensions":["antennae","pattern"],"bee_group":{"antennae":"A","wings":"X","pattern":"S","legs":"X"},"bonus":1.7800000000000011},{"rt":1247,"stimulus":"bees-with-color/bee-A2SM.svg","response":1,"trial_type":"image-button-response","trial_index":117,"time_elapsed":366709,"internal_node_id":"0.0-4.0-0.55","subject_id":"5e580bcf4782bd01723249e2","study_id":"60edd13110225f80f9f3709b","session_id":"6196c4a3cfcaefbaaa6cfa33","condition":"full-information","relevant_dimensions":["antennae","pattern"],"bee_group":{"antennae":"A","wings":"X","pattern":"S","legs":"X"},"action":"avoid","summary":"good-avoid","bonus":1.7800000000000011},{"rt":1130.300000011921,"stimulus":"\n                    <p><b>Action: <em>avoid</em></b></p>\n                    <p>This is the bee that you just saw.</p>\n                    <img src=\"bees-with-color/bee-A2SM.svg\" width=\"200\">\n                    <p><span class=\"greenText\">Good choice!</span>  This bee would have stung you.<br>Your bonus pay is unchanged, and remains at $1.18.</p>\n            ","response":0,"trial_type":"html-button-response","trial_index":118,"time_elapsed":367842,"internal_node_id":"0.0-4.0-1.55","subject_id":"5e580bcf4782bd01723249e2","study_id":"60edd13110225f80f9f3709b","session_id":"6196c4a3cfcaefbaaa6cfa33","condition":"full-information","relevant_dimensions":["antennae","pattern"],"bee_group":{"antennae":"A","wings":"X","pattern":"S","legs":"X"},"bonus":1.7800000000000011},{"rt":1502.9000000357628,"stimulus":"bees-with-color/bee-B1SM.svg","response":0,"trial_type":"image-button-response","trial_index":119,"time_elapsed":369346,"internal_node_id":"0.0-4.0-0.56","subject_id":"5e580bcf4782bd01723249e2","study_id":"60edd13110225f80f9f3709b","session_id":"6196c4a3cfcaefbaaa6cfa33","condition":"full-information","relevant_dimensions":["antennae","pattern"],"bee_group":{"antennae":"A","wings":"X","pattern":"S","legs":"X"},"action":"harvest","summary":"good-harvest","bonus":1.7800000000000011},{"rt":1169.5,"stimulus":"\n                    <p><b>Action: <em>harvest</em></b></p>\n                    <p>This is the bee that you just saw.</p>\n                    <img src=\"bees-with-color/bee-B1SM.svg\" width=\"200\">\n                    <p><span class=\"greenText\"><b>Successful harvest!</b></span><br>Your pay has increased by $0.02. Your bonus pay is now $1.20.</p>\n            ","response":0,"trial_type":"html-button-response","trial_index":120,"time_elapsed":370517,"internal_node_id":"0.0-4.0-1.56","subject_id":"5e580bcf4782bd01723249e2","study_id":"60edd13110225f80f9f3709b","session_id":"6196c4a3cfcaefbaaa6cfa33","condition":"full-information","relevant_dimensions":["antennae","pattern"],"bee_group":{"antennae":"A","wings":"X","pattern":"S","legs":"X"},"bonus":1.7800000000000011},{"rt":2030.5,"stimulus":"bees-with-color/bee-B1SF.svg","response":0,"trial_type":"image-button-response","trial_index":121,"time_elapsed":372549,"internal_node_id":"0.0-4.0-0.57","subject_id":"5e580bcf4782bd01723249e2","study_id":"60edd13110225f80f9f3709b","session_id":"6196c4a3cfcaefbaaa6cfa33","condition":"full-information","relevant_dimensions":["antennae","pattern"],"bee_group":{"antennae":"A","wings":"X","pattern":"S","legs":"X"},"action":"harvest","summary":"good-harvest","bonus":1.7800000000000011},{"rt":913.8000000119209,"stimulus":"\n                    <p><b>Action: <em>harvest</em></b></p>\n                    <p>This is the bee that you just saw.</p>\n                    <img src=\"bees-with-color/bee-B1SF.svg\" width=\"200\">\n                    <p><span class=\"greenText\"><b>Successful harvest!</b></span><br>Your pay has increased by $0.02. Your bonus pay is now $1.22.</p>\n            ","response":0,"trial_type":"html-button-response","trial_index":122,"time_elapsed":373464,"internal_node_id":"0.0-4.0-1.57","subject_id":"5e580bcf4782bd01723249e2","study_id":"60edd13110225f80f9f3709b","session_id":"6196c4a3cfcaefbaaa6cfa33","condition":"full-information","relevant_dimensions":["antennae","pattern"],"bee_group":{"antennae":"A","wings":"X","pattern":"S","legs":"X"},"bonus":1.7800000000000011},{"rt":1355.699999988079,"stimulus":"bees-with-color/bee-B2DM.svg","response":0,"trial_type":"image-button-response","trial_index":123,"time_elapsed":374822,"internal_node_id":"0.0-4.0-0.58","subject_id":"5e580bcf4782bd01723249e2","study_id":"60edd13110225f80f9f3709b","session_id":"6196c4a3cfcaefbaaa6cfa33","condition":"full-information","relevant_dimensions":["antennae","pattern"],"bee_group":{"antennae":"A","wings":"X","pattern":"S","legs":"X"},"action":"harvest","summary":"good-harvest","bonus":1.7800000000000011},{"rt":1022.1000000238419,"stimulus":"\n                    <p><b>Action: <em>harvest</em></b></p>\n                    <p>This is the bee that you just saw.</p>\n                    <img src=\"bees-with-color/bee-B2DM.svg\" width=\"200\">\n                    <p><span class=\"greenText\"><b>Successful harvest!</b></span><br>Your pay has increased by $0.02. Your bonus pay is now $1.24.</p>\n            ","response":0,"trial_type":"html-button-response","trial_index":124,"time_elapsed":375845,"internal_node_id":"0.0-4.0-1.58","subject_id":"5e580bcf4782bd01723249e2","study_id":"60edd13110225f80f9f3709b","session_id":"6196c4a3cfcaefbaaa6cfa33","condition":"full-information","relevant_dimensions":["antennae","pattern"],"bee_group":{"antennae":"A","wings":"X","pattern":"S","legs":"X"},"bonus":1.7800000000000011},{"rt":1402.5,"stimulus":"bees-with-color/bee-B1DM.svg","response":0,"trial_type":"image-button-response","trial_index":125,"time_elapsed":377249,"internal_node_id":"0.0-4.0-0.59","subject_id":"5e580bcf4782bd01723249e2","study_id":"60edd13110225f80f9f3709b","session_id":"6196c4a3cfcaefbaaa6cfa33","condition":"full-information","relevant_dimensions":["antennae","pattern"],"bee_group":{"antennae":"A","wings":"X","pattern":"S","legs":"X"},"action":"harvest","summary":"good-harvest","bonus":1.7800000000000011},{"rt":1091.199999988079,"stimulus":"\n                    <p><b>Action: <em>harvest</em></b></p>\n                    <p>This is the bee that you just saw.</p>\n                    <img src=\"bees-with-color/bee-B1DM.svg\" width=\"200\">\n                    <p><span class=\"greenText\"><b>Successful harvest!</b></span><br>Your pay has increased by $0.02. Your bonus pay is now $1.26.</p>\n            ","response":0,"trial_type":"html-button-response","trial_index":126,"time_elapsed":378342,"internal_node_id":"0.0-4.0-1.59","subject_id":"5e580bcf4782bd01723249e2","study_id":"60edd13110225f80f9f3709b","session_id":"6196c4a3cfcaefbaaa6cfa33","condition":"full-information","relevant_dimensions":["antennae","pattern"],"bee_group":{"antennae":"A","wings":"X","pattern":"S","legs":"X"},"bonus":1.7800000000000011},{"rt":1371.5,"stimulus":"bees-with-color/bee-B2SF.svg","response":0,"trial_type":"image-button-response","trial_index":127,"time_elapsed":379715,"internal_node_id":"0.0-4.0-0.60","subject_id":"5e580bcf4782bd01723249e2","study_id":"60edd13110225f80f9f3709b","session_id":"6196c4a3cfcaefbaaa6cfa33","condition":"full-information","relevant_dimensions":["antennae","pattern"],"bee_group":{"antennae":"A","wings":"X","pattern":"S","legs":"X"},"action":"harvest","summary":"good-harvest","bonus":1.7800000000000011},{"rt":1239.4000000357628,"stimulus":"\n                    <p><b>Action: <em>harvest</em></b></p>\n                    <p>This is the bee that you just saw.</p>\n                    <img src=\"bees-with-color/bee-B2SF.svg\" width=\"200\">\n                    <p><span class=\"greenText\"><b>Successful harvest!</b></span><br>Your pay has increased by $0.02. Your bonus pay is now $1.28.</p>\n            ","response":0,"trial_type":"html-button-response","trial_index":128,"time_elapsed":380955,"internal_node_id":"0.0-4.0-1.60","subject_id":"5e580bcf4782bd01723249e2","study_id":"60edd13110225f80f9f3709b","session_id":"6196c4a3cfcaefbaaa6cfa33","condition":"full-information","relevant_dimensions":["antennae","pattern"],"bee_group":{"antennae":"A","wings":"X","pattern":"S","legs":"X"},"bonus":1.7800000000000011},{"rt":1349.0999999642372,"stimulus":"bees-with-color/bee-B1DF.svg","response":0,"trial_type":"image-button-response","trial_index":129,"time_elapsed":382306,"internal_node_id":"0.0-4.0-0.61","subject_id":"5e580bcf4782bd01723249e2","study_id":"60edd13110225f80f9f3709b","session_id":"6196c4a3cfcaefbaaa6cfa33","condition":"full-information","relevant_dimensions":["antennae","pattern"],"bee_group":{"antennae":"A","wings":"X","pattern":"S","legs":"X"},"action":"harvest","summary":"good-harvest","bonus":1.7800000000000011},{"rt":1154.5,"stimulus":"\n                    <p><b>Action: <em>harvest</em></b></p>\n                    <p>This is the bee that you just saw.</p>\n                    <img src=\"bees-with-color/bee-B1DF.svg\" width=\"200\">\n                    <p><span class=\"greenText\"><b>Successful harvest!</b></span><br>Your pay has increased by $0.02. Your bonus pay is now $1.30.</p>\n            ","response":0,"trial_type":"html-button-response","trial_index":130,"time_elapsed":383462,"internal_node_id":"0.0-4.0-1.61","subject_id":"5e580bcf4782bd01723249e2","study_id":"60edd13110225f80f9f3709b","session_id":"6196c4a3cfcaefbaaa6cfa33","condition":"full-information","relevant_dimensions":["antennae","pattern"],"bee_group":{"antennae":"A","wings":"X","pattern":"S","legs":"X"},"bonus":1.7800000000000011},{"rt":1232,"stimulus":"bees-with-color/bee-A1SF.svg","response":1,"trial_type":"image-button-response","trial_index":131,"time_elapsed":384695,"internal_node_id":"0.0-4.0-0.62","subject_id":"5e580bcf4782bd01723249e2","study_id":"60edd13110225f80f9f3709b","session_id":"6196c4a3cfcaefbaaa6cfa33","condition":"full-information","relevant_dimensions":["antennae","pattern"],"bee_group":{"antennae":"A","wings":"X","pattern":"S","legs":"X"},"action":"avoid","summary":"good-avoid","bonus":1.7800000000000011},{"rt":1316.5999999642372,"stimulus":"\n                    <p><b>Action: <em>avoid</em></b></p>\n                    <p>This is the bee that you just saw.</p>\n                    <img src=\"bees-with-color/bee-A1SF.svg\" width=\"200\">\n                    <p><span class=\"greenText\">Good choice!</span>  This bee would have stung you.<br>Your bonus pay is unchanged, and remains at $1.30.</p>\n            ","response":0,"trial_type":"html-button-response","trial_index":132,"time_elapsed":386013,"internal_node_id":"0.0-4.0-1.62","subject_id":"5e580bcf4782bd01723249e2","study_id":"60edd13110225f80f9f3709b","session_id":"6196c4a3cfcaefbaaa6cfa33","condition":"full-information","relevant_dimensions":["antennae","pattern"],"bee_group":{"antennae":"A","wings":"X","pattern":"S","legs":"X"},"bonus":1.7800000000000011},{"rt":1108,"stimulus":"bees-with-color/bee-A1SM.svg","response":1,"trial_type":"image-button-response","trial_index":133,"time_elapsed":387122,"internal_node_id":"0.0-4.0-0.63","subject_id":"5e580bcf4782bd01723249e2","study_id":"60edd13110225f80f9f3709b","session_id":"6196c4a3cfcaefbaaa6cfa33","condition":"full-information","relevant_dimensions":["antennae","pattern"],"bee_group":{"antennae":"A","wings":"X","pattern":"S","legs":"X"},"action":"avoid","summary":"good-avoid","bonus":1.7800000000000011},{"rt":1170.1000000238419,"stimulus":"\n                    <p><b>Action: <em>avoid</em></b></p>\n                    <p>This is the bee that you just saw.</p>\n                    <img src=\"bees-with-color/bee-A1SM.svg\" width=\"200\">\n                    <p><span class=\"greenText\">Good choice!</span>  This bee would have stung you.<br>Your bonus pay is unchanged, and remains at $1.30.</p>\n            ","response":0,"trial_type":"html-button-response","trial_index":134,"time_elapsed":388293,"internal_node_id":"0.0-4.0-1.63","subject_id":"5e580bcf4782bd01723249e2","study_id":"60edd13110225f80f9f3709b","session_id":"6196c4a3cfcaefbaaa6cfa33","condition":"full-information","relevant_dimensions":["antennae","pattern"],"bee_group":{"antennae":"A","wings":"X","pattern":"S","legs":"X"},"bonus":1.7800000000000011},{"rt":3293,"stimulus":"You have completed the first part of this experiment.<br><br>You will now begin a shorter second part, in which you will receive no feedback.<br>The same rules regarding bonus pay apply.<br><br>Press any key to begin.","response":" ","trial_type":"html-keyboard-response","trial_index":135,"time_elapsed":391588,"internal_node_id":"0.0-5.0","subject_id":"5e580bcf4782bd01723249e2","study_id":"60edd13110225f80f9f3709b","session_id":"6196c4a3cfcaefbaaa6cfa33","condition":"full-information","relevant_dimensions":["antennae","pattern"],"bee_group":{"antennae":"A","wings":"X","pattern":"S","legs":"X"},"bonus":1.7800000000000011},{"rt":3439.199999988079,"stimulus":"bees-with-color/bee-A1SM.svg","response":1,"trial_type":"image-button-response","trial_index":136,"time_elapsed":395072,"internal_node_id":"0.0-6.0-0.0","subject_id":"5e580bcf4782bd01723249e2","study_id":"60edd13110225f80f9f3709b","session_id":"6196c4a3cfcaefbaaa6cfa33","condition":"full-information","relevant_dimensions":["antennae","pattern"],"bee_group":{"antennae":"A","wings":"X","pattern":"S","legs":"X"},"bonus":1.7800000000000011},{"rt":2207.800000011921,"stimulus":"bees-with-color/bee-B2SM.svg","response":0,"trial_type":"image-button-response","trial_index":137,"time_elapsed":397282,"internal_node_id":"0.0-6.0-0.1","subject_id":"5e580bcf4782bd01723249e2","study_id":"60edd13110225f80f9f3709b","session_id":"6196c4a3cfcaefbaaa6cfa33","condition":"full-information","relevant_dimensions":["antennae","pattern"],"bee_group":{"antennae":"A","wings":"X","pattern":"S","legs":"X"},"bonus":1.7800000000000011},{"rt":843.5,"stimulus":"bees-with-color/bee-A2DM.svg","response":0,"trial_type":"image-button-response","trial_index":138,"time_elapsed":398127,"internal_node_id":"0.0-6.0-0.2","subject_id":"5e580bcf4782bd01723249e2","study_id":"60edd13110225f80f9f3709b","session_id":"6196c4a3cfcaefbaaa6cfa33","condition":"full-information","relevant_dimensions":["antennae","pattern"],"bee_group":{"antennae":"A","wings":"X","pattern":"S","legs":"X"},"bonus":1.7800000000000011},{"rt":789,"stimulus":"bees-with-color/bee-B1DF.svg","response":0,"trial_type":"image-button-response","trial_index":139,"time_elapsed":398919,"internal_node_id":"0.0-6.0-0.3","subject_id":"5e580bcf4782bd01723249e2","study_id":"60edd13110225f80f9f3709b","session_id":"6196c4a3cfcaefbaaa6cfa33","condition":"full-information","relevant_dimensions":["antennae","pattern"],"bee_group":{"antennae":"A","wings":"X","pattern":"S","legs":"X"},"bonus":1.7800000000000011},{"rt":766.1999999880791,"stimulus":"bees-with-color/bee-B1DM.svg","response":0,"trial_type":"image-button-response","trial_index":140,"time_elapsed":399687,"internal_node_id":"0.0-6.0-0.4","subject_id":"5e580bcf4782bd01723249e2","study_id":"60edd13110225f80f9f3709b","session_id":"6196c4a3cfcaefbaaa6cfa33","condition":"full-information","relevant_dimensions":["antennae","pattern"],"bee_group":{"antennae":"A","wings":"X","pattern":"S","legs":"X"},"bonus":1.7800000000000011},{"rt":1378.5,"stimulus":"bees-with-color/bee-A2SF.svg","response":1,"trial_type":"image-button-response","trial_index":141,"time_elapsed":401067,"internal_node_id":"0.0-6.0-0.5","subject_id":"5e580bcf4782bd01723249e2","study_id":"60edd13110225f80f9f3709b","session_id":"6196c4a3cfcaefbaaa6cfa33","condition":"full-information","relevant_dimensions":["antennae","pattern"],"bee_group":{"antennae":"A","wings":"X","pattern":"S","legs":"X"},"bonus":1.7800000000000011},{"rt":1448.6000000238419,"stimulus":"bees-with-color/bee-A2DF.svg","response":0,"trial_type":"image-button-response","trial_index":142,"time_elapsed":402518,"internal_node_id":"0.0-6.0-0.6","subject_id":"5e580bcf4782bd01723249e2","study_id":"60edd13110225f80f9f3709b","session_id":"6196c4a3cfcaefbaaa6cfa33","condition":"full-information","relevant_dimensions":["antennae","pattern"],"bee_group":{"antennae":"A","wings":"X","pattern":"S","legs":"X"},"bonus":1.7800000000000011},{"rt":804,"stimulus":"bees-with-color/bee-B1SM.svg","response":0,"trial_type":"image-button-response","trial_index":143,"time_elapsed":403324,"internal_node_id":"0.0-6.0-0.7","subject_id":"5e580bcf4782bd01723249e2","study_id":"60edd13110225f80f9f3709b","session_id":"6196c4a3cfcaefbaaa6cfa33","condition":"full-information","relevant_dimensions":["antennae","pattern"],"bee_group":{"antennae":"A","wings":"X","pattern":"S","legs":"X"},"bonus":1.7800000000000011},{"rt":1184.1000000238419,"stimulus":"bees-with-color/bee-A2SM.svg","response":1,"trial_type":"image-button-response","trial_index":144,"time_elapsed":404510,"internal_node_id":"0.0-6.0-0.8","subject_id":"5e580bcf4782bd01723249e2","study_id":"60edd13110225f80f9f3709b","session_id":"6196c4a3cfcaefbaaa6cfa33","condition":"full-information","relevant_dimensions":["antennae","pattern"],"bee_group":{"antennae":"A","wings":"X","pattern":"S","legs":"X"},"bonus":1.7800000000000011},{"rt":1720.699999988079,"stimulus":"bees-with-color/bee-A1DF.svg","response":0,"trial_type":"image-button-response","trial_index":145,"time_elapsed":406232,"internal_node_id":"0.0-6.0-0.9","subject_id":"5e580bcf4782bd01723249e2","study_id":"60edd13110225f80f9f3709b","session_id":"6196c4a3cfcaefbaaa6cfa33","condition":"full-information","relevant_dimensions":["antennae","pattern"],"bee_group":{"antennae":"A","wings":"X","pattern":"S","legs":"X"},"bonus":1.7800000000000011},{"rt":1929.300000011921,"stimulus":"bees-with-color/bee-B2SF.svg","response":0,"trial_type":"image-button-response","trial_index":146,"time_elapsed":408164,"internal_node_id":"0.0-6.0-0.10","subject_id":"5e580bcf4782bd01723249e2","study_id":"60edd13110225f80f9f3709b","session_id":"6196c4a3cfcaefbaaa6cfa33","condition":"full-information","relevant_dimensions":["antennae","pattern"],"bee_group":{"antennae":"A","wings":"X","pattern":"S","legs":"X"},"bonus":1.7800000000000011},{"rt":812.3000000119209,"stimulus":"bees-with-color/bee-B2DM.svg","response":0,"trial_type":"image-button-response","trial_index":147,"time_elapsed":408978,"internal_node_id":"0.0-6.0-0.11","subject_id":"5e580bcf4782bd01723249e2","study_id":"60edd13110225f80f9f3709b","session_id":"6196c4a3cfcaefbaaa6cfa33","condition":"full-information","relevant_dimensions":["antennae","pattern"],"bee_group":{"antennae":"A","wings":"X","pattern":"S","legs":"X"},"bonus":1.7800000000000011},{"rt":866.0999999642372,"stimulus":"bees-with-color/bee-B1SF.svg","response":0,"trial_type":"image-button-response","trial_index":148,"time_elapsed":409846,"internal_node_id":"0.0-6.0-0.12","subject_id":"5e580bcf4782bd01723249e2","study_id":"60edd13110225f80f9f3709b","session_id":"6196c4a3cfcaefbaaa6cfa33","condition":"full-information","relevant_dimensions":["antennae","pattern"],"bee_group":{"antennae":"A","wings":"X","pattern":"S","legs":"X"},"bonus":1.7800000000000011},{"rt":836.0999999642372,"stimulus":"bees-with-color/bee-B2DF.svg","response":0,"trial_type":"image-button-response","trial_index":149,"time_elapsed":410684,"internal_node_id":"0.0-6.0-0.13","subject_id":"5e580bcf4782bd01723249e2","study_id":"60edd13110225f80f9f3709b","session_id":"6196c4a3cfcaefbaaa6cfa33","condition":"full-information","relevant_dimensions":["antennae","pattern"],"bee_group":{"antennae":"A","wings":"X","pattern":"S","legs":"X"},"bonus":1.7800000000000011},{"rt":866.3000000119209,"stimulus":"bees-with-color/bee-A1DM.svg","response":0,"trial_type":"image-button-response","trial_index":150,"time_elapsed":411553,"internal_node_id":"0.0-6.0-0.14","subject_id":"5e580bcf4782bd01723249e2","study_id":"60edd13110225f80f9f3709b","session_id":"6196c4a3cfcaefbaaa6cfa33","condition":"full-information","relevant_dimensions":["antennae","pattern"],"bee_group":{"antennae":"A","wings":"X","pattern":"S","legs":"X"},"bonus":1.7800000000000011},{"rt":1277.699999988079,"stimulus":"bees-with-color/bee-A1SF.svg","response":1,"trial_type":"image-button-response","trial_index":151,"time_elapsed":412832,"internal_node_id":"0.0-6.0-0.15","subject_id":"5e580bcf4782bd01723249e2","study_id":"60edd13110225f80f9f3709b","session_id":"6196c4a3cfcaefbaaa6cfa33","condition":"full-information","relevant_dimensions":["antennae","pattern"],"bee_group":{"antennae":"A","wings":"X","pattern":"S","legs":"X"},"bonus":1.7800000000000011},{"rt":1254.1000000238419,"stimulus":"bees-with-color/bee-B2DM.svg","response":0,"trial_type":"image-button-response","trial_index":152,"time_elapsed":414088,"internal_node_id":"0.0-6.0-0.16","subject_id":"5e580bcf4782bd01723249e2","study_id":"60edd13110225f80f9f3709b","session_id":"6196c4a3cfcaefbaaa6cfa33","condition":"full-information","relevant_dimensions":["antennae","pattern"],"bee_group":{"antennae":"A","wings":"X","pattern":"S","legs":"X"},"bonus":1.7800000000000011},{"rt":1153.300000011921,"stimulus":"bees-with-color/bee-A1DM.svg","response":0,"trial_type":"image-button-response","trial_index":153,"time_elapsed":415243,"internal_node_id":"0.0-6.0-0.17","subject_id":"5e580bcf4782bd01723249e2","study_id":"60edd13110225f80f9f3709b","session_id":"6196c4a3cfcaefbaaa6cfa33","condition":"full-information","relevant_dimensions":["antennae","pattern"],"bee_group":{"antennae":"A","wings":"X","pattern":"S","legs":"X"},"bonus":1.7800000000000011},{"rt":907.2999999523163,"stimulus":"bees-with-color/bee-A2DF.svg","response":0,"trial_type":"image-button-response","trial_index":154,"time_elapsed":416152,"internal_node_id":"0.0-6.0-0.18","subject_id":"5e580bcf4782bd01723249e2","study_id":"60edd13110225f80f9f3709b","session_id":"6196c4a3cfcaefbaaa6cfa33","condition":"full-information","relevant_dimensions":["antennae","pattern"],"bee_group":{"antennae":"A","wings":"X","pattern":"S","legs":"X"},"bonus":1.7800000000000011},{"rt":1355.300000011921,"stimulus":"bees-with-color/bee-A2SF.svg","response":1,"trial_type":"image-button-response","trial_index":155,"time_elapsed":417509,"internal_node_id":"0.0-6.0-0.19","subject_id":"5e580bcf4782bd01723249e2","study_id":"60edd13110225f80f9f3709b","session_id":"6196c4a3cfcaefbaaa6cfa33","condition":"full-information","relevant_dimensions":["antennae","pattern"],"bee_group":{"antennae":"A","wings":"X","pattern":"S","legs":"X"},"bonus":1.7800000000000011},{"rt":1224,"stimulus":"bees-with-color/bee-B1SF.svg","response":0,"trial_type":"image-button-response","trial_index":156,"time_elapsed":418735,"internal_node_id":"0.0-6.0-0.20","subject_id":"5e580bcf4782bd01723249e2","study_id":"60edd13110225f80f9f3709b","session_id":"6196c4a3cfcaefbaaa6cfa33","condition":"full-information","relevant_dimensions":["antennae","pattern"],"bee_group":{"antennae":"A","wings":"X","pattern":"S","legs":"X"},"