[{"success":true,"trial_type":"fullscreen","trial_index":0,"time_elapsed":21954,"internal_node_id":"0.0-0.0","subject_id":"5da760eae8174b001640d369","study_id":"6197b3f67c2b5cd3b6d9596a","session_id":"619be3200778af80abd78ebe","condition":"contingent","relevant_dimensions":["antennae","pattern"],"bee_group":{"antennae":"B","wings":"X","pattern":"S","legs":"X"},"bonus":0.6800000000000009},{"success":true,"timeout":false,"failed_images":[],"failed_audio":[],"failed_video":[],"trial_type":"preload","trial_index":1,"time_elapsed":23383,"internal_node_id":"0.0-1.0","subject_id":"5da760eae8174b001640d369","study_id":"6197b3f67c2b5cd3b6d9596a","session_id":"619be3200778af80abd78ebe","condition":"contingent","relevant_dimensions":["antennae","pattern"],"bee_group":{"antennae":"B","wings":"X","pattern":"S","legs":"X"},"bonus":0.6800000000000009},{"rt":3804.60000000149,"stimulus":"Welcome! Press any key to begin.","response":" ","trial_type":"html-keyboard-response","trial_index":2,"time_elapsed":27188,"internal_node_id":"0.0-2.0","subject_id":"5da760eae8174b001640d369","study_id":"6197b3f67c2b5cd3b6d9596a","session_id":"619be3200778af80abd78ebe","condition":"contingent","relevant_dimensions":["antennae","pattern"],"bee_group":{"antennae":"B","wings":"X","pattern":"S","legs":"X"},"bonus":0.6800000000000009},{"view_history":[{"page_index":0,"viewing_time":4429.5},{"page_index":1,"viewing_time":19445.79999999702},{"page_index":2,"viewing_time":13414.5},{"page_index":3,"viewing_time":14481.70000000298},{"page_index":4,"viewing_time":7655.89999999851},{"page_index":5,"viewing_time":12897.89999999851},{"page_index":6,"viewing_time":23436.10000000149},{"page_index":7,"viewing_time":7486},{"page_index":8,"viewing_time":7018.79999999702},{"page_index":9,"viewing_time":4001.10000000149},{"page_index":10,"viewing_time":4764},{"page_index":11,"viewing_time":10529.30000000447},{"page_index":12,"viewing_time":10286.59999999404},{"page_index":13,"viewing_time":1764},{"page_index":14,"viewing_time":4230.9000000059605}],"rt":145842.29999999702,"trial_type":"instructions","trial_index":3,"time_elapsed":173032,"internal_node_id":"0.0-3.0-0.0","subject_id":"5da760eae8174b001640d369","study_id":"6197b3f67c2b5cd3b6d9596a","session_id":"619be3200778af80abd78ebe","condition":"contingent","relevant_dimensions":["antennae","pattern"],"bee_group":{"antennae":"B","wings":"X","pattern":"S","legs":"X"},"bonus":0.6800000000000009},{"rt":15643.30000000447,"response":{"Q0":["Two or six legs","Stripes or spots on body","Single or double wings","Antennae or no antennae"]},"question_order":[0],"trial_type":"survey-multi-select","trial_index":4,"time_elapsed":188677,"internal_node_id":"0.0-3.0-1.0","subject_id":"5da760eae8174b001640d369","study_id":"6197b3f67c2b5cd3b6d9596a","session_id":"619be3200778af80abd78ebe","condition":"contingent","relevant_dimensions":["antennae","pattern"],"bee_group":{"antennae":"B","wings":"X","pattern":"S","legs":"X"},"correct":true,"bonus":0.6800000000000009},{"rt":24467,"response":{"Q1":"No.","Q2":"Based on the four features of the bee.","Q3":"You do not learn if it was friendly or dangerous, and do not alter your bonus."},"question_order":[0,1,2],"trial_type":"survey-multi-choice","trial_index":5,"time_elapsed":213147,"internal_node_id":"0.0-3.0-2.0","subject_id":"5da760eae8174b001640d369","study_id":"6197b3f67c2b5cd3b6d9596a","session_id":"619be3200778af80abd78ebe","condition":"contingent","relevant_dimensions":["antennae","pattern"],"bee_group":{"antennae":"B","wings":"X","pattern":"S","legs":"X"},"correct":true,"bonus":0.6800000000000009},{"rt":4706.89999999851,"stimulus":"<p>Congrats, you got everything right<br>When you're ready, click the button below to continue to the experiment.</p>","response":0,"trial_type":"html-button-response","trial_index":6,"time_elapsed":217856,"internal_node_id":"0.0-3.0-3.0","subject_id":"5da760eae8174b001640d369","study_id":"6197b3f67c2b5cd3b6d9596a","session_id":"619be3200778af80abd78ebe","condition":"contingent","relevant_dimensions":["antennae","pattern"],"bee_group":{"antennae":"B","wings":"X","pattern":"S","legs":"X"},"bonus":0.6800000000000009},{"rt":11205.80000000447,"stimulus":"bees-with-color/bee-A1DF.svg","response":0,"trial_type":"image-button-response","trial_index":7,"time_elapsed":229064,"internal_node_id":"0.0-4.0-0.0","subject_id":"5da760eae8174b001640d369","study_id":"6197b3f67c2b5cd3b6d9596a","session_id":"619be3200778af80abd78ebe","condition":"contingent","relevant_dimensions":["antennae","pattern"],"bee_group":{"antennae":"B","wings":"X","pattern":"S","legs":"X"},"action":"harvest","summary":"good-harvest","bonus":0.6800000000000009},{"rt":18092.5,"stimulus":"\n                    <p><b>Action: <em>harvest</em></b></p>\n                    <p>This is the bee that you just saw.</p>\n                    <img src=\"bees-with-color/bee-A1DF.svg\" width=\"200\">\n                    <p><span class=\"greenText\"><b>Successful harvest!</b></span><br>Your pay has increased by $0.02. Your bonus pay is now $0.56.</p>\n            ","response":0,"trial_type":"html-button-response","trial_index":8,"time_elapsed":247158,"internal_node_id":"0.0-4.0-1.0","subject_id":"5da760eae8174b001640d369","study_id":"6197b3f67c2b5cd3b6d9596a","session_id":"619be3200778af80abd78ebe","condition":"contingent","relevant_dimensions":["antennae","pattern"],"bee_group":{"antennae":"B","wings":"X","pattern":"S","legs":"X"},"bonus":0.6800000000000009},{"rt":6187.20000000298,"stimulus":"bees-with-color/bee-A2DM.svg","response":1,"trial_type":"image-button-response","trial_index":9,"time_elapsed":253347,"internal_node_id":"0.0-4.0-0.1","subject_id":"5da760eae8174b001640d369","study_id":"6197b3f67c2b5cd3b6d9596a","session_id":"619be3200778af80abd78ebe","condition":"contingent","relevant_dimensions":["antennae","pattern"],"bee_group":{"antennae":"B","wings":"X","pattern":"S","legs":"X"},"action":"avoid","summary":"bad-avoid","bonus":0.6800000000000009},{"rt":9909.80000000447,"stimulus":"\n                    <p><b>Action: <em>avoid</em></b></p>\n                    <p>This is the bee that you just saw.</p>\n                    <img src=\"bees-with-color/bee-A2DM.svg\" width=\"200\">\n                    <p><br>Your bonus pay is unchanged, and remains at $0.56.</p>\n            ","response":0,"trial_type":"html-button-response","trial_index":10,"time_elapsed":263258,"internal_node_id":"0.0-4.0-1.1","subject_id":"5da760eae8174b001640d369","study_id":"6197b3f67c2b5cd3b6d9596a","session_id":"619be3200778af80abd78ebe","condition":"contingent","relevant_dimensions":["antennae","pattern"],"bee_group":{"antennae":"B","wings":"X","pattern":"S","legs":"X"},"bonus":0.6800000000000009},{"rt":14025.80000000447,"stimulus":"bees-with-color/bee-A1DM.svg","response":0,"trial_type":"image-button-response","trial_index":11,"time_elapsed":277285,"internal_node_id":"0.0-4.0-0.2","subject_id":"5da760eae8174b001640d369","study_id":"6197b3f67c2b5cd3b6d9596a","session_id":"619be3200778af80abd78ebe","condition":"contingent","relevant_dimensions":["antennae","pattern"],"bee_group":{"antennae":"B","wings":"X","pattern":"S","legs":"X"},"action":"harvest","summary":"good-harvest","bonus":0.6800000000000009},{"rt":13542,"stimulus":"\n                    <p><b>Action: <em>harvest</em></b></p>\n                    <p>This is the bee that you just saw.</p>\n                    <img src=\"bees-with-color/bee-A1DM.svg\" width=\"200\">\n                    <p><span class=\"greenText\"><b>Successful harvest!</b></span><br>Your pay has increased by $0.02. Your bonus pay is now $0.58.</p>\n            ","response":0,"trial_type":"html-button-response","trial_index":12,"time_elapsed":290828,"internal_node_id":"0.0-4.0-1.2","subject_id":"5da760eae8174b001640d369","study_id":"6197b3f67c2b5cd3b6d9596a","session_id":"619be3200778af80abd78ebe","condition":"contingent","relevant_dimensions":["antennae","pattern"],"bee_group":{"antennae":"B","wings":"X","pattern":"S","legs":"X"},"bonus":0.6800000000000009},{"rt":6963,"stimulus":"bees-with-color/bee-B1DF.svg","response":0,"trial_type":"image-button-response","trial_index":13,"time_elapsed":297792,"internal_node_id":"0.0-4.0-0.3","subject_id":"5da760eae8174b001640d369","study_id":"6197b3f67c2b5cd3b6d9596a","session_id":"619be3200778af80abd78ebe","condition":"contingent","relevant_dimensions":["antennae","pattern"],"bee_group":{"antennae":"B","wings":"X","pattern":"S","legs":"X"},"action":"harvest","summary":"good-harvest","bonus":0.6800000000000009},{"rt":8164,"stimulus":"\n                    <p><b>Action: <em>harvest</em></b></p>\n                    <p>This is the bee that you just saw.</p>\n                    <img src=\"bees-with-color/bee-B1DF.svg\" width=\"200\">\n                    <p><span class=\"greenText\"><b>Successful harvest!</b></span><br>Your pay has increased by $0.02. Your bonus pay is now $0.60.</p>\n            ","response":0,"trial_type":"html-button-response","trial_index":14,"time_elapsed":305958,"internal_node_id":"0.0-4.0-1.3","subject_id":"5da760eae8174b001640d369","study_id":"6197b3f67c2b5cd3b6d9596a","session_id":"619be3200778af80abd78ebe","condition":"contingent","relevant_dimensions":["antennae","pattern"],"bee_group":{"antennae":"B","wings":"X","pattern":"S","legs":"X"},"bonus":0.6800000000000009},{"rt":6369.10000000149,"stimulus":"bees-with-color/bee-B2SM.svg","response":0,"trial_type":"image-button-response","trial_index":15,"time_elapsed":312328,"internal_node_id":"0.0-4.0-0.4","subject_id":"5da760eae8174b001640d369","study_id":"6197b3f67c2b5cd3b6d9596a","session_id":"619be3200778af80abd78ebe","condition":"contingent","relevant_dimensions":["antennae","pattern"],"bee_group":{"antennae":"B","wings":"X","pattern":"S","legs":"X"},"action":"harvest","summary":"bad-harvest","bonus":0.6800000000000009},{"rt":11430,"stimulus":"\n                    <p><b>Action: <em>harvest</em></b></p>\n                    <p>This is the bee that you just saw.</p>\n                    <img src=\"bees-with-color/bee-B2SM.svg\" width=\"200\">\n                    <p><span class=\"redText\">Bad choice, the bee was angry.</span><br><b>You have been stung!</b><br>Your pay has been decreased by $0.10. Your bonus pay is now $0.50.</p>\n            ","response":0,"trial_type":"html-button-response","trial_index":16,"time_elapsed":323759,"internal_node_id":"0.0-4.0-1.4","subject_id":"5da760eae8174b001640d369","study_id":"6197b3f67c2b5cd3b6d9596a","session_id":"619be3200778af80abd78ebe","condition":"contingent","relevant_dimensions":["antennae","pattern"],"bee_group":{"antennae":"B","wings":"X","pattern":"S","legs":"X"},"bonus":0.6800000000000009},{"rt":9841.79999999702,"stimulus":"bees-with-color/bee-A1SM.svg","response":0,"trial_type":"image-button-response","trial_index":17,"time_elapsed":333602,"internal_node_id":"0.0-4.0-0.5","subject_id":"5da760eae8174b001640d369","study_id":"6197b3f67c2b5cd3b6d9596a","session_id":"619be3200778af80abd78ebe","condition":"contingent","relevant_dimensions":["antennae","pattern"],"bee_group":{"antennae":"B","wings":"X","pattern":"S","legs":"X"},"action":"harvest","summary":"good-harvest","bonus":0.6800000000000009},{"rt":5041.60000000149,"stimulus":"\n                    <p><b>Action: <em>harvest</em></b></p>\n                    <p>This is the bee that you just saw.</p>\n                    <img src=\"bees-with-color/bee-A1SM.svg\" width=\"200\">\n                    <p><span class=\"greenText\"><b>Successful harvest!</b></span><br>Your pay has increased by $0.02. Your bonus pay is now $0.52.</p>\n            ","response":0,"trial_type":"html-button-response","trial_index":18,"time_elapsed":338644,"internal_node_id":"0.0-4.0-1.5","subject_id":"5da760eae8174b001640d369","study_id":"6197b3f67c2b5cd3b6d9596a","session_id":"619be3200778af80abd78ebe","condition":"contingent","relevant_dimensions":["antennae","pattern"],"bee_group":{"antennae":"B","wings":"X","pattern":"S","legs":"X"},"bonus":0.6800000000000009},{"rt":3653.10000000149,"stimulus":"bees-with-color/bee-B1SM.svg","response":0,"trial_type":"image-button-response","trial_index":19,"time_elapsed":342299,"internal_node_id":"0.0-4.0-0.6","subject_id":"5da760eae8174b001640d369","study_id":"6197b3f67c2b5cd3b6d9596a","session_id":"619be3200778af80abd78ebe","condition":"contingent","relevant_dimensions":["antennae","pattern"],"bee_group":{"antennae":"B","wings":"X","pattern":"S","legs":"X"},"action":"harvest","summary":"bad-harvest","bonus":0.6800000000000009},{"rt":19916,"stimulus":"\n                    <p><b>Action: <em>harvest</em></b></p>\n                    <p>This is the bee that you just saw.</p>\n                    <img src=\"bees-with-color/bee-B1SM.svg\" width=\"200\">\n                    <p><span class=\"redText\">Bad choice, the bee was angry.</span><br><b>You have been stung!</b><br>Your pay has been decreased by $0.10. Your bonus pay is now $0.42.</p>\n            ","response":0,"trial_type":"html-button-response","trial_index":20,"time_elapsed":362216,"internal_node_id":"0.0-4.0-1.6","subject_id":"5da760eae8174b001640d369","study_id":"6197b3f67c2b5cd3b6d9596a","session_id":"619be3200778af80abd78ebe","condition":"contingent","relevant_dimensions":["antennae","pattern"],"bee_group":{"antennae":"B","wings":"X","pattern":"S","legs":"X"},"bonus":0.6800000000000009},{"rt":12241.79999999702,"stimulus":"bees-with-color/bee-A1SF.svg","response":0,"trial_type":"image-button-response","trial_index":21,"time_elapsed":374458,"internal_node_id":"0.0-4.0-0.7","subject_id":"5da760eae8174b001640d369","study_id":"6197b3f67c2b5cd3b6d9596a","session_id":"619be3200778af80abd78ebe","condition":"contingent","relevant_dimensions":["antennae","pattern"],"bee_group":{"antennae":"B","wings":"X","pattern":"S","legs":"X"},"action":"harvest","summary":"good-harvest","bonus":0.6800000000000009},{"rt":11891.30000000447,"stimulus":"\n                    <p><b>Action: <em>harvest</em></b></p>\n                    <p>This is the bee that you just saw.</p>\n                    <img src=\"bees-with-color/bee-A1SF.svg\" width=\"200\">\n                    <p><span class=\"greenText\"><b>Successful harvest!</b></span><br>Your pay has increased by $0.02. Your bonus pay is now $0.44.</p>\n            ","response":0,"trial_type":"html-button-response","trial_index":22,"time_elapsed":386350,"internal_node_id":"0.0-4.0-1.7","subject_id":"5da760eae8174b001640d369","study_id":"6197b3f67c2b5cd3b6d9596a","session_id":"619be3200778af80abd78ebe","condition":"contingent","relevant_dimensions":["antennae","pattern"],"bee_group":{"antennae":"B","wings":"X","pattern":"S","legs":"X"},"bonus":0.6800000000000009},{"rt":1695.5,"stimulus":"bees-with-color/bee-B2DM.svg","response":0,"trial_type":"image-button-response","trial_index":23,"time_elapsed":388047,"internal_node_id":"0.0-4.0-0.8","subject_id":"5da760eae8174b001640d369","study_id":"6197b3f67c2b5cd3b6d9596a","session_id":"619be3200778af80abd78ebe","condition":"contingent","relevant_dimensions":["antennae","pattern"],"bee_group":{"antennae":"B","wings":"X","pattern":"S","legs":"X"},"action":"harvest","summary":"good-harvest","bonus":0.6800000000000009},{"rt":3951.1999999955297,"stimulus":"\n                    <p><b>Action: <em>harvest</em></b></p>\n                    <p>This is the bee that you just saw.</p>\n                    <img src=\"bees-with-color/bee-B2DM.svg\" width=\"200\">\n                    <p><span class=\"greenText\"><b>Successful harvest!</b></span><br>Your pay has increased by $0.02. Your bonus pay is now $0.46.</p>\n            ","response":0,"trial_type":"html-button-response","trial_index":24,"time_elapsed":391999,"internal_node_id":"0.0-4.0-1.8","subject_id":"5da760eae8174b001640d369","study_id":"6197b3f67c2b5cd3b6d9596a","session_id":"619be3200778af80abd78ebe","condition":"contingent","relevant_dimensions":["antennae","pattern"],"bee_group":{"antennae":"B","wings":"X","pattern":"S","legs":"X"},"bonus":0.6800000000000009},{"rt":2884,"stimulus":"bees-with-color/bee-B2SF.svg","response":0,"trial_type":"image-button-response","trial_index":25,"time_elapsed":394884,"internal_node_id":"0.0-4.0-0.9","subject_id":"5da760eae8174b001640d369","study_id":"6197b3f67c2b5cd3b6d9596a","session_id":"619be3200778af80abd78ebe","condition":"contingent","relevant_dimensions":["antennae","pattern"],"bee_group":{"antennae":"B","wings":"X","pattern":"S","legs":"X"},"action":"harvest","summary":"bad-harvest","bonus":0.6800000000000009},{"rt":11546.39999999851,"stimulus":"\n                    <p><b>Action: <em>harvest</em></b></p>\n                    <p>This is the bee that you just saw.</p>\n                    <img src=\"bees-with-color/bee-B2SF.svg\" width=\"200\">\n                    <p><span class=\"redText\">Bad choice, the bee was angry.</span><br><b>You have been stung!</b><br>Your pay has been decreased by $0.10. Your bonus pay is now $0.36.</p>\n            ","response":0,"trial_type":"html-button-response","trial_index":26,"time_elapsed":406431,"internal_node_id":"0.0-4.0-1.9","subject_id":"5da760eae8174b001640d369","study_id":"6197b3f67c2b5cd3b6d9596a","session_id":"619be3200778af80abd78ebe","condition":"contingent","relevant_dimensions":["antennae","pattern"],"bee_group":{"antennae":"B","wings":"X","pattern":"S","legs":"X"},"bonus":0.6800000000000009},{"rt":13035.79999999702,"stimulus":"bees-with-color/bee-B1SF.svg","response":0,"trial_type":"image-button-response","trial_index":27,"time_elapsed":419468,"internal_node_id":"0.0-4.0-0.10","subject_id":"5da760eae8174b001640d369","study_id":"6197b3f67c2b5cd3b6d9596a","session_id":"619be3200778af80abd78ebe","condition":"contingent","relevant_dimensions":["antennae","pattern"],"bee_group":{"antennae":"B","wings":"X","pattern":"S","legs":"X"},"action":"harvest","summary":"bad-harvest","bonus":0.6800000000000009},{"rt":2065.7999999970198,"stimulus":"\n                    <p><b>Action: <em>harvest</em></b></p>\n                    <p>This is the bee that you just saw.</p>\n                    <img src=\"bees-with-color/bee-B1SF.svg\" width=\"200\">\n                    <p><span class=\"redText\">Bad choice, the bee was angry.</span><br><b>You have been stung!</b><br>Your pay has been decreased by $0.10. Your bonus pay is now $0.26.</p>\n            ","response":0,"trial_type":"html-button-response","trial_index":28,"time_elapsed":421535,"internal_node_id":"0.0-4.0-1.10","subject_id":"5da760eae8174b001640d369","study_id":"6197b3f67c2b5cd3b6d9596a","session_id":"619be3200778af80abd78ebe","condition":"contingent","relevant_dimensions":["antennae","pattern"],"bee_group":{"antennae":"B","wings":"X","pattern":"S","legs":"X"},"bonus":0.6800000000000009},{"rt":4646.69999999553,"stimulus":"bees-with-color/bee-A2SM.svg","response":0,"trial_type":"image-button-response","trial_index":29,"time_elapsed":426183,"internal_node_id":"0.0-4.0-0.11","subject_id":"5da760eae8174b001640d369","study_id":"6197b3f67c2b5cd3b6d9596a","session_id":"619be3200778af80abd78ebe","condition":"contingent","relevant_dimensions":["antennae","pattern"],"bee_group":{"antennae":"B","wings":"X","pattern":"S","legs":"X"},"action":"harvest","summary":"good-harvest","bonus":0.6800000000000009},{"rt":1690,"stimulus":"\n                    <p><b>Action: <em>harvest</em></b></p>\n                    <p>This is the bee that you just saw.</p>\n                    <img src=\"bees-with-color/bee-A2SM.svg\" width=\"200\">\n                    <p><span class=\"greenText\"><b>Successful harvest!</b></span><br>Your pay has increased by $0.02. Your bonus pay is now $0.28.</p>\n            ","response":0,"trial_type":"html-button-response","trial_index":30,"time_elapsed":427874,"internal_node_id":"0.0-4.0-1.11","subject_id":"5da760eae8174b001640d369","study_id":"6197b3f67c2b5cd3b6d9596a","session_id":"619be3200778af80abd78ebe","condition":"contingent","relevant_dimensions":["antennae","pattern"],"bee_group":{"antennae":"B","wings":"X","pattern":"S","legs":"X"},"bonus":0.6800000000000009},{"rt":1599,"stimulus":"bees-with-color/bee-A2SF.svg","response":0,"trial_type":"image-button-response","trial_index":31,"time_elapsed":429474,"internal_node_id":"0.0-4.0-0.12","subject_id":"5da760eae8174b001640d369","study_id":"6197b3f67c2b5cd3b6d9596a","session_id":"619be3200778af80abd78ebe","condition":"contingent","relevant_dimensions":["antennae","pattern"],"bee_group":{"antennae":"B","wings":"X","pattern":"S","legs":"X"},"action":"harvest","summary":"good-harvest","bonus":0.6800000000000009},{"rt":2060.39999999851,"stimulus":"\n                    <p><b>Action: <em>harvest</em></b></p>\n                    <p>This is the bee that you just saw.</p>\n                    <img src=\"bees-with-color/bee-A2SF.svg\" width=\"200\">\n                    <p><span class=\"greenText\"><b>Successful harvest!</b></span><br>Your pay has increased by $0.02. Your bonus pay is now $0.30.</p>\n            ","response":0,"trial_type":"html-button-response","trial_index":32,"time_elapsed":431536,"internal_node_id":"0.0-4.0-1.12","subject_id":"5da760eae8174b001640d369","study_id":"6197b3f67c2b5cd3b6d9596a","session_id":"619be3200778af80abd78ebe","condition":"contingent","relevant_dimensions":["antennae","pattern"],"bee_group":{"antennae":"B","wings":"X","pattern":"S","legs":"X"},"bonus":0.6800000000000009},{"rt":1513.6999999955297,"stimulus":"bees-with-color/bee-B2DF.svg","response":1,"trial_type":"image-button-response","trial_index":33,"time_elapsed":433051,"internal_node_id":"0.0-4.0-0.13","subject_id":"5da760eae8174b001640d369","study_id":"6197b3f67c2b5cd3b6d9596a","session_id":"619be3200778af80abd78ebe","condition":"contingent","relevant_dimensions":["antennae","pattern"],"bee_group":{"antennae":"B","wings":"X","pattern":"S","legs":"X"},"action":"avoid","summary":"bad-avoid","bonus":0.6800000000000009},{"rt":1648.0999999940395,"stimulus":"\n                    <p><b>Action: <em>avoid</em></b></p>\n                    <p>This is the bee that you just saw.</p>\n                    <img src=\"bees-with-color/bee-B2DF.svg\" width=\"200\">\n                    <p><br>Your bonus pay is unchanged, and remains at $0.30.</p>\n            ","response":0,"trial_type":"html-button-response","trial_index":34,"time_elapsed":434700,"internal_node_id":"0.0-4.0-1.13","subject_id":"5da760eae8174b001640d369","study_id":"6197b3f67c2b5cd3b6d9596a","session_id":"619be3200778af80abd78ebe","condition":"contingent","relevant_dimensions":["antennae","pattern"],"bee_group":{"antennae":"B","wings":"X","pattern":"S","legs":"X"},"bonus":0.6800000000000009},{"rt":1828.8999999985099,"stimulus":"bees-with-color/bee-A2DF.svg","response":0,"trial_type":"image-button-response","trial_index":35,"time_elapsed":436529,"internal_node_id":"0.0-4.0-0.14","subject_id":"5da760eae8174b001640d369","study_id":"6197b3f67c2b5cd3b6d9596a","session_id":"619be3200778af80abd78ebe","condition":"contingent","relevant_dimensions":["antennae","pattern"],"bee_group":{"antennae":"B","wings":"X","pattern":"S","legs":"X"},"action":"harvest","summary":"good-harvest","bonus":0.6800000000000009},{"rt":1303.2999999970198,"stimulus":"\n                    <p><b>Action: <em>harvest</em></b></p>\n                    <p>This is the bee that you just saw.</p>\n                    <img src=\"bees-with-color/bee-A2DF.svg\" width=\"200\">\n                    <p><span class=\"greenText\"><b>Successful harvest!</b></span><br>Your pay has increased by $0.02. Your bonus pay is now $0.32.</p>\n            ","response":0,"trial_type":"html-button-response","trial_index":36,"time_elapsed":437834,"internal_node_id":"0.0-4.0-1.14","subject_id":"5da760eae8174b001640d369","study_id":"6197b3f67c2b5cd3b6d9596a","session_id":"619be3200778af80abd78ebe","condition":"contingent","relevant_dimensions":["antennae","pattern"],"bee_group":{"antennae":"B","wings":"X","pattern":"S","legs":"X"},"bonus":0.6800000000000009},{"rt":1828.7000000029802,"stimulus":"bees-with-color/bee-B1DM.svg","response":0,"trial_type":"image-button-response","trial_index":37,"time_elapsed":439663,"internal_node_id":"0.0-4.0-0.15","subject_id":"5da760eae8174b001640d369","study_id":"6197b3f67c2b5cd3b6d9596a","session_id":"619be3200778af80abd78ebe","condition":"contingent","relevant_dimensions":["antennae","pattern"],"bee_group":{"antennae":"B","wings":"X","pattern":"S","legs":"X"},"action":"harvest","summary":"good-harvest","bonus":0.6800000000000009},{"rt":1036.3999999985099,"stimulus":"\n                    <p><b>Action: <em>harvest</em></b></p>\n                    <p>This is the bee that you just saw.</p>\n                    <img src=\"bees-with-color/bee-B1DM.svg\" width=\"200\">\n                    <p><span class=\"greenText\"><b>Successful harvest!</b></span><br>Your pay has increased by $0.02. Your bonus pay is now $0.34.</p>\n            ","response":0,"trial_type":"html-button-response","trial_index":38,"time_elapsed":440701,"internal_node_id":"0.0-4.0-1.15","subject_id":"5da760eae8174b001640d369","study_id":"6197b3f67c2b5cd3b6d9596a","session_id":"619be3200778af80abd78ebe","condition":"contingent","relevant_dimensions":["antennae","pattern"],"bee_group":{"antennae":"B","wings":"X","pattern":"S","legs":"X"},"bonus":0.6800000000000009},{"rt":2865.1999999955297,"stimulus":"bees-with-color/bee-B2SM.svg","response":1,"trial_type":"image-button-response","trial_index":39,"time_elapsed":443567,"internal_node_id":"0.0-4.0-0.16","subject_id":"5da760eae8174b001640d369","study_id":"6197b3f67c2b5cd3b6d9596a","session_id":"619be3200778af80abd78ebe","condition":"contingent","relevant_dimensions":["antennae","pattern"],"bee_group":{"antennae":"B","wings":"X","pattern":"S","legs":"X"},"action":"avoid","summary":"good-avoid","bonus":0.6800000000000009},{"rt":800.1000000014901,"stimulus":"\n                    <p><b>Action: <em>avoid</em></b></p>\n                    <p>This is the bee that you just saw.</p>\n                    <img src=\"bees-with-color/bee-B2SM.svg\" width=\"200\">\n                    <p><br>Your bonus pay is unchanged, and remains at $0.34.</p>\n            ","response":0,"trial_type":"html-button-response","trial_index":40,"time_elapsed":444367,"internal_node_id":"0.0-4.0-1.16","subject_id":"5da760eae8174b001640d369","study_id":"6197b3f67c2b5cd3b6d9596a","session_id":"619be3200778af80abd78ebe","condition":"contingent","relevant_dimensions":["antennae","pattern"],"bee_group":{"antennae":"B","wings":"X","pattern":"S","legs":"X"},"bonus":0.6800000000000009},{"rt":1471.0999999940395,"stimulus":"bees-with-color/bee-B1SM.svg","response":0,"trial_type":"image-button-response","trial_index":41,"time_elapsed":445840,"internal_node_id":"0.0-4.0-0.17","subject_id":"5da760eae8174b001640d369","study_id":"6197b3f67c2b5cd3b6d9596a","session_id":"619be3200778af80abd78ebe","condition":"contingent","relevant_dimensions":["antennae","pattern"],"bee_group":{"antennae":"B","wings":"X","pattern":"S","legs":"X"},"action":"harvest","summary":"bad-harvest","bonus":0.6800000000000009},{"rt":1042.2999999970198,"stimulus":"\n                    <p><b>Action: <em>harvest</em></b></p>\n                    <p>This is the bee that you just saw.</p>\n                    <img src=\"bees-with-color/bee-B1SM.svg\" width=\"200\">\n                    <p><span class=\"redText\">Bad choice, the bee was angry.</span><br><b>You have been stung!</b><br>Your pay has been decreased by $0.10. Your bonus pay is now $0.24.</p>\n            ","response":0,"trial_type":"html-button-response","trial_index":42,"time_elapsed":446882,"internal_node_id":"0.0-4.0-1.17","subject_id":"5da760eae8174b001640d369","study_id":"6197b3f67c2b5cd3b6d9596a","session_id":"619be3200778af80abd78ebe","condition":"contingent","relevant_dimensions":["antennae","pattern"],"bee_group":{"antennae":"B","wings":"X","pattern":"S","legs":"X"},"bonus":0.6800000000000009},{"rt":1102.1999999955297,"stimulus":"bees-with-color/bee-A2SM.svg","response":0,"trial_type":"image-button-response","trial_index":43,"time_elapsed":447985,"internal_node_id":"0.0-4.0-0.18","subject_id":"5da760eae8174b001640d369","study_id":"6197b3f67c2b5cd3b6d9596a","session_id":"619be3200778af80abd78ebe","condition":"contingent","relevant_dimensions":["antennae","pattern"],"bee_group":{"antennae":"B","wings":"X","pattern":"S","legs":"X"},"action":"harvest","summary":"good-harvest","bonus":0.6800000000000009},{"rt":1254.2999999970198,"stimulus":"\n                    <p><b>Action: <em>harvest</em></b></p>\n                    <p>This is the bee that you just saw.</p>\n                    <img src=\"bees-with-color/bee-A2SM.svg\" width=\"200\">\n                    <p><span class=\"greenText\"><b>Successful harvest!</b></span><br>Your pay has increased by $0.02. Your bonus pay is now $0.26.</p>\n            ","response":0,"trial_type":"html-button-response","trial_index":44,"time_elapsed":449241,"internal_node_id":"0.0-4.0-1.18","subject_id":"5da760eae8174b001640d369","study_id":"6197b3f67c2b5cd3b6d9596a","session_id":"619be3200778af80abd78ebe","condition":"contingent","relevant_dimensions":["antennae","pattern"],"bee_group":{"antennae":"B","wings":"X","pattern":"S","legs":"X"},"bonus":0.6800000000000009},{"rt":1520.6000000014901,"stimulus":"bees-with-color/bee-B1DF.svg","response":0,"trial_type":"image-button-response","trial_index":45,"time_elapsed":450762,"internal_node_id":"0.0-4.0-0.19","subject_id":"5da760eae8174b001640d369","study_id":"6197b3f67c2b5cd3b6d9596a","session_id":"619be3200778af80abd78ebe","condition":"contingent","relevant_dimensions":["antennae","pattern"],"bee_group":{"antennae":"B","wings":"X","pattern":"S","legs":"X"},"action":"harvest","summary":"good-harvest","bonus":0.6800000000000009},{"rt":944.8999999985099,"stimulus":"\n                    <p><b>Action: <em>harvest</em></b></p>\n                    <p>This is the bee that you just saw.</p>\n                    <img src=\"bees-with-color/bee-B1DF.svg\" width=\"200\">\n                    <p><span class=\"greenText\"><b>Successful harvest!</b></span><br>Your pay has increased by $0.02. Your bonus pay is now $0.28.</p>\n            ","response":0,"trial_type":"html-button-response","trial_index":46,"time_elapsed":451707,"internal_node_id":"0.0-4.0-1.19","subject_id":"5da760eae8174b001640d369","study_id":"6197b3f67c2b5cd3b6d9596a","session_id":"619be3200778af80abd78ebe","condition":"contingent","relevant_dimensions":["antennae","pattern"],"bee_group":{"antennae":"B","wings":"X","pattern":"S","legs":"X"},"bonus":0.6800000000000009},{"rt":1962.2000000029802,"stimulus":"bees-with-color/bee-A1SF.svg","response":0,"trial_type":"image-button-response","trial_index":47,"time_elapsed":453671,"internal_node_id":"0.0-4.0-0.20","subject_id":"5da760eae8174b001640d369","study_id":"6197b3f67c2b5cd3b6d9596a","session_id":"619be3200778af80abd78ebe","condition":"contingent","relevant_dimensions":["antennae","pattern"],"bee_group":{"antennae":"B","wings":"X","pattern":"S","legs":"X"},"action":"harvest","summary":"good-harvest","bonus":0.6800000000000009},{"rt":981.7999999970198,"stimulus":"\n                    <p><b>Action: <em>harvest</em></b></p>\n                    <p>This is the bee that you just saw.</p>\n                    <img src=\"bees-with-color/bee-A1SF.svg\" width=\"200\">\n                    <p><span class=\"greenText\"><b>Successful harvest!</b></span><br>Your pay has increased by $0.02. Your bonus pay is now $0.30.</p>\n            ","response":0,"trial_type":"html-button-response","trial_index":48,"time_elapsed":454654,"internal_node_id":"0.0-4.0-1.20","subject_id":"5da760eae8174b001640d369","study_id":"6197b3f67c2b5cd3b6d9596a","session_id":"619be3200778af80abd78ebe","condition":"contingent","relevant_dimensions":["antennae","pattern"],"bee_group":{"antennae":"B","wings":"X","pattern":"S","legs":"X"},"bonus":0.6800000000000009},{"rt":1398.7000000029802,"stimulus":"bees-with-color/bee-A1DM.svg","response":1,"trial_type":"image-button-response","trial_index":49,"time_elapsed":456053,"internal_node_id":"0.0-4.0-0.21","subject_id":"5da760eae8174b001640d369","study_id":"6197b3f67c2b5cd3b6d9596a","session_id":"619be3200778af80abd78ebe","condition":"contingent","relevant_dimensions":["antennae","pattern"],"bee_group":{"antennae":"B","wings":"X","pattern":"S","legs":"X"},"action":"avoid","summary":"bad-avoid","bonus":0.6800000000000009},{"rt":1199.3999999985099,"stimulus":"\n                    <p><b>Action: <em>avoid</em></b></p>\n                    <p>This is the bee that you just saw.</p>\n                    <img src=\"bees-with-color/bee-A1DM.svg\" width=\"200\">\n                    <p><br>Your bonus pay is unchanged, and remains at $0.30.</p>\n            ","response":0,"trial_type":"html-button-response","trial_index":50,"time_elapsed":457254,"internal_node_id":"0.0-4.0-1.21","subject_id":"5da760eae8174b001640d369","study_id":"6197b3f67c2b5cd3b6d9596a","session_id":"619be3200778af80abd78ebe","condition":"contingent","relevant_dimensions":["antennae","pattern"],"bee_group":{"antennae":"B","wings":"X","pattern":"S","legs":"X"},"bonus":0.6800000000000009},{"rt":1417.1000000014901,"stimulus":"bees-with-color/bee-B2DM.svg","response":0,"trial_type":"image-button-response","trial_index":51,"time_elapsed":458672,"internal_node_id":"0.0-4.0-0.22","subject_id":"5da760eae8174b001640d369","study_id":"6197b3f67c2b5cd3b6d9596a","session_id":"619be3200778af80abd78ebe","condition":"contingent","relevant_dimensions":["antennae","pattern"],"bee_group":{"antennae":"B","wings":"X","pattern":"S","legs":"X"},"action":"harvest","summary":"good-harvest","bonus":0.6800000000000009},{"rt":1022.9000000059605,"stimulus":"\n                    <p><b>Action: <em>harvest</em></b></p>\n                    <p>This is the bee that you just saw.</p>\n                    <img src=\"bees-with-color/bee-B2DM.svg\" width=\"200\">\n                    <p><span class=\"greenText\"><b>Successful harvest!</b></span><br>Your pay has increased by $0.02. Your bonus pay is now $0.32.</p>\n            ","response":0,"trial_type":"html-button-response","trial_index":52,"time_elapsed":459695,"internal_node_id":"0.0-4.0-1.22","subject_id":"5da760eae8174b001640d369","study_id":"6197b3f67c2b5cd3b6d9596a","session_id":"619be3200778af80abd78ebe","condition":"contingent","relevant_dimensions":["antennae","pattern"],"bee_group":{"antennae":"B","wings":"X","pattern":"S","legs":"X"},"bonus":0.6800000000000009},{"rt":1727,"stimulus":"bees-with-color/bee-A2DM.svg","response":0,"trial_type":"image-button-response","trial_index":53,"time_elapsed":461423,"internal_node_id":"0.0-4.0-0.23","subject_id":"5da760eae8174b001640d369","study_id":"6197b3f67c2b5cd3b6d9596a","session_id":"619be3200778af80abd78ebe","condition":"contingent","relevant_dimensions":["antennae","pattern"],"bee_group":{"antennae":"B","wings":"X","pattern":"S","legs":"X"},"action":"harvest","summary":"good-harvest","bonus":0.6800000000000009},{"rt":914.5,"stimulus":"\n                    <p><b>Action: <em>harvest</em></b></p>\n                    <p>This is the bee that you just saw.</p>\n                    <img src=\"bees-with-color/bee-A2DM.svg\" width=\"200\">\n                    <p><span class=\"greenText\"><b>Successful harvest!</b></span><br>Your pay has increased by $0.02. Your bonus pay is now $0.34.</p>\n            ","response":0,"trial_type":"html-button-response","trial_index":54,"time_elapsed":462339,"internal_node_id":"0.0-4.0-1.23","subject_id":"5da760eae8174b001640d369","study_id":"6197b3f67c2b5cd3b6d9596a","session_id":"619be3200778af80abd78ebe","condition":"contingent","relevant_dimensions":["antennae","pattern"],"bee_group":{"antennae":"B","wings":"X","pattern":"S","legs":"X"},"bonus":0.6800000000000009},{"rt":987.1999999955297,"stimulus":"bees-with-color/bee-B1SF.svg","response":1,"trial_type":"image-button-response","trial_index":55,"time_elapsed":463326,"internal_node_id":"0.0-4.0-0.24","subject_id":"5da760eae8174b001640d369","study_id":"6197b3f67c2b5cd3b6d9596a","session_id":"619be3200778af80abd78ebe","condition":"contingent","relevant_dimensions":["antennae","pattern"],"bee_group":{"antennae":"B","wings":"X","pattern":"S","legs":"X"},"action":"avoid","summary":"good-avoid","bonus":0.6800000000000009},{"rt":1466,"stimulus":"\n                    <p><b>Action: <em>avoid</em></b></p>\n                    <p>This is the bee that you just saw.</p>\n                    <img src=\"bees-with-color/bee-B1SF.svg\" width=\"200\">\n                    <p><br>Your bonus pay is unchanged, and remains at $0.34.</p>\n            ","response":0,"trial_type":"html-button-response","trial_index":56,"time_elapsed":464793,"internal_node_id":"0.0-4.0-1.24","subject_id":"5da760eae8174b001640d369","study_id":"6197b3f67c2b5cd3b6d9596a","session_id":"619be3200778af80abd78ebe","condition":"contingent","relevant_dimensions":["antennae","pattern"],"bee_group":{"antennae":"B","wings":"X","pattern":"S","legs":"X"},"bonus":0.6800000000000009},{"rt":1338.3999999985099,"stimulus":"bees-with-color/bee-A1SM.svg","response":0,"trial_type":"image-button-response","trial_index":57,"time_elapsed":466133,"internal_node_id":"0.0-4.0-0.25","subject_id":"5da760eae8174b001640d369","study_id":"6197b3f67c2b5cd3b6d9596a","session_id":"619be3200778af80abd78ebe","condition":"contingent","relevant_dimensions":["antennae","pattern"],"bee_group":{"antennae":"B","wings":"X","pattern":"S","legs":"X"},"action":"harvest","summary":"good-harvest","bonus":0.6800000000000009},{"rt":926.7000000029802,"stimulus":"\n                    <p><b>Action: <em>harvest</em></b></p>\n                    <p>This is the bee that you just saw.</p>\n                    <img src=\"bees-with-color/bee-A1SM.svg\" width=\"200\">\n                    <p><span class=\"greenText\"><b>Successful harvest!</b></span><br>Your pay has increased by $0.02. Your bonus pay is now $0.36.</p>\n            ","response":0,"trial_type":"html-button-response","trial_index":58,"time_elapsed":467060,"internal_node_id":"0.0-4.0-1.25","subject_id":"5da760eae8174b001640d369","study_id":"6197b3f67c2b5cd3b6d9596a","session_id":"619be3200778af80abd78ebe","condition":"contingent","relevant_dimensions":["antennae","pattern"],"bee_group":{"antennae":"B","wings":"X","pattern":"S","legs":"X"},"bonus":0.6800000000000009},{"rt":1186.5,"stimulus":"bees-with-color/bee-B2SF.svg","response":0,"trial_type":"image-button-response","trial_index":59,"time_elapsed":468248,"internal_node_id":"0.0-4.0-0.26","subject_id":"5da760eae8174b001640d369","study_id":"6197b3f67c2b5cd3b6d9596a","session_id":"619be3200778af80abd78ebe","condition":"contingent","relevant_dimensions":["antennae","pattern"],"bee_group":{"antennae":"B","wings":"X","pattern":"S","legs":"X"},"action":"harvest","summary":"bad-harvest","bonus":0.6800000000000009},{"rt":4412.10000000149,"stimulus":"\n                    <p><b>Action: <em>harvest</em></b></p>\n                    <p>This is the bee that you just saw.</p>\n                    <img src=\"bees-with-color/bee-B2SF.svg\" width=\"200\">\n                    <p><span class=\"redText\">Bad choice, the bee was angry.</span><br><b>You have been stung!</b><br>Your pay has been decreased by $0.10. Your bonus pay is now $0.26.</p>\n            ","response":0,"trial_type":"html-button-response","trial_index":60,"time_elapsed":472661,"internal_node_id":"0.0-4.0-1.26","subject_id":"5da760eae8174b001640d369","study_id":"6197b3f67c2b5cd3b6d9596a","session_id":"619be3200778af80abd78ebe","condition":"contingent","relevant_dimensions":["antennae","pattern"],"bee_group":{"antennae":"B","wings":"X","pattern":"S","legs":"X"},"bonus":0.6800000000000009},{"rt":1520,"stimulus":"bees-with-color/bee-B1DM.svg","response":0,"trial_type":"image-button-response","trial_index":61,"time_elapsed":474182,"internal_node_id":"0.0-4.0-0.27","subject_id":"5da760eae8174b001640d369","study_id":"6197b3f67c2b5cd3b6d9596a","session_id":"619be3200778af80abd78ebe","condition":"contingent","relevant_dimensions":["antennae","pattern"],"bee_group":{"antennae":"B","wings":"X","pattern":"S","legs":"X"},"action":"harvest","summary":"good-harvest","bonus":0.6800000000000009},{"rt":1551,"stimulus":"\n                    <p><b>Action: <em>harvest</em></b></p>\n                    <p>This is the bee that you just saw.</p>\n                    <img src=\"bees-with-color/bee-B1DM.svg\" width=\"200\">\n                    <p><span class=\"greenText\"><b>Successful harvest!</b></span><br>Your pay has increased by $0.02. Your bonus pay is now $0.28.</p>\n            ","response":0,"trial_type":"html-button-response","trial_index":62,"time_elapsed":475734,"internal_node_id":"0.0-4.0-1.27","subject_id":"5da760eae8174b001640d369","study_id":"6197b3f67c2b5cd3b6d9596a","session_id":"619be3200778af80abd78ebe","condition":"contingent","relevant_dimensions":["antennae","pattern"],"bee_group":{"antennae":"B","wings":"X","pattern":"S","legs":"X"},"bonus":0.6800000000000009},{"rt":3072.0999999940395,"stimulus":"bees-with-color/bee-A2DF.svg","response":0,"trial_type":"image-button-response","trial_index":63,"time_elapsed":478806,"internal_node_id":"0.0-4.0-0.28","subject_id":"5da760eae8174b001640d369","study_id":"6197b3f67c2b5cd3b6d9596a","session_id":"619be3200778af80abd78ebe","condition":"contingent","relevant_dimensions":["antennae","pattern"],"bee_group":{"antennae":"B","wings":"X","pattern":"S","legs":"X"},"action":"harvest","summary":"good-harvest","bonus":0.6800000000000009},{"rt":1035.3000000044703,"stimulus":"\n                    <p><b>Action: <em>harvest</em></b></p>\n                    <p>This is the bee that you just saw.</p>\n                    <img src=\"bees-with-color/bee-A2DF.svg\" width=\"200\">\n                    <p><span class=\"greenText\"><b>Successful harvest!</b></span><br>Your pay has increased by $0.02. Your bonus pay is now $0.30.</p>\n            ","response":0,"trial_type":"html-button-response","trial_index":64,"time_elapsed":479842,"internal_node_id":"0.0-4.0-1.28","subject_id":"5da760eae8174b001640d369","study_id":"6197b3f67c2b5cd3b6d9596a","session_id":"619be3200778af80abd78ebe","condition":"contingent","relevant_dimensions":["antennae","pattern"],"bee_group":{"antennae":"B","wings":"X","pattern":"S","legs":"X"},"bonus":0.6800000000000009},{"rt":2338,"stimulus":"bees-with-color/bee-A2SF.svg","response":1,"trial_type":"image-button-response","trial_index":65,"time_elapsed":482181,"internal_node_id":"0.0-4.0-0.29","subject_id":"5da760eae8174b001640d369","study_id":"6197b3f67c2b5cd3b6d9596a","session_id":"619be3200778af80abd78ebe","condition":"contingent","relevant_dimensions":["antennae","pattern"],"bee_group":{"antennae":"B","wings":"X","pattern":"S","legs":"X"},"action":"avoid","summary":"bad-avoid","bonus":0.6800000000000009},{"rt":975.2999999970198,"stimulus":"\n                    <p><b>Action: <em>avoid</em></b></p>\n                    <p>This is the bee that you just saw.</p>\n                    <img src=\"bees-with-color/bee-A2SF.svg\" width=\"200\">\n                    <p><br>Your bonus pay is unchanged, and remains at $0.30.</p>\n            ","response":0,"trial_type":"html-button-response","trial_index":66,"time_elapsed":483157,"internal_node_id":"0.0-4.0-1.29","subject_id":"5da760eae8174b001640d369","study_id":"6197b3f67c2b5cd3b6d9596a","session_id":"619be3200778af80abd78ebe","condition":"contingent","relevant_dimensions":["antennae","pattern"],"bee_group":{"antennae":"B","wings":"X","pattern":"S","legs":"X"},"bonus":0.6800000000000009},{"rt":1345.1999999955297,"stimulus":"bees-with-color/bee-A1DF.svg","response":0,"trial_type":"image-button-response","trial_index":67,"time_elapsed":484503,"internal_node_id":"0.0-4.0-0.30","subject_id":"5da760eae8174b001640d369","study_id":"6197b3f67c2b5cd3b6d9596a","session_id":"619be3200778af80abd78ebe","condition":"contingent","relevant_dimensions":["antennae","pattern"],"bee_group":{"antennae":"B","wings":"X","pattern":"S","legs":"X"},"action":"harvest","summary":"good-harvest","bonus":0.6800000000000009},{"rt":932.1000000014901,"stimulus":"\n                    <p><b>Action: <em>harvest</em></b></p>\n                    <p>This is the bee that you just saw.</p>\n                    <img src=\"bees-with-color/bee-A1DF.svg\" width=\"200\">\n                    <p><span class=\"greenText\"><b>Successful harvest!</b></span><br>Your pay has increased by $0.02. Your bonus pay is now $0.32.</p>\n            ","response":0,"trial_type":"html-button-response","trial_index":68,"time_elapsed":485436,"internal_node_id":"0.0-4.0-1.30","subject_id":"5da760eae8174b001640d369","study_id":"6197b3f67c2b5cd3b6d9596a","session_id":"619be3200778af80abd78ebe","condition":"contingent","relevant_dimensions":["antennae","pattern"],"bee_group":{"antennae":"B","wings":"X","pattern":"S","legs":"X"},"bonus":0.6800000000000009},{"rt":1636.1000000014901,"stimulus":"bees-with-color/bee-B2DF.svg","response":1,"trial_type":"image-button-response","trial_index":69,"time_elapsed":487073,"internal_node_id":"0.0-4.0-0.31","subject_id":"5da760eae8174b001640d369","study_id":"6197b3f67c2b5cd3b6d9596a","session_id":"619be3200778af80abd78ebe","condition":"contingent","relevant_dimensions":["antennae","pattern"],"bee_group":{"antennae":"B","wings":"X","pattern":"S","legs":"X"},"action":"avoid","summary":"bad-avoid","bonus":0.6800000000000009},{"rt":841.3000000044703,"stimulus":"\n                    <p><b>Action: <em>avoid</em></b></p>\n                    <p>This is the bee that you just saw.</p>\n                    <img src=\"bees-with-color/bee-B2DF.svg\" width=\"200\">\n                    <p><br>Your bonus pay is unchanged, and remains at $0.32.</p>\n            ","response":0,"trial_type":"html-button-response","trial_index":70,"time_elapsed":487915,"internal_node_id":"0.0-4.0-1.31","subject_id":"5da760eae8174b001640d369","study_id":"6197b3f67c2b5cd3b6d9596a","session_id":"619be3200778af80abd78ebe","condition":"contingent","relevant_dimensions":["antennae","pattern"],"bee_group":{"antennae":"B","wings":"X","pattern":"S","legs":"X"},"bonus":0.6800000000000009},{"rt":1520.1999999955297,"stimulus":"bees-with-color/bee-B2SF.svg","response":1,"trial_type":"image-button-response","trial_index":71,"time_elapsed":489437,"internal_node_id":"0.0-4.0-0.32","subject_id":"5da760eae8174b001640d369","study_id":"6197b3f67c2b5cd3b6d9596a","session_id":"619be3200778af80abd78ebe","condition":"contingent","relevant_dimensions":["antennae","pattern"],"bee_group":{"antennae":"B","wings":"X","pattern":"S","legs":"X"},"action":"avoid","summary":"good-avoid","bonus":0.6800000000000009},{"rt":642.0999999940395,"stimulus":"\n                    <p><b>Action: <em>avoid</em></b></p>\n                    <p>This is the bee that you just saw.</p>\n                    <img src=\"bees-with-color/bee-B2SF.svg\" width=\"200\">\n                    <p><br>Your bonus pay is unchanged, and remains at $0.32.</p>\n            ","response":0,"trial_type":"html-button-response","trial_index":72,"time_elapsed":490079,"internal_node_id":"0.0-4.0-1.32","subject_id":"5da760eae8174b001640d369","study_id":"6197b3f67c2b5cd3b6d9596a","session_id":"619be3200778af80abd78ebe","condition":"contingent","relevant_dimensions":["antennae","pattern"],"bee_group":{"antennae":"B","wings":"X","pattern":"S","legs":"X"},"bonus":0.6800000000000009},{"rt":969.2000000029802,"stimulus":"bees-with-color/bee-A1SM.svg","response":0,"trial_type":"image-button-response","trial_index":73,"time_elapsed":491049,"internal_node_id":"0.0-4.0-0.33","subject_id":"5da760eae8174b001640d369","study_id":"6197b3f67c2b5cd3b6d9596a","session_id":"619be3200778af80abd78ebe","condition":"contingent","relevant_dimensions":["antennae","pattern"],"bee_group":{"antennae":"B","wings":"X","pattern":"S","legs":"X"},"action":"harvest","summary":"good-harvest","bonus":0.6800000000000009},{"rt":1102.2999999970198,"stimulus":"\n                    <p><b>Action: <em>harvest</em></b></p>\n                    <p>This is the bee that you just saw.</p>\n                    <img src=\"bees-with-color/bee-A1SM.svg\" width=\"200\">\n                    <p><span class=\"greenText\"><b>Successful harvest!</b></span><br>Your pay has increased by $0.02. Your bonus pay is now $0.34.</p>\n            ","response":0,"trial_type":"html-button-response","trial_index":74,"time_elapsed":492153,"internal_node_id":"0.0-4.0-1.33","subject_id":"5da760eae8174b001640d369","study_id":"6197b3f67c2b5cd3b6d9596a","session_id":"619be3200778af80abd78ebe","condition":"contingent","relevant_dimensions":["antennae","pattern"],"bee_group":{"antennae":"B","wings":"X","pattern":"S","legs":"X"},"bonus":0.6800000000000009},{"rt":2217.1999999955297,"stimulus":"bees-with-color/bee-A2SM.svg","response":0,"trial_type":"image-button-response","trial_index":75,"time_elapsed":494370,"internal_node_id":"0.0-4.0-0.34","subject_id":"5da760eae8174b001640d369","study_id":"6197b3f67c2b5cd3b6d9596a","session_id":"619be3200778af80abd78ebe","condition":"contingent","relevant_dimensions":["antennae","pattern"],"bee_group":{"antennae":"B","wings":"X","pattern":"S","legs":"X"},"action":"harvest","summary":"good-harvest","bonus":0.6800000000000009},{"rt":787,"stimulus":"\n                    <p><b>Action: <em>harvest</em></b></p>\n                    <p>This is the bee that you just saw.</p>\n                    <img src=\"bees-with-color/bee-A2SM.svg\" width=\"200\">\n                    <p><span class=\"greenText\"><b>Successful harvest!</b></span><br>Your pay has increased by $0.02. Your bonus pay is now $0.36.</p>\n            ","response":0,"trial_type":"html-button-response","trial_index":76,"time_elapsed":495158,"internal_node_id":"0.0-4.0-1.34","subject_id":"5da760eae8174b001640d369","study_id":"6197b3f67c2b5cd3b6d9596a","session_id":"619be3200778af80abd78ebe","condition":"contingent","relevant_dimensions":["antennae","pattern"],"bee_group":{"antennae":"B","wings":"X","pattern":"S","legs":"X"},"bonus":0.6800000000000009},{"rt":1096.7000000029802,"stimulus":"bees-with-color/bee-B1DM.svg","response":1,"trial_type":"image-button-response","trial_index":77,"time_elapsed":496256,"internal_node_id":"0.0-4.0-0.35","subject_id":"5da760eae8174b001640d369","study_id":"6197b3f67c2b5cd3b6d9596a","session_id":"619be3200778af80abd78ebe","condition":"contingent","relevant_dimensions":["antennae","pattern"],"bee_group":{"antennae":"B","wings":"X","pattern":"S","legs":"X"},"action":"avoid","summary":"bad-avoid","bonus":0.6800000000000009},{"rt":1271.5999999940395,"stimulus":"\n                    <p><b>Action: <em>avoid</em></b></p>\n                    <p>This is the bee that you just saw.</p>\n                    <img src=\"bees-with-color/bee-B1DM.svg\" width=\"200\">\n                    <p><br>Your bonus pay is unchanged, and remains at $0.36.</p>\n            ","response":0,"trial_type":"html-button-response","trial_index":78,"time_elapsed":497528,"internal_node_id":"0.0-4.0-1.35","subject_id":"5da760eae8174b001640d369","study_id":"6197b3f67c2b5cd3b6d9596a","session_id":"619be3200778af80abd78ebe","condition":"contingent","relevant_dimensions":["antennae","pattern"],"bee_group":{"antennae":"B","wings":"X","pattern":"S","legs":"X"},"bonus":0.6800000000000009},{"rt":1199.1000000014901,"stimulus":"bees-with-color/bee-A2DM.svg","response":0,"trial_type":"image-button-response","trial_index":79,"time_elapsed":498728,"internal_node_id":"0.0-4.0-0.36","subject_id":"5da760eae8174b001640d369","study_id":"6197b3f67c2b5cd3b6d9596a","session_id":"619be3200778af80abd78ebe","condition":"contingent","relevant_dimensions":["antennae","pattern"],"bee_group":{"antennae":"B","wings":"X","pattern":"S","legs":"X"},"action":"harvest","summary":"good-harvest","bonus":0.6800000000000009},{"rt":829.2999999970198,"stimulus":"\n                    <p><b>Action: <em>harvest</em></b></p>\n                    <p>This is the bee that you just saw.</p>\n                    <img src=\"bees-with-color/bee-A2DM.svg\" width=\"200\">\n                    <p><span class=\"greenText\"><b>Successful harvest!</b></span><br>Your pay has increased by $0.02. Your bonus pay is now $0.38.</p>\n            ","response":0,"trial_type":"html-button-response","trial_index":80,"time_elapsed":499558,"internal_node_id":"0.0-4.0-1.36","subject_id":"5da760eae8174b001640d369","study_id":"6197b3f67c2b5cd3b6d9596a","session_id":"619be3200778af80abd78ebe","condition":"contingent","relevant_dimensions":["antennae","pattern"],"bee_group":{"antennae":"B","wings":"X","pattern":"S","legs":"X"},"bonus":0.6800000000000009},{"rt":1272.8999999985099,"stimulus":"bees-with-color/bee-B2SM.svg","response":0,"trial_type":"image-button-response","trial_index":81,"time_elapsed":500832,"internal_node_id":"0.0-4.0-0.37","subject_id":"5da760eae8174b001640d369","study_id":"6197b3f67c2b5cd3b6d9596a","session_id":"619be3200778af80abd78ebe","condition":"contingent","relevant_dimensions":["antennae","pattern"],"bee_group":{"antennae":"B","wings":"X","pattern":"S","legs":"X"},"action":"harvest","summary":"bad-harvest","bonus":0.6800000000000009},{"rt":829.3999999985099,"stimulus":"\n                    <p><b>Action: <em>harvest</em></b></p>\n                    <p>This is the bee that you just saw.</p>\n                    <img src=\"bees-with-color/bee-B2SM.svg\" width=\"200\">\n                    <p><span class=\"redText\">Bad choice, the bee was angry.</span><br><b>You have been stung!</b><br>Your pay has been decreased by $0.10. Your bonus pay is now $0.28.</p>\n            ","response":0,"trial_type":"html-button-response","trial_index":82,"time_elapsed":501662,"internal_node_id":"0.0-4.0-1.37","subject_id":"5da760eae8174b001640d369","study_id":"6197b3f67c2b5cd3b6d9596a","session_id":"619be3200778af80abd78ebe","condition":"contingent","relevant_dimensions":["antennae","pattern"],"bee_group":{"antennae":"B","wings":"X","pattern":"S","legs":"X"},"bonus":0.6800000000000009},{"rt":1241.2999999970198,"stimulus":"bees-with-color/bee-B2DF.svg","response":0,"trial_type":"image-button-response","trial_index":83,"time_elapsed":502905,"internal_node_id":"0.0-4.0-0.38","subject_id":"5da760eae8174b001640d369","study_id":"6197b3f67c2b5cd3b6d9596a","session_id":"619be3200778af80abd78ebe","condition":"contingent","relevant_dimensions":["antennae","pattern"],"bee_group":{"antennae":"B","wings":"X","pattern":"S","legs":"X"},"action":"harvest","summary":"good-harvest","bonus":0.6800000000000009},{"rt":810.7000000029802,"stimulus":"\n                    <p><b>Action: <em>harvest</em></b></p>\n                    <p>This is the bee that you just saw.</p>\n                    <img src=\"bees-with-color/bee-B2DF.svg\" width=\"200\">\n                    <p><span class=\"greenText\"><b>Successful harvest!</b></span><br>Your pay has increased by $0.02. Your bonus pay is now $0.30.</p>\n            ","response":0,"trial_type":"html-button-response","trial_index":84,"time_elapsed":503716,"internal_node_id":"0.0-4.0-1.38","subject_id":"5da760eae8174b001640d369","study_id":"6197b3f67c2b5cd3b6d9596a","session_id":"619be3200778af80abd78ebe","condition":"contingent","relevant_dimensions":["antennae","pattern"],"bee_group":{"antennae":"B","wings":"X","pattern":"S","legs":"X"},"bonus":0.6800000000000009},{"rt":1139.6000000014901,"stimulus":"bees-with-color/bee-A1SF.svg","response":0,"trial_type":"image-button-response","trial_index":85,"time_elapsed":504857,"internal_node_id":"0.0-4.0-0.39","subject_id":"5da760eae8174b001640d369","study_id":"6197b3f67c2b5cd3b6d9596a","session_id":"619be3200778af80abd78ebe","condition":"contingent","relevant_dimensions":["antennae","pattern"],"bee_group":{"antennae":"B","wings":"X","pattern":"S","legs":"X"},"action":"harvest","summary":"good-harvest","bonus":0.6800000000000009},{"rt":840.8999999985099,"stimulus":"\n                    <p><b>Action: <em>harvest</em></b></p>\n                    <p>This is the bee that you just saw.</p>\n                    <img src=\"bees-with-color/bee-A1SF.svg\" width=\"200\">\n                    <p><span class=\"greenText\"><b>Successful harvest!</b></span><br>Your pay has increased by $0.02. Your bonus pay is now $0.32.</p>\n            ","response":0,"trial_type":"html-button-response","trial_index":86,"time_elapsed":505698,"internal_node_id":"0.0-4.0-1.39","subject_id":"5da760eae8174b001640d369","study_id":"6197b3f67c2b5cd3b6d9596a","session_id":"619be3200778af80abd78ebe","condition":"contingent","relevant_dimensions":["antennae","pattern"],"bee_group":{"antennae":"B","wings":"X","pattern":"S","legs":"X"},"bonus":0.6800000000000009},{"rt":1502.2000000029802,"stimulus":"bees-with-color/bee-B1SM.svg","response":0,"trial_type":"image-button-response","trial_index":87,"time_elapsed":507201,"internal_node_id":"0.0-4.0-0.40","subject_id":"5da760eae8174b001640d369","study_id":"6197b3f67c2b5cd3b6d9596a","session_id":"619be3200778af80abd78ebe","condition":"contingent","relevant_dimensions":["antennae","pattern"],"bee_group":{"antennae":"B","wings":"X","pattern":"S","legs":"X"},"action":"harvest","summary":"bad-harvest","bonus":0.6800000000000009},{"rt":763.3999999985099,"stimulus":"\n                    <p><b>Action: <em>harvest</em></b></p>\n                    <p>This is the bee that you just saw.</p>\n                    <img src=\"bees-with-color/bee-B1SM.svg\" width=\"200\">\n                    <p><span class=\"redText\">Bad choice, the bee was angry.</span><br><b>You have been stung!</b><br>Your pay has been decreased by $0.10. Your bonus pay is now $0.22.</p>\n            ","response":0,"trial_type":"html-button-response","trial_index":88,"time_elapsed":507965,"internal_node_id":"0.0-4.0-1.40","subject_id":"5da760eae8174b001640d369","study_id":"6197b3f67c2b5cd3b6d9596a","session_id":"619be3200778af80abd78ebe","condition":"contingent","relevant_dimensions":["antennae","pattern"],"bee_group":{"antennae":"B","wings":"X","pattern":"S","legs":"X"},"bonus":0.6800000000000009},{"rt":3254.0999999940395,"stimulus":"bees-with-color/bee-A2SF.svg","response":0,"trial_type":"image-button-response","trial_index":89,"time_elapsed":511220,"internal_node_id":"0.0-4.0-0.41","subject_id":"5da760eae8174b001640d369","study_id":"6197b3f67c2b5cd3b6d9596a","session_id":"619be3200778af80abd78ebe","condition":"contingent","relevant_dimensions":["antennae","pattern"],"bee_group":{"antennae":"B","wings":"X","pattern":"S","legs":"X"},"action":"harvest","summary":"good-harvest","bonus":0.6800000000000009},{"rt":1872,"stimulus":"\n                    <p><b>Action: <em>harvest</em></b></p>\n                    <p>This is the bee that you just saw.</p>\n                    <img src=\"bees-with-color/bee-A2SF.svg\" width=\"200\">\n                    <p><span class=\"greenText\"><b>Successful harvest!</b></span><br>Your pay has increased by $0.02. Your bonus pay is now $0.24.</p>\n            ","response":0,"trial_type":"html-button-response","trial_index":90,"time_elapsed":513093,"internal_node_id":"0.0-4.0-1.41","subject_id":"5da760eae8174b001640d369","study_id":"6197b3f67c2b5cd3b6d9596a","session_id":"619be3200778af80abd78ebe","condition":"contingent","relevant_dimensions":["antennae","pattern"],"bee_group":{"antennae":"B","wings":"X","pattern":"S","legs":"X"},"bonus":0.6800000000000009},{"rt":1556.2000000029802,"stimulus":"bees-with-color/bee-B1SF.svg","response":1,"trial_type":"image-button-response","trial_index":91,"time_elapsed":514650,"internal_node_id":"0.0-4.0-0.42","subject_id":"5da760eae8174b001640d369","study_id":"6197b3f67c2b5cd3b6d9596a","session_id":"619be3200778af80abd78ebe","condition":"contingent","relevant_dimensions":["antennae","pattern"],"bee_group":{"antennae":"B","wings":"X","pattern":"S","legs":"X"},"action":"avoid","summary":"good-avoid","bonus":0.6800000000000009},{"rt":648,"stimulus":"\n                    <p><b>Action: <em>avoid</em></b></p>\n                    <p>This is the bee that you just saw.</p>\n                    <img src=\"bees-with-color/bee-B1SF.svg\" width=\"200\">\n                    <p><br>Your bonus pay is unchanged, and remains at $0.24.</p>\n            ","response":0,"trial_type":"html-button-response","trial_index":92,"time_elapsed":515299,"internal_node_id":"0.0-4.0-1.42","subject_id":"5da760eae8174b001640d369","study_id":"6197b3f67c2b5cd3b6d9596a","session_id":"619be3200778af80abd78ebe","condition":"contingent","relevant_dimensions":["antennae","pattern"],"bee_group":{"antennae":"B","wings":"X","pattern":"S","legs":"X"},"bonus":0.6800000000000009},{"rt":1545.4000000059605,"stimulus":"bees-with-color/bee-B1DF.svg","response":0,"trial_type":"image-button-response","trial_index":93,"time_elapsed":516845,"internal_node_id":"0.0-4.0-0.43","subject_id":"5da760eae8174b001640d369","study_id":"6197b3f67c2b5cd3b6d9596a","session_id":"619be3200778af80abd78ebe","condition":"contingent","relevant_dimensions":["antennae","pattern"],"bee_group":{"antennae":"B","wings":"X","pattern":"S","legs":"X"},"action":"harvest","summary":"good-harvest","bonus":0.6800000000000009},{"rt":1114,"stimulus":"\n                    <p><b>Action: <em>harvest</em></b></p>\n                    <p>This is the bee that you just saw.</p>\n                    <img src=\"bees-with-color/bee-B1DF.svg\" width=\"200\">\n                    <p><span class=\"greenText\"><b>Successful harvest!</b></span><br>Your pay has increased by $0.02. Your bonus pay is now $0.26.</p>\n            ","response":0,"trial_type":"html-button-response","trial_index":94,"time_elapsed":517960,"internal_node_id":"0.0-4.0-1.43","subject_id":"5da760eae8174b001640d369","study_id":"6197b3f67c2b5cd3b6d9596a","session_id":"619be3200778af80abd78ebe","condition":"contingent","relevant_dimensions":["antennae","pattern"],"bee_group":{"antennae":"B","wings":"X","pattern":"S","legs":"X"},"bonus":0.6800000000000009},{"rt":2174.89999999851,"stimulus":"bees-with-color/bee-B2DM.svg","response":1,"trial_type":"image-button-response","trial_index":95,"time_elapsed":520136,"internal_node_id":"0.0-4.0-0.44","subject_id":"5da760eae8174b001640d369","study_id":"6197b3f67c2b5cd3b6d9596a","session_id":"619be3200778af80abd78ebe","condition":"contingent","relevant_dimensions":["antennae","pattern"],"bee_group":{"antennae":"B","wings":"X","pattern":"S","legs":"X"},"action":"avoid","summary":"bad-avoid","bonus":0.6800000000000009},{"rt":1351.4000000059605,"stimulus":"\n                    <p><b>Action: <em>avoid</em></b></p>\n                    <p>This is the bee that you just saw.</p>\n                    <img src=\"bees-with-color/bee-B2DM.svg\" width=\"200\">\n                    <p><br>Your bonus pay is unchanged, and remains at $0.26.</p>\n            ","response":0,"trial_type":"html-button-response","trial_index":96,"time_elapsed":521488,"internal_node_id":"0.0-4.0-1.44","subject_id":"5da760eae8174b001640d369","study_id":"6197b3f67c2b5cd3b6d9596a","session_id":"619be3200778af80abd78ebe","condition":"contingent","relevant_dimensions":["antennae","pattern"],"bee_group":{"antennae":"B","wings":"X","pattern":"S","legs":"X"},"bonus":0.6800000000000009},{"rt":1204.3000000044703,"stimulus":"bees-with-color/bee-A2DF.svg","response":0,"trial_type":"image-button-response","trial_index":97,"time_elapsed":522693,"internal_node_id":"0.0-4.0-0.45","subject_id":"5da760eae8174b001640d369","study_id":"6197b3f67c2b5cd3b6d9596a","session_id":"619be3200778af80abd78ebe","condition":"contingent","relevant_dimensions":["antennae","pattern"],"bee_group":{"antennae":"B","wings":"X","pattern":"S","legs":"X"},"action":"harvest","summary":"good-harvest","bonus":0.6800000000000009},{"rt":890.1000000014901,"stimulus":"\n                    <p><b>Action: <em>harvest</em></b></p>\n                    <p>This is the bee that you just saw.</p>\n                    <img src=\"bees-with-color/bee-A2DF.svg\" width=\"200\">\n                    <p><span class=\"greenText\"><b>Successful harvest!</b></span><br>Your pay has increased by $0.02. Your bonus pay is now $0.28.</p>\n            ","response":0,"trial_type":"html-button-response","trial_index":98,"time_elapsed":523584,"internal_node_id":"0.0-4.0-1.45","subject_id":"5da760eae8174b001640d369","study_id":"6197b3f67c2b5cd3b6d9596a","session_id":"619be3200778af80abd78ebe","condition":"contingent","relevant_dimensions":["antennae","pattern"],"bee_group":{"antennae":"B","wings":"X","pattern":"S","legs":"X"},"bonus":0.6800000000000009},{"rt":1720.5,"stimulus":"bees-with-color/bee-A1DF.svg","response":1,"trial_type":"image-button-response","trial_index":99,"time_elapsed":525305,"internal_node_id":"0.0-4.0-0.46","subject_id":"5da760eae8174b001640d369","study_id":"6197b3f67c2b5cd3b6d9596a","session_id":"619be3200778af80abd78ebe","condition":"contingent","relevant_dimensions":["antennae","pattern"],"bee_group":{"antennae":"B","wings":"X","pattern":"S","legs":"X"},"action":"avoid","summary":"bad-avoid","bonus":0.6800000000000009},{"rt":714.8999999985099,"stimulus":"\n                    <p><b>Action: <em>avoid</em></b></p>\n                    <p>This is the bee that you just saw.</p>\n                    <img src=\"bees-with-color/bee-A1DF.svg\" width=\"200\">\n                    <p><br>Your bonus pay is unchanged, and remains at $0.28.</p>\n            ","response":0,"trial_type":"html-button-response","trial_index":100,"time_elapsed":526021,"internal_node_id":"0.0-4.0-1.46","subject_id":"5da760eae8174b001640d369","study_id":"6197b3f67c2b5cd3b6d9596a","session_id":"619be3200778af80abd78ebe","condition":"contingent","relevant_dimensions":["antennae","pattern"],"bee_group":{"antennae":"B","wings":"X","pattern":"S","legs":"X"},"bonus":0.6800000000000009},{"rt":1356,"stimulus":"bees-with-color/bee-A1DM.svg","response":0,"trial_type":"image-button-response","trial_index":101,"time_elapsed":527378,"internal_node_id":"0.0-4.0-0.47","subject_id":"5da760eae8174b001640d369","study_id":"6197b3f67c2b5cd3b6d9596a","session_id":"619be3200778af80abd78ebe","condition":"contingent","relevant_dimensions":["antennae","pattern"],"bee_group":{"antennae":"B","wings":"X","pattern":"S","legs":"X"},"action":"harvest","summary":"good-harvest","bonus":0.6800000000000009},{"rt":763,"stimulus":"\n                    <p><b>Action: <em>harvest</em></b></p>\n                    <p>This is the bee that you just saw.</p>\n                    <img src=\"bees-with-color/bee-A1DM.svg\" width=\"200\">\n                    <p><span class=\"greenText\"><b>Successful harvest!</b></span><br>Your pay has increased by $0.02. Your bonus pay is now $0.30.</p>\n            ","response":0,"trial_type":"html-button-response","trial_index":102,"time_elapsed":528142,"internal_node_id":"0.0-4.0-1.47","subject_id":"5da760eae8174b001640d369","study_id":"6197b3f67c2b5cd3b6d9596a","session_id":"619be3200778af80abd78ebe","condition":"contingent","relevant_dimensions":["antennae","pattern"],"bee_group":{"antennae":"B","wings":"X","pattern":"S","legs":"X"},"bonus":0.6800000000000009},{"rt":1793.2000000029802,"stimulus":"bees-with-color/bee-A1SF.svg","response":1,"trial_type":"image-button-response","trial_index":103,"time_elapsed":529936,"internal_node_id":"0.0-4.0-0.48","subject_id":"5da760eae8174b001640d369","study_id":"6197b3f67c2b5cd3b6d9596a","session_id":"619be3200778af80abd78ebe","condition":"contingent","relevant_dimensions":["antennae","pattern"],"bee_group":{"antennae":"B","wings":"X","pattern":"S","legs":"X"},"action":"avoid","summary":"bad-avoid","bonus":0.6800000000000009},{"rt":751,"stimulus":"\n                    <p><b>Action: <em>avoid</em></b></p>\n                    <p>This is the bee that you just saw.</p>\n                    <img src=\"bees-with-color/bee-A1SF.svg\" width=\"200\">\n                    <p><br>Your bonus pay is unchanged, and remains at $0.30.</p>\n            ","response":0,"trial_type":"html-button-response","trial_index":104,"time_elapsed":530688,"internal_node_id":"0.0-4.0-1.48","subject_id":"5da760eae8174b001640d369","study_id":"6197b3f67c2b5cd3b6d9596a","session_id":"619be3200778af80abd78ebe","condition":"contingent","relevant_dimensions":["antennae","pattern"],"bee_group":{"antennae":"B","wings":"X","pattern":"S","legs":"X"},"bonus":0.6800000000000009},{"rt":1452.8999999985099,"stimulus":"bees-with-color/bee-B2DM.svg","response":1,"trial_type":"image-button-response","trial_index":105,"time_elapsed":532142,"internal_node_id":"0.0-4.0-0.49","subject_id":"5da760eae8174b001640d369","study_id":"6197b3f67c2b5cd3b6d9596a","session_id":"619be3200778af80abd78ebe","condition":"contingent","relevant_dimensions":["antennae","pattern"],"bee_group":{"antennae":"B","wings":"X","pattern":"S","legs":"X"},"action":"avoid","summary":"bad-avoid","bonus":0.6800000000000009},{"rt":714.3000000044703,"stimulus":"\n                    <p><b>Action: <em>avoid</em></b></p>\n                    <p>This is the bee that you just saw.</p>\n                    <img src=\"bees-with-color/bee-B2DM.svg\" width=\"200\">\n                    <p><br>Your bonus pay is unchanged, and remains at $0.30.</p>\n            ","response":0,"trial_type":"html-button-response","trial_index":106,"time_elapsed":532857,"internal_node_id":"0.0-4.0-1.49","subject_id":"5da760eae8174b001640d369","study_id":"6197b3f67c2b5cd3b6d9596a","session_id":"619be3200778af80abd78ebe","condition":"contingent","relevant_dimensions":["antennae","pattern"],"bee_group":{"antennae":"B","wings":"X","pattern":"S","legs":"X"},"bonus":0.6800000000000009},{"rt":1436.2000000029802,"stimulus":"bees-with-color/bee-A1DF.svg","response":0,"trial_type":"image-button-response","trial_index":107,"time_elapsed":534294,"internal_node_id":"0.0-4.0-0.50","subject_id":"5da760eae8174b001640d369","study_id":"6197b3f67c2b5cd3b6d9596a","session_id":"619be3200778af80abd78ebe","condition":"contingent","relevant_dimensions":["antennae","pattern"],"bee_group":{"antennae":"B","wings":"X","pattern":"S","legs":"X"},"action":"harvest","summary":"good-harvest","bonus":0.6800000000000009},{"rt":823.2000000029802,"stimulus":"\n                    <p><b>Action: <em>harvest</em></b></p>\n                    <p>This is the bee that you just saw.</p>\n                    <img src=\"bees-with-color/bee-A1DF.svg\" width=\"200\">\n                    <p><span class=\"greenText\"><b>Successful harvest!</b></span><br>Your pay has increased by $0.02. Your bonus pay is now $0.32.</p>\n            ","response":0,"trial_type":"html-button-response","trial_index":108,"time_elapsed":535118,"internal_node_id":"0.0-4.0-1.50","subject_id":"5da760eae8174b001640d369","study_id":"6197b3f67c2b5cd3b6d9596a","session_id":"619be3200778af80abd78ebe","condition":"contingent","relevant_dimensions":["antennae","pattern"],"bee_group":{"antennae":"B","wings":"X","pattern":"S","legs":"X"},"bonus":0.6800000000000009},{"rt":1254.1000000014901,"stimulus":"bees-with-color/bee-B1SM.svg","response":1,"trial_type":"image-button-response","trial_index":109,"time_elapsed":536373,"internal_node_id":"0.0-4.0-0.51","subject_id":"5da760eae8174b001640d369","study_id":"6197b3f67c2b5cd3b6d9596a","session_id":"619be3200778af80abd78ebe","condition":"contingent","relevant_dimensions":["antennae","pattern"],"bee_group":{"antennae":"B","wings":"X","pattern":"S","legs":"X"},"action":"avoid","summary":"good-avoid","bonus":0.6800000000000009},{"rt":762.3000000044703,"stimulus":"\n                    <p><b>Action: <em>avoid</em></b></p>\n                    <p>This is the bee that you just saw.</p>\n                    <img src=\"bees-with-color/bee-B1SM.svg\" width=\"200\">\n                    <p><br>Your bonus pay is unchanged, and remains at $0.32.</p>\n            ","response":0,"trial_type":"html-button-response","trial_index":110,"time_elapsed":537136,"internal_node_id":"0.0-4.0-1.51","subject_id":"5da760eae8174b001640d369","study_id":"6197b3f67c2b5cd3b6d9596a","session_id":"619be3200778af80abd78ebe","condition":"contingent","relevant_dimensions":["antennae","pattern"],"bee_group":{"antennae":"B","wings":"X","pattern":"S","legs":"X"},"bonus":0.6800000000000009},{"rt":1078.2000000029802,"stimulus":"bees-with-color/bee-A1DM.svg","response":0,"trial_type":"image-button-response","trial_index":111,"time_elapsed":538215,"internal_node_id":"0.0-4.0-0.52","subject_id":"5da760eae8174b001640d369","study_id":"6197b3f67c2b5cd3b6d9596a","session_id":"619be3200778af80abd78ebe","condition":"contingent","relevant_dimensions":["antennae","pattern"],"bee_group":{"antennae":"B","wings":"X","pattern":"S","legs":"X"},"action":"harvest","summary":"good-harvest","bonus":0.6800000000000009},{"rt":999.2000000029802,"stimulus":"\n                    <p><b>Action: <em>harvest</em></b></p>\n                    <p>This is the bee that you just saw.</p>\n                    <img src=\"bees-with-color/bee-A1DM.svg\" width=\"200\">\n                    <p><span class=\"greenText\"><b>Successful harvest!</b></span><br>Your pay has increased by $0.02. Your bonus pay is now $0.34.</p>\n            ","response":0,"trial_type":"html-button-response","trial_index":112,"time_elapsed":539215,"internal_node_id":"0.0-4.0-1.52","subject_id":"5da760eae8174b001640d369","study_id":"6197b3f67c2b5cd3b6d9596a","session_id":"619be3200778af80abd78ebe","condition":"contingent","relevant_dimensions":["antennae","pattern"],"bee_group":{"antennae":"B","wings":"X","pattern":"S","legs":"X"},"bonus":0.6800000000000009},{"rt":1387.2000000029802,"stimulus":"bees-with-color/bee-A1SM.svg","response":1,"trial_type":"image-button-response","trial_index":113,"time_elapsed":540603,"internal_node_id":"0.0-4.0-0.53","subject_id":"5da760eae8174b001640d369","study_id":"6197b3f67c2b5cd3b6d9596a","session_id":"619be3200778af80abd78ebe","condition":"contingent","relevant_dimensions":["antennae","pattern"],"bee_group":{"antennae":"B","wings":"X","pattern":"S","legs":"X"},"action":"avoid","summary":"bad-avoid","bonus":0.6800000000000009},{"rt":878.3000000044703,"stimulus":"\n                    <p><b>Action: <em>avoid</em></b></p>\n                    <p>This is the bee that you just saw.</p>\n                    <img src=\"bees-with-color/bee-A1SM.svg\" width=\"200\">\n                    <p><br>Your bonus pay is unchanged, and remains at $0.34.</p>\n            ","response":0,"trial_type":"html-button-response","trial_index":114,"time_elapsed":541482,"internal_node_id":"0.0-4.0-1.53","subject_id":"5da760eae8174b001640d369","study_id":"6197b3f67c2b5cd3b6d9596a","session_id":"619be3200778af80abd78ebe","condition":"contingent","relevant_dimensions":["antennae","pattern"],"bee_group":{"antennae":"B","wings":"X","pattern":"S","legs":"X"},"bonus":0.6800000000000009},{"rt":1193.2000000029802,"stimulus":"bees-with-color/bee-B2SF.svg","response":1,"trial_type":"image-button-response","trial_index":115,"time_elapsed":542676,"internal_node_id":"0.0-4.0-0.54","subject_id":"5da760eae8174b001640d369","study_id":"6197b3f67c2b5cd3b6d9596a","session_id":"619be3200778af80abd78ebe","condition":"contingent","relevant_dimensions":["antennae","pattern"],"bee_group":{"antennae":"B","wings":"X","pattern":"S","legs":"X"},"action":"avoid","summary":"good-avoid","bonus":0.6800000000000009},{"rt":678.4000000059605,"stimulus":"\n                    <p><b>Action: <em>avoid</em></b></p>\n                    <p>This is the bee that you just saw.</p>\n                    <img src=\"bees-with-color/bee-B2SF.svg\" width=\"200\">\n                    <p><br>Your bonus pay is unchanged, and remains at $0.34.</p>\n            ","response":0,"trial_type":"html-button-response","trial_index":116,"time_elapsed":543355,"internal_node_id":"0.0-4.0-1.54","subject_id":"5da760eae8174b001640d369","study_id":"6197b3f67c2b5cd3b6d9596a","session_id":"619be3200778af80abd78ebe","condition":"contingent","relevant_dimensions":["antennae","pattern"],"bee_group":{"antennae":"B","wings":"X","pattern":"S","legs":"X"},"bonus":0.6800000000000009},{"rt":1054,"stimulus":"bees-with-color/bee-A2DF.svg","response":0,"trial_type":"image-button-response","trial_index":117,"time_elapsed":544410,"internal_node_id":"0.0-4.0-0.55","subject_id":"5da760eae8174b001640d369","study_id":"6197b3f67c2b5cd3b6d9596a","session_id":"619be3200778af80abd78ebe","condition":"contingent","relevant_dimensions":["antennae","pattern"],"bee_group":{"antennae":"B","wings":"X","pattern":"S","legs":"X"},"action":"harvest","summary":"good-harvest","bonus":0.6800000000000009},{"rt":1023.4000000059605,"stimulus":"\n                    <p><b>Action: <em>harvest</em></b></p>\n                    <p>This is the bee that you just saw.</p>\n                    <img src=\"bees-with-color/bee-A2DF.svg\" width=\"200\">\n                    <p><span class=\"greenText\"><b>Successful harvest!</b></span><br>Your pay has increased by $0.02. Your bonus pay is now $0.36.</p>\n            ","response":0,"trial_type":"html-button-response","trial_index":118,"time_elapsed":545434,"internal_node_id":"0.0-4.0-1.55","subject_id":"5da760eae8174b001640d369","study_id":"6197b3f67c2b5cd3b6d9596a","session_id":"619be3200778af80abd78ebe","condition":"contingent","relevant_dimensions":["antennae","pattern"],"bee_group":{"antennae":"B","wings":"X","pattern":"S","legs":"X"},"bonus":0.6800000000000009},{"rt":2072.2999999970198,"stimulus":"bees-with-color/bee-B2SM.svg","response":0,"trial_type":"image-button-response","trial_index":119,"time_elapsed":547507,"internal_node_id":"0.0-4.0-0.56","subject_id":"5da760eae8174b001640d369","study_id":"6197b3f67c2b5cd3b6d9596a","session_id":"619be3200778af80abd78ebe","condition":"contingent","relevant_dimensions":["antennae","pattern"],"bee_group":{"antennae":"B","wings":"X","pattern":"S","legs":"X"},"action":"harvest","summary":"bad-harvest","bonus":0.6800000000000009},{"rt":920,"stimulus":"\n                    <p><b>Action: <em>harvest</em></b></p>\n                    <p>This is the bee that you just saw.</p>\n                    <img src=\"bees-with-color/bee-B2SM.svg\" width=\"200\">\n                    <p><span class=\"redText\">Bad choice, the bee was angry.</span><br><b>You have been stung!</b><br>Your pay has been decreased by $0.10. Your bonus pay is now $0.26.</p>\n            ","response":0,"trial_type":"html-button-response","trial_index":120,"time_elapsed":548428,"internal_node_id":"0.0-4.0-1.56","subject_id":"5da760eae8174b001640d369","study_id":"6197b3f67c2b5cd3b6d9596a","session_id":"619be3200778af80abd78ebe","condition":"contingent","relevant_dimensions":["antennae","pattern"],"bee_group":{"antennae":"B","wings":"X","pattern":"S","legs":"X"},"bonus":0.6800000000000009},{"rt":987.3000000044703,"stimulus":"bees-with-color/bee-A2DM.svg","response":0,"trial_type":"image-button-response","trial_index":121,"time_elapsed":549416,"internal_node_id":"0.0-4.0-0.57","subject_id":"5da760eae8174b001640d369","study_id":"6197b3f67c2b5cd3b6d9596a","session_id":"619be3200778af80abd78ebe","condition":"contingent","relevant_dimensions":["antennae","pattern"],"bee_group":{"antennae":"B","wings":"X","pattern":"S","legs":"X"},"action":"harvest","summary":"good-harvest","bonus":0.6800000000000009},{"rt":757.1000000014901,"stimulus":"\n                    <p><b>Action: <em>harvest</em></b></p>\n                    <p>This is the bee that you just saw.</p>\n                    <img src=\"bees-with-color/bee-A2DM.svg\" width=\"200\">\n                    <p><span class=\"greenText\"><b>Successful harvest!</b></span><br>Your pay has increased by $0.02. Your bonus pay is now $0.28.</p>\n            ","response":0,"trial_type":"html-button-response","trial_index":122,"time_elapsed":550174,"internal_node_id":"0.0-4.0-1.57","subject_id":"5da760eae8174b001640d369","study_id":"6197b3f67c2b5cd3b6d9596a","session_id":"619be3200778af80abd78ebe","condition":"contingent","relevant_dimensions":["antennae","pattern"],"bee_group":{"antennae":"B","wings":"X","pattern":"S","legs":"X"},"bonus":0.6800000000000009},{"rt":1053.2000000029802,"stimulus":"bees-with-color/bee-B2DF.svg","response":0,"trial_type":"image-button-response","trial_index":123,"time_elapsed":551228,"internal_node_id":"0.0-4.0-0.58","subject_id":"5da760eae8174b001640d369","study_id":"6197b3f67c2b5cd3b6d9596a","session_id":"619be3200778af80abd78ebe","condition":"contingent","relevant_dimensions":["antennae","pattern"],"bee_group":{"antennae":"B","wings":"X","pattern":"S","legs":"X"},"action":"harvest","summary":"good-harvest","bonus":0.6800000000000009},{"rt":860.5,"stimulus":"\n                    <p><b>Action: <em>harvest</em></b></p>\n                    <p>This is the bee that you just saw.</p>\n                    <img src=\"bees-with-color/bee-B2DF.svg\" width=\"200\">\n                    <p><span class=\"greenText\"><b>Successful harvest!</b></span><br>Your pay has increased by $0.02. Your bonus pay is now $0.30.</p>\n            ","response":0,"trial_type":"html-button-response","trial_index":124,"time_elapsed":552090,"internal_node_id":"0.0-4.0-1.58","subject_id":"5da760eae8174b001640d369","study_id":"6197b3f67c2b5cd3b6d9596a","session_id":"619be3200778af80abd78ebe","condition":"contingent","relevant_dimensions":["antennae","pattern"],"bee_group":{"antennae":"B","wings":"X","pattern":"S","legs":"X"},"bonus":0.6800000000000009},{"rt":1035,"stimulus":"bees-with-color/bee-B1DF.svg","response":0,"trial_type":"image-button-response","trial_index":125,"time_elapsed":553125,"internal_node_id":"0.0-4.0-0.59","subject_id":"5da760eae8174b001640d369","study_id":"6197b3f67c2b5cd3b6d9596a","session_id":"619be3200778af80abd78ebe","condition":"contingent","relevant_dimensions":["antennae","pattern"],"bee_group":{"antennae":"B","wings":"X","pattern":"S","legs":"X"},"action":"harvest","summary":"good-harvest","bonus":0.6800000000000009},{"rt":896.7999999970198,"stimulus":"\n                    <p><b>Action: <em>harvest</em></b></p>\n                    <p>This is the bee that you just saw.</p>\n                    <img src=\"bees-with-color/bee-B1DF.svg\" width=\"200\">\n                    <p><span class=\"greenText\"><b>Successful harvest!</b></span><br>Your pay has increased by $0.02. Your bonus pay is now $0.32.</p>\n            ","response":0,"trial_type":"html-button-response","trial_index":126,"time_elapsed":554023,"internal_node_id":"0.0-4.0-1.59","subject_id":"5da760eae8174b001640d369","study_id":"6197b3f67c2b5cd3b6d9596a","session_id":"619be3200778af80abd78ebe","condition":"contingent","relevant_dimensions":["antennae","pattern"],"bee_group":{"antennae":"B","wings":"X","pattern":"S","legs":"X"},"bonus":0.6800000000000009},{"rt":1520.6000000014901,"stimulus":"bees-with-color/bee-B1DM.svg","response":0,"trial_type":"image-button-response","trial_index":127,"time_elapsed":555544,"internal_node_id":"0.0-4.0-0.60","subject_id":"5da760eae8174b001640d369","study_id":"6197b3f67c2b5cd3b6d9596a","session_id":"619be3200778af80abd78ebe","condition":"contingent","relevant_dimensions":["antennae","pattern"],"bee_group":{"antennae":"B","wings":"X","pattern":"S","legs":"X"},"action":"harvest","summary":"good-harvest","bonus":0.6800000000000009},{"rt":1078.1000000014901,"stimulus":"\n                    <p><b>Action: <em>harvest</em></b></p>\n                    <p>This is the bee that you just saw.</p>\n                    <img src=\"bees-with-color/bee-B1DM.svg\" width=\"200\">\n                    <p><span class=\"greenText\"><b>Successful harvest!</b></span><br>Your pay has increased by $0.02. Your bonus pay is now $0.34.</p>\n            ","response":0,"trial_type":"html-button-response","trial_index":128,"time_elapsed":556623,"internal_node_id":"0.0-4.0-1.60","subject_id":"5da760eae8174b001640d369","study_id":"6197b3f67c2b5cd3b6d9596a","session_id":"619be3200778af80abd78ebe","condition":"contingent","relevant_dimensions":["antennae","pattern"],"bee_group":{"antennae":"B","wings":"X","pattern":"S","legs":"X"},"bonus":0.6800000000000009},{"rt":1484.1000000014901,"stimulus":"bees-with-color/bee-A2SM.svg","response":1,"trial_type":"image-button-response","trial_index":129,"time_elapsed":558108,"internal_node_id":"0.0-4.0-0.61","subject_id":"5da760eae8174b001640d369","study_id":"6197b3f67c2b5cd3b6d9596a","session_id":"619be3200778af80abd78ebe","condition":"contingent","relevant_dimensions":["antennae","pattern"],"bee_group":{"antennae":"B","wings":"X","pattern":"S","legs":"X"},"action":"avoid","summary":"bad-avoid","bonus":0.6800000000000009},{"rt":951.3999999985099,"stimulus":"\n                    <p><b>Action: <em>avoid</em></b></p>\n                    <p>This is the bee that you just saw.</p>\n                    <img src=\"bees-with-color/bee-A2SM.svg\" width=\"200\">\n                    <p><br>Your bonus pay is unchanged, and remains at $0.34.</p>\n            ","response":0,"trial_type":"html-button-response","trial_index":130,"time_elapsed":559060,"internal_node_id":"0.0-4.0-1.61","subject_id":"5da760eae8174b001640d369","study_id":"6197b3f67c2b5cd3b6d9596a","session_id":"619be3200778af80abd78ebe","condition":"contingent","relevant_dimensions":["antennae","pattern"],"bee_group":{"antennae":"B","wings":"X","pattern":"S","legs":"X"},"bonus":0.6800000000000009},{"rt":1216.6000000014901,"stimulus":"bees-with-color/bee-B1SF.svg","response":1,"trial_type":"image-button-response","trial_index":131,"time_elapsed":560278,"internal_node_id":"0.0-4.0-0.62","subject_id":"5da760eae8174b001640d369","study_id":"6197b3f67c2b5cd3b6d9596a","session_id":"619be3200778af80abd78ebe","condition":"contingent","relevant_dimensions":["antennae","pattern"],"bee_group":{"antennae":"B","wings":"X","pattern":"S","legs":"X"},"action":"avoid","summary":"good-avoid","bonus":0.6800000000000009},{"rt":902.3000000044703,"stimulus":"\n                    <p><b>Action: <em>avoid</em></b></p>\n                    <p>This is the bee that you just saw.</p>\n                    <img src=\"bees-with-color/bee-B1SF.svg\" width=\"200\">\n                    <p><br>Your bonus pay is unchanged, and remains at $0.34.</p>\n            ","response":0,"trial_type":"html-button-response","trial_index":132,"time_elapsed":561181,"internal_node_id":"0.0-4.0-1.62","subject_id":"5da760eae8174b001640d369","study_id":"6197b3f67c2b5cd3b6d9596a","session_id":"619be3200778af80abd78ebe","condition":"contingent","relevant_dimensions":["antennae","pattern"],"bee_group":{"antennae":"B","wings":"X","pattern":"S","legs":"X"},"bonus":0.6800000000000009},{"rt":1569.3000000044703,"stimulus":"bees-with-color/bee-A2SF.svg","response":0,"trial_type":"image-button-response","trial_index":133,"time_elapsed":562751,"internal_node_id":"0.0-4.0-0.63","subject_id":"5da760eae8174b001640d369","study_id":"6197b3f67c2b5cd3b6d9596a","session_id":"619be3200778af80abd78ebe","condition":"contingent","relevant_dimensions":["antennae","pattern"],"bee_group":{"antennae":"B","wings":"X","pattern":"S","legs":"X"},"action":"harvest","summary":"good-harvest","bonus":0.6800000000000009},{"rt":1423.2000000029802,"stimulus":"\n                    <p><b>Action: <em>harvest</em></b></p>\n                    <p>This is the bee that you just saw.</p>\n                    <img src=\"bees-with-color/bee-A2SF.svg\" width=\"200\">\n                    <p><span class=\"greenText\"><b>Successful harvest!</b></span><br>Your pay has increased by $0.02. Your bonus pay is now $0.36.</p>\n            ","response":0,"trial_type":"html-button-response","trial_index":134,"time_elapsed":564175,"internal_node_id":"0.0-4.0-1.63","subject_id":"5da760eae8174b001640d369","study_id":"6197b3f67c2b5cd3b6d9596a","session_id":"619be3200778af80abd78ebe","condition":"contingent","relevant_dimensions":["antennae","pattern"],"bee_group":{"antennae":"B","wings":"X","pattern":"S","legs":"X"},"bonus":0.6800000000000009},{"rt":7451.60000000149,"stimulus":"You have completed the first part of this experiment.<br><br>You will now begin a shorter second part, in which you will receive no feedback.<br>The same rules regarding bonus pay apply.<br><br>Press any key to begin.","response":" ","trial_type":"html-keyboard-response","trial_index":135,"time_elapsed":571628,"internal_node_id":"0.0-5.0","subject_id":"5da760eae8174b001640d369","study_id":"6197b3f67c2b5cd3b6d9596a","session_id":"619be3200778af80abd78ebe","condition":"contingent","relevant_dimensions":["antennae","pattern"],"bee_group":{"antennae":"B","wings":"X","pattern":"S","legs":"X"},"bonus":0.6800000000000009},{"rt":4859,"stimulus":"bees-with-color/bee-A1SM.svg","response":1,"trial_type":"image-button-response","trial_index":136,"time_elapsed":576492,"internal_node_id":"0.0-6.0-0.0","subject_id":"5da760eae8174b001640d369","study_id":"6197b3f67c2b5cd3b6d9596a","session_id":"619be3200778af80abd78ebe","condition":"contingent","relevant_dimensions":["antennae","pattern"],"bee_group":{"antennae":"B","wings":"X","pattern":"S","legs":"X"},"bonus":0.6800000000000009},{"rt":1380.3999999985099,"stimulus":"bees-with-color/bee-B1DF.svg","response":0,"trial_type":"image-button-response","trial_index":137,"time_elapsed":577874,"internal_node_id":"0.0-6.0-0.1","subject_id":"5da760eae8174b001640d369","study_id":"6197b3f67c2b5cd3b6d9596a","session_id":"619be3200778af80abd78ebe","condition":"contingent","relevant_dimensions":["antennae","pattern"],"bee_group":{"antennae":"B","wings":"X","pattern":"S","legs":"X"},"bonus":0.6800000000000009},{"rt":1161.8999999985099,"stimulus":"bees-with-color/bee-A2DM.svg","response":0,"trial_type":"image-button-response","trial_index":138,"time_elapsed":579037,"internal_node_id":"0.0-6.0-0.2","subject_id":"5da760eae8174b001640d369","study_id":"6197b3f67c2b5cd3b6d9596a","session_id":"619be3200778af80abd78ebe","condition":"contingent","relevant_dimensions":["antennae","pattern"],"bee_group":{"antennae":"B","wings":"X","pattern":"S","legs":"X"},"bonus":0.6800000000000009},{"rt":1053.7000000029802,"stimulus":"bees-with-color/bee-A2SM.svg","response":1,"trial_type":"image-button-response","trial_index":139,"time_elapsed":580092,"internal_node_id":"0.0-6.0-0.3","subject_id":"5da760eae8174b001640d369","study_id":"6197b3f67c2b5cd3b6d9596a","session_id":"619be3200778af80abd78ebe","condition":"contingent","relevant_dimensions":["antennae","pattern"],"bee_group":{"antennae":"B","wings":"X","pattern":"S","legs":"X"},"bonus":0.6800000000000009},{"rt":914.1000000014901,"stimulus":"bees-with-color/bee-B1SM.svg","response":1,"trial_type":"image-button-response","trial_index":140,"time_elapsed":581007,"internal_node_id":"0.0-6.0-0.4","subject_id":"5da760eae8174b001640d369","study_id":"6197b3f67c2b5cd3b6d9596a","session_id":"619be3200778af80abd78ebe","condition":"contingent","relevant_dimensions":["antennae","pattern"],"bee_group":{"antennae":"B","wings":"X","pattern":"S","legs":"X"},"bonus":0.6800000000000009},{"rt":1145.1999999955297,"stimulus":"bees-with-color/bee-A2SF.svg","response":1,"trial_type":"image-button-response","trial_index":141,"time_elapsed":582153,"internal_node_id":"0.0-6.0-0.5","subject_id":"5da760eae8174b001640d369","study_id":"6197b3f67c2b5cd3b6d9596a","session_id":"619be3200778af80abd78ebe","condition":"contingent","relevant_dimensions":["antennae","pattern"],"bee_group":{"antennae":"B","wings":"X","pattern":"S","legs":"X"},"bonus":0.6800000000000009},{"rt":1053.7000000029802,"stimulus":"bees-with-color/bee-B1SF.svg","response":1,"trial_type":"image-button-response","trial_index":142,"time_elapsed":583208,"internal_node_id":"0.0-6.0-0.6","subject_id":"5da760eae8174b001640d369","study_id":"6197b3f67c2b5cd3b6d9596a","session_id":"619be3200778af80abd78ebe","condition":"contingent","relevant_dimensions":["antennae","pattern"],"bee_group":{"antennae":"B","wings":"X","pattern":"S","legs":"X"},"bonus":0.6800000000000009},{"rt":816.7999999970198,"stimulus":"bees-with-color/bee-B2DM.svg","response":0,"trial_type":"image-button-response","trial_index":143,"time_elapsed":584026,"internal_node_id":"0.0-6.0-0.7","subject_id":"5da760eae8174b001640d369","study_id":"6197b3f67c2b5cd3b6d9596a","session_id":"619be3200778af80abd78ebe","condition":"contingent","relevant_dimensions":["antennae","pattern"],"bee_group":{"antennae":"B","wings":"X","pattern":"S","legs":"X"},"bonus":0.6800000000000009},{"rt":968.8999999985099,"stimulus":"bees-with-color/bee-B2SF.svg","response":1,"trial_type":"image-button-response","trial_index":144,"time_elapsed":584996,"internal_node_id":"0.0-6.0-0.8","subject_id":"5da760eae8174b001640d369","study_id":"6197b3f67c2b5cd3b6d9596a","session_id":"619be3200778af80abd78ebe","condition":"contingent","relevant_dimensions":["antennae","pattern"],"bee_group":{"antennae":"B","wings":"X","pattern":"S","legs":"X"},"bonus":0.6800000000000009},{"rt":2272.10000000149,"stimulus":"bees-with-color/bee-A1SF.svg","response":1,"trial_type":"image-button-response","trial_index":145,"time_elapsed":587269,"internal_node_id":"0.0-6.0-0.9","subject_id":"5da760eae8174b001640d369","study_id":"6197b3f67c2b5cd3b6d9596a","session_id":"619be3200778af80abd78ebe","condition":"contingent","relevant_dimensions":["antennae","pattern"],"bee_group":{"antennae":"B","wings":"X","pattern":"S","legs":"X"},"bonus":0.6800000000000009},{"rt":822.6000000014901,"stimulus":"bees-with-color/bee-A2DF.svg","response":0,"trial_type":"image-button-response","trial_index":146,"time_elapsed":588093,"internal_node_id":"0.0-6.0-0.10","subject_id":"5da760eae8174b001640d369","study_id":"6197b3f67c2b5cd3b6d9596a","session_id":"619be3200778af80abd78ebe","condition":"contingent","relevant_dimensions":["antennae","pattern"],"bee_group":{"antennae":"B","wings":"X","pattern":"S","legs":"X"},"bonus":0.6800000000000009},{"rt":818,"stimulus":"bees-with-color/bee-A1DM.svg","response":0,"trial_type":"image-button-response","trial_index":147,"time_elapsed":588912,"internal_node_id":"0.0-6.0-0.11","subject_id":"5da760eae8174b001640d369","study_id":"6197b3f67c2b5cd3b6d9596a","session_id":"619be3200778af80abd78ebe","condition":"contingent","relevant_dimensions":["antennae","pattern"],"bee_group":{"antennae":"B","wings":"X","pattern":"S","legs":"X"},"bonus":0.6800000000000009},{"rt":810.8999999985099,"stimulus":"bees-with-color/bee-B1DM.svg","response":0,"trial_type":"image-button-response","trial_index":148,"time_elapsed":589724,"internal_node_id":"0.0-6.0-0.12","subject_id":"5da760eae8174b001640d369","study_id":"6197b3f67c2b5cd3b6d9596a","session_id":"619be3200778af80abd78ebe","condition":"contingent","relevant_dimensions":["antennae","pattern"],"bee_group":{"antennae":"B","wings":"X","pattern":"S","legs":"X"},"bonus":0.6800000000000009},{"rt":937.7999999970198,"stimulus":"bees-with-color/bee-B2SM.svg","response":1,"trial_type":"image-button-response","trial_index":149,"time_elapsed":590663,"internal_node_id":"0.0-6.0-0.13","subject_id":"5da760eae8174b001640d369","study_id":"6197b3f67c2b5cd3b6d9596a","session_id":"619be3200778af80abd78ebe","condition":"contingent","relevant_dimensions":["antennae","pattern"],"bee_group":{"antennae":"B","wings":"X","pattern":"S","legs":"X"},"bonus":0.6800000000000009},{"rt":805,"stimulus":"bees-with-color/bee-B2DF.svg","response":0,"trial_type":"image-button-response","trial_index":150,"time_elapsed":591469,"internal_node_id":"0.0-6.0-0.14","subject_id":"5da760eae8174b001640d369","study_id":"6197b3f67c2b5cd3b6d9596a","session_id":"619be3200778af80abd78ebe","condition":"contingent","relevant_dimensions":["antennae","pattern"],"bee_group":{"antennae":"B","wings":"X","pattern":"S","legs":"X"},"bonus":0.6800000000000009},{"rt":1302,"stimulus":"bees-with-color/bee-A1DF.svg","response":0,"trial_type":"image-button-response","trial_index":151,"time_elapsed":592772,"internal_node_id":"0.0-6.0-0.15","subject_id":"5da760eae8174b001640d369","study_id":"6197b3f67c2b5cd3b6d9596a","session_id":"619be3200778af80abd78ebe","condition":"contingent","relevant_dimensions":["antennae","pattern"],"bee_group":{"antennae":"B","wings":"X","pattern":"S","legs":"X"},"bonus":0.6800000000000009},{"rt":969,"stimulus":"bees-with-color/bee-A1SF.svg","response":1,"trial_type":"image-button-response","trial_index":152,"time_elapsed":593742,"internal_node_id":"0.0-6.0-0.16","subject_id":"5da760eae8174b001640d369","study_id":"6197b3f67c2b5cd3b6d9596a","session_id":"619be3200778af80abd78ebe","condition":"contingent","relevant_dimensions":["antennae","pattern"],"bee_group":{"antennae":"B","wings":"X","pattern":"S","legs":"X"},"bonus":0.6800000000000009},{"rt":726.8999999985099,"stimulus":"bees-with-color/bee-B2SM.svg","response":1,"trial_type":"image-button-response","trial_index":153,"time_elapsed":594470,"internal_node_id":"0.0-6.0-0.17","subject_id":"5da760eae8174b001640d369","study_id":"6197b3f67c2b5cd3b6d9596a","session_id":"619be3200778af80abd78ebe","condition":"contingent","relevant_dimensions":["antennae","pattern"],"bee_group":{"antennae":"B","wings":"X","pattern":"S","legs":"X"},"bonus":0.6800000000000009},{"rt":635.2000000029802,"stimulus":"bees-with-color/bee-A2SM.svg","response":1,"trial_type":"image-button-response","trial_index":154,"time_elapsed":595106,"internal_node_id":"0.0-6.0-0.18","subject_id":"5da760eae8174b001640d369","study_id":"6197b3f67c2b5cd3b6d9596a","session_id":"619be3200778af80abd78ebe","condition":"contingent","relevant_dimensions":["antennae","pattern"],"bee_group":{"antennae":"B","wings":"X","pattern":"S","legs":"X"},"bonus":0.6800000000000009},{"rt":925.8999999985099,"stimulus":"bees-with-color/bee-A2DM.svg","response":0,"trial_type":"image-button-response","trial_index":155,"time_elapsed":596033,"internal_node_id":"0.0-6.0-0.19","subject_id":"5da760eae8174b001640d369","study_id":"6197b3f67c2b5cd3b6d9596a","session_id":"619be3200778af80abd78ebe","condition":"contingent","relevant_dimensions":["antennae","pattern"],"bee_group":{"antennae":"B","wings":"X","pattern":"S","legs":"X"},"bonus":0.6800000000000009},{"rt":1012.2000000029802,"stimulus":"bees-with-color/bee-A1SM.svg","response":1,"trial_type":"image-button-response","trial_index":156,"time_elapsed":597046,"internal_node_id":"0.0-6.0-0.20","subject_id":"5da760eae8174b001640d369","study_id":"6197b3f67c2b5cd3b6d9596a","session_id":"619be3200778af80abd78ebe","condition":"contingent","relevant_dimensions":["antennae","pattern"],"bee_group":{"antennae":"B","wings":"X","pattern":"S","legs":"X"},"bonus":0.6800000000000009},{"rt":840.8999999985099,"stimulus":"bees-with-color/bee-A2DF.svg","response":0,"trial_type":"image-button-response","trial_index":157,"time_elapsed":597888,"internal_node_id":"0.0-6.0-0.21","subject_id":"5da760eae8174b001640d369","study_id":"6197b3f67c2b5cd3b6d9596a","session_id":"619be3200778af80abd78ebe","condition":"contingent","relevant_dimensions":["antennae","pattern"],"bee_group":{"antennae":"B","wings":"X","pattern":"S","legs":"X"},"bonus":0.6800000000000009},{"rt":872.5,"stimulus":"bees-with-color/bee-B1SM.svg","response":1,"trial_type":"image-button-response","trial_index":158,"time_elapsed":598761,"internal_node_id":"0.0-6.0-0.22","subject_id":"5da760eae8174b001640d369","study_id":"6197b3f67c2b5cd3b6d9596a","session_id":"619be3200778af80abd78ebe","condition":"contingent","relevant_dimensions":["antennae","pattern"],"bee_group":{"antennae":"B","wings":"X","pattern":"S","legs":"X"},"bonus":0.6800000000000009},{"rt":871.6000000014901,"stimulus":"bees-with-color/bee-A2SF.svg","response":1,"trial_type":"image-button-response","trial_index":159,"time_elapsed":599634,"internal_node_id":"0.0-6.0-0.23","subject_id":"5da760eae8174b001640d369","study_id":"6197b3f67c2b5cd3b6d9596a","session_id":"619be3200778af80abd78ebe","condition":"contingent","relevant_dimensions":["antennae","pattern"],"bee_group":{"antennae":"B","wings":"X","pattern":"S","legs":"X"},"bonus":0.6800000000000009},{"rt":920.3000000044703,"stimulus":"bees-with-color/bee-B2DM.svg","response":0,"trial_type":"image-button-response","trial_index":160,"time_elapsed":600555,"internal_node_id":"0.0-6.0-0.24","subject_id":"5da760eae8174b001640d369","study_id":"6197b3f67c2b5cd3b6d9596a","session_id":"619be3200778af80abd78ebe","condition":"contingent","relevant_dimensions":["antennae","pattern"],"bee_group":{"antennae":"B","wings":"X","pattern":"S","legs":"X"},"bonus":0.6800000000000009},{"rt":805.2000000029802,"stimulus":"bees-with-color/bee-B1SF.svg","response":1,"trial_type":"image-button-resp