[{"success":true,"trial_type":"fullscreen","trial_index":0,"time_elapsed":4104,"internal_node_id":"0.0-0.0","subject_id":"6169e8a8311d269013eb73c7","study_id":"60edd13110225f80f9f3709b","session_id":"6196c7076ddd167ceb8e8a66","condition":"full-information","relevant_dimensions":["pattern","legs"],"bee_group":{"antennae":"X","wings":"X","pattern":"S","legs":"F"},"bonus":0.02},{"success":true,"timeout":false,"failed_images":[],"failed_audio":[],"failed_video":[],"trial_type":"preload","trial_index":1,"time_elapsed":5686,"internal_node_id":"0.0-1.0","subject_id":"6169e8a8311d269013eb73c7","study_id":"60edd13110225f80f9f3709b","session_id":"6196c7076ddd167ceb8e8a66","condition":"full-information","relevant_dimensions":["pattern","legs"],"bee_group":{"antennae":"X","wings":"X","pattern":"S","legs":"F"},"bonus":0.02},{"rt":2249.7000000476837,"stimulus":"Welcome! Press any key to begin.","response":"enter","trial_type":"html-keyboard-response","trial_index":2,"time_elapsed":7938,"internal_node_id":"0.0-2.0","subject_id":"6169e8a8311d269013eb73c7","study_id":"60edd13110225f80f9f3709b","session_id":"6196c7076ddd167ceb8e8a66","condition":"full-information","relevant_dimensions":["pattern","legs"],"bee_group":{"antennae":"X","wings":"X","pattern":"S","legs":"F"},"bonus":0.02},{"view_history":[{"page_index":0,"viewing_time":5178.800000071526},{"page_index":1,"viewing_time":15900.299999952316},{"page_index":2,"viewing_time":17470.899999976158},{"page_index":3,"viewing_time":22077.200000047684},{"page_index":4,"viewing_time":7403.299999952316},{"page_index":5,"viewing_time":9108.200000047684},{"page_index":6,"viewing_time":7110.799999952316},{"page_index":7,"viewing_time":6386.300000071526},{"page_index":8,"viewing_time":4719.899999976158},{"page_index":9,"viewing_time":3786.399999976158},{"page_index":10,"viewing_time":3091.899999976158},{"page_index":11,"viewing_time":12107.700000047684},{"page_index":12,"viewing_time":33965.89999997616},{"page_index":13,"viewing_time":1753.1000000238419},{"page_index":14,"viewing_time":2446.6999999284744}],"rt":152508.10000002384,"trial_type":"instructions","trial_index":3,"time_elapsed":160449,"internal_node_id":"0.0-3.0-0.0","subject_id":"6169e8a8311d269013eb73c7","study_id":"60edd13110225f80f9f3709b","session_id":"6196c7076ddd167ceb8e8a66","condition":"full-information","relevant_dimensions":["pattern","legs"],"bee_group":{"antennae":"X","wings":"X","pattern":"S","legs":"F"},"bonus":0.02},{"rt":13277.700000047684,"response":{"Q0":["Two or six legs","Stripes or spots on body","Single or double wings","Antennae or no antennae"]},"question_order":[0],"trial_type":"survey-multi-select","trial_index":4,"time_elapsed":173737,"internal_node_id":"0.0-3.0-1.0","subject_id":"6169e8a8311d269013eb73c7","study_id":"60edd13110225f80f9f3709b","session_id":"6196c7076ddd167ceb8e8a66","condition":"full-information","relevant_dimensions":["pattern","legs"],"bee_group":{"antennae":"X","wings":"X","pattern":"S","legs":"F"},"correct":true,"bonus":0.02},{"rt":26577.100000023842,"response":{"Q1":"Yes.","Q2":"Based on the four features of the bee.","Q3":"You learn if it was friendly or dangerous, but do not alter your bonus."},"question_order":[0,1,2],"trial_type":"survey-multi-choice","trial_index":5,"time_elapsed":200320,"internal_node_id":"0.0-3.0-2.0","subject_id":"6169e8a8311d269013eb73c7","study_id":"60edd13110225f80f9f3709b","session_id":"6196c7076ddd167ceb8e8a66","condition":"full-information","relevant_dimensions":["pattern","legs"],"bee_group":{"antennae":"X","wings":"X","pattern":"S","legs":"F"},"correct":false,"bonus":0.02},{"rt":3847.7999999523163,"stimulus":"<p>You did not answer all comprehension questions correctly.<br>Press <b>continue</b> to review the instructions again.</p>","response":0,"trial_type":"html-button-response","trial_index":6,"time_elapsed":204172,"internal_node_id":"0.0-3.0-3.0","subject_id":"6169e8a8311d269013eb73c7","study_id":"60edd13110225f80f9f3709b","session_id":"6196c7076ddd167ceb8e8a66","condition":"full-information","relevant_dimensions":["pattern","legs"],"bee_group":{"antennae":"X","wings":"X","pattern":"S","legs":"F"},"bonus":0.02},{"view_history":[{"page_index":0,"viewing_time":2885.5},{"page_index":1,"viewing_time":17606.799999952316},{"page_index":2,"viewing_time":6587.5},{"page_index":3,"viewing_time":14277.899999976158},{"page_index":4,"viewing_time":13227.700000047684},{"page_index":5,"viewing_time":10031.200000047684},{"page_index":6,"viewing_time":4604.5},{"page_index":7,"viewing_time":1898.5},{"page_index":8,"viewing_time":1194.5},{"page_index":9,"viewing_time":1416.0999999046326},{"page_index":10,"viewing_time":1232.3000000715256},{"page_index":11,"viewing_time":1955.7999999523163},{"page_index":12,"viewing_time":3148.399999976158},{"page_index":13,"viewing_time":1349.6000000238419},{"page_index":14,"viewing_time":1135.3999999761581}],"rt":82552.39999997616,"trial_type":"instructions","trial_index":7,"time_elapsed":286727,"internal_node_id":"0.0-3.0-4.0-0.0","subject_id":"6169e8a8311d269013eb73c7","study_id":"60edd13110225f80f9f3709b","session_id":"6196c7076ddd167ceb8e8a66","condition":"full-information","relevant_dimensions":["pattern","legs"],"bee_group":{"antennae":"X","wings":"X","pattern":"S","legs":"F"},"bonus":0.02},{"rt":9605.299999952316,"response":{"Q0":["Two or six legs","Stripes or spots on body","Single or double wings","Antennae or no antennae"]},"question_order":[0],"trial_type":"survey-multi-select","trial_index":8,"time_elapsed":296341,"internal_node_id":"0.0-3.0-4.0-1.0","subject_id":"6169e8a8311d269013eb73c7","study_id":"60edd13110225f80f9f3709b","session_id":"6196c7076ddd167ceb8e8a66","condition":"full-information","relevant_dimensions":["pattern","legs"],"bee_group":{"antennae":"X","wings":"X","pattern":"S","legs":"F"},"correct":true,"bonus":0.02},{"rt":42994.59999990463,"response":{"Q1":"No.","Q2":"Based on the four features of the bee.","Q3":"You learn if it was friendly or dangerous, but do not alter your bonus."},"question_order":[0,1,2],"trial_type":"survey-multi-choice","trial_index":9,"time_elapsed":339340,"internal_node_id":"0.0-3.0-4.0-2.0","subject_id":"6169e8a8311d269013eb73c7","study_id":"60edd13110225f80f9f3709b","session_id":"6196c7076ddd167ceb8e8a66","condition":"full-information","relevant_dimensions":["pattern","legs"],"bee_group":{"antennae":"X","wings":"X","pattern":"S","legs":"F"},"correct":true,"bonus":0.02},{"rt":2904.399999976158,"stimulus":"<p>Congrats, you got everything right<br>When you're ready, click the button below to continue to the experiment.</p>","response":0,"trial_type":"html-button-response","trial_index":10,"time_elapsed":342248,"internal_node_id":"0.0-3.0-4.0-3.0","subject_id":"6169e8a8311d269013eb73c7","study_id":"60edd13110225f80f9f3709b","session_id":"6196c7076ddd167ceb8e8a66","condition":"full-information","relevant_dimensions":["pattern","legs"],"bee_group":{"antennae":"X","wings":"X","pattern":"S","legs":"F"},"bonus":0.02},{"rt":3498.7999999523163,"stimulus":"bees-with-color/bee-A2SM.svg","response":1,"trial_type":"image-button-response","trial_index":11,"time_elapsed":345755,"internal_node_id":"0.0-4.0-0.0","subject_id":"6169e8a8311d269013eb73c7","study_id":"60edd13110225f80f9f3709b","session_id":"6196c7076ddd167ceb8e8a66","condition":"full-information","relevant_dimensions":["pattern","legs"],"bee_group":{"antennae":"X","wings":"X","pattern":"S","legs":"F"},"action":"avoid","summary":"bad-avoid","bonus":0.02},{"rt":4615.799999952316,"stimulus":"\n                    <p><b>Action: <em>avoid</em></b></p>\n                    <p>This is the bee that you just saw.</p>\n                    <img src=\"bees-with-color/bee-A2SM.svg\" width=\"200\">\n                    <p><span class=\"redText\">Bad choice,</span> the bee was friendly.<br>Your bonus pay is unchanged, and remains at $0.54.</p>\n            ","response":0,"trial_type":"html-button-response","trial_index":12,"time_elapsed":350377,"internal_node_id":"0.0-4.0-1.0","subject_id":"6169e8a8311d269013eb73c7","study_id":"60edd13110225f80f9f3709b","session_id":"6196c7076ddd167ceb8e8a66","condition":"full-information","relevant_dimensions":["pattern","legs"],"bee_group":{"antennae":"X","wings":"X","pattern":"S","legs":"F"},"bonus":0.02},{"rt":1582.8000000715256,"stimulus":"bees-with-color/bee-B1SF.svg","response":1,"trial_type":"image-button-response","trial_index":13,"time_elapsed":351967,"internal_node_id":"0.0-4.0-0.1","subject_id":"6169e8a8311d269013eb73c7","study_id":"60edd13110225f80f9f3709b","session_id":"6196c7076ddd167ceb8e8a66","condition":"full-information","relevant_dimensions":["pattern","legs"],"bee_group":{"antennae":"X","wings":"X","pattern":"S","legs":"F"},"action":"avoid","summary":"good-avoid","bonus":0.02},{"rt":5070.299999952316,"stimulus":"\n                    <p><b>Action: <em>avoid</em></b></p>\n                    <p>This is the bee that you just saw.</p>\n                    <img src=\"bees-with-color/bee-B1SF.svg\" width=\"200\">\n                    <p><span class=\"greenText\">Good choice!</span>  This bee would have stung you.<br>Your bonus pay is unchanged, and remains at $0.54.</p>\n            ","response":0,"trial_type":"html-button-response","trial_index":14,"time_elapsed":357042,"internal_node_id":"0.0-4.0-1.1","subject_id":"6169e8a8311d269013eb73c7","study_id":"60edd13110225f80f9f3709b","session_id":"6196c7076ddd167ceb8e8a66","condition":"full-information","relevant_dimensions":["pattern","legs"],"bee_group":{"antennae":"X","wings":"X","pattern":"S","legs":"F"},"bonus":0.02},{"rt":1649.3999999761581,"stimulus":"bees-with-color/bee-A2DF.svg","response":0,"trial_type":"image-button-response","trial_index":15,"time_elapsed":358698,"internal_node_id":"0.0-4.0-0.2","subject_id":"6169e8a8311d269013eb73c7","study_id":"60edd13110225f80f9f3709b","session_id":"6196c7076ddd167ceb8e8a66","condition":"full-information","relevant_dimensions":["pattern","legs"],"bee_group":{"antennae":"X","wings":"X","pattern":"S","legs":"F"},"action":"harvest","summary":"good-harvest","bonus":0.02},{"rt":4733.899999976158,"stimulus":"\n                    <p><b>Action: <em>harvest</em></b></p>\n                    <p>This is the bee that you just saw.</p>\n                    <img src=\"bees-with-color/bee-A2DF.svg\" width=\"200\">\n                    <p><span class=\"greenText\"><b>Successful harvest!</b></span><br>Your pay has increased by $0.02. Your bonus pay is now $0.56.</p>\n            ","response":0,"trial_type":"html-button-response","trial_index":16,"time_elapsed":363436,"internal_node_id":"0.0-4.0-1.2","subject_id":"6169e8a8311d269013eb73c7","study_id":"60edd13110225f80f9f3709b","session_id":"6196c7076ddd167ceb8e8a66","condition":"full-information","relevant_dimensions":["pattern","legs"],"bee_group":{"antennae":"X","wings":"X","pattern":"S","legs":"F"},"bonus":0.02},{"rt":2519.5,"stimulus":"bees-with-color/bee-A2SF.svg","response":0,"trial_type":"image-button-response","trial_index":17,"time_elapsed":365961,"internal_node_id":"0.0-4.0-0.3","subject_id":"6169e8a8311d269013eb73c7","study_id":"60edd13110225f80f9f3709b","session_id":"6196c7076ddd167ceb8e8a66","condition":"full-information","relevant_dimensions":["pattern","legs"],"bee_group":{"antennae":"X","wings":"X","pattern":"S","legs":"F"},"action":"harvest","summary":"bad-harvest","bonus":0.02},{"rt":2864.399999976158,"stimulus":"\n                    <p><b>Action: <em>harvest</em></b></p>\n                    <p>This is the bee that you just saw.</p>\n                    <img src=\"bees-with-color/bee-A2SF.svg\" width=\"200\">\n                    <p><span class=\"redText\">Bad choice, the bee was angry.</span><br><b>You have been stung!</b><br>Your pay has been decreased by $0.10. Your bonus pay is now $0.46.</p>\n            ","response":0,"trial_type":"html-button-response","trial_index":18,"time_elapsed":368831,"internal_node_id":"0.0-4.0-1.3","subject_id":"6169e8a8311d269013eb73c7","study_id":"60edd13110225f80f9f3709b","session_id":"6196c7076ddd167ceb8e8a66","condition":"full-information","relevant_dimensions":["pattern","legs"],"bee_group":{"antennae":"X","wings":"X","pattern":"S","legs":"F"},"bonus":0.02},{"rt":2103.4000000953674,"stimulus":"bees-with-color/bee-B2SM.svg","response":0,"trial_type":"image-button-response","trial_index":19,"time_elapsed":370940,"internal_node_id":"0.0-4.0-0.4","subject_id":"6169e8a8311d269013eb73c7","study_id":"60edd13110225f80f9f3709b","session_id":"6196c7076ddd167ceb8e8a66","condition":"full-information","relevant_dimensions":["pattern","legs"],"bee_group":{"antennae":"X","wings":"X","pattern":"S","legs":"F"},"action":"harvest","summary":"good-harvest","bonus":0.02},{"rt":3960.899999976158,"stimulus":"\n                    <p><b>Action: <em>harvest</em></b></p>\n                    <p>This is the bee that you just saw.</p>\n                    <img src=\"bees-with-color/bee-B2SM.svg\" width=\"200\">\n                    <p><span class=\"greenText\"><b>Successful harvest!</b></span><br>Your pay has increased by $0.02. Your bonus pay is now $0.48.</p>\n            ","response":0,"trial_type":"html-button-response","trial_index":20,"time_elapsed":374907,"internal_node_id":"0.0-4.0-1.4","subject_id":"6169e8a8311d269013eb73c7","study_id":"60edd13110225f80f9f3709b","session_id":"6196c7076ddd167ceb8e8a66","condition":"full-information","relevant_dimensions":["pattern","legs"],"bee_group":{"antennae":"X","wings":"X","pattern":"S","legs":"F"},"bonus":0.02},{"rt":1939.3999999761581,"stimulus":"bees-with-color/bee-A1DF.svg","response":1,"trial_type":"image-button-response","trial_index":21,"time_elapsed":376852,"internal_node_id":"0.0-4.0-0.5","subject_id":"6169e8a8311d269013eb73c7","study_id":"60edd13110225f80f9f3709b","session_id":"6196c7076ddd167ceb8e8a66","condition":"full-information","relevant_dimensions":["pattern","legs"],"bee_group":{"antennae":"X","wings":"X","pattern":"S","legs":"F"},"action":"avoid","summary":"bad-avoid","bonus":0.02},{"rt":2277.1999999284744,"stimulus":"\n                    <p><b>Action: <em>avoid</em></b></p>\n                    <p>This is the bee that you just saw.</p>\n                    <img src=\"bees-with-color/bee-A1DF.svg\" width=\"200\">\n                    <p><span class=\"redText\">Bad choice,</span> the bee was friendly.<br>Your bonus pay is unchanged, and remains at $0.48.</p>\n            ","response":0,"trial_type":"html-button-response","trial_index":22,"time_elapsed":379134,"internal_node_id":"0.0-4.0-1.5","subject_id":"6169e8a8311d269013eb73c7","study_id":"60edd13110225f80f9f3709b","session_id":"6196c7076ddd167ceb8e8a66","condition":"full-information","relevant_dimensions":["pattern","legs"],"bee_group":{"antennae":"X","wings":"X","pattern":"S","legs":"F"},"bonus":0.02},{"rt":2568.2999999523163,"stimulus":"bees-with-color/bee-B2DF.svg","response":1,"trial_type":"image-button-response","trial_index":23,"time_elapsed":381707,"internal_node_id":"0.0-4.0-0.6","subject_id":"6169e8a8311d269013eb73c7","study_id":"60edd13110225f80f9f3709b","session_id":"6196c7076ddd167ceb8e8a66","condition":"full-information","relevant_dimensions":["pattern","legs"],"bee_group":{"antennae":"X","wings":"X","pattern":"S","legs":"F"},"action":"avoid","summary":"bad-avoid","bonus":0.02},{"rt":2471.100000023842,"stimulus":"\n                    <p><b>Action: <em>avoid</em></b></p>\n                    <p>This is the bee that you just saw.</p>\n                    <img src=\"bees-with-color/bee-B2DF.svg\" width=\"200\">\n                    <p><span class=\"redText\">Bad choice,</span> the bee was friendly.<br>Your bonus pay is unchanged, and remains at $0.48.</p>\n            ","response":0,"trial_type":"html-button-response","trial_index":24,"time_elapsed":384181,"internal_node_id":"0.0-4.0-1.6","subject_id":"6169e8a8311d269013eb73c7","study_id":"60edd13110225f80f9f3709b","session_id":"6196c7076ddd167ceb8e8a66","condition":"full-information","relevant_dimensions":["pattern","legs"],"bee_group":{"antennae":"X","wings":"X","pattern":"S","legs":"F"},"bonus":0.02},{"rt":1672.3999999761581,"stimulus":"bees-with-color/bee-A2DM.svg","response":1,"trial_type":"image-button-response","trial_index":25,"time_elapsed":385857,"internal_node_id":"0.0-4.0-0.7","subject_id":"6169e8a8311d269013eb73c7","study_id":"60edd13110225f80f9f3709b","session_id":"6196c7076ddd167ceb8e8a66","condition":"full-information","relevant_dimensions":["pattern","legs"],"bee_group":{"antennae":"X","wings":"X","pattern":"S","legs":"F"},"action":"avoid","summary":"bad-avoid","bonus":0.02},{"rt":1632.3999999761581,"stimulus":"\n                    <p><b>Action: <em>avoid</em></b></p>\n                    <p>This is the bee that you just saw.</p>\n                    <img src=\"bees-with-color/bee-A2DM.svg\" width=\"200\">\n                    <p><span class=\"redText\">Bad choice,</span> the bee was friendly.<br>Your bonus pay is unchanged, and remains at $0.48.</p>\n            ","response":0,"trial_type":"html-button-response","trial_index":26,"time_elapsed":387493,"internal_node_id":"0.0-4.0-1.7","subject_id":"6169e8a8311d269013eb73c7","study_id":"60edd13110225f80f9f3709b","session_id":"6196c7076ddd167ceb8e8a66","condition":"full-information","relevant_dimensions":["pattern","legs"],"bee_group":{"antennae":"X","wings":"X","pattern":"S","legs":"F"},"bonus":0.02},{"rt":1372.2999999523163,"stimulus":"bees-with-color/bee-B1DM.svg","response":1,"trial_type":"image-button-response","trial_index":27,"time_elapsed":388871,"internal_node_id":"0.0-4.0-0.8","subject_id":"6169e8a8311d269013eb73c7","study_id":"60edd13110225f80f9f3709b","session_id":"6196c7076ddd167ceb8e8a66","condition":"full-information","relevant_dimensions":["pattern","legs"],"bee_group":{"antennae":"X","wings":"X","pattern":"S","legs":"F"},"action":"avoid","summary":"bad-avoid","bonus":0.02},{"rt":1508.1000000238419,"stimulus":"\n                    <p><b>Action: <em>avoid</em></b></p>\n                    <p>This is the bee that you just saw.</p>\n                    <img src=\"bees-with-color/bee-B1DM.svg\" width=\"200\">\n                    <p><span class=\"redText\">Bad choice,</span> the bee was friendly.<br>Your bonus pay is unchanged, and remains at $0.48.</p>\n            ","response":0,"trial_type":"html-button-response","trial_index":28,"time_elapsed":390382,"internal_node_id":"0.0-4.0-1.8","subject_id":"6169e8a8311d269013eb73c7","study_id":"60edd13110225f80f9f3709b","session_id":"6196c7076ddd167ceb8e8a66","condition":"full-information","relevant_dimensions":["pattern","legs"],"bee_group":{"antennae":"X","wings":"X","pattern":"S","legs":"F"},"bonus":0.02},{"rt":1220.8999999761581,"stimulus":"bees-with-color/bee-B1SM.svg","response":0,"trial_type":"image-button-response","trial_index":29,"time_elapsed":391606,"internal_node_id":"0.0-4.0-0.9","subject_id":"6169e8a8311d269013eb73c7","study_id":"60edd13110225f80f9f3709b","session_id":"6196c7076ddd167ceb8e8a66","condition":"full-information","relevant_dimensions":["pattern","legs"],"bee_group":{"antennae":"X","wings":"X","pattern":"S","legs":"F"},"action":"harvest","summary":"good-harvest","bonus":0.02},{"rt":3597.100000023842,"stimulus":"\n                    <p><b>Action: <em>harvest</em></b></p>\n                    <p>This is the bee that you just saw.</p>\n                    <img src=\"bees-with-color/bee-B1SM.svg\" width=\"200\">\n                    <p><span class=\"greenText\"><b>Successful harvest!</b></span><br>Your pay has increased by $0.02. Your bonus pay is now $0.50.</p>\n            ","response":0,"trial_type":"html-button-response","trial_index":30,"time_elapsed":395207,"internal_node_id":"0.0-4.0-1.9","subject_id":"6169e8a8311d269013eb73c7","study_id":"60edd13110225f80f9f3709b","session_id":"6196c7076ddd167ceb8e8a66","condition":"full-information","relevant_dimensions":["pattern","legs"],"bee_group":{"antennae":"X","wings":"X","pattern":"S","legs":"F"},"bonus":0.02},{"rt":2914.6999999284744,"stimulus":"bees-with-color/bee-B2DM.svg","response":1,"trial_type":"image-button-response","trial_index":31,"time_elapsed":398125,"internal_node_id":"0.0-4.0-0.10","subject_id":"6169e8a8311d269013eb73c7","study_id":"60edd13110225f80f9f3709b","session_id":"6196c7076ddd167ceb8e8a66","condition":"full-information","relevant_dimensions":["pattern","legs"],"bee_group":{"antennae":"X","wings":"X","pattern":"S","legs":"F"},"action":"avoid","summary":"bad-avoid","bonus":0.02},{"rt":1459.8000000715256,"stimulus":"\n                    <p><b>Action: <em>avoid</em></b></p>\n                    <p>This is the bee that you just saw.</p>\n                    <img src=\"bees-with-color/bee-B2DM.svg\" width=\"200\">\n                    <p><span class=\"redText\">Bad choice,</span> the bee was friendly.<br>Your bonus pay is unchanged, and remains at $0.50.</p>\n            ","response":0,"trial_type":"html-button-response","trial_index":32,"time_elapsed":399589,"internal_node_id":"0.0-4.0-1.10","subject_id":"6169e8a8311d269013eb73c7","study_id":"60edd13110225f80f9f3709b","session_id":"6196c7076ddd167ceb8e8a66","condition":"full-information","relevant_dimensions":["pattern","legs"],"bee_group":{"antennae":"X","wings":"X","pattern":"S","legs":"F"},"bonus":0.02},{"rt":1585.2000000476837,"stimulus":"bees-with-color/bee-A1SM.svg","response":0,"trial_type":"image-button-response","trial_index":33,"time_elapsed":401178,"internal_node_id":"0.0-4.0-0.11","subject_id":"6169e8a8311d269013eb73c7","study_id":"60edd13110225f80f9f3709b","session_id":"6196c7076ddd167ceb8e8a66","condition":"full-information","relevant_dimensions":["pattern","legs"],"bee_group":{"antennae":"X","wings":"X","pattern":"S","legs":"F"},"action":"harvest","summary":"good-harvest","bonus":0.02},{"rt":2173.100000023842,"stimulus":"\n                    <p><b>Action: <em>harvest</em></b></p>\n                    <p>This is the bee that you just saw.</p>\n                    <img src=\"bees-with-color/bee-A1SM.svg\" width=\"200\">\n                    <p><span class=\"greenText\"><b>Successful harvest!</b></span><br>Your pay has increased by $0.02. Your bonus pay is now $0.52.</p>\n            ","response":0,"trial_type":"html-button-response","trial_index":34,"time_elapsed":403355,"internal_node_id":"0.0-4.0-1.11","subject_id":"6169e8a8311d269013eb73c7","study_id":"60edd13110225f80f9f3709b","session_id":"6196c7076ddd167ceb8e8a66","condition":"full-information","relevant_dimensions":["pattern","legs"],"bee_group":{"antennae":"X","wings":"X","pattern":"S","legs":"F"},"bonus":0.02},{"rt":2286.7999999523163,"stimulus":"bees-with-color/bee-A1DM.svg","response":1,"trial_type":"image-button-response","trial_index":35,"time_elapsed":405646,"internal_node_id":"0.0-4.0-0.12","subject_id":"6169e8a8311d269013eb73c7","study_id":"60edd13110225f80f9f3709b","session_id":"6196c7076ddd167ceb8e8a66","condition":"full-information","relevant_dimensions":["pattern","legs"],"bee_group":{"antennae":"X","wings":"X","pattern":"S","legs":"F"},"action":"avoid","summary":"bad-avoid","bonus":0.02},{"rt":1499.1999999284744,"stimulus":"\n                    <p><b>Action: <em>avoid</em></b></p>\n                    <p>This is the bee that you just saw.</p>\n                    <img src=\"bees-with-color/bee-A1DM.svg\" width=\"200\">\n                    <p><span class=\"redText\">Bad choice,</span> the bee was friendly.<br>Your bonus pay is unchanged, and remains at $0.52.</p>\n            ","response":0,"trial_type":"html-button-response","trial_index":36,"time_elapsed":407149,"internal_node_id":"0.0-4.0-1.12","subject_id":"6169e8a8311d269013eb73c7","study_id":"60edd13110225f80f9f3709b","session_id":"6196c7076ddd167ceb8e8a66","condition":"full-information","relevant_dimensions":["pattern","legs"],"bee_group":{"antennae":"X","wings":"X","pattern":"S","legs":"F"},"bonus":0.02},{"rt":1246.2000000476837,"stimulus":"bees-with-color/bee-B1DF.svg","response":0,"trial_type":"image-button-response","trial_index":37,"time_elapsed":408400,"internal_node_id":"0.0-4.0-0.13","subject_id":"6169e8a8311d269013eb73c7","study_id":"60edd13110225f80f9f3709b","session_id":"6196c7076ddd167ceb8e8a66","condition":"full-information","relevant_dimensions":["pattern","legs"],"bee_group":{"antennae":"X","wings":"X","pattern":"S","legs":"F"},"action":"harvest","summary":"good-harvest","bonus":0.02},{"rt":2059,"stimulus":"\n                    <p><b>Action: <em>harvest</em></b></p>\n                    <p>This is the bee that you just saw.</p>\n                    <img src=\"bees-with-color/bee-B1DF.svg\" width=\"200\">\n                    <p><span class=\"greenText\"><b>Successful harvest!</b></span><br>Your pay has increased by $0.02. Your bonus pay is now $0.54.</p>\n            ","response":0,"trial_type":"html-button-response","trial_index":38,"time_elapsed":410462,"internal_node_id":"0.0-4.0-1.13","subject_id":"6169e8a8311d269013eb73c7","study_id":"60edd13110225f80f9f3709b","session_id":"6196c7076ddd167ceb8e8a66","condition":"full-information","relevant_dimensions":["pattern","legs"],"bee_group":{"antennae":"X","wings":"X","pattern":"S","legs":"F"},"bonus":0.02},{"rt":2643.5,"stimulus":"bees-with-color/bee-B2SF.svg","response":1,"trial_type":"image-button-response","trial_index":39,"time_elapsed":413110,"internal_node_id":"0.0-4.0-0.14","subject_id":"6169e8a8311d269013eb73c7","study_id":"60edd13110225f80f9f3709b","session_id":"6196c7076ddd167ceb8e8a66","condition":"full-information","relevant_dimensions":["pattern","legs"],"bee_group":{"antennae":"X","wings":"X","pattern":"S","legs":"F"},"action":"avoid","summary":"good-avoid","bonus":0.02},{"rt":2374.7000000476837,"stimulus":"\n                    <p><b>Action: <em>avoid</em></b></p>\n                    <p>This is the bee that you just saw.</p>\n                    <img src=\"bees-with-color/bee-B2SF.svg\" width=\"200\">\n                    <p><span class=\"greenText\">Good choice!</span>  This bee would have stung you.<br>Your bonus pay is unchanged, and remains at $0.54.</p>\n            ","response":0,"trial_type":"html-button-response","trial_index":40,"time_elapsed":415490,"internal_node_id":"0.0-4.0-1.14","subject_id":"6169e8a8311d269013eb73c7","study_id":"60edd13110225f80f9f3709b","session_id":"6196c7076ddd167ceb8e8a66","condition":"full-information","relevant_dimensions":["pattern","legs"],"bee_group":{"antennae":"X","wings":"X","pattern":"S","legs":"F"},"bonus":0.02},{"rt":2248.2000000476837,"stimulus":"bees-with-color/bee-A1SF.svg","response":0,"trial_type":"image-button-response","trial_index":41,"time_elapsed":417743,"internal_node_id":"0.0-4.0-0.15","subject_id":"6169e8a8311d269013eb73c7","study_id":"60edd13110225f80f9f3709b","session_id":"6196c7076ddd167ceb8e8a66","condition":"full-information","relevant_dimensions":["pattern","legs"],"bee_group":{"antennae":"X","wings":"X","pattern":"S","legs":"F"},"action":"harvest","summary":"bad-harvest","bonus":0.02},{"rt":1718.6000000238419,"stimulus":"\n                    <p><b>Action: <em>harvest</em></b></p>\n                    <p>This is the bee that you just saw.</p>\n                    <img src=\"bees-with-color/bee-A1SF.svg\" width=\"200\">\n                    <p><span class=\"redText\">Bad choice, the bee was angry.</span><br><b>You have been stung!</b><br>Your pay has been decreased by $0.10. Your bonus pay is now $0.44.</p>\n            ","response":0,"trial_type":"html-button-response","trial_index":42,"time_elapsed":419465,"internal_node_id":"0.0-4.0-1.15","subject_id":"6169e8a8311d269013eb73c7","study_id":"60edd13110225f80f9f3709b","session_id":"6196c7076ddd167ceb8e8a66","condition":"full-information","relevant_dimensions":["pattern","legs"],"bee_group":{"antennae":"X","wings":"X","pattern":"S","legs":"F"},"bonus":0.02},{"rt":2192.100000023842,"stimulus":"bees-with-color/bee-A1DM.svg","response":0,"trial_type":"image-button-response","trial_index":43,"time_elapsed":421661,"internal_node_id":"0.0-4.0-0.16","subject_id":"6169e8a8311d269013eb73c7","study_id":"60edd13110225f80f9f3709b","session_id":"6196c7076ddd167ceb8e8a66","condition":"full-information","relevant_dimensions":["pattern","legs"],"bee_group":{"antennae":"X","wings":"X","pattern":"S","legs":"F"},"action":"harvest","summary":"good-harvest","bonus":0.02},{"rt":1989.5,"stimulus":"\n                    <p><b>Action: <em>harvest</em></b></p>\n                    <p>This is the bee that you just saw.</p>\n                    <img src=\"bees-with-color/bee-A1DM.svg\" width=\"200\">\n                    <p><span class=\"greenText\"><b>Successful harvest!</b></span><br>Your pay has increased by $0.02. Your bonus pay is now $0.46.</p>\n            ","response":0,"trial_type":"html-button-response","trial_index":44,"time_elapsed":423655,"internal_node_id":"0.0-4.0-1.16","subject_id":"6169e8a8311d269013eb73c7","study_id":"60edd13110225f80f9f3709b","session_id":"6196c7076ddd167ceb8e8a66","condition":"full-information","relevant_dimensions":["pattern","legs"],"bee_group":{"antennae":"X","wings":"X","pattern":"S","legs":"F"},"bonus":0.02},{"rt":1738.8999999761581,"stimulus":"bees-with-color/bee-B2SM.svg","response":0,"trial_type":"image-button-response","trial_index":45,"time_elapsed":425398,"internal_node_id":"0.0-4.0-0.17","subject_id":"6169e8a8311d269013eb73c7","study_id":"60edd13110225f80f9f3709b","session_id":"6196c7076ddd167ceb8e8a66","condition":"full-information","relevant_dimensions":["pattern","legs"],"bee_group":{"antennae":"X","wings":"X","pattern":"S","legs":"F"},"action":"harvest","summary":"good-harvest","bonus":0.02},{"rt":2692.899999976158,"stimulus":"\n                    <p><b>Action: <em>harvest</em></b></p>\n                    <p>This is the bee that you just saw.</p>\n                    <img src=\"bees-with-color/bee-B2SM.svg\" width=\"200\">\n                    <p><span class=\"greenText\"><b>Successful harvest!</b></span><br>Your pay has increased by $0.02. Your bonus pay is now $0.48.</p>\n            ","response":0,"trial_type":"html-button-response","trial_index":46,"time_elapsed":428095,"internal_node_id":"0.0-4.0-1.17","subject_id":"6169e8a8311d269013eb73c7","study_id":"60edd13110225f80f9f3709b","session_id":"6196c7076ddd167ceb8e8a66","condition":"full-information","relevant_dimensions":["pattern","legs"],"bee_group":{"antennae":"X","wings":"X","pattern":"S","legs":"F"},"bonus":0.02},{"rt":3221.600000023842,"stimulus":"bees-with-color/bee-A2DM.svg","response":0,"trial_type":"image-button-response","trial_index":47,"time_elapsed":431321,"internal_node_id":"0.0-4.0-0.18","subject_id":"6169e8a8311d269013eb73c7","study_id":"60edd13110225f80f9f3709b","session_id":"6196c7076ddd167ceb8e8a66","condition":"full-information","relevant_dimensions":["pattern","legs"],"bee_group":{"antennae":"X","wings":"X","pattern":"S","legs":"F"},"action":"harvest","summary":"good-harvest","bonus":0.02},{"rt":2066.3000000715256,"stimulus":"\n                    <p><b>Action: <em>harvest</em></b></p>\n                    <p>This is the bee that you just saw.</p>\n                    <img src=\"bees-with-color/bee-A2DM.svg\" width=\"200\">\n                    <p><span class=\"greenText\"><b>Successful harvest!</b></span><br>Your pay has increased by $0.02. Your bonus pay is now $0.50.</p>\n            ","response":0,"trial_type":"html-button-response","trial_index":48,"time_elapsed":433392,"internal_node_id":"0.0-4.0-1.18","subject_id":"6169e8a8311d269013eb73c7","study_id":"60edd13110225f80f9f3709b","session_id":"6196c7076ddd167ceb8e8a66","condition":"full-information","relevant_dimensions":["pattern","legs"],"bee_group":{"antennae":"X","wings":"X","pattern":"S","legs":"F"},"bonus":0.02},{"rt":1486,"stimulus":"bees-with-color/bee-B1SF.svg","response":0,"trial_type":"image-button-response","trial_index":49,"time_elapsed":434884,"internal_node_id":"0.0-4.0-0.19","subject_id":"6169e8a8311d269013eb73c7","study_id":"60edd13110225f80f9f3709b","session_id":"6196c7076ddd167ceb8e8a66","condition":"full-information","relevant_dimensions":["pattern","legs"],"bee_group":{"antennae":"X","wings":"X","pattern":"S","legs":"F"},"action":"harvest","summary":"bad-harvest","bonus":0.02},{"rt":1508.8999999761581,"stimulus":"\n                    <p><b>Action: <em>harvest</em></b></p>\n                    <p>This is the bee that you just saw.</p>\n                    <img src=\"bees-with-color/bee-B1SF.svg\" width=\"200\">\n                    <p><span class=\"redText\">Bad choice, the bee was angry.</span><br><b>You have been stung!</b><br>Your pay has been decreased by $0.10. Your bonus pay is now $0.40.</p>\n            ","response":0,"trial_type":"html-button-response","trial_index":50,"time_elapsed":436397,"internal_node_id":"0.0-4.0-1.19","subject_id":"6169e8a8311d269013eb73c7","study_id":"60edd13110225f80f9f3709b","session_id":"6196c7076ddd167ceb8e8a66","condition":"full-information","relevant_dimensions":["pattern","legs"],"bee_group":{"antennae":"X","wings":"X","pattern":"S","legs":"F"},"bonus":0.02},{"rt":1132.2000000476837,"stimulus":"bees-with-color/bee-A2SM.svg","response":0,"trial_type":"image-button-response","trial_index":51,"time_elapsed":437533,"internal_node_id":"0.0-4.0-0.20","subject_id":"6169e8a8311d269013eb73c7","study_id":"60edd13110225f80f9f3709b","session_id":"6196c7076ddd167ceb8e8a66","condition":"full-information","relevant_dimensions":["pattern","legs"],"bee_group":{"antennae":"X","wings":"X","pattern":"S","legs":"F"},"action":"harvest","summary":"good-harvest","bonus":0.02},{"rt":1988,"stimulus":"\n                    <p><b>Action: <em>harvest</em></b></p>\n                    <p>This is the bee that you just saw.</p>\n                    <img src=\"bees-with-color/bee-A2SM.svg\" width=\"200\">\n                    <p><span class=\"greenText\"><b>Successful harvest!</b></span><br>Your pay has increased by $0.02. Your bonus pay is now $0.42.</p>\n            ","response":0,"trial_type":"html-button-response","trial_index":52,"time_elapsed":439525,"internal_node_id":"0.0-4.0-1.20","subject_id":"6169e8a8311d269013eb73c7","study_id":"60edd13110225f80f9f3709b","session_id":"6196c7076ddd167ceb8e8a66","condition":"full-information","relevant_dimensions":["pattern","legs"],"bee_group":{"antennae":"X","wings":"X","pattern":"S","legs":"F"},"bonus":0.02},{"rt":1343.3000000715256,"stimulus":"bees-with-color/bee-B2DF.svg","response":1,"trial_type":"image-button-response","trial_index":53,"time_elapsed":440874,"internal_node_id":"0.0-4.0-0.21","subject_id":"6169e8a8311d269013eb73c7","study_id":"60edd13110225f80f9f3709b","session_id":"6196c7076ddd167ceb8e8a66","condition":"full-information","relevant_dimensions":["pattern","legs"],"bee_group":{"antennae":"X","wings":"X","pattern":"S","legs":"F"},"action":"avoid","summary":"bad-avoid","bonus":0.02},{"rt":1566.7000000476837,"stimulus":"\n                    <p><b>Action: <em>avoid</em></b></p>\n                    <p>This is the bee that you just saw.</p>\n                    <img src=\"bees-with-color/bee-B2DF.svg\" width=\"200\">\n                    <p><span class=\"redText\">Bad choice,</span> the bee was friendly.<br>Your bonus pay is unchanged, and remains at $0.42.</p>\n            ","response":0,"trial_type":"html-button-response","trial_index":54,"time_elapsed":442444,"internal_node_id":"0.0-4.0-1.21","subject_id":"6169e8a8311d269013eb73c7","study_id":"60edd13110225f80f9f3709b","session_id":"6196c7076ddd167ceb8e8a66","condition":"full-information","relevant_dimensions":["pattern","legs"],"bee_group":{"antennae":"X","wings":"X","pattern":"S","legs":"F"},"bonus":0.02},{"rt":1400.5,"stimulus":"bees-with-color/bee-B1SM.svg","response":0,"trial_type":"image-button-response","trial_index":55,"time_elapsed":443849,"internal_node_id":"0.0-4.0-0.22","subject_id":"6169e8a8311d269013eb73c7","study_id":"60edd13110225f80f9f3709b","session_id":"6196c7076ddd167ceb8e8a66","condition":"full-information","relevant_dimensions":["pattern","legs"],"bee_group":{"antennae":"X","wings":"X","pattern":"S","legs":"F"},"action":"harvest","summary":"good-harvest","bonus":0.02},{"rt":1894.2999999523163,"stimulus":"\n                    <p><b>Action: <em>harvest</em></b></p>\n                    <p>This is the bee that you just saw.</p>\n                    <img src=\"bees-with-color/bee-B1SM.svg\" width=\"200\">\n                    <p><span class=\"greenText\"><b>Successful harvest!</b></span><br>Your pay has increased by $0.02. Your bonus pay is now $0.44.</p>\n            ","response":0,"trial_type":"html-button-response","trial_index":56,"time_elapsed":445747,"internal_node_id":"0.0-4.0-1.22","subject_id":"6169e8a8311d269013eb73c7","study_id":"60edd13110225f80f9f3709b","session_id":"6196c7076ddd167ceb8e8a66","condition":"full-information","relevant_dimensions":["pattern","legs"],"bee_group":{"antennae":"X","wings":"X","pattern":"S","legs":"F"},"bonus":0.02},{"rt":1584.5999999046326,"stimulus":"bees-with-color/bee-A1SF.svg","response":0,"trial_type":"image-button-response","trial_index":57,"time_elapsed":447336,"internal_node_id":"0.0-4.0-0.23","subject_id":"6169e8a8311d269013eb73c7","study_id":"60edd13110225f80f9f3709b","session_id":"6196c7076ddd167ceb8e8a66","condition":"full-information","relevant_dimensions":["pattern","legs"],"bee_group":{"antennae":"X","wings":"X","pattern":"S","legs":"F"},"action":"harvest","summary":"bad-harvest","bonus":0.02},{"rt":1402.6000000238419,"stimulus":"\n                    <p><b>Action: <em>harvest</em></b></p>\n                    <p>This is the bee that you just saw.</p>\n                    <img src=\"bees-with-color/bee-A1SF.svg\" width=\"200\">\n                    <p><span class=\"redText\">Bad choice, the bee was angry.</span><br><b>You have been stung!</b><br>Your pay has been decreased by $0.10. Your bonus pay is now $0.34.</p>\n            ","response":0,"trial_type":"html-button-response","trial_index":58,"time_elapsed":448741,"internal_node_id":"0.0-4.0-1.23","subject_id":"6169e8a8311d269013eb73c7","study_id":"60edd13110225f80f9f3709b","session_id":"6196c7076ddd167ceb8e8a66","condition":"full-information","relevant_dimensions":["pattern","legs"],"bee_group":{"antennae":"X","wings":"X","pattern":"S","legs":"F"},"bonus":0.02},{"rt":1266.8999999761581,"stimulus":"bees-with-color/bee-A1SM.svg","response":1,"trial_type":"image-button-response","trial_index":59,"time_elapsed":450012,"internal_node_id":"0.0-4.0-0.24","subject_id":"6169e8a8311d269013eb73c7","study_id":"60edd13110225f80f9f3709b","session_id":"6196c7076ddd167ceb8e8a66","condition":"full-information","relevant_dimensions":["pattern","legs"],"bee_group":{"antennae":"X","wings":"X","pattern":"S","legs":"F"},"action":"avoid","summary":"bad-avoid","bonus":0.02},{"rt":1365.1000000238419,"stimulus":"\n                    <p><b>Action: <em>avoid</em></b></p>\n                    <p>This is the bee that you just saw.</p>\n                    <img src=\"bees-with-color/bee-A1SM.svg\" width=\"200\">\n                    <p><span class=\"redText\">Bad choice,</span> the bee was friendly.<br>Your bonus pay is unchanged, and remains at $0.34.</p>\n            ","response":0,"trial_type":"html-button-response","trial_index":60,"time_elapsed":451380,"internal_node_id":"0.0-4.0-1.24","subject_id":"6169e8a8311d269013eb73c7","study_id":"60edd13110225f80f9f3709b","session_id":"6196c7076ddd167ceb8e8a66","condition":"full-information","relevant_dimensions":["pattern","legs"],"bee_group":{"antennae":"X","wings":"X","pattern":"S","legs":"F"},"bonus":0.02},{"rt":1007.1999999284744,"stimulus":"bees-with-color/bee-B1DF.svg","response":0,"trial_type":"image-button-response","trial_index":61,"time_elapsed":452390,"internal_node_id":"0.0-4.0-0.25","subject_id":"6169e8a8311d269013eb73c7","study_id":"60edd13110225f80f9f3709b","session_id":"6196c7076ddd167ceb8e8a66","condition":"full-information","relevant_dimensions":["pattern","legs"],"bee_group":{"antennae":"X","wings":"X","pattern":"S","legs":"F"},"action":"harvest","summary":"good-harvest","bonus":0.02},{"rt":2279.5,"stimulus":"\n                    <p><b>Action: <em>harvest</em></b></p>\n                    <p>This is the bee that you just saw.</p>\n                    <img src=\"bees-with-color/bee-B1DF.svg\" width=\"200\">\n                    <p><span class=\"greenText\"><b>Successful harvest!</b></span><br>Your pay has increased by $0.02. Your bonus pay is now $0.36.</p>\n            ","response":0,"trial_type":"html-button-response","trial_index":62,"time_elapsed":454673,"internal_node_id":"0.0-4.0-1.25","subject_id":"6169e8a8311d269013eb73c7","study_id":"60edd13110225f80f9f3709b","session_id":"6196c7076ddd167ceb8e8a66","condition":"full-information","relevant_dimensions":["pattern","legs"],"bee_group":{"antennae":"X","wings":"X","pattern":"S","legs":"F"},"bonus":0.02},{"rt":1160.5,"stimulus":"bees-with-color/bee-B2SF.svg","response":0,"trial_type":"image-button-response","trial_index":63,"time_elapsed":455838,"internal_node_id":"0.0-4.0-0.26","subject_id":"6169e8a8311d269013eb73c7","study_id":"60edd13110225f80f9f3709b","session_id":"6196c7076ddd167ceb8e8a66","condition":"full-information","relevant_dimensions":["pattern","legs"],"bee_group":{"antennae":"X","wings":"X","pattern":"S","legs":"F"},"action":"harvest","summary":"bad-harvest","bonus":0.02},{"rt":1634.3000000715256,"stimulus":"\n                    <p><b>Action: <em>harvest</em></b></p>\n                    <p>This is the bee that you just saw.</p>\n                    <img src=\"bees-with-color/bee-B2SF.svg\" width=\"200\">\n                    <p><span class=\"redText\">Bad choice, the bee was angry.</span><br><b>You have been stung!</b><br>Your pay has been decreased by $0.10. Your bonus pay is now $0.26.</p>\n            ","response":0,"trial_type":"html-button-response","trial_index":64,"time_elapsed":457475,"internal_node_id":"0.0-4.0-1.26","subject_id":"6169e8a8311d269013eb73c7","study_id":"60edd13110225f80f9f3709b","session_id":"6196c7076ddd167ceb8e8a66","condition":"full-information","relevant_dimensions":["pattern","legs"],"bee_group":{"antennae":"X","wings":"X","pattern":"S","legs":"F"},"bonus":0.02},{"rt":1567.1000000238419,"stimulus":"bees-with-color/bee-A2DF.svg","response":1,"trial_type":"image-button-response","trial_index":65,"time_elapsed":459046,"internal_node_id":"0.0-4.0-0.27","subject_id":"6169e8a8311d269013eb73c7","study_id":"60edd13110225f80f9f3709b","session_id":"6196c7076ddd167ceb8e8a66","condition":"full-information","relevant_dimensions":["pattern","legs"],"bee_group":{"antennae":"X","wings":"X","pattern":"S","legs":"F"},"action":"avoid","summary":"bad-avoid","bonus":0.02},{"rt":2228.5999999046326,"stimulus":"\n                    <p><b>Action: <em>avoid</em></b></p>\n                    <p>This is the bee that you just saw.</p>\n                    <img src=\"bees-with-color/bee-A2DF.svg\" width=\"200\">\n                    <p><span class=\"redText\">Bad choice,</span> the bee was friendly.<br>Your bonus pay is unchanged, and remains at $0.26.</p>\n            ","response":0,"trial_type":"html-button-response","trial_index":66,"time_elapsed":461278,"internal_node_id":"0.0-4.0-1.27","subject_id":"6169e8a8311d269013eb73c7","study_id":"60edd13110225f80f9f3709b","session_id":"6196c7076ddd167ceb8e8a66","condition":"full-information","relevant_dimensions":["pattern","legs"],"bee_group":{"antennae":"X","wings":"X","pattern":"S","legs":"F"},"bonus":0.02},{"rt":998.6000000238419,"stimulus":"bees-with-color/bee-A1DF.svg","response":0,"trial_type":"image-button-response","trial_index":67,"time_elapsed":462281,"internal_node_id":"0.0-4.0-0.28","subject_id":"6169e8a8311d269013eb73c7","study_id":"60edd13110225f80f9f3709b","session_id":"6196c7076ddd167ceb8e8a66","condition":"full-information","relevant_dimensions":["pattern","legs"],"bee_group":{"antennae":"X","wings":"X","pattern":"S","legs":"F"},"action":"harvest","summary":"good-harvest","bonus":0.02},{"rt":4772.800000071526,"stimulus":"\n                    <p><b>Action: <em>harvest</em></b></p>\n                    <p>This is the bee that you just saw.</p>\n                    <img src=\"bees-with-color/bee-A1DF.svg\" width=\"200\">\n                    <p><span class=\"greenText\"><b>Successful harvest!</b></span><br>Your pay has increased by $0.02. Your bonus pay is now $0.28.</p>\n            ","response":0,"trial_type":"html-button-response","trial_index":68,"time_elapsed":467057,"internal_node_id":"0.0-4.0-1.28","subject_id":"6169e8a8311d269013eb73c7","study_id":"60edd13110225f80f9f3709b","session_id":"6196c7076ddd167ceb8e8a66","condition":"full-information","relevant_dimensions":["pattern","legs"],"bee_group":{"antennae":"X","wings":"X","pattern":"S","legs":"F"},"bonus":0.02},{"rt":1055.3999999761581,"stimulus":"bees-with-color/bee-B2DM.svg","response":0,"trial_type":"image-button-response","trial_index":69,"time_elapsed":468117,"internal_node_id":"0.0-4.0-0.29","subject_id":"6169e8a8311d269013eb73c7","study_id":"60edd13110225f80f9f3709b","session_id":"6196c7076ddd167ceb8e8a66","condition":"full-information","relevant_dimensions":["pattern","legs"],"bee_group":{"antennae":"X","wings":"X","pattern":"S","legs":"F"},"action":"harvest","summary":"good-harvest","bonus":0.02},{"rt":1748,"stimulus":"\n                    <p><b>Action: <em>harvest</em></b></p>\n                    <p>This is the bee that you just saw.</p>\n                    <img src=\"bees-with-color/bee-B2DM.svg\" width=\"200\">\n                    <p><span class=\"greenText\"><b>Successful harvest!</b></span><br>Your pay has increased by $0.02. Your bonus pay is now $0.30.</p>\n            ","response":0,"trial_type":"html-button-response","trial_index":70,"time_elapsed":469868,"internal_node_id":"0.0-4.0-1.29","subject_id":"6169e8a8311d269013eb73c7","study_id":"60edd13110225f80f9f3709b","session_id":"6196c7076ddd167ceb8e8a66","condition":"full-information","relevant_dimensions":["pattern","legs"],"bee_group":{"antennae":"X","wings":"X","pattern":"S","legs":"F"},"bonus":0.02},{"rt":2250.1999999284744,"stimulus":"bees-with-color/bee-B1DM.svg","response":1,"trial_type":"image-button-response","trial_index":71,"time_elapsed":472121,"internal_node_id":"0.0-4.0-0.30","subject_id":"6169e8a8311d269013eb73c7","study_id":"60edd13110225f80f9f3709b","session_id":"6196c7076ddd167ceb8e8a66","condition":"full-information","relevant_dimensions":["pattern","legs"],"bee_group":{"antennae":"X","wings":"X","pattern":"S","legs":"F"},"action":"avoid","summary":"bad-avoid","bonus":0.02},{"rt":1778.7000000476837,"stimulus":"\n                    <p><b>Action: <em>avoid</em></b></p>\n                    <p>This is the bee that you just saw.</p>\n                    <img src=\"bees-with-color/bee-B1DM.svg\" width=\"200\">\n                    <p><span class=\"redText\">Bad choice,</span> the bee was friendly.<br>Your bonus pay is unchanged, and remains at $0.30.</p>\n            ","response":0,"trial_type":"html-button-response","trial_index":72,"time_elapsed":473903,"internal_node_id":"0.0-4.0-1.30","subject_id":"6169e8a8311d269013eb73c7","study_id":"60edd13110225f80f9f3709b","session_id":"6196c7076ddd167ceb8e8a66","condition":"full-information","relevant_dimensions":["pattern","legs"],"bee_group":{"antennae":"X","wings":"X","pattern":"S","legs":"F"},"bonus":0.02},{"rt":2075.2000000476837,"stimulus":"bees-with-color/bee-A2SF.svg","response":1,"trial_type":"image-button-response","trial_index":73,"time_elapsed":475983,"internal_node_id":"0.0-4.0-0.31","subject_id":"6169e8a8311d269013eb73c7","study_id":"60edd13110225f80f9f3709b","session_id":"6196c7076ddd167ceb8e8a66","condition":"full-information","relevant_dimensions":["pattern","legs"],"bee_group":{"antennae":"X","wings":"X","pattern":"S","legs":"F"},"action":"avoid","summary":"good-avoid","bonus":0.02},{"rt":2163,"stimulus":"\n                    <p><b>Action: <em>avoid</em></b></p>\n                    <p>This is the bee that you just saw.</p>\n                    <img src=\"bees-with-color/bee-A2SF.svg\" width=\"200\">\n                    <p><span class=\"greenText\">Good choice!</span>  This bee would have stung you.<br>Your bonus pay is unchanged, and remains at $0.30.</p>\n            ","response":0,"trial_type":"html-button-response","trial_index":74,"time_elapsed":478149,"internal_node_id":"0.0-4.0-1.31","subject_id":"6169e8a8311d269013eb73c7","study_id":"60edd13110225f80f9f3709b","session_id":"6196c7076ddd167ceb8e8a66","condition":"full-information","relevant_dimensions":["pattern","legs"],"bee_group":{"antennae":"X","wings":"X","pattern":"S","legs":"F"},"bonus":0.02},{"rt":1152.5999999046326,"stimulus":"bees-with-color/bee-A1SF.svg","response":0,"trial_type":"image-button-response","trial_index":75,"time_elapsed":479306,"internal_node_id":"0.0-4.0-0.32","subject_id":"6169e8a8311d269013eb73c7","study_id":"60edd13110225f80f9f3709b","session_id":"6196c7076ddd167ceb8e8a66","condition":"full-information","relevant_dimensions":["pattern","legs"],"bee_group":{"antennae":"X","wings":"X","pattern":"S","legs":"F"},"action":"harvest","summary":"bad-harvest","bonus":0.02},{"rt":1449.2999999523163,"stimulus":"\n                    <p><b>Action: <em>harvest</em></b></p>\n                    <p>This is the bee that you just saw.</p>\n                    <img src=\"bees-with-color/bee-A1SF.svg\" width=\"200\">\n                    <p><span class=\"redText\">Bad choice, the bee was angry.</span><br><b>You have been stung!</b><br>Your pay has been decreased by $0.10. Your bonus pay is now $0.20.</p>\n            ","response":0,"trial_type":"html-button-response","trial_index":76,"time_elapsed":480759,"internal_node_id":"0.0-4.0-1.32","subject_id":"6169e8a8311d269013eb73c7","study_id":"60edd13110225f80f9f3709b","session_id":"6196c7076ddd167ceb8e8a66","condition":"full-information","relevant_dimensions":["pattern","legs"],"bee_group":{"antennae":"X","wings":"X","pattern":"S","legs":"F"},"bonus":0.02},{"rt":2210.600000023842,"stimulus":"bees-with-color/bee-B2SF.svg","response":1,"trial_type":"image-button-response","trial_index":77,"time_elapsed":482974,"internal_node_id":"0.0-4.0-0.33","subject_id":"6169e8a8311d269013eb73c7","study_id":"60edd13110225f80f9f3709b","session_id":"6196c7076ddd167ceb8e8a66","condition":"full-information","relevant_dimensions":["pattern","legs"],"bee_group":{"antennae":"X","wings":"X","pattern":"S","legs":"F"},"action":"avoid","summary":"good-avoid","bonus":0.02},{"rt":1758.6999999284744,"stimulus":"\n                    <p><b>Action: <em>avoid</em></b></p>\n                    <p>This is the bee that you just saw.</p>\n                    <img src=\"bees-with-color/bee-B2SF.svg\" width=\"200\">\n                    <p><span class=\"greenText\">Good choice!</span>  This bee would have stung you.<br>Your bonus pay is unchanged, and remains at $0.20.</p>\n            ","response":0,"trial_type":"html-button-response","trial_index":78,"time_elapsed":484737,"internal_node_id":"0.0-4.0-1.33","subject_id":"6169e8a8311d269013eb73c7","study_id":"60edd13110225f80f9f3709b","session_id":"6196c7076ddd167ceb8e8a66","condition":"full-information","relevant_dimensions":["pattern","legs"],"bee_group":{"antennae":"X","wings":"X","pattern":"S","legs":"F"},"bonus":0.02},{"rt":1044,"stimulus":"bees-with-color/bee-A1DF.svg","response":0,"trial_type":"image-button-response","trial_index":79,"time_elapsed":485785,"internal_node_id":"0.0-4.0-0.34","subject_id":"6169e8a8311d269013eb73c7","study_id":"60edd13110225f80f9f3709b","session_id":"6196c7076ddd167ceb8e8a66","condition":"full-information","relevant_dimensions":["pattern","legs"],"bee_group":{"antennae":"X","wings":"X","pattern":"S","legs":"F"},"action":"harvest","summary":"good-harvest","bonus":0.02},{"rt":2181.8000000715256,"stimulus":"\n                    <p><b>Action: <em>harvest</em></b></p>\n                    <p>This is the bee that you just saw.</p>\n                    <img src=\"bees-with-color/bee-A1DF.svg\" width=\"200\">\n                    <p><span class=\"greenText\"><b>Successful harvest!</b></span><br>Your pay has increased by $0.02. Your bonus pay is now $0.22.</p>\n            ","response":0,"trial_type":"html-button-response","trial_index":80,"time_elapsed":487971,"internal_node_id":"0.0-4.0-1.34","subject_id":"6169e8a8311d269013eb73c7","study_id":"60edd13110225f80f9f3709b","session_id":"6196c7076ddd167ceb8e8a66","condition":"full-information","relevant_dimensions":["pattern","legs"],"bee_group":{"antennae":"X","wings":"X","pattern":"S","legs":"F"},"bonus":0.02},{"rt":1268.2000000476837,"stimulus":"bees-with-color/bee-B1DM.svg","response":0,"trial_type":"image-button-response","trial_index":81,"time_elapsed":489243,"internal_node_id":"0.0-4.0-0.35","subject_id":"6169e8a8311d269013eb73c7","study_id":"60edd13110225f80f9f3709b","session_id":"6196c7076ddd167ceb8e8a66","condition":"full-information","relevant_dimensions":["pattern","legs"],"bee_group":{"antennae":"X","wings":"X","pattern":"S","legs":"F"},"action":"harvest","summary":"good-harvest","bonus":0.02},{"rt":1613.5,"stimulus":"\n                    <p><b>Action: <em>harvest</em></b></p>\n                    <p>This is the bee that you just saw.</p>\n                    <img src=\"bees-with-color/bee-B1DM.svg\" width=\"200\">\n                    <p><span class=\"greenText\"><b>Successful harvest!</b></span><br>Your pay has increased by $0.02. Your bonus pay is now $0.24.</p>\n            ","response":0,"trial_type":"html-button-response","trial_index":82,"time_elapsed":490861,"internal_node_id":"0.0-4.0-1.35","subject_id":"6169e8a8311d269013eb73c7","study_id":"60edd13110225f80f9f3709b","session_id":"6196c7076ddd167ceb8e8a66","condition":"full-information","relevant_dimensions":["pattern","legs"],"bee_group":{"antennae":"X","wings":"X","pattern":"S","legs":"F"},"bonus":0.02},{"rt":1247.5,"stimulus":"bees-with-color/bee-B1DF.svg","response":0,"trial_type":"image-button-response","trial_index":83,"time_elapsed":492112,"internal_node_id":"0.0-4.0-0.36","subject_id":"6169e8a8311d269013eb73c7","study_id":"60edd13110225f80f9f3709b","session_id":"6196c7076ddd167ceb8e8a66","condition":"full-information","relevant_dimensions":["pattern","legs"],"bee_group":{"antennae":"X","wings":"X","pattern":"S","legs":"F"},"action":"harvest","summary":"good-harvest","bonus":0.02},{"rt":1507.5,"stimulus":"\n                    <p><b>Action: <em>harvest</em></b></p>\n                    <p>This is the bee that you just saw.</p>\n                    <img src=\"bees-with-color/bee-B1DF.svg\" width=\"200\">\n                    <p><span class=\"greenText\"><b>Successful harvest!</b></span><br>Your pay has increased by $0.02. Your bonus pay is now $0.26.</p>\n            ","response":0,"trial_type":"html-button-response","trial_index":84,"time_elapsed":493624,"internal_node_id":"0.0-4.0-1.36","subject_id":"6169e8a8311d269013eb73c7","study_id":"60edd13110225f80f9f3709b","session_id":"6196c7076ddd167ceb8e8a66","condition":"full-information","relevant_dimensions":["pattern","legs"],"bee_group":{"antennae":"X","wings":"X","pattern":"S","legs":"F"},"bonus":0.02},{"rt":1084.7000000476837,"stimulus":"bees-with-color/bee-A2SM.svg","response":1,"trial_type":"image-button-response","trial_index":85,"time_elapsed":494713,"internal_node_id":"0.0-4.0-0.37","subject_id":"6169e8a8311d269013eb73c7","study_id":"60edd13110225f80f9f3709b","session_id":"6196c7076ddd167ceb8e8a66","condition":"full-information","relevant_dimensions":["pattern","legs"],"bee_group":{"antennae":"X","wings":"X","pattern":"S","legs":"F"},"action":"avoid","summary":"bad-avoid","bonus":0.02},{"rt":1622.1000000238419,"stimulus":"\n                    <p><b>Action: <em>avoid</em></b></p>\n                    <p>This is the bee that you just saw.</p>\n                    <img src=\"bees-with-color/bee-A2SM.svg\" width=\"200\">\n                    <p><span class=\"redText\">Bad choice,</span> the bee was friendly.<br>Your bonus pay is unchanged, and remains at $0.26.</p>\n            ","response":0,"trial_type":"html-button-response","trial_index":86,"time_elapsed":496339,"internal_node_id":"0.0-4.0-1.37","subject_id":"6169e8a8311d269013eb73c7","study_id":"60edd13110225f80f9f3709b","session_id":"6196c7076ddd167ceb8e8a66","condition":"full-information","relevant_dimensions":["pattern","legs"],"bee_group":{"antennae":"X","wings":"X","pattern":"S","legs":"F"},"bonus":0.02},{"rt":1133.6000000238419,"stimulus":"bees-with-color/bee-A1SM.svg","response":1,"trial_type":"image-button-response","trial_index":87,"time_elapsed":497476,"internal_node_id":"0.0-4.0-0.38","subject_id":"6169e8a8311d269013eb73c7","study_id":"60edd13110225f80f9f3709b","session_id":"6196c7076ddd167ceb8e8a66","condition":"full-information","relevant_dimensions":["pattern","legs"],"bee_group":{"antennae":"X","wings":"X","pattern":"S","legs":"F"},"action":"avoid","summary":"bad-avoid","bonus":0.02},{"rt":1179.7999999523163,"stimulus":"\n                    <p><b>Action: <em>avoid</em></b></p>\n                    <p>This is the bee that you just saw.</p>\n                    <img src=\"bees-with-color/bee-A1SM.svg\" width=\"200\">\n                    <p><span class=\"redText\">Bad choice,</span> the bee was friendly.<br>Your bonus pay is unchanged, and remains at $0.26.</p>\n            ","response":0,"trial_type":"html-button-response","trial_index":88,"time_elapsed":498661,"internal_node_id":"0.0-4.0-1.38","subject_id":"6169e8a8311d269013eb73c7","study_id":"60edd13110225f80f9f3709b","session_id":"6196c7076ddd167ceb8e8a66","condition":"full-information","relevant_dimensions":["pattern","legs"],"bee_group":{"antennae":"X","wings":"X","pattern":"S","legs":"F"},"bonus":0.02},{"rt":1237.0999999046326,"stimulus":"bees-with-color/bee-B1SM.svg","response":0,"trial_type":"image-button-response","trial_index":89,"time_elapsed":499903,"internal_node_id":"0.0-4.0-0.39","subject_id":"6169e8a8311d269013eb73c7","study_id":"60edd13110225f80f9f3709b","session_id":"6196c7076ddd167ceb8e8a66","condition":"full-information","relevant_dimensions":["pattern","legs"],"bee_group":{"antennae":"X","wings":"X","pattern":"S","legs":"F"},"action":"harvest","summary":"good-harvest","bonus":0.02},{"rt":1814.1999999284744,"stimulus":"\n                    <p><b>Action: <em>harvest</em></b></p>\n                    <p>This is the bee that you just saw.</p>\n                    <img src=\"bees-with-color/bee-B1SM.svg\" width=\"200\">\n                    <p><span class=\"greenText\"><b>Successful harvest!</b></span><br>Your pay has increased by $0.02. Your bonus pay is now $0.28.</p>\n            ","response":0,"trial_type":"html-button-response","trial_index":90,"time_elapsed":501723,"internal_node_id":"0.0-4.0-1.39","subject_id":"6169e8a8311d269013eb73c7","study_id":"60edd13110225f80f9f3709b","session_id":"6196c7076ddd167ceb8e8a66","condition":"full-information","relevant_dimensions":["pattern","legs"],"bee_group":{"antennae":"X","wings":"X","pattern":"S","legs":"F"},"bonus":0.02},{"rt":4531,"stimulus":"bees-with-color/bee-B1SF.svg","response":1,"trial_type":"image-button-response","trial_index":91,"time_elapsed":506258,"internal_node_id":"0.0-4.0-0.40","subject_id":"6169e8a8311d269013eb73c7","study_id":"60edd13110225f80f9f3709b","session_id":"6196c7076ddd167ceb8e8a66","condition":"full-information","relevant_dimensions":["pattern","legs"],"bee_group":{"antennae":"X","wings":"X","pattern":"S","legs":"F"},"action":"avoid","summary":"good-avoid","bonus":0.02},{"rt":1680.6000000238419,"stimulus":"\n                    <p><b>Action: <em>avoid</em></b></p>\n                    <p>This is the bee that you just saw.</p>\n                    <img src=\"bees-with-color/bee-B1SF.svg\" width=\"200\">\n                    <p><span class=\"greenText\">Good choice!</span>  This bee would have stung you.<br>Your bonus pay is unchanged, and remains at $0.28.</p>\n            ","response":0,"trial_type":"html-button-response","trial_index":92,"time_elapsed":507943,"internal_node_id":"0.0-4.0-1.40","subject_id":"6169e8a8311d269013eb73c7","study_id":"60edd13110225f80f9f3709b","session_id":"6196c7076ddd167ceb8e8a66","condition":"full-information","relevant_dimensions":["pattern","legs"],"bee_group":{"antennae":"X","wings":"X","pattern":"S","legs":"F"},"bonus":0.02},{"rt":1169.1999999284744,"stimulus":"bees-with-color/bee-A2SF.svg","response":0,"trial_type":"image-button-response","trial_index":93,"time_elapsed":509118,"internal_node_id":"0.0-4.0-0.41","subject_id":"6169e8a8311d269013eb73c7","study_id":"60edd13110225f80f9f3709b","session_id":"6196c7076ddd167ceb8e8a66","condition":"full-information","relevant_dimensions":["pattern","legs"],"bee_group":{"antennae":"X","wings":"X","pattern":"S","legs":"F"},"action":"harvest","summary":"bad-harvest","bonus":0.02},{"rt":1738.5,"stimulus":"\n                    <p><b>Action: <em>harvest</em></b></p>\n                    <p>This is the bee that you just saw.</p>\n                    <img src=\"bees-with-color/bee-A2SF.svg\" width=\"200\">\n                    <p><span class=\"redText\">Bad choice, the bee was angry.</span><br><b>You have been stung!</b><br>Your pay has been decreased by $0.10. Your bonus pay is now $0.18.</p>\n            ","response":0,"trial_type":"html-button-response","trial_index":94,"time_elapsed":510861,"internal_node_id":"0.0-4.0-1.41","subject_id":"6169e8a8311d269013eb73c7","study_id":"60edd13110225f80f9f3709b","session_id":"6196c7076ddd167ceb8e8a66","condition":"full-information","relevant_dimensions":["pattern","legs"],"bee_group":{"antennae":"X","wings":"X","pattern":"S","legs":"F"},"bonus":0.02},{"rt":1999.1000000238419,"stimulus":"bees-with-color/bee-A2DF.svg","response":0,"trial_type":"image-button-response","trial_index":95,"time_elapsed":512864,"internal_node_id":"0.0-4.0-0.42","subject_id":"6169e8a8311d269013eb73c7","study_id":"60edd13110225f80f9f3709b","session_id":"6196c7076ddd167ceb8e8a66","condition":"full-information","relevant_dimensions":["pattern","legs"],"bee_group":{"antennae":"X","wings":"X","pattern":"S","legs":"F"},"action":"harvest","summary":"good-harvest","bonus":0.02},{"rt":2036.6000000238419,"stimulus":"\n                    <p><b>Action: <em>harvest</em></b></p>\n                    <p>This is the bee that you just saw.</p>\n                    <img src=\"bees-with-color/bee-A2DF.svg\" width=\"200\">\n                    <p><span class=\"greenText\"><b>Successful harvest!</b></span><br>Your pay has increased by $0.02. Your bonus pay is now $0.20.</p>\n            ","response":0,"trial_type":"html-button-response","trial_index":96,"time_elapsed":514903,"internal_node_id":"0.0-4.0-1.42","subject_id":"6169e8a8311d269013eb73c7","study_id":"60edd13110225f80f9f3709b","session_id":"6196c7076ddd167ceb8e8a66","condition":"full-information","relevant_dimensions":["pattern","legs"],"bee_group":{"antennae":"X","wings":"X","pattern":"S","legs":"F"},"bonus":0.02},{"rt":2414.5999999046326,"stimulus":"bees-with-color/bee-A1DM.svg","response":0,"trial_type":"image-button-response","trial_index":97,"time_elapsed":517321,"internal_node_id":"0.0-4.0-0.43","subject_id":"6169e8a8311d269013eb73c7","study_id":"60edd13110225f80f9f3709b","session_id":"6196c7076ddd167ceb8e8a66","condition":"full-information","relevant_dimensions":["pattern","legs"],"bee_group":{"antennae":"X","wings":"X","pattern":"S","legs":"F"},"action":"harvest","summary":"good-harvest","bonus":0.02},{"rt":2259.899999976158,"stimulus":"\n                    <p><b>Action: <em>harvest</em></b></p>\n                    <p>This is the bee that you just saw.</p>\n                    <img src=\"bees-with-color/bee-A1DM.svg\" width=\"200\">\n                    <p><span class=\"greenText\"><b>Successful harvest!</b></span><br>Your pay has increased by $0.02. Your bonus pay is now $0.22.</p>\n            ","response":0,"trial_type":"html-button-response","trial_index":98,"time_elapsed":519584,"internal_node_id":"0.0-4.0-1.43","subject_id":"6169e8a8311d269013eb73c7","study_id":"60edd13110225f80f9f3709b","session_id":"6196c7076ddd167ceb8e8a66","condition":"full-information","relevant_dimensions":["pattern","legs"],"bee_group":{"antennae":"X","wings":"X","pattern":"S","legs":"F"},"bonus":0.02},{"rt":1237.5999999046326,"stimulus":"bees-with-color/bee-A2DM.svg","response":0,"trial_type":"image-button-response","trial_index":99,"time_elapsed":520826,"internal_node_id":"0.0-4.0-0.44","subject_id":"6169e8a8311d269013eb73c7","study_id":"60edd13110225f80f9f3709b","session_id":"6196c7076ddd167ceb8e8a66","condition":"full-information","relevant_dimensions":["pattern","legs"],"bee_group":{"antennae":"X","wings":"X","pattern":"S","legs":"F"},"action":"harvest","summary":"good-harvest","bonus":0.02},{"rt":1489,"stimulus":"\n                    <p><b>Action: <em>harvest</em></b></p>\n                    <p>This is the bee that you just saw.</p>\n                    <img src=\"bees-with-color/bee-A2DM.svg\" width=\"200\">\n                    <p><span class=\"greenText\"><b>Successful harvest!</b></span><br>Your pay has increased by $0.02. Your bonus pay is now $0.24.</p>\n            ","response":0,"trial_type":"html-button-response","trial_index":100,"time_elapsed":522318,"internal_node_id":"0.0-4.0-1.44","subject_id":"6169e8a8311d269013eb73c7","study_id":"60edd13110225f80f9f3709b","session_id":"6196c7076ddd167ceb8e8a66","condition":"full-information","relevant_dimensions":["pattern","legs"],"bee_group":{"antennae":"X","wings":"X","pattern":"S","legs":"F"},"bonus":0.02},{"rt":1691.2000000476837,"stimulus":"bees-with-color/bee-B2DM.svg","response":1,"trial_type":"image-button-response","trial_index":101,"time_elapsed":524013,"internal_node_id":"0.0-4.0-0.45","subject_id":"6169e8a8311d269013eb73c7","study_id":"60edd13110225f80f9f3709b","session_id":"6196c7076ddd167ceb8e8a66","condition":"full-information","relevant_dimensions":["pattern","legs"],"bee_group":{"antennae":"X","wings":"X","pattern":"S","legs":"F"},"action":"avoid","summary":"bad-avoid","bonus":0.02},{"rt":1402.5999999046326,"stimulus":"\n                    <p><b>Action: <em>avoid</em></b></p>\n                    <p>This is the bee that you just saw.</p>\n                    <img src=\"bees-with-color/bee-B2DM.svg\" width=\"200\">\n                    <p><span class=\"redText\">Bad choice,</span> the bee was friendly.<br>Your bonus pay is unchanged, and remains at $0.24.</p>\n            ","response":0,"trial_type":"html-button-response","trial_index":102,"time_elapsed":525419,"internal_node_id":"0.0-4.0-1.45","subject_id":"6169e8a8311d269013eb73c7","study_id":"60edd13110225f80f9f3709b","session_id":"6196c7076ddd167ceb8e8a66","condition":"full-information","relevant_dimensions":["pattern","legs"],"bee_group":{"antennae":"X","wings":"X","pattern":"S","legs":"F"},"bonus":0.02},{"rt":1748,"stimulus":"bees-with-color/bee-B2SM.svg","response":1,"trial_type":"image-button-response","trial_index":103,"time_elapsed":527171,"internal_node_id":"0.0-4.0-0.46","subject_id":"6169e8a8311d269013eb73c7","study_id":"60edd13110225f80f9f3709b","session_id":"6196c7076ddd167ceb8e8a66","condition":"full-information","relevant_dimensions":["pattern","legs"],"bee_group":{"antennae":"X","wings":"X","pattern":"S","legs":"F"},"action":"avoid","summary":"bad-avoid","bonus":0.02},{"rt":1152.6000000238419,"stimulus":"\n                    <p><b>Action: <em>avoid</em></b></p>\n                    <p>This is the bee that you just saw.</p>\n                    <img src=\"bees-with-color/bee-B2SM.svg\" width=\"200\">\n                    <p><span class=\"redText\">Bad choice,</span> the bee was friendly.<br>Your bonus pay is unchanged, and remains at $0.24.</p>\n            ","response":0,"trial_type":"html-button-response","trial_index":104,"time_elapsed":528328,"internal_node_id":"0.0-4.0-1.46","subject_id":"6169e8a8311d269013eb73c7","study_id":"60edd13110225f80f9f3709b","session_id":"6196c7076ddd167ceb8e8a66","condition":"full-information","relevant_dimensions":["pattern","legs"],"bee_group":{"antennae":"X","wings":"X","pattern":"S","legs":"F"},"bonus":0.02},{"rt":1054.8999999761581,"stimulus":"bees-with-color/bee-B2DF.svg","response":0,"trial_type":"image-button-response","trial_index":105,"time_elapsed":529386,"internal_node_id":"0.0-4.0-0.47","subject_id":"6169e8a8311d269013eb73c7","study_id":"60edd13110225f80f9f3709b","session_id":"6196c7076ddd167ceb8e8a66","condition":"full-information","relevant_dimensions":["pattern","legs"],"bee_group":{"antennae":"X","wings":"X","pattern":"S","legs":"F"},"action":"harvest","summary":"good-harvest","bonus":0.02},{"rt":1479.4000000953674,"stimulus":"\n                    <p><b>Action: <em>harvest</em></b></p>\n                    <p>This is the bee that you just saw.</p>\n                    <img src=\"bees-with-color/bee-B2DF.svg\" width=\"200\">\n                    <p><span class=\"greenText\"><b>Successful harvest!</b></span><br>Your pay has increased by $0.02. Your bonus pay is now $0.26.</p>\n            ","response":0,"trial_type":"html-button-response","trial_index":106,"time_elapsed":530869,"internal_node_id":"0.0-4.0-1.47","subject_id":"6169e8a8311d269013eb73c7","study_id":"60edd13110225f80f9f3709b","session_id":"6196c7076ddd167ceb8e8a66","condition":"full-information","relevant_dimensions":["pattern","legs"],"bee_group":{"antennae":"X","wings":"X","pattern":"S","legs":"F"},"bonus":0.02},{"rt":1191.3999999761581,"stimulus":"bees-with-color/bee-B2SF.svg","response":1,"trial_type":"image-button-response","trial_index":107,"time_elapsed":532064,"internal_node_id":"0.0-4.0-0.48","subject_id":"6169e8a8311d269013eb73c7","study_id":"60edd13110225f80f9f3709b","session_id":"6196c7076ddd167ceb8e8a66","condition":"full-information","relevant_dimensions":["pattern","legs"],"bee_group":{"antennae":"X","wings":"X","pattern":"S","legs":"F"},"action":"avoid","summary":"good-avoid","bonus":0.02},{"rt":1556.3000000715256,"stimulus":"\n                    <p><b>Action: <em>avoid</em></b></p>\n                    <p>This is the bee that you just saw.</p>\n                    <img src=\"bees-with-color/bee-B2SF.svg\" width=\"200\">\n                    <p><span class=\"greenText\">Good choice!</span>  This bee would have stung you.<br>Your bonus pay is unchanged, and remains at $0.26.</p>\n            ","response":0,"trial_type":"html-button-response","trial_index":108,"time_elapsed":533624,"internal_node_id":"0.0-4.0-1.48","subject_id":"6169e8a8311d269013eb73c7","study_id":"60edd13110225f80f9f3709b","session_id":"6196c7076ddd167ceb8e8a66","condition":"full-information","relevant_dimensions":["pattern","legs"],"bee_group":{"antennae":"X","wings":"X","pattern":"S","legs":"F"},"bonus":0.02},{"rt":1074.2000000476837,"stimulus":"bees-with-color/bee-B1SF.svg","response":0,"trial_type":"image-button-response","trial_index":109,"time_elapsed":534702,"internal_node_id":"0.0-4.0-0.49","subject_id":"6169e8a8311d269013eb73c7","study_id":"60edd13110225f80f9f3709b","session_id":"6196c7076ddd167ceb8e8a66","condition":"full-information","relevant_dimensions":["pattern","legs"],"bee_group":{"antennae":"X","wings":"X","pattern":"S","legs":"F"},"action":"harvest","summary":"bad-harvest","bonus":0.02},{"rt":1797.3999999761581,"stimulus":"\n                    <p><b>Action: <em>harvest</em></b></p>\n                    <p>This is the bee that you just saw.</p>\n                    <img src=\"bees-with-color/bee-B1SF.svg\" width=\"200\">\n                    <p><span class=\"redText\">Bad choice, the bee was angry.</span><br><b>You have been stung!</b><br>Your pay has been decreased by $0.10. Your bonus pay is now $0.16.</p>\n            ","response":0,"trial_type":"html-button-response","trial_index":110,"time_elapsed":536503,"internal_node_id":"0.0-4.0-1.49","subject_id":"6169e8a8311d269013eb73c7","study_id":"60edd13110225f80f9f3709b","session_id":"6196c7076ddd167ceb8e8a66","condition":"full-information","relevant_dimensions":["pattern","legs"],"bee_group":{"antennae":"X","wings":"X","pattern":"S","legs":"F"},"bonus":0.02},{"rt":1903.2999999523163,"stimulus":"bees-with-color/bee-A1DM.svg","response":1,"trial_type":"image-button-response","trial_index":111,"time_elapsed":538410,"internal_node_id":"0.0-4.0-0.50","subject_id":"6169e8a8311d269013eb73c7","study_id":"60edd13110225f80f9f3709b","session_id":"6196c7076ddd167ceb8e8a66","condition":"full-information","relevant_dimensions":["pattern","legs"],"bee_group":{"antennae":"X","wings":"X","pattern":"S","legs":"F"},"action":"avoid","summary":"bad-avoid","bonus":0.02},{"rt":3692.7999999523163,"stimulus":"\n                    <p><b>Action: <em>avoid</em></b></p>\n                    <p>This is the bee that you just saw.</p>\n                    <img src=\"bees-with-color/bee-A1DM.svg\" width=\"200\">\n                    <p><span class=\"redText\">Bad choice,</span> the bee was friendly.<br>Your bonus pay is unchanged, and remains at $0.16.</p>\n            ","response":0,"trial_type":"html-button-response","trial_index":112,"time_elapsed":542106,"internal_node_id":"0.0-4.0-1.50","subject_id":"6169e8a8311d269013eb73c7","study_id":"60edd13110225f80f9f3709b","session_id":"6196c7076ddd167ceb8e8a66","condition":"full-information","relevant_dimensions":["pattern","legs"],"bee_group":{"antennae":"X","wings":"X","pattern":"S","legs":"F"},"bonus":0.02},{"rt":997.1000000238419,"stimulus":"bees-with-color/bee-A1SM.svg","response":0,"trial_type":"image-button-response","trial_index":113,"time_elapsed":543108,"internal_node_id":"0.0-4.0-0.51","subject_id":"6169e8a8311d269013eb73c7","study_id":"60edd13110225f80f9f3709b","session_id":"6196c7076ddd167ceb8e8a66","condition":"full-information","relevant_dimensions":["pattern","legs"],"bee_group":{"antennae":"X","wings":"X","pattern":"S","legs":"F"},"action":"harvest","summary":"good-harvest","bonus":0.02},{"rt":2094.5,"stimulus":"\n                    <p><b>Action: <em>harvest</em></b></p>\n                    <p>This is the bee that you just saw.</p>\n                    <img src=\"bees-with-color/bee-A1SM.svg\" width=\"200\">\n                    <p><span class=\"greenText\"><b>Successful harvest!</b></span><br>Your pay has increased by $0.02. Your bonus pay is now $0.18.</p>\n            ","response":0,"trial_type":"html-button-response","trial_index":114,"time_elapsed":545207,"internal_node_id":"0.0-4.0-1.51","subject_id":"6169e8a8311d269013eb73c7","study_id":"60edd13110225f80f9f3709b","session_id":"6196c7076ddd167ceb8e8a66","condition":"full-information","relevant_dimensions":["pattern","legs"],"bee_group":{"antennae":"X","wings":"X","pattern":"S","legs":"F"},"bonus":0.02},{"rt":1153,"stimulus":"bees-with-color/bee-B2DF.svg","response":0,"trial_type":"image-button-response","trial_index":115,"time_elapsed":546364,"internal_node_id":"0.0-4.0-0.52","subject_id":"6169e8a8311d269013eb73c7","study_id":"60edd13110225f80f9f3709b","session_id":"6196c7076ddd167ceb8e8a66","condition":"full-information","relevant_dimensions":["pattern","legs"],"bee_group":{"antennae":"X","wings":"X","pattern":"S","legs":"F"},"action":"harvest","summary":"good-harvest","bonus":0.02},{"rt":2796.6999999284744,"stimulus":"\n                    <p><b>Action: <em>harvest</em></b></p>\n                    <p>This is the bee that you just saw.</p>\n                    <img src=\"bees-with-color/bee-B2DF.svg\" width=\"200\">\n                    <p><span class=\"greenText\"><b>Successful harvest!</b></span><br>Your pay has increased by $0.02. Your bonus pay is now $0.20.</p>\n            ","response":0,"trial_type":"html-button-response","trial_index":116,"time_elapsed":549164,"internal_node_id":"0.0-4.0-1.52","subject_id":"6169e8a8311d269013eb73c7","study_id":"60edd13110225f80f9f3709b","session_id":"6196c7076ddd167ceb8e8a66","condition":"full-information","relevant_dimensions":["pattern","legs"],"bee_group":{"antennae":"X","wings":"X","pattern":"S","legs":"F"},"bonus":0.02},{"rt":2066.2999999523163,"stimulus":"bees-with-color/bee-A1DF.svg","response":1,"trial_type":"image-button-response","trial_index":117,"time_elapsed":551234,"internal_node_id":"0.0-4.0-0.53","subject_id":"6169e8a8311d269013eb73c7","study_id":"60edd13110225f80f9f3709b","session_id":"6196c7076ddd167ceb8e8a66","condition":"full-information","relevant_dimensions":["pattern","legs"],"bee_group":{"antennae":"X","wings":"X","pattern":"S","legs":"F"},"action":"avoid","summary":"bad-avoid","bonus":0.02},{"rt":1182,"stimulus":"\n                    <p><b>Action: <em>avoid</em></b></p>\n                    <p>This is the bee that you just saw.</p>\n                    <img src=\"bees-with-color/bee-A1DF.svg\" width=\"200\">\n                    <p><span class=\"redText\">Bad choice,</span> the bee was friendly.<br>Your bonus pay is unchanged, and remains at $0.20.</p>\n            ","response":0,"trial_type":"html-button-response","trial_index":118,"time_elapsed":552420,"internal_node_id":"0.0-4.0-1.53","subject_id":"6169e8a8311d269013eb73c7","study_id":"60edd13110225f80f9f3709b","session_id":"6196c7076ddd167ceb8e8a66","condition":"full-information","relevant_dimensions":["pattern","legs"],"bee_group":{"antennae":"X","wings":"X","pattern":"S","legs":"F"},"bonus":0.02},{"rt":1141.5,"stimulus":"bees-with-color/bee-B1DF.svg","response":1,"trial_type":"image-button-response","trial_index":119,"time_elapsed":553565,"internal_node_id":"0.0-4.0-0.54","subject_id":"6169e8a8311d269013eb73c7","study_id":"60edd13110225f80f9f3709b","session_id":"6196c7076ddd167ceb8e8a66","condition":"full-information","relevant_dimensions":["pattern","legs"],"bee_group":{"antennae":"X","wings":"X","pattern":"S","legs":"F"},"action":"avoid","summary":"bad-avoid","bonus":0.02},{"rt":1151.1000000238419,"stimulus":"\n                    <p><b>Action: <em>avoid</em></b></p>\n                    <p>This is the bee that you just saw.</p>\n                    <img src=\"bees-with-color/bee-B1DF.svg\" width=\"200\">\n                    <p><span class=\"redText\">Bad choice,</span> the bee was friendly.<br>Your bonus pay is unchanged, and remains at $0.20.</p>\n            ","response":0,"trial_type":"html-button-response","trial_index":120,"time_elapsed":554720,"internal_node_id":"0.0-4.0-1.54","subject_id":"6169e8a8311d269013eb73c7","study_id":"60edd13110225f80f9f3709b","session_id":"6196c7076ddd167ceb8e8a66","condition":"full-information","relevant_dimensions":["pattern","legs"],"bee_group":{"antennae":"X","wings":"X","pattern":"S","legs":"F"},"bonus":0.02},{"rt":1027.3000000715256,"stimulus":"bees-with-color/bee-B2DM.svg","response":0,"trial_type":"image-button-response","trial_index":121,"time_elapsed":555752,"internal_node_id":"0.0-4.0-0.55","subject_id":"6169e8a8311d269013eb73c7","study_id":"60edd13110225f80f9f3709b","session_id":"6196c7076ddd167ceb8e8a66","condition":"full-information","relevant_dimensions":["pattern","legs"],"bee_group":{"antennae":"X","wings":"X","pattern":"S","legs":"F"},"action":"harvest","summary":"good-harvest","bonus":0.02},{"rt":1642.5,"stimulus":"\n                    <p><b>Action: <em>harvest</em></b></p>\n                    <p>This is the bee that you just saw.</p>\n                    <img src=\"bees-with-color/bee-B2DM.svg\" width=\"200\">\n                    <p><span class=\"greenText\"><b>Successful harvest!</b></span><br>Your pay has increased by $0.02. Your bonus pay is now $0.22.</p>\n            ","response":0,"trial_type":"html-button-response","trial_index":122,"time_elapsed":557398,"internal_node_id":"0.0-4.0-1.55","subject_id":"6169e8a8311d269013eb73c7","study_id":"60edd13110225f80f9f3709b","session_id":"6196c7076ddd167ceb8e8a66","condition":"full-information","relevant_dimensions":["pattern","legs"],"bee_group":{"antennae":"X","wings":"X","pattern":"S","legs":"F"},"bonus":0.02},{"rt":1285,"stimulus":"bees-with-color/bee-A2DM.svg","response":1,"trial_type":"image-button-response","trial_index":123,"time_elapsed":558688,"internal_node_id":"0.0-4.0-0.56","subject_id":"6169e8a8311d269013eb73c7","study_id":"60edd13110225f80f9f3709b","session_id":"6196c7076ddd167ceb8e8a66","condition":"full-information","relevant_dimensions":["pattern","legs"],"bee_group":{"antennae":"X","wings":"X","pattern":"S","legs":"F"},"action":"avoid","summary":"bad-avoid","bonus":0.02},{"rt":1161.5,"stimulus":"\n                    <p><b>Action: <em>avoid</em></b></p>\n                    <p>This is the bee that you just saw.</p>\n                    <img src=\"bees-with-color/bee-A2DM.svg\" width=\"200\">\n                    <p><span class=\"redText\">Bad choice,</span> the bee was friendly.<br>Your bonus pay is unchanged, and remains at $0.22.</p>\n            ","response":0,"trial_type":"html-button-response","trial_index":124,"time_elapsed":559854,"internal_node_id":"0.0-4.0-1.56","subject_id":"6169e8a8311d269013eb73c7","study_id":"60edd13110225f80f9f3709b","session_id":"6196c7076ddd167ceb8e8a66","condition":"full-information","relevant_dimensions":["pattern","legs"],"bee_group":{"antennae":"X","wings":"X","pattern":"S","legs":"F"},"bonus":0.02},{"rt":1111.9000000953674,"stimulus":"bees-with-color/bee-A2SF.svg","response":0,"trial_type":"image-button-response","trial_index":125,"time_elapsed":560969,"internal_node_id":"0.0-4.0-0.57","subject_id":"6169e8a8311d269013eb73c7","study_id":"60edd13110225f80f9f3709b","session_id":"6196c7076ddd167ceb8e8a66","condition":"full-information","relevant_dimensions":["pattern","legs"],"bee_group":{"antennae":"X","wings":"X","pattern":"S","legs":"F"},"action":"harvest","summary":"bad-harvest","bonus":0.02},{"rt":1209.2000000476837,"stimulus":"\n                    <p><b>Action: <em>harvest</em></b></p>\n                    <p>This is the bee that you just saw.</p>\n                    <img src=\"bees-with-color/bee-A2SF.svg\" width=\"200\">\n                    <p><span class=\"redText\">Bad choice, the bee was angry.</span><br><b>You have been stung!</b><br>Your pay has been decreased by $0.10. Your bonus pay is now $0.12.</p>\n            ","response":0,"trial_type":"html-button-response","trial_index":126,"time_elapsed":562183,"internal_node_id":"0.0-4.0-1.57","subject_id":"6169e8a8311d269013eb73c7","study_id":"60edd13110225f80f9f3709b","session_id":"6196c7076ddd167ceb8e8a66","condition":"full-information","relevant_dimensions":["pattern","legs"],"bee_group":{"antennae":"X","wings":"X","pattern":"S","legs":"F"},"bonus":0.02},{"rt":969.2000000476837,"stimulus":"bees-with-color/bee-A2DF.svg","response":1,"trial_type":"image-button-response","trial_index":127,"time_elapsed":563156,"internal_node_id":"0.0-4.0-0.58","subject_id":"6169e8a8311d269013eb73c7","study_id":"60edd13110225f80f9f3709b","session_id":"6196c7076ddd167ceb8e8a66","condition":"full-information","relevant_dimensions":["pattern","legs"],"bee_group":{"antennae":"X","wings":"X","pattern":"S","legs":"F"},"action":"avoid","summary":"bad-avoid","bonus":0.02},{"rt":1295,"stimulus":"\n                    <p><b>Action: <em>avoid</em></b></p>\n                    <p>This is the bee that you just saw.</p>\n                    <img src=\"bees-with-color/bee-A2DF.svg\" width=\"200\">\n                    <p><span class=\"redText\">Bad choice,</span> the bee was friendly.<br>Your bonus pay is unchanged, and remains at $0.12.</p>\n            ","response":0,"trial_type":"html-button-response","trial_index":128,"time_elapsed":564456,"internal_node_id":"0.0-4.0-1.58","subject_id":"6169e8a8311d269013eb73c7","study_id":"60edd13110225f80f9f3709b","session_id":"6196c7076ddd167ceb8e8a66","condition":"full-information","relevant_dimensions":["pattern","legs"],"bee_group":{"antennae":"X","wings":"X","pattern":"S","legs":"F"},"bonus":0.02},{"rt":1796.5999999046326,"stimulus":"bees-with-color/bee-B1DM.svg","response":0,"trial_type":"image-button-response","trial_index":129,"time_elapsed":566256,"internal_node_id":"0.0-4.0-0.59","subject_id":"6169e8a8311d269013eb73c7","study_id":"60edd13110225f80f9f3709b","session_id":"6196c7076ddd167ceb8e8a66","condition":"full-information","relevant_dimensions":["pattern","legs"],"bee_group":{"antennae":"X","wings":"X","pattern":"S","legs":"F"},"action":"harvest","summary":"good-harvest","bonus":0.02},{"rt":1941,"stimulus":"\n                    <p><b>Action: <em>harvest</em></b></p>\n                    <p>This is the bee that you just saw.</p>\n                    <img src=\"bees-with-color/bee-B1DM.svg\" width=\"200\">\n                    <p><span class=\"greenText\"><b>Successful harvest!</b></span><br>Your pay has increased by $0.02. Your bonus pay is now $0.14.</p>\n            ","response":0,"trial_type":"html-button-response","trial_index":130,"time_elapsed":568201,"internal_node_id":"0.0-4.0-1.59","subject_id":"6169e8a8311d269013eb73c7","study_id":"60edd13110225f80f9f3709b","session_id":"6196c7076ddd167ceb8e8a66","condition":"full-information","relevant_dimensions":["pattern","legs"],"bee_group":{"antennae":"X","wings":"X","pattern":"S","legs":"F"},"bonus":0.02},{"rt":1641,"stimulus":"bees-with-color/bee-A1SF.svg","response":0,"trial_type":"image-button-response","trial_index":131,"time_elapsed":569847,"internal_node_id":"0.0-4.0-0.60","subject_id":"6169e8a8311d269013eb73c7","study_id":"60edd13110225f80f9f3709b","session_id":"6196c7076ddd167ceb8e8a66","condition":"full-information","relevant_dimensions":["pattern","legs"],"bee_group":{"antennae":"X","wings":"X","pattern":"S","legs":"F"},"action":"harvest","summary":"bad-harvest","bonus":0.02},{"rt":1295.0999999046326,"stimulus":"\n                    <p><b>Action: <em>harvest</em></b></p>\n                    <p>This is the bee that you just saw.</p>\n                    <img src=\"bees-with-color/bee-A1SF.svg\" width=\"200\">\n                    <p><span class=\"redText\">Bad choice, the bee was angry.</span><br><b>You have been stung!</b><br>Your pay has been decreased by $0.10. Your bonus pay is now $0.04.</p>\n            ","response":0,"trial_type":"html-button-response","trial_index":132,"time_elapsed":571146,"internal_node_id":"0.0-4.0-1.60","subject_id":"6169e8a8311d269013eb73c7","study_id":"60edd13110225f80f9f3709b","session_id":"6196c7076ddd167ceb8e8a66","condition":"full-information","relevant_dimensions":["pattern","legs"],"bee_group":{"antennae":"X","wings":"X","pattern":"S","legs":"F"},"bonus":0.02},{"rt":1036.6000000238419,"stimulus":"bees-with-color/bee-A2SM.svg","response":1,"trial_type":"image-button-response","trial_index":133,"time_elapsed":572186,"internal_node_id":"0.0-4.0-0.61","subject_id":"6169e8a8311d269013eb73c7","study_id":"60edd13110225f80f9f3709b","session_id":"6196c7076ddd167ceb8e8a66","condition":"full-information","relevant_dimensions":["pattern","legs"],"bee_group":{"antennae":"X","wings":"X","pattern":"S","legs":"F"},"action":"avoid","summary":"bad-avoid","bonus":0.02},{"rt":1498.7000000476837,"stimulus":"\n                    <p><b>Action: <em>avoid</em></b></p>\n                    <p>This is the bee that you just saw.</p>\n                    <img src=\"bees-with-color/bee-A2SM.svg\" width=\"200\">\n                    <p><span class=\"redText\">Bad choice,</span> the bee was friendly.<br>Your bonus pay is unchanged, and remains at $0.04.</p>\n            ","response":0,"trial_type":"html-button-response","trial_index":134,"time_elapsed":573688,"internal_node_id":"0.0-4.0-1.61","subject_id":"6169e8a8311d269013eb73c7","study_id":"60edd13110225f80f9f3709b","session_id":"6196c7076ddd167ceb8e8a66","condition":"full-information","relevant_dimensions":["pattern","legs"],"bee_group":{"antennae":"X","wings":"X","pattern":"S","legs":"F"},"bonus":0.02},{"rt":796.5,"stimulus":"bees-with-color/bee-B1SM.svg","response":0,"trial_type":"image-button-response","trial_index":135,"time_elapsed":574488,"internal_node_id":"0.0-4.0-0.62","subject_id":"6169e8a8311d269013eb73c7","study_id":"60edd13110225f80f9f3709b","session_id":"6196c7076ddd167ceb8e8a66","condition":"full-information","relevant_dimensions":["pattern","legs"],"bee_group":{"antennae":"X","wings":"X","pattern":"S","legs":"F"},"action":"harvest","summary":"good-harvest","bonus":0.02},{"rt":1605.2999999523163,"stimulus":"\n                    <p><b>Action: <em>harvest</em></b></p>\n                    <p>This is the bee that you just saw.</p>\n                    <img src=\"bees-with-color/bee-B1SM.svg\" width=\"200\">\n                    <p><span class=\"greenText\"><b>Successful harvest!</b></span><br>Your pay has increased by $0.02. Your bonus pay is now $0.06.</p>\n            ","response":0,"trial_type":"html-button-response","trial_index":136,"time_elapsed":576097,"internal_node_id":"0.0-4.0-1.62","subject_id":"6169e8a8311d269013eb73c7","study_id":"60edd13110225f80f9f3709b","session_id":"6196c7076ddd167ceb8e8a66","condition":"full-information","relevant_dimensions":["pattern","legs"],"bee_group":{"antennae":"X","wings":"X","pattern":"S","legs":"F"},"bonus":0.02},{"rt":1633,"stimulus":"bees-with-color/bee-B2SM.svg","response":0,"trial_type":"image-button-response","trial_index":137,"time_elapsed":577733,"internal_node_id":"0.0-4.0-0.63","subject_id":"6169e8a8311d269013eb73c7","study_id":"60edd13110225f80f9f3709b","session_id":"6196c7076ddd167ceb8e8a66","condition":"full-information","relevant_dimensions":["pattern","legs"],"bee_group":{"antennae":"X","wings":"X","pattern":"S","legs":"F"},"action":"harvest","summary":"good-harvest","bonus":0.02},{"rt":1401.5999999046326,"stimulus":"\n                    <p><b>Action: <em>harvest</em></b></p>\n                    <p>This is the bee that you just saw.</p>\n                    <img src=\"bees-with-color/bee-B2SM.svg\" width=\"200\">\n                    <p><span class=\"greenText\"><b>Successful harvest!</b></span><br>Your pay has increased by $0.02. Your bonus pay is now $0.08.</p>\n            ","response":0,"trial_type":"html-button-response","trial_index":138,"time_elapsed":579138,"internal_node_id":"0.0-4.0-1.63","subject_id":"6169e8a8311d269013eb73c7","study_id":"60edd13110225f80f9f3709b","session_id":"6196c7076ddd167ceb8e8a66","condition":"full-information","relevant_dimensions":["pattern","legs"],"bee_group":{"antennae":"X","wings":"X","pattern":"S","legs":"F"},"bonus":0.02},{"rt":3044.600000023842,"stimulus":"You have completed the first part of this experiment.<br><br>You will now begin a shorter second part, in which you will receive no feedback.<br>The same rules regarding bonus pay apply.<br><br>Press any key to begin.","response":"enter","trial_type":"html-keyboard-response","trial_index":139,"time_elapsed":582186,"internal_node_id":"0.0-5.0","subject_id":"6169e8a8311d269013eb73c7","study_id":"60edd13110225f80f9f3709b","session_id":"6196c7076ddd167ceb8e8a66","condition":"full-information","relevant_dimensions":["pattern","legs"],"bee_group":{"antennae":"X","wings":"X","pattern":"S","legs":"F"},"bonus":0.02},{"rt":3437.1999999284744,"stimulus":"bees-with-color/bee-B2SM.svg","response":0,"trial_type":"image-button-response","trial_index":140,"time_elapsed":585646,"internal_node_id":"0.0-6.0-0.0","subject_id":"6169e8a8311d269013eb73c7","study_id":"60edd13110225f80f9f3709b","session_id":"6196c7076ddd167ceb8e8a66","condition":"full-information","relevant_dimensions":["pattern","legs"],"bee_group":{"antennae":"X","wings":"X","pattern":"S","legs":"F"},"bonus":0.02},{"rt":5232.400000095367,"stimulus":"bees-with-color/bee-A2SM.svg","response":0,"trial_type":"image-button-response","trial_index":141,"time_elapsed":590884,"internal_node_id":"0.0-6.0-0.1","subject_id":"6169e8a8311d269013eb73c7","study_id":"60edd13110225f80f9f3709b","session_id":"6196c7076ddd167ceb8e8a66","condition":"full-information","relevant_dimensions":["pattern","legs"],"bee_group":{"antennae":"X","wings":"X","pattern":"S","legs":"F"},"bonus":0.02},{"rt":1458.5,"stimulus":"bees-with-color/bee-A1SF.svg","response":0,"trial_type":"image-button-response","trial_index":142,"time_elapsed":592349,"internal_node_id":"0.0-6.0-0.2","subject_id":"6169e8a8311d269013eb73c7","study_id":"60edd13110225f80f9f3709b","session_id":"6196c7076ddd167ceb8e8a66","condition":"full-information","relevant_dimensions":["pattern","legs"],"bee_group":{"antennae":"X","wings":"X","pattern":"S","legs":"F"},"bonus":0.02},{"rt":1505.7000000476837,"stimulus":"bees-with-color/bee-A1SM.svg","response":1,"trial_type":"image-button-response","trial_index":143,"time_elapsed":593860,"internal_node_id":"0.0-6.0-0.3","subject_id":"6169e8a8311d269013eb73c7","study_id":"60edd13110225f80f9f3709b","session_id":"6196c7076ddd167ceb8e8a66","condition":"full-information","relevant_dimensions":["pattern","legs"],"bee_group":{"antennae":"X","wings":"X","pattern":"S","legs":"F"},"bonus":0.02},{"rt":1680.1000000238419,"stimulus":"bees-with-color/bee-A2DF.svg","response":0,"trial_type":"image-button-response","trial_index":144,"time_elapsed":595545,"internal_node_id":"0.0-6.0-0.4","subject_id":"6169e8a8311d269013eb73c7","study_id":"60edd13110225f80f9f3709b","session_id":"6196c7076ddd167ceb8e8a66","condition":"full-information","relevant_dimensions":["pattern","legs"],"bee_group":{"antennae":"X","wings":"X","pattern":"S","legs":"F"},"bonus":0.02},{"rt":1294.8999999761581,"stimulus":"bees-with-color/bee-A1DF.svg","response":0,"trial_type":"image-button-response","trial_index":145,"time_elapsed":596844,"internal_node_id":"0.0-6.0-0.5","subject_id":"6169e8a8311d269013eb73c7","study_id":"60edd13110225f80f9f3709b","session_id":"6196c7076ddd167ceb8e8a66","condition":"full-information","relevant_dimensions":["pattern","legs"],"bee_group":{"antennae":"X","wings":"X","pattern":"S","legs":"F"},"bonus":0.02},{"rt":1642.4000000953674,"stimulus":"bees-with-color/bee-B1SF.svg","response":0,"trial_type":"image-button-response","trial_index":146,"time_elapsed":598491,"internal_node_id":"0.0-6.0-0.6","subject_id":"6169e8a8311d269013eb73c7","study_id":"60edd13110225f80f9f3709b","session_id":"6196c7076ddd167ceb8e8a66","condition":"full-information","relevant_dimensions":["pattern","legs"],"bee_group":{"antennae":"X","wings":"X","pattern":"S","legs":"F"},"bonus":0.02},{"rt":975.7000000476837,"stimulus":"bees-with-color/bee-B1DM.svg","response":1,"trial_type":"image-button-response","trial_index":147,"time_elapsed":599473,"internal_node_id":"0.0-6.0-0.7","subject_id":"6169e8a8311d269013eb73c7","study_id":"60edd13110225f80f9f3709b","session_id":"6196c7076ddd167ceb8e8a66","condition":"full-information","relevant_dimensions":["pattern","legs"],"bee_group":{"antennae":"X","wings":"X","pattern":"S","legs":"F"},"bonus":0.02},{"rt":2479.6999999284744,"stimulus":"bees-with-color/bee-B1DF.svg","response":0,"trial_type":"image-button-response","trial_index":148,"time_elapsed":601958,"internal_node_id":"0.0-6.0-0.8","subject_id":"6169e8a8311d269013eb73c7","study_id":"60edd13110225f80f9f3709b","session_id":"6196c7076ddd167ceb8e8a66","condition":"full-information","relevant_dimensions":["pattern","legs"],"bee_group":{"antennae":"X","wings":"X","pattern":"S","legs":"F"},"bonus":0.02},{"rt":1323,"stimulus":"bees-with-color/bee-B2DF.svg","response":0,"trial_type":"image-button-response","trial_index":149,"time_elapsed":603287,"internal_node_id":"0.0-6.0-0.9","subject_id":"6169e8a8311d269013eb73c7","study_id":"60edd13110225f80f9f3709b","session_id":"6196c7076ddd167ceb8e8a66","condition":"full-information","relevant_dimensions":["pattern","legs"],"bee_group":{"antennae":"X","wings":"X","pattern":"S","legs":"F"},"bonus":0.02},{"rt":1563.4000000953674,"stimulus":"bees-with-color/bee-A1DM.svg","response":1,"trial_type":"image-button-response","trial_index":150,"time_elapsed":604856,"internal_node_id":"0.0-6.0-0.10","subject_id":"6169e8a8311d269013eb73c7","study_id":"60edd13110225f80f9f3709b","session_id":"6196c7076ddd167ceb8e8a66","condition":"full-information","relevant_dimensions":["pattern","legs"],"bee_group":{"antennae":"X","wings":"X","pattern":"S","legs":"F"},"bonus":0.02},{"rt":1235.3000000715256,"stimulus":"bees-with-color/bee-A2DM.svg","response":0,"trial_type":"image-button-response","trial_index":151,"time_elapsed":606097,"internal_node_id":"0.0-6.0-0.11","subject_id":"6169e8a8311d269013eb73c7","study_id":"60edd13110225f80f9f3709b","session_id":"6196c7076ddd167ceb8e8a66","condition":"full-information","relevant_dimensions":["pattern","legs"],"bee_group":{"antennae":"X","wings":"X","pattern":"S","legs":"F"},"bonus":0.02},{"rt":911.3999999761581,"stimulus":"bees-with-color/bee-B2SF.svg","response":0,"trial_type":"image-button-response","trial_index":152,"time_elapsed":607013,"internal_node_id":"0.0-6.0-0.12","subject_id":"6169e8a8311d269013eb73c7","study_id":"60edd13110225f80f9f3709b","session_id":"6196c7076ddd167ceb8e8a66","condition":"full-information","relevant_dimensions":["pattern","legs"],"bee_group":{"antennae":"X","wings":"X","pattern":"S","legs":"F"},"bonus":0.02},{"rt":1004.5,"stimulus":"bees-with-color/bee-B2DM.svg","response":1,"trial_type":"image-button-response","trial_index":153,"time_elapsed":608023,"internal_node_id":"0.0-6.0-0.13","subject_id":"6169e8a8311d269013eb73c7","study_id":"60edd13110225f80f9f3709b","session_id":"6196c7076ddd167ceb8e8a66","condition":"full-information","relevant_dimensions":["pattern","legs"],"bee_group":{"antennae":"X","wings":"X","pattern":"S","legs":"F"},"bonus":0.02},{"rt":1765.1999999284744,"stimulus":"bees-with-color/bee-B1SM.svg","response":0,"trial_type":"image-button-response","trial_index":154,"time_elapsed":609794,"internal_node_id":"0.0-6.0-0.14","subject_id":"6169e8a8311d269013eb73c7","study_id":"60edd13110225f80f9f3709b","session_id":"6196c7076ddd167ceb8e8a66","condition":"full-information","relevant_dimensions":["pattern","legs"],"bee_group":{"antennae":"X","wings":"X","pattern":"S","legs":"F"},"bonus":0.02},{"rt":495.89999997615814,"stimulus":"bees-with-color/bee-A2SF.svg","response":0,"trial_type":"image-button-response","trial_index":155,"time_elapsed":610295,"internal_node_id":"0.0-6.0-0.15","subject_id":"6169e8a8311d269013eb73c7","study_id":"60edd13110225f80f9f3709b","session_id":"6196c7076ddd167ceb8e8a66","condition":"full-information","relevant_dimensions":["pattern","legs"],"bee_group":{"antennae":"X","wings":"X","pattern":"S","legs":"F"},"bonus":0.02},{"rt":632.6999999284744,"stimulus":"bees-with-color/bee-A1DF.svg","response":0,"trial_type":"image-button-response","trial_index":156,"time_elapsed":610932,"internal_node_id":"0.0-6.0-0.16","subject_id":"6169e8a8311d269013eb73c7","study_id":"60edd13110225f80f9f3709b","session_id":"6196c7076ddd167ceb8e8a66","condition":"full-information","relevant_dimensions":["pattern","legs"],"bee_group":{"antennae":"X","wings":"X","pattern":"S","legs":"F"},"bonus":0.02},{"rt":581.8999999761581,"stimulus":"bees-with-color/bee-B2DM.svg","response":0,"trial_type":"image-button-response","trial_index":157,"time_elapsed":611519,"internal_node_id":"0.0-6.0-0.17","subject_id":"6169e8a8311d269013eb73c7","study_id":"60edd13110225f80f9f3709b","session_id":"6196c7076ddd167ceb8e8a66","condition":"full-information","relevant_dimensions":["pattern","legs"],"bee_group":{"antennae":"X","wings":"X","pattern":"S","legs":"F"},"bonus":0.02},{"rt":823,"stimulus":"bees-with-color/bee-A1SM.svg","response":1,"trial_type":"image-button-response","trial_index":158,"time_elapsed":612346,"internal_node_id":"0.0-6.0-0.18","subject_id":"6169e8a8311d269013eb73c7","study_id":"60edd13110225f80f9f3709b","session_id":"6196c7076ddd167ceb8e8a66","condition":"full-information","relevant_dimensions":["pattern","legs"],"bee_group":{"antennae":"X","wings":"X","pattern":"S","legs":"F"},"bonus":0.02},{"rt":1516.2000000476837,"stimulus":"bees-with-color/bee-B2SF.svg","response":0,"trial_type":"image-button-response","trial_index":159,"time_elapsed":613867,"internal_node_id":"0.0-6.0-0.19","subject_id":"6169e8a8311d269013eb73c7","study_id":"60edd13110225f80f9f3709b","session_id":"6196c7076ddd167ceb8e8a66","condition":"full-information","relevant_dimensions":["pattern","legs"],"bee_group":{"antennae":"X","wings":"X","pattern":"S","legs":"F"},"bonus":0.02},{"rt":12090.200000047684,"stimulus":"bees-with-color/bee-B2SM.svg","response":0,"trial_type":"image-button-response","trial_inde