[{"success":true,"trial_type":"fullscreen","trial_index":0,"time_elapsed":4420,"internal_node_id":"0.0-0.0","subject_id":"615ad488a894bde31da04124","study_id":"60edd13110225f80f9f3709b","session_id":"6196c701a086da7a1db2e9c1","condition":"contingent","relevant_dimensions":["wings","legs"],"bee_group":{"antennae":"X","wings":"1","pattern":"X","legs":"M"},"bonus":0},{"success":true,"timeout":false,"failed_images":[],"failed_audio":[],"failed_video":[],"trial_type":"preload","trial_index":1,"time_elapsed":8661,"internal_node_id":"0.0-1.0","subject_id":"615ad488a894bde31da04124","study_id":"60edd13110225f80f9f3709b","session_id":"6196c701a086da7a1db2e9c1","condition":"contingent","relevant_dimensions":["wings","legs"],"bee_group":{"antennae":"X","wings":"1","pattern":"X","legs":"M"},"bonus":0},{"rt":4052.699999988079,"stimulus":"Welcome! Press any key to begin.","response":"enter","trial_type":"html-keyboard-response","trial_index":2,"time_elapsed":12714,"internal_node_id":"0.0-2.0","subject_id":"615ad488a894bde31da04124","study_id":"60edd13110225f80f9f3709b","session_id":"6196c701a086da7a1db2e9c1","condition":"contingent","relevant_dimensions":["wings","legs"],"bee_group":{"antennae":"X","wings":"1","pattern":"X","legs":"M"},"bonus":0},{"view_history":[{"page_index":0,"viewing_time":5718.099999964237},{"page_index":1,"viewing_time":7684.900000035763},{"page_index":0,"viewing_time":5421.399999976158},{"page_index":1,"viewing_time":7639.199999988079},{"page_index":2,"viewing_time":19015.100000023842},{"page_index":3,"viewing_time":29449.19999998808},{"page_index":4,"viewing_time":7421.400000035763},{"page_index":5,"viewing_time":9865.399999976158},{"page_index":6,"viewing_time":11520.300000011921},{"page_index":7,"viewing_time":12063.899999976158},{"page_index":6,"viewing_time":4140.400000035763},{"page_index":7,"viewing_time":4970.699999988079},{"page_index":8,"viewing_time":4765},{"page_index":9,"viewing_time":3195.199999988079},{"page_index":10,"viewing_time":4037.800000011921},{"page_index":11,"viewing_time":13128.800000011921},{"page_index":12,"viewing_time":13444.799999952316},{"page_index":13,"viewing_time":1630},{"page_index":14,"viewing_time":2878.600000023842}],"rt":167990.5,"trial_type":"instructions","trial_index":3,"time_elapsed":180706,"internal_node_id":"0.0-3.0-0.0","subject_id":"615ad488a894bde31da04124","study_id":"60edd13110225f80f9f3709b","session_id":"6196c701a086da7a1db2e9c1","condition":"contingent","relevant_dimensions":["wings","legs"],"bee_group":{"antennae":"X","wings":"1","pattern":"X","legs":"M"},"bonus":0},{"rt":38675.5,"response":{"Q0":["Stripes or spots on body","Single or double wings"]},"question_order":[0],"trial_type":"survey-multi-select","trial_index":4,"time_elapsed":219384,"internal_node_id":"0.0-3.0-1.0","subject_id":"615ad488a894bde31da04124","study_id":"60edd13110225f80f9f3709b","session_id":"6196c701a086da7a1db2e9c1","condition":"contingent","relevant_dimensions":["wings","legs"],"bee_group":{"antennae":"X","wings":"1","pattern":"X","legs":"M"},"correct":false,"bonus":0},{"rt":37177.90000003576,"response":{"Q1":"No.","Q2":"Based on the four features of the bee.","Q3":"You do not learn if it was friendly or dangerous, and do not alter your bonus."},"question_order":[0,1,2],"trial_type":"survey-multi-choice","trial_index":5,"time_elapsed":256565,"internal_node_id":"0.0-3.0-2.0","subject_id":"615ad488a894bde31da04124","study_id":"60edd13110225f80f9f3709b","session_id":"6196c701a086da7a1db2e9c1","condition":"contingent","relevant_dimensions":["wings","legs"],"bee_group":{"antennae":"X","wings":"1","pattern":"X","legs":"M"},"correct":true,"bonus":0},{"rt":4622.199999988079,"stimulus":"<p>You did not answer all comprehension questions correctly.<br>Press <b>continue</b> to review the instructions again.</p>","response":0,"trial_type":"html-button-response","trial_index":6,"time_elapsed":261190,"internal_node_id":"0.0-3.0-3.0","subject_id":"615ad488a894bde31da04124","study_id":"60edd13110225f80f9f3709b","session_id":"6196c701a086da7a1db2e9c1","condition":"contingent","relevant_dimensions":["wings","legs"],"bee_group":{"antennae":"X","wings":"1","pattern":"X","legs":"M"},"bonus":0},{"view_history":[{"page_index":0,"viewing_time":2339},{"page_index":1,"viewing_time":1879.3999999761581},{"page_index":2,"viewing_time":1592.1000000238419},{"page_index":3,"viewing_time":1490.699999988079},{"page_index":4,"viewing_time":1196.5},{"page_index":5,"viewing_time":954.1999999880791},{"page_index":6,"viewing_time":616.5},{"page_index":7,"viewing_time":6459},{"page_index":8,"viewing_time":2730.5},{"page_index":9,"viewing_time":2194},{"page_index":10,"viewing_time":4828.200000047684},{"page_index":11,"viewing_time":1233.699999988079},{"page_index":12,"viewing_time":1145},{"page_index":13,"viewing_time":1042.0999999642372},{"page_index":14,"viewing_time":843.5}],"rt":30544.600000023842,"trial_type":"instructions","trial_index":7,"time_elapsed":291736,"internal_node_id":"0.0-3.0-4.0-0.0","subject_id":"615ad488a894bde31da04124","study_id":"60edd13110225f80f9f3709b","session_id":"6196c701a086da7a1db2e9c1","condition":"contingent","relevant_dimensions":["wings","legs"],"bee_group":{"antennae":"X","wings":"1","pattern":"X","legs":"M"},"bonus":0},{"rt":12489.100000023842,"response":{"Q0":["Two or six legs","Stripes or spots on body","Single or double wings","Antennae or no antennae"]},"question_order":[0],"trial_type":"survey-multi-select","trial_index":8,"time_elapsed":304228,"internal_node_id":"0.0-3.0-4.0-1.0","subject_id":"615ad488a894bde31da04124","study_id":"60edd13110225f80f9f3709b","session_id":"6196c701a086da7a1db2e9c1","condition":"contingent","relevant_dimensions":["wings","legs"],"bee_group":{"antennae":"X","wings":"1","pattern":"X","legs":"M"},"correct":true,"bonus":0},{"rt":13142,"response":{"Q1":"No.","Q2":"Based on the four features of the bee.","Q3":"You do not learn if it was friendly or dangerous, and do not alter your bonus."},"question_order":[0,1,2],"trial_type":"survey-multi-choice","trial_index":9,"time_elapsed":317373,"internal_node_id":"0.0-3.0-4.0-2.0","subject_id":"615ad488a894bde31da04124","study_id":"60edd13110225f80f9f3709b","session_id":"6196c701a086da7a1db2e9c1","condition":"contingent","relevant_dimensions":["wings","legs"],"bee_group":{"antennae":"X","wings":"1","pattern":"X","legs":"M"},"correct":true,"bonus":0},{"rt":1398.300000011921,"stimulus":"<p>Congrats, you got everything right<br>When you're ready, click the button below to continue to the experiment.</p>","response":0,"trial_type":"html-button-response","trial_index":10,"time_elapsed":318773,"internal_node_id":"0.0-3.0-4.0-3.0","subject_id":"615ad488a894bde31da04124","study_id":"60edd13110225f80f9f3709b","session_id":"6196c701a086da7a1db2e9c1","condition":"contingent","relevant_dimensions":["wings","legs"],"bee_group":{"antennae":"X","wings":"1","pattern":"X","legs":"M"},"bonus":0},{"rt":6163.600000023842,"stimulus":"bees-with-color/bee-A2SF.svg","response":0,"trial_type":"image-button-response","trial_index":11,"time_elapsed":324939,"internal_node_id":"0.0-4.0-0.0","subject_id":"615ad488a894bde31da04124","study_id":"60edd13110225f80f9f3709b","session_id":"6196c701a086da7a1db2e9c1","condition":"contingent","relevant_dimensions":["wings","legs"],"bee_group":{"antennae":"X","wings":"1","pattern":"X","legs":"M"},"action":"harvest","summary":"good-harvest","bonus":0},{"rt":9764.300000011921,"stimulus":"\n                    <p><b>Action: <em>harvest</em></b></p>\n                    <p>This is the bee that you just saw.</p>\n                    <img src=\"bees-with-color/bee-A2SF.svg\" width=\"200\">\n                    <p><span class=\"greenText\"><b>Successful harvest!</b></span><br>Your pay has increased by $0.02. Your bonus pay is now $0.56.</p>\n            ","response":0,"trial_type":"html-button-response","trial_index":12,"time_elapsed":334706,"internal_node_id":"0.0-4.0-1.0","subject_id":"615ad488a894bde31da04124","study_id":"60edd13110225f80f9f3709b","session_id":"6196c701a086da7a1db2e9c1","condition":"contingent","relevant_dimensions":["wings","legs"],"bee_group":{"antennae":"X","wings":"1","pattern":"X","legs":"M"},"bonus":0},{"rt":11702.800000011921,"stimulus":"bees-with-color/bee-A2SM.svg","response":1,"trial_type":"image-button-response","trial_index":13,"time_elapsed":346411,"internal_node_id":"0.0-4.0-0.1","subject_id":"615ad488a894bde31da04124","study_id":"60edd13110225f80f9f3709b","session_id":"6196c701a086da7a1db2e9c1","condition":"contingent","relevant_dimensions":["wings","legs"],"bee_group":{"antennae":"X","wings":"1","pattern":"X","legs":"M"},"action":"avoid","summary":"bad-avoid","bonus":0},{"rt":4819.699999988079,"stimulus":"\n                    <p><b>Action: <em>avoid</em></b></p>\n                    <p>This is the bee that you just saw.</p>\n                    <img src=\"bees-with-color/bee-A2SM.svg\" width=\"200\">\n                    <p><br>Your bonus pay is unchanged, and remains at $0.56.</p>\n            ","response":0,"trial_type":"html-button-response","trial_index":14,"time_elapsed":351232,"internal_node_id":"0.0-4.0-1.1","subject_id":"615ad488a894bde31da04124","study_id":"60edd13110225f80f9f3709b","session_id":"6196c701a086da7a1db2e9c1","condition":"contingent","relevant_dimensions":["wings","legs"],"bee_group":{"antennae":"X","wings":"1","pattern":"X","legs":"M"},"bonus":0},{"rt":2603,"stimulus":"bees-with-color/bee-B1SM.svg","response":0,"trial_type":"image-button-response","trial_index":15,"time_elapsed":353837,"internal_node_id":"0.0-4.0-0.2","subject_id":"615ad488a894bde31da04124","study_id":"60edd13110225f80f9f3709b","session_id":"6196c701a086da7a1db2e9c1","condition":"contingent","relevant_dimensions":["wings","legs"],"bee_group":{"antennae":"X","wings":"1","pattern":"X","legs":"M"},"action":"harvest","summary":"bad-harvest","bonus":0},{"rt":5487.399999976158,"stimulus":"\n                    <p><b>Action: <em>harvest</em></b></p>\n                    <p>This is the bee that you just saw.</p>\n                    <img src=\"bees-with-color/bee-B1SM.svg\" width=\"200\">\n                    <p><span class=\"redText\">Bad choice, the bee was angry.</span><br><b>You have been stung!</b><br>Your pay has been decreased by $0.10. Your bonus pay is now $0.46.</p>\n            ","response":0,"trial_type":"html-button-response","trial_index":16,"time_elapsed":359326,"internal_node_id":"0.0-4.0-1.2","subject_id":"615ad488a894bde31da04124","study_id":"60edd13110225f80f9f3709b","session_id":"6196c701a086da7a1db2e9c1","condition":"contingent","relevant_dimensions":["wings","legs"],"bee_group":{"antennae":"X","wings":"1","pattern":"X","legs":"M"},"bonus":0},{"rt":5039.100000023842,"stimulus":"bees-with-color/bee-B2DM.svg","response":0,"trial_type":"image-button-response","trial_index":17,"time_elapsed":364367,"internal_node_id":"0.0-4.0-0.3","subject_id":"615ad488a894bde31da04124","study_id":"60edd13110225f80f9f3709b","session_id":"6196c701a086da7a1db2e9c1","condition":"contingent","relevant_dimensions":["wings","legs"],"bee_group":{"antennae":"X","wings":"1","pattern":"X","legs":"M"},"action":"harvest","summary":"good-harvest","bonus":0},{"rt":2625.800000011921,"stimulus":"\n                    <p><b>Action: <em>harvest</em></b></p>\n                    <p>This is the bee that you just saw.</p>\n                    <img src=\"bees-with-color/bee-B2DM.svg\" width=\"200\">\n                    <p><span class=\"greenText\"><b>Successful harvest!</b></span><br>Your pay has increased by $0.02. Your bonus pay is now $0.48.</p>\n            ","response":0,"trial_type":"html-button-response","trial_index":18,"time_elapsed":366994,"internal_node_id":"0.0-4.0-1.3","subject_id":"615ad488a894bde31da04124","study_id":"60edd13110225f80f9f3709b","session_id":"6196c701a086da7a1db2e9c1","condition":"contingent","relevant_dimensions":["wings","legs"],"bee_group":{"antennae":"X","wings":"1","pattern":"X","legs":"M"},"bonus":0},{"rt":1768,"stimulus":"bees-with-color/bee-B1SF.svg","response":0,"trial_type":"image-button-response","trial_index":19,"time_elapsed":368763,"internal_node_id":"0.0-4.0-0.4","subject_id":"615ad488a894bde31da04124","study_id":"60edd13110225f80f9f3709b","session_id":"6196c701a086da7a1db2e9c1","condition":"contingent","relevant_dimensions":["wings","legs"],"bee_group":{"antennae":"X","wings":"1","pattern":"X","legs":"M"},"action":"harvest","summary":"good-harvest","bonus":0},{"rt":2046.2999999523163,"stimulus":"\n                    <p><b>Action: <em>harvest</em></b></p>\n                    <p>This is the bee that you just saw.</p>\n                    <img src=\"bees-with-color/bee-B1SF.svg\" width=\"200\">\n                    <p><span class=\"greenText\"><b>Successful harvest!</b></span><br>Your pay has increased by $0.02. Your bonus pay is now $0.50.</p>\n            ","response":0,"trial_type":"html-button-response","trial_index":20,"time_elapsed":370811,"internal_node_id":"0.0-4.0-1.4","subject_id":"615ad488a894bde31da04124","study_id":"60edd13110225f80f9f3709b","session_id":"6196c701a086da7a1db2e9c1","condition":"contingent","relevant_dimensions":["wings","legs"],"bee_group":{"antennae":"X","wings":"1","pattern":"X","legs":"M"},"bonus":0},{"rt":2618.7999999523163,"stimulus":"bees-with-color/bee-A2DM.svg","response":0,"trial_type":"image-button-response","trial_index":21,"time_elapsed":373431,"internal_node_id":"0.0-4.0-0.5","subject_id":"615ad488a894bde31da04124","study_id":"60edd13110225f80f9f3709b","session_id":"6196c701a086da7a1db2e9c1","condition":"contingent","relevant_dimensions":["wings","legs"],"bee_group":{"antennae":"X","wings":"1","pattern":"X","legs":"M"},"action":"harvest","summary":"good-harvest","bonus":0},{"rt":2397.5,"stimulus":"\n                    <p><b>Action: <em>harvest</em></b></p>\n                    <p>This is the bee that you just saw.</p>\n                    <img src=\"bees-with-color/bee-A2DM.svg\" width=\"200\">\n                    <p><span class=\"greenText\"><b>Successful harvest!</b></span><br>Your pay has increased by $0.02. Your bonus pay is now $0.52.</p>\n            ","response":0,"trial_type":"html-button-response","trial_index":22,"time_elapsed":375829,"internal_node_id":"0.0-4.0-1.5","subject_id":"615ad488a894bde31da04124","study_id":"60edd13110225f80f9f3709b","session_id":"6196c701a086da7a1db2e9c1","condition":"contingent","relevant_dimensions":["wings","legs"],"bee_group":{"antennae":"X","wings":"1","pattern":"X","legs":"M"},"bonus":0},{"rt":1833.300000011921,"stimulus":"bees-with-color/bee-A1SF.svg","response":1,"trial_type":"image-button-response","trial_index":23,"time_elapsed":377664,"internal_node_id":"0.0-4.0-0.6","subject_id":"615ad488a894bde31da04124","study_id":"60edd13110225f80f9f3709b","session_id":"6196c701a086da7a1db2e9c1","condition":"contingent","relevant_dimensions":["wings","legs"],"bee_group":{"antennae":"X","wings":"1","pattern":"X","legs":"M"},"action":"avoid","summary":"bad-avoid","bonus":0},{"rt":1664.5,"stimulus":"\n                    <p><b>Action: <em>avoid</em></b></p>\n                    <p>This is the bee that you just saw.</p>\n                    <img src=\"bees-with-color/bee-A1SF.svg\" width=\"200\">\n                    <p><br>Your bonus pay is unchanged, and remains at $0.52.</p>\n            ","response":0,"trial_type":"html-button-response","trial_index":24,"time_elapsed":379330,"internal_node_id":"0.0-4.0-1.6","subject_id":"615ad488a894bde31da04124","study_id":"60edd13110225f80f9f3709b","session_id":"6196c701a086da7a1db2e9c1","condition":"contingent","relevant_dimensions":["wings","legs"],"bee_group":{"antennae":"X","wings":"1","pattern":"X","legs":"M"},"bonus":0},{"rt":1062.4000000357628,"stimulus":"bees-with-color/bee-A1DM.svg","response":0,"trial_type":"image-button-response","trial_index":25,"time_elapsed":380393,"internal_node_id":"0.0-4.0-0.7","subject_id":"615ad488a894bde31da04124","study_id":"60edd13110225f80f9f3709b","session_id":"6196c701a086da7a1db2e9c1","condition":"contingent","relevant_dimensions":["wings","legs"],"bee_group":{"antennae":"X","wings":"1","pattern":"X","legs":"M"},"action":"harvest","summary":"bad-harvest","bonus":0},{"rt":3257.600000023842,"stimulus":"\n                    <p><b>Action: <em>harvest</em></b></p>\n                    <p>This is the bee that you just saw.</p>\n                    <img src=\"bees-with-color/bee-A1DM.svg\" width=\"200\">\n                    <p><span class=\"redText\">Bad choice, the bee was angry.</span><br><b>You have been stung!</b><br>Your pay has been decreased by $0.10. Your bonus pay is now $0.42.</p>\n            ","response":0,"trial_type":"html-button-response","trial_index":26,"time_elapsed":383652,"internal_node_id":"0.0-4.0-1.7","subject_id":"615ad488a894bde31da04124","study_id":"60edd13110225f80f9f3709b","session_id":"6196c701a086da7a1db2e9c1","condition":"contingent","relevant_dimensions":["wings","legs"],"bee_group":{"antennae":"X","wings":"1","pattern":"X","legs":"M"},"bonus":0},{"rt":1120.5,"stimulus":"bees-with-color/bee-B1DM.svg","response":1,"trial_type":"image-button-response","trial_index":27,"time_elapsed":384774,"internal_node_id":"0.0-4.0-0.8","subject_id":"615ad488a894bde31da04124","study_id":"60edd13110225f80f9f3709b","session_id":"6196c701a086da7a1db2e9c1","condition":"contingent","relevant_dimensions":["wings","legs"],"bee_group":{"antennae":"X","wings":"1","pattern":"X","legs":"M"},"action":"avoid","summary":"good-avoid","bonus":0},{"rt":1848.7000000476837,"stimulus":"\n                    <p><b>Action: <em>avoid</em></b></p>\n                    <p>This is the bee that you just saw.</p>\n                    <img src=\"bees-with-color/bee-B1DM.svg\" width=\"200\">\n                    <p><br>Your bonus pay is unchanged, and remains at $0.42.</p>\n            ","response":0,"trial_type":"html-button-response","trial_index":28,"time_elapsed":386624,"internal_node_id":"0.0-4.0-1.8","subject_id":"615ad488a894bde31da04124","study_id":"60edd13110225f80f9f3709b","session_id":"6196c701a086da7a1db2e9c1","condition":"contingent","relevant_dimensions":["wings","legs"],"bee_group":{"antennae":"X","wings":"1","pattern":"X","legs":"M"},"bonus":0},{"rt":1180.5,"stimulus":"bees-with-color/bee-A1SM.svg","response":0,"trial_type":"image-button-response","trial_index":29,"time_elapsed":387805,"internal_node_id":"0.0-4.0-0.9","subject_id":"615ad488a894bde31da04124","study_id":"60edd13110225f80f9f3709b","session_id":"6196c701a086da7a1db2e9c1","condition":"contingent","relevant_dimensions":["wings","legs"],"bee_group":{"antennae":"X","wings":"1","pattern":"X","legs":"M"},"action":"harvest","summary":"bad-harvest","bonus":0},{"rt":1084.8999999761581,"stimulus":"\n                    <p><b>Action: <em>harvest</em></b></p>\n                    <p>This is the bee that you just saw.</p>\n                    <img src=\"bees-with-color/bee-A1SM.svg\" width=\"200\">\n                    <p><span class=\"redText\">Bad choice, the bee was angry.</span><br><b>You have been stung!</b><br>Your pay has been decreased by $0.10. Your bonus pay is now $0.32.</p>\n            ","response":0,"trial_type":"html-button-response","trial_index":30,"time_elapsed":388891,"internal_node_id":"0.0-4.0-1.9","subject_id":"615ad488a894bde31da04124","study_id":"60edd13110225f80f9f3709b","session_id":"6196c701a086da7a1db2e9c1","condition":"contingent","relevant_dimensions":["wings","legs"],"bee_group":{"antennae":"X","wings":"1","pattern":"X","legs":"M"},"bonus":0},{"rt":731.3000000119209,"stimulus":"bees-with-color/bee-B2SM.svg","response":1,"trial_type":"image-button-response","trial_index":31,"time_elapsed":389624,"internal_node_id":"0.0-4.0-0.10","subject_id":"615ad488a894bde31da04124","study_id":"60edd13110225f80f9f3709b","session_id":"6196c701a086da7a1db2e9c1","condition":"contingent","relevant_dimensions":["wings","legs"],"bee_group":{"antennae":"X","wings":"1","pattern":"X","legs":"M"},"action":"avoid","summary":"bad-avoid","bonus":0},{"rt":2186.399999976158,"stimulus":"\n                    <p><b>Action: <em>avoid</em></b></p>\n                    <p>This is the bee that you just saw.</p>\n                    <img src=\"bees-with-color/bee-B2SM.svg\" width=\"200\">\n                    <p><br>Your bonus pay is unchanged, and remains at $0.32.</p>\n            ","response":0,"trial_type":"html-button-response","trial_index":32,"time_elapsed":391811,"internal_node_id":"0.0-4.0-1.10","subject_id":"615ad488a894bde31da04124","study_id":"60edd13110225f80f9f3709b","session_id":"6196c701a086da7a1db2e9c1","condition":"contingent","relevant_dimensions":["wings","legs"],"bee_group":{"antennae":"X","wings":"1","pattern":"X","legs":"M"},"bonus":0},{"rt":1106.5,"stimulus":"bees-with-color/bee-A2DF.svg","response":1,"trial_type":"image-button-response","trial_index":33,"time_elapsed":392919,"internal_node_id":"0.0-4.0-0.11","subject_id":"615ad488a894bde31da04124","study_id":"60edd13110225f80f9f3709b","session_id":"6196c701a086da7a1db2e9c1","condition":"contingent","relevant_dimensions":["wings","legs"],"bee_group":{"antennae":"X","wings":"1","pattern":"X","legs":"M"},"action":"avoid","summary":"bad-avoid","bonus":0},{"rt":1151.199999988079,"stimulus":"\n                    <p><b>Action: <em>avoid</em></b></p>\n                    <p>This is the bee that you just saw.</p>\n                    <img src=\"bees-with-color/bee-A2DF.svg\" width=\"200\">\n                    <p><br>Your bonus pay is unchanged, and remains at $0.32.</p>\n            ","response":0,"trial_type":"html-button-response","trial_index":34,"time_elapsed":394072,"internal_node_id":"0.0-4.0-1.11","subject_id":"615ad488a894bde31da04124","study_id":"60edd13110225f80f9f3709b","session_id":"6196c701a086da7a1db2e9c1","condition":"contingent","relevant_dimensions":["wings","legs"],"bee_group":{"antennae":"X","wings":"1","pattern":"X","legs":"M"},"bonus":0},{"rt":1091.9000000357628,"stimulus":"bees-with-color/bee-A1DF.svg","response":0,"trial_type":"image-button-response","trial_index":35,"time_elapsed":395165,"internal_node_id":"0.0-4.0-0.12","subject_id":"615ad488a894bde31da04124","study_id":"60edd13110225f80f9f3709b","session_id":"6196c701a086da7a1db2e9c1","condition":"contingent","relevant_dimensions":["wings","legs"],"bee_group":{"antennae":"X","wings":"1","pattern":"X","legs":"M"},"action":"harvest","summary":"good-harvest","bonus":0},{"rt":944.8000000119209,"stimulus":"\n                    <p><b>Action: <em>harvest</em></b></p>\n                    <p>This is the bee that you just saw.</p>\n                    <img src=\"bees-with-color/bee-A1DF.svg\" width=\"200\">\n                    <p><span class=\"greenText\"><b>Successful harvest!</b></span><br>Your pay has increased by $0.02. Your bonus pay is now $0.34.</p>\n            ","response":0,"trial_type":"html-button-response","trial_index":36,"time_elapsed":396111,"internal_node_id":"0.0-4.0-1.12","subject_id":"615ad488a894bde31da04124","study_id":"60edd13110225f80f9f3709b","session_id":"6196c701a086da7a1db2e9c1","condition":"contingent","relevant_dimensions":["wings","legs"],"bee_group":{"antennae":"X","wings":"1","pattern":"X","legs":"M"},"bonus":0},{"rt":1223.5999999642372,"stimulus":"bees-with-color/bee-B1DF.svg","response":0,"trial_type":"image-button-response","trial_index":37,"time_elapsed":397336,"internal_node_id":"0.0-4.0-0.13","subject_id":"615ad488a894bde31da04124","study_id":"60edd13110225f80f9f3709b","session_id":"6196c701a086da7a1db2e9c1","condition":"contingent","relevant_dimensions":["wings","legs"],"bee_group":{"antennae":"X","wings":"1","pattern":"X","legs":"M"},"action":"harvest","summary":"good-harvest","bonus":0},{"rt":908.8999999761581,"stimulus":"\n                    <p><b>Action: <em>harvest</em></b></p>\n                    <p>This is the bee that you just saw.</p>\n                    <img src=\"bees-with-color/bee-B1DF.svg\" width=\"200\">\n                    <p><span class=\"greenText\"><b>Successful harvest!</b></span><br>Your pay has increased by $0.02. Your bonus pay is now $0.36.</p>\n            ","response":0,"trial_type":"html-button-response","trial_index":38,"time_elapsed":398246,"internal_node_id":"0.0-4.0-1.13","subject_id":"615ad488a894bde31da04124","study_id":"60edd13110225f80f9f3709b","session_id":"6196c701a086da7a1db2e9c1","condition":"contingent","relevant_dimensions":["wings","legs"],"bee_group":{"antennae":"X","wings":"1","pattern":"X","legs":"M"},"bonus":0},{"rt":1143.800000011921,"stimulus":"bees-with-color/bee-B2DF.svg","response":0,"trial_type":"image-button-response","trial_index":39,"time_elapsed":399391,"internal_node_id":"0.0-4.0-0.14","subject_id":"615ad488a894bde31da04124","study_id":"60edd13110225f80f9f3709b","session_id":"6196c701a086da7a1db2e9c1","condition":"contingent","relevant_dimensions":["wings","legs"],"bee_group":{"antennae":"X","wings":"1","pattern":"X","legs":"M"},"action":"harvest","summary":"good-harvest","bonus":0},{"rt":2464.600000023842,"stimulus":"\n                    <p><b>Action: <em>harvest</em></b></p>\n                    <p>This is the bee that you just saw.</p>\n                    <img src=\"bees-with-color/bee-B2DF.svg\" width=\"200\">\n                    <p><span class=\"greenText\"><b>Successful harvest!</b></span><br>Your pay has increased by $0.02. Your bonus pay is now $0.38.</p>\n            ","response":0,"trial_type":"html-button-response","trial_index":40,"time_elapsed":401857,"internal_node_id":"0.0-4.0-1.14","subject_id":"615ad488a894bde31da04124","study_id":"60edd13110225f80f9f3709b","session_id":"6196c701a086da7a1db2e9c1","condition":"contingent","relevant_dimensions":["wings","legs"],"bee_group":{"antennae":"X","wings":"1","pattern":"X","legs":"M"},"bonus":0},{"rt":922.5,"stimulus":"bees-with-color/bee-B2SF.svg","response":0,"trial_type":"image-button-response","trial_index":41,"time_elapsed":402781,"internal_node_id":"0.0-4.0-0.15","subject_id":"615ad488a894bde31da04124","study_id":"60edd13110225f80f9f3709b","session_id":"6196c701a086da7a1db2e9c1","condition":"contingent","relevant_dimensions":["wings","legs"],"bee_group":{"antennae":"X","wings":"1","pattern":"X","legs":"M"},"action":"harvest","summary":"good-harvest","bonus":0},{"rt":960.3999999761581,"stimulus":"\n                    <p><b>Action: <em>harvest</em></b></p>\n                    <p>This is the bee that you just saw.</p>\n                    <img src=\"bees-with-color/bee-B2SF.svg\" width=\"200\">\n                    <p><span class=\"greenText\"><b>Successful harvest!</b></span><br>Your pay has increased by $0.02. Your bonus pay is now $0.40.</p>\n            ","response":0,"trial_type":"html-button-response","trial_index":42,"time_elapsed":403742,"internal_node_id":"0.0-4.0-1.15","subject_id":"615ad488a894bde31da04124","study_id":"60edd13110225f80f9f3709b","session_id":"6196c701a086da7a1db2e9c1","condition":"contingent","relevant_dimensions":["wings","legs"],"bee_group":{"antennae":"X","wings":"1","pattern":"X","legs":"M"},"bonus":0},{"rt":1789.199999988079,"stimulus":"bees-with-color/bee-B2DF.svg","response":1,"trial_type":"image-button-response","trial_index":43,"time_elapsed":405533,"internal_node_id":"0.0-4.0-0.16","subject_id":"615ad488a894bde31da04124","study_id":"60edd13110225f80f9f3709b","session_id":"6196c701a086da7a1db2e9c1","condition":"contingent","relevant_dimensions":["wings","legs"],"bee_group":{"antennae":"X","wings":"1","pattern":"X","legs":"M"},"action":"avoid","summary":"bad-avoid","bonus":0},{"rt":1040.6000000238419,"stimulus":"\n                    <p><b>Action: <em>avoid</em></b></p>\n                    <p>This is the bee that you just saw.</p>\n                    <img src=\"bees-with-color/bee-B2DF.svg\" width=\"200\">\n                    <p><br>Your bonus pay is unchanged, and remains at $0.40.</p>\n            ","response":0,"trial_type":"html-button-response","trial_index":44,"time_elapsed":406575,"internal_node_id":"0.0-4.0-1.16","subject_id":"615ad488a894bde31da04124","study_id":"60edd13110225f80f9f3709b","session_id":"6196c701a086da7a1db2e9c1","condition":"contingent","relevant_dimensions":["wings","legs"],"bee_group":{"antennae":"X","wings":"1","pattern":"X","legs":"M"},"bonus":0},{"rt":1458.4000000357628,"stimulus":"bees-with-color/bee-B2SM.svg","response":0,"trial_type":"image-button-response","trial_index":45,"time_elapsed":408034,"internal_node_id":"0.0-4.0-0.17","subject_id":"615ad488a894bde31da04124","study_id":"60edd13110225f80f9f3709b","session_id":"6196c701a086da7a1db2e9c1","condition":"contingent","relevant_dimensions":["wings","legs"],"bee_group":{"antennae":"X","wings":"1","pattern":"X","legs":"M"},"action":"harvest","summary":"good-harvest","bonus":0},{"rt":1085.2000000476837,"stimulus":"\n                    <p><b>Action: <em>harvest</em></b></p>\n                    <p>This is the bee that you just saw.</p>\n                    <img src=\"bees-with-color/bee-B2SM.svg\" width=\"200\">\n                    <p><span class=\"greenText\"><b>Successful harvest!</b></span><br>Your pay has increased by $0.02. Your bonus pay is now $0.42.</p>\n            ","response":0,"trial_type":"html-button-response","trial_index":46,"time_elapsed":409121,"internal_node_id":"0.0-4.0-1.17","subject_id":"615ad488a894bde31da04124","study_id":"60edd13110225f80f9f3709b","session_id":"6196c701a086da7a1db2e9c1","condition":"contingent","relevant_dimensions":["wings","legs"],"bee_group":{"antennae":"X","wings":"1","pattern":"X","legs":"M"},"bonus":0},{"rt":2052.5,"stimulus":"bees-with-color/bee-A1SM.svg","response":0,"trial_type":"image-button-response","trial_index":47,"time_elapsed":411175,"internal_node_id":"0.0-4.0-0.18","subject_id":"615ad488a894bde31da04124","study_id":"60edd13110225f80f9f3709b","session_id":"6196c701a086da7a1db2e9c1","condition":"contingent","relevant_dimensions":["wings","legs"],"bee_group":{"antennae":"X","wings":"1","pattern":"X","legs":"M"},"action":"harvest","summary":"bad-harvest","bonus":0},{"rt":1099,"stimulus":"\n                    <p><b>Action: <em>harvest</em></b></p>\n                    <p>This is the bee that you just saw.</p>\n                    <img src=\"bees-with-color/bee-A1SM.svg\" width=\"200\">\n                    <p><span class=\"redText\">Bad choice, the bee was angry.</span><br><b>You have been stung!</b><br>Your pay has been decreased by $0.10. Your bonus pay is now $0.32.</p>\n            ","response":0,"trial_type":"html-button-response","trial_index":48,"time_elapsed":412275,"internal_node_id":"0.0-4.0-1.18","subject_id":"615ad488a894bde31da04124","study_id":"60edd13110225f80f9f3709b","session_id":"6196c701a086da7a1db2e9c1","condition":"contingent","relevant_dimensions":["wings","legs"],"bee_group":{"antennae":"X","wings":"1","pattern":"X","legs":"M"},"bonus":0},{"rt":2082.199999988079,"stimulus":"bees-with-color/bee-B1DM.svg","response":0,"trial_type":"image-button-response","trial_index":49,"time_elapsed":414359,"internal_node_id":"0.0-4.0-0.19","subject_id":"615ad488a894bde31da04124","study_id":"60edd13110225f80f9f3709b","session_id":"6196c701a086da7a1db2e9c1","condition":"contingent","relevant_dimensions":["wings","legs"],"bee_group":{"antennae":"X","wings":"1","pattern":"X","legs":"M"},"action":"harvest","summary":"bad-harvest","bonus":0},{"rt":1591.2000000476837,"stimulus":"\n                    <p><b>Action: <em>harvest</em></b></p>\n                    <p>This is the bee that you just saw.</p>\n                    <img src=\"bees-with-color/bee-B1DM.svg\" width=\"200\">\n                    <p><span class=\"redText\">Bad choice, the bee was angry.</span><br><b>You have been stung!</b><br>Your pay has been decreased by $0.10. Your bonus pay is now $0.22.</p>\n            ","response":0,"trial_type":"html-button-response","trial_index":50,"time_elapsed":415951,"internal_node_id":"0.0-4.0-1.19","subject_id":"615ad488a894bde31da04124","study_id":"60edd13110225f80f9f3709b","session_id":"6196c701a086da7a1db2e9c1","condition":"contingent","relevant_dimensions":["wings","legs"],"bee_group":{"antennae":"X","wings":"1","pattern":"X","legs":"M"},"bonus":0},{"rt":1678.8999999761581,"stimulus":"bees-with-color/bee-A1DF.svg","response":0,"trial_type":"image-button-response","trial_index":51,"time_elapsed":417631,"internal_node_id":"0.0-4.0-0.20","subject_id":"615ad488a894bde31da04124","study_id":"60edd13110225f80f9f3709b","session_id":"6196c701a086da7a1db2e9c1","condition":"contingent","relevant_dimensions":["wings","legs"],"bee_group":{"antennae":"X","wings":"1","pattern":"X","legs":"M"},"action":"harvest","summary":"good-harvest","bonus":0},{"rt":1502.800000011921,"stimulus":"\n                    <p><b>Action: <em>harvest</em></b></p>\n                    <p>This is the bee that you just saw.</p>\n                    <img src=\"bees-with-color/bee-A1DF.svg\" width=\"200\">\n                    <p><span class=\"greenText\"><b>Successful harvest!</b></span><br>Your pay has increased by $0.02. Your bonus pay is now $0.24.</p>\n            ","response":0,"trial_type":"html-button-response","trial_index":52,"time_elapsed":419135,"internal_node_id":"0.0-4.0-1.20","subject_id":"615ad488a894bde31da04124","study_id":"60edd13110225f80f9f3709b","session_id":"6196c701a086da7a1db2e9c1","condition":"contingent","relevant_dimensions":["wings","legs"],"bee_group":{"antennae":"X","wings":"1","pattern":"X","legs":"M"},"bonus":0},{"rt":1056.6000000238419,"stimulus":"bees-with-color/bee-A2DF.svg","response":0,"trial_type":"image-button-response","trial_index":53,"time_elapsed":420193,"internal_node_id":"0.0-4.0-0.21","subject_id":"615ad488a894bde31da04124","study_id":"60edd13110225f80f9f3709b","session_id":"6196c701a086da7a1db2e9c1","condition":"contingent","relevant_dimensions":["wings","legs"],"bee_group":{"antennae":"X","wings":"1","pattern":"X","legs":"M"},"action":"harvest","summary":"good-harvest","bonus":0},{"rt":899.9000000357628,"stimulus":"\n                    <p><b>Action: <em>harvest</em></b></p>\n                    <p>This is the bee that you just saw.</p>\n                    <img src=\"bees-with-color/bee-A2DF.svg\" width=\"200\">\n                    <p><span class=\"greenText\"><b>Successful harvest!</b></span><br>Your pay has increased by $0.02. Your bonus pay is now $0.26.</p>\n            ","response":0,"trial_type":"html-button-response","trial_index":54,"time_elapsed":421094,"internal_node_id":"0.0-4.0-1.21","subject_id":"615ad488a894bde31da04124","study_id":"60edd13110225f80f9f3709b","session_id":"6196c701a086da7a1db2e9c1","condition":"contingent","relevant_dimensions":["wings","legs"],"bee_group":{"antennae":"X","wings":"1","pattern":"X","legs":"M"},"bonus":0},{"rt":1136.300000011921,"stimulus":"bees-with-color/bee-B2SF.svg","response":0,"trial_type":"image-button-response","trial_index":55,"time_elapsed":422231,"internal_node_id":"0.0-4.0-0.22","subject_id":"615ad488a894bde31da04124","study_id":"60edd13110225f80f9f3709b","session_id":"6196c701a086da7a1db2e9c1","condition":"contingent","relevant_dimensions":["wings","legs"],"bee_group":{"antennae":"X","wings":"1","pattern":"X","legs":"M"},"action":"harvest","summary":"good-harvest","bonus":0},{"rt":1840.800000011921,"stimulus":"\n                    <p><b>Action: <em>harvest</em></b></p>\n                    <p>This is the bee that you just saw.</p>\n                    <img src=\"bees-with-color/bee-B2SF.svg\" width=\"200\">\n                    <p><span class=\"greenText\"><b>Successful harvest!</b></span><br>Your pay has increased by $0.02. Your bonus pay is now $0.28.</p>\n            ","response":0,"trial_type":"html-button-response","trial_index":56,"time_elapsed":424073,"internal_node_id":"0.0-4.0-1.22","subject_id":"615ad488a894bde31da04124","study_id":"60edd13110225f80f9f3709b","session_id":"6196c701a086da7a1db2e9c1","condition":"contingent","relevant_dimensions":["wings","legs"],"bee_group":{"antennae":"X","wings":"1","pattern":"X","legs":"M"},"bonus":0},{"rt":1487.699999988079,"stimulus":"bees-with-color/bee-B1SF.svg","response":0,"trial_type":"image-button-response","trial_index":57,"time_elapsed":425562,"internal_node_id":"0.0-4.0-0.23","subject_id":"615ad488a894bde31da04124","study_id":"60edd13110225f80f9f3709b","session_id":"6196c701a086da7a1db2e9c1","condition":"contingent","relevant_dimensions":["wings","legs"],"bee_group":{"antennae":"X","wings":"1","pattern":"X","legs":"M"},"action":"harvest","summary":"good-harvest","bonus":0},{"rt":997.0999999642372,"stimulus":"\n                    <p><b>Action: <em>harvest</em></b></p>\n                    <p>This is the bee that you just saw.</p>\n                    <img src=\"bees-with-color/bee-B1SF.svg\" width=\"200\">\n                    <p><span class=\"greenText\"><b>Successful harvest!</b></span><br>Your pay has increased by $0.02. Your bonus pay is now $0.30.</p>\n            ","response":0,"trial_type":"html-button-response","trial_index":58,"time_elapsed":426560,"internal_node_id":"0.0-4.0-1.23","subject_id":"615ad488a894bde31da04124","study_id":"60edd13110225f80f9f3709b","session_id":"6196c701a086da7a1db2e9c1","condition":"contingent","relevant_dimensions":["wings","legs"],"bee_group":{"antennae":"X","wings":"1","pattern":"X","legs":"M"},"bonus":0},{"rt":1084.699999988079,"stimulus":"bees-with-color/bee-B1DF.svg","response":1,"trial_type":"image-button-response","trial_index":59,"time_elapsed":427646,"internal_node_id":"0.0-4.0-0.24","subject_id":"615ad488a894bde31da04124","study_id":"60edd13110225f80f9f3709b","session_id":"6196c701a086da7a1db2e9c1","condition":"contingent","relevant_dimensions":["wings","legs"],"bee_group":{"antennae":"X","wings":"1","pattern":"X","legs":"M"},"action":"avoid","summary":"bad-avoid","bonus":0},{"rt":717.7999999523163,"stimulus":"\n                    <p><b>Action: <em>avoid</em></b></p>\n                    <p>This is the bee that you just saw.</p>\n                    <img src=\"bees-with-color/bee-B1DF.svg\" width=\"200\">\n                    <p><br>Your bonus pay is unchanged, and remains at $0.30.</p>\n            ","response":0,"trial_type":"html-button-response","trial_index":60,"time_elapsed":428366,"internal_node_id":"0.0-4.0-1.24","subject_id":"615ad488a894bde31da04124","study_id":"60edd13110225f80f9f3709b","session_id":"6196c701a086da7a1db2e9c1","condition":"contingent","relevant_dimensions":["wings","legs"],"bee_group":{"antennae":"X","wings":"1","pattern":"X","legs":"M"},"bonus":0},{"rt":2002.199999988079,"stimulus":"bees-with-color/bee-B2DM.svg","response":1,"trial_type":"image-button-response","trial_index":61,"time_elapsed":430369,"internal_node_id":"0.0-4.0-0.25","subject_id":"615ad488a894bde31da04124","study_id":"60edd13110225f80f9f3709b","session_id":"6196c701a086da7a1db2e9c1","condition":"contingent","relevant_dimensions":["wings","legs"],"bee_group":{"antennae":"X","wings":"1","pattern":"X","legs":"M"},"action":"avoid","summary":"bad-avoid","bonus":0},{"rt":673.1999999880791,"stimulus":"\n                    <p><b>Action: <em>avoid</em></b></p>\n                    <p>This is the bee that you just saw.</p>\n                    <img src=\"bees-with-color/bee-B2DM.svg\" width=\"200\">\n                    <p><br>Your bonus pay is unchanged, and remains at $0.30.</p>\n            ","response":0,"trial_type":"html-button-response","trial_index":62,"time_elapsed":431043,"internal_node_id":"0.0-4.0-1.25","subject_id":"615ad488a894bde31da04124","study_id":"60edd13110225f80f9f3709b","session_id":"6196c701a086da7a1db2e9c1","condition":"contingent","relevant_dimensions":["wings","legs"],"bee_group":{"antennae":"X","wings":"1","pattern":"X","legs":"M"},"bonus":0},{"rt":1173,"stimulus":"bees-with-color/bee-A1DM.svg","response":0,"trial_type":"image-button-response","trial_index":63,"time_elapsed":432217,"internal_node_id":"0.0-4.0-0.26","subject_id":"615ad488a894bde31da04124","study_id":"60edd13110225f80f9f3709b","session_id":"6196c701a086da7a1db2e9c1","condition":"contingent","relevant_dimensions":["wings","legs"],"bee_group":{"antennae":"X","wings":"1","pattern":"X","legs":"M"},"action":"harvest","summary":"bad-harvest","bonus":0},{"rt":1157.800000011921,"stimulus":"\n                    <p><b>Action: <em>harvest</em></b></p>\n                    <p>This is the bee that you just saw.</p>\n                    <img src=\"bees-with-color/bee-A1DM.svg\" width=\"200\">\n                    <p><span class=\"redText\">Bad choice, the bee was angry.</span><br><b>You have been stung!</b><br>Your pay has been decreased by $0.10. Your bonus pay is now $0.20.</p>\n            ","response":0,"trial_type":"html-button-response","trial_index":64,"time_elapsed":433376,"internal_node_id":"0.0-4.0-1.26","subject_id":"615ad488a894bde31da04124","study_id":"60edd13110225f80f9f3709b","session_id":"6196c701a086da7a1db2e9c1","condition":"contingent","relevant_dimensions":["wings","legs"],"bee_group":{"antennae":"X","wings":"1","pattern":"X","legs":"M"},"bonus":0},{"rt":1018.3999999761581,"stimulus":"bees-with-color/bee-B1SM.svg","response":0,"trial_type":"image-button-response","trial_index":65,"time_elapsed":434396,"internal_node_id":"0.0-4.0-0.27","subject_id":"615ad488a894bde31da04124","study_id":"60edd13110225f80f9f3709b","session_id":"6196c701a086da7a1db2e9c1","condition":"contingent","relevant_dimensions":["wings","legs"],"bee_group":{"antennae":"X","wings":"1","pattern":"X","legs":"M"},"action":"harvest","summary":"bad-harvest","bonus":0},{"rt":1333.8999999761581,"stimulus":"\n                    <p><b>Action: <em>harvest</em></b></p>\n                    <p>This is the bee that you just saw.</p>\n                    <img src=\"bees-with-color/bee-B1SM.svg\" width=\"200\">\n                    <p><span class=\"redText\">Bad choice, the bee was angry.</span><br><b>You have been stung!</b><br>Your pay has been decreased by $0.10. Your bonus pay is now $0.10.</p>\n            ","response":0,"trial_type":"html-button-response","trial_index":66,"time_elapsed":435731,"internal_node_id":"0.0-4.0-1.27","subject_id":"615ad488a894bde31da04124","study_id":"60edd13110225f80f9f3709b","session_id":"6196c701a086da7a1db2e9c1","condition":"contingent","relevant_dimensions":["wings","legs"],"bee_group":{"antennae":"X","wings":"1","pattern":"X","legs":"M"},"bonus":0},{"rt":571.2999999523163,"stimulus":"bees-with-color/bee-A1SF.svg","response":1,"trial_type":"image-button-response","trial_index":67,"time_elapsed":436304,"internal_node_id":"0.0-4.0-0.28","subject_id":"615ad488a894bde31da04124","study_id":"60edd13110225f80f9f3709b","session_id":"6196c701a086da7a1db2e9c1","condition":"contingent","relevant_dimensions":["wings","legs"],"bee_group":{"antennae":"X","wings":"1","pattern":"X","legs":"M"},"action":"avoid","summary":"bad-avoid","bonus":0},{"rt":811.8999999761581,"stimulus":"\n                    <p><b>Action: <em>avoid</em></b></p>\n                    <p>This is the bee that you just saw.</p>\n                    <img src=\"bees-with-color/bee-A1SF.svg\" width=\"200\">\n                    <p><br>Your bonus pay is unchanged, and remains at $0.10.</p>\n            ","response":0,"trial_type":"html-button-response","trial_index":68,"time_elapsed":437117,"internal_node_id":"0.0-4.0-1.28","subject_id":"615ad488a894bde31da04124","study_id":"60edd13110225f80f9f3709b","session_id":"6196c701a086da7a1db2e9c1","condition":"contingent","relevant_dimensions":["wings","legs"],"bee_group":{"antennae":"X","wings":"1","pattern":"X","legs":"M"},"bonus":0},{"rt":711.2000000476837,"stimulus":"bees-with-color/bee-A2DM.svg","response":0,"trial_type":"image-button-response","trial_index":69,"time_elapsed":437830,"internal_node_id":"0.0-4.0-0.29","subject_id":"615ad488a894bde31da04124","study_id":"60edd13110225f80f9f3709b","session_id":"6196c701a086da7a1db2e9c1","condition":"contingent","relevant_dimensions":["wings","legs"],"bee_group":{"antennae":"X","wings":"1","pattern":"X","legs":"M"},"action":"harvest","summary":"good-harvest","bonus":0},{"rt":1391.1000000238419,"stimulus":"\n                    <p><b>Action: <em>harvest</em></b></p>\n                    <p>This is the bee that you just saw.</p>\n                    <img src=\"bees-with-color/bee-A2DM.svg\" width=\"200\">\n                    <p><span class=\"greenText\"><b>Successful harvest!</b></span><br>Your pay has increased by $0.02. Your bonus pay is now $0.12.</p>\n            ","response":0,"trial_type":"html-button-response","trial_index":70,"time_elapsed":439223,"internal_node_id":"0.0-4.0-1.29","subject_id":"615ad488a894bde31da04124","study_id":"60edd13110225f80f9f3709b","session_id":"6196c701a086da7a1db2e9c1","condition":"contingent","relevant_dimensions":["wings","legs"],"bee_group":{"antennae":"X","wings":"1","pattern":"X","legs":"M"},"bonus":0},{"rt":1921.5999999642372,"stimulus":"bees-with-color/bee-A2SM.svg","response":1,"trial_type":"image-button-response","trial_index":71,"time_elapsed":441146,"internal_node_id":"0.0-4.0-0.30","subject_id":"615ad488a894bde31da04124","study_id":"60edd13110225f80f9f3709b","session_id":"6196c701a086da7a1db2e9c1","condition":"contingent","relevant_dimensions":["wings","legs"],"bee_group":{"antennae":"X","wings":"1","pattern":"X","legs":"M"},"action":"avoid","summary":"bad-avoid","bonus":0},{"rt":1040.6000000238419,"stimulus":"\n                    <p><b>Action: <em>avoid</em></b></p>\n                    <p>This is the bee that you just saw.</p>\n                    <img src=\"bees-with-color/bee-A2SM.svg\" width=\"200\">\n                    <p><br>Your bonus pay is unchanged, and remains at $0.12.</p>\n            ","response":0,"trial_type":"html-button-response","trial_index":72,"time_elapsed":442188,"internal_node_id":"0.0-4.0-1.30","subject_id":"615ad488a894bde31da04124","study_id":"60edd13110225f80f9f3709b","session_id":"6196c701a086da7a1db2e9c1","condition":"contingent","relevant_dimensions":["wings","legs"],"bee_group":{"antennae":"X","wings":"1","pattern":"X","legs":"M"},"bonus":0},{"rt":724.8000000119209,"stimulus":"bees-with-color/bee-A2SF.svg","response":0,"trial_type":"image-button-response","trial_index":73,"time_elapsed":442914,"internal_node_id":"0.0-4.0-0.31","subject_id":"615ad488a894bde31da04124","study_id":"60edd13110225f80f9f3709b","session_id":"6196c701a086da7a1db2e9c1","condition":"contingent","relevant_dimensions":["wings","legs"],"bee_group":{"antennae":"X","wings":"1","pattern":"X","legs":"M"},"action":"harvest","summary":"good-harvest","bonus":0},{"rt":747.6000000238419,"stimulus":"\n                    <p><b>Action: <em>harvest</em></b></p>\n                    <p>This is the bee that you just saw.</p>\n                    <img src=\"bees-with-color/bee-A2SF.svg\" width=\"200\">\n                    <p><span class=\"greenText\"><b>Successful harvest!</b></span><br>Your pay has increased by $0.02. Your bonus pay is now $0.14.</p>\n            ","response":0,"trial_type":"html-button-response","trial_index":74,"time_elapsed":443663,"internal_node_id":"0.0-4.0-1.31","subject_id":"615ad488a894bde31da04124","study_id":"60edd13110225f80f9f3709b","session_id":"6196c701a086da7a1db2e9c1","condition":"contingent","relevant_dimensions":["wings","legs"],"bee_group":{"antennae":"X","wings":"1","pattern":"X","legs":"M"},"bonus":0},{"rt":937.3000000119209,"stimulus":"bees-with-color/bee-B1SF.svg","response":0,"trial_type":"image-button-response","trial_index":75,"time_elapsed":444601,"internal_node_id":"0.0-4.0-0.32","subject_id":"615ad488a894bde31da04124","study_id":"60edd13110225f80f9f3709b","session_id":"6196c701a086da7a1db2e9c1","condition":"contingent","relevant_dimensions":["wings","legs"],"bee_group":{"antennae":"X","wings":"1","pattern":"X","legs":"M"},"action":"harvest","summary":"good-harvest","bonus":0},{"rt":732.6000000238419,"stimulus":"\n                    <p><b>Action: <em>harvest</em></b></p>\n                    <p>This is the bee that you just saw.</p>\n                    <img src=\"bees-with-color/bee-B1SF.svg\" width=\"200\">\n                    <p><span class=\"greenText\"><b>Successful harvest!</b></span><br>Your pay has increased by $0.02. Your bonus pay is now $0.16.</p>\n            ","response":0,"trial_type":"html-button-response","trial_index":76,"time_elapsed":445335,"internal_node_id":"0.0-4.0-1.32","subject_id":"615ad488a894bde31da04124","study_id":"60edd13110225f80f9f3709b","session_id":"6196c701a086da7a1db2e9c1","condition":"contingent","relevant_dimensions":["wings","legs"],"bee_group":{"antennae":"X","wings":"1","pattern":"X","legs":"M"},"bonus":0},{"rt":1290,"stimulus":"bees-with-color/bee-B1DF.svg","response":1,"trial_type":"image-button-response","trial_index":77,"time_elapsed":446626,"internal_node_id":"0.0-4.0-0.33","subject_id":"615ad488a894bde31da04124","study_id":"60edd13110225f80f9f3709b","session_id":"6196c701a086da7a1db2e9c1","condition":"contingent","relevant_dimensions":["wings","legs"],"bee_group":{"antennae":"X","wings":"1","pattern":"X","legs":"M"},"action":"avoid","summary":"bad-avoid","bonus":0},{"rt":629.5,"stimulus":"\n                    <p><b>Action: <em>avoid</em></b></p>\n                    <p>This is the bee that you just saw.</p>\n                    <img src=\"bees-with-color/bee-B1DF.svg\" width=\"200\">\n                    <p><br>Your bonus pay is unchanged, and remains at $0.16.</p>\n            ","response":0,"trial_type":"html-button-response","trial_index":78,"time_elapsed":447257,"internal_node_id":"0.0-4.0-1.33","subject_id":"615ad488a894bde31da04124","study_id":"60edd13110225f80f9f3709b","session_id":"6196c701a086da7a1db2e9c1","condition":"contingent","relevant_dimensions":["wings","legs"],"bee_group":{"antennae":"X","wings":"1","pattern":"X","legs":"M"},"bonus":0},{"rt":1752.0999999642372,"stimulus":"bees-with-color/bee-A1DM.svg","response":1,"trial_type":"image-button-response","trial_index":79,"time_elapsed":449010,"internal_node_id":"0.0-4.0-0.34","subject_id":"615ad488a894bde31da04124","study_id":"60edd13110225f80f9f3709b","session_id":"6196c701a086da7a1db2e9c1","condition":"contingent","relevant_dimensions":["wings","legs"],"bee_group":{"antennae":"X","wings":"1","pattern":"X","legs":"M"},"action":"avoid","summary":"good-avoid","bonus":0},{"rt":953.2000000476837,"stimulus":"\n                    <p><b>Action: <em>avoid</em></b></p>\n                    <p>This is the bee that you just saw.</p>\n                    <img src=\"bees-with-color/bee-A1DM.svg\" width=\"200\">\n                    <p><br>Your bonus pay is unchanged, and remains at $0.16.</p>\n            ","response":0,"trial_type":"html-button-response","trial_index":80,"time_elapsed":449964,"internal_node_id":"0.0-4.0-1.34","subject_id":"615ad488a894bde31da04124","study_id":"60edd13110225f80f9f3709b","session_id":"6196c701a086da7a1db2e9c1","condition":"contingent","relevant_dimensions":["wings","legs"],"bee_group":{"antennae":"X","wings":"1","pattern":"X","legs":"M"},"bonus":0},{"rt":1230.699999988079,"stimulus":"bees-with-color/bee-A1DF.svg","response":0,"trial_type":"image-button-response","trial_index":81,"time_elapsed":451196,"internal_node_id":"0.0-4.0-0.35","subject_id":"615ad488a894bde31da04124","study_id":"60edd13110225f80f9f3709b","session_id":"6196c701a086da7a1db2e9c1","condition":"contingent","relevant_dimensions":["wings","legs"],"bee_group":{"antennae":"X","wings":"1","pattern":"X","legs":"M"},"action":"harvest","summary":"good-harvest","bonus":0},{"rt":843.1999999880791,"stimulus":"\n                    <p><b>Action: <em>harvest</em></b></p>\n                    <p>This is the bee that you just saw.</p>\n                    <img src=\"bees-with-color/bee-A1DF.svg\" width=\"200\">\n                    <p><span class=\"greenText\"><b>Successful harvest!</b></span><br>Your pay has increased by $0.02. Your bonus pay is now $0.18.</p>\n            ","response":0,"trial_type":"html-button-response","trial_index":82,"time_elapsed":452041,"internal_node_id":"0.0-4.0-1.35","subject_id":"615ad488a894bde31da04124","study_id":"60edd13110225f80f9f3709b","session_id":"6196c701a086da7a1db2e9c1","condition":"contingent","relevant_dimensions":["wings","legs"],"bee_group":{"antennae":"X","wings":"1","pattern":"X","legs":"M"},"bonus":0},{"rt":1723.2999999523163,"stimulus":"bees-with-color/bee-B2DF.svg","response":0,"trial_type":"image-button-response","trial_index":83,"time_elapsed":453765,"internal_node_id":"0.0-4.0-0.36","subject_id":"615ad488a894bde31da04124","study_id":"60edd13110225f80f9f3709b","session_id":"6196c701a086da7a1db2e9c1","condition":"contingent","relevant_dimensions":["wings","legs"],"bee_group":{"antennae":"X","wings":"1","pattern":"X","legs":"M"},"action":"harvest","summary":"good-harvest","bonus":0},{"rt":813.5,"stimulus":"\n                    <p><b>Action: <em>harvest</em></b></p>\n                    <p>This is the bee that you just saw.</p>\n                    <img src=\"bees-with-color/bee-B2DF.svg\" width=\"200\">\n                    <p><span class=\"greenText\"><b>Successful harvest!</b></span><br>Your pay has increased by $0.02. Your bonus pay is now $0.20.</p>\n            ","response":0,"trial_type":"html-button-response","trial_index":84,"time_elapsed":454579,"internal_node_id":"0.0-4.0-1.36","subject_id":"615ad488a894bde31da04124","study_id":"60edd13110225f80f9f3709b","session_id":"6196c701a086da7a1db2e9c1","condition":"contingent","relevant_dimensions":["wings","legs"],"bee_group":{"antennae":"X","wings":"1","pattern":"X","legs":"M"},"bonus":0},{"rt":1039.800000011921,"stimulus":"bees-with-color/bee-A1SM.svg","response":1,"trial_type":"image-button-response","trial_index":85,"time_elapsed":455621,"internal_node_id":"0.0-4.0-0.37","subject_id":"615ad488a894bde31da04124","study_id":"60edd13110225f80f9f3709b","session_id":"6196c701a086da7a1db2e9c1","condition":"contingent","relevant_dimensions":["wings","legs"],"bee_group":{"antennae":"X","wings":"1","pattern":"X","legs":"M"},"action":"avoid","summary":"good-avoid","bonus":0},{"rt":1649.1000000238419,"stimulus":"\n                    <p><b>Action: <em>avoid</em></b></p>\n                    <p>This is the bee that you just saw.</p>\n                    <img src=\"bees-with-color/bee-A1SM.svg\" width=\"200\">\n                    <p><br>Your bonus pay is unchanged, and remains at $0.20.</p>\n            ","response":0,"trial_type":"html-button-response","trial_index":86,"time_elapsed":457271,"internal_node_id":"0.0-4.0-1.37","subject_id":"615ad488a894bde31da04124","study_id":"60edd13110225f80f9f3709b","session_id":"6196c701a086da7a1db2e9c1","condition":"contingent","relevant_dimensions":["wings","legs"],"bee_group":{"antennae":"X","wings":"1","pattern":"X","legs":"M"},"bonus":0},{"rt":2478.899999976158,"stimulus":"bees-with-color/bee-A2DF.svg","response":0,"trial_type":"image-button-response","trial_index":87,"time_elapsed":459751,"internal_node_id":"0.0-4.0-0.38","subject_id":"615ad488a894bde31da04124","study_id":"60edd13110225f80f9f3709b","session_id":"6196c701a086da7a1db2e9c1","condition":"contingent","relevant_dimensions":["wings","legs"],"bee_group":{"antennae":"X","wings":"1","pattern":"X","legs":"M"},"action":"harvest","summary":"good-harvest","bonus":0},{"rt":864,"stimulus":"\n                    <p><b>Action: <em>harvest</em></b></p>\n                    <p>This is the bee that you just saw.</p>\n                    <img src=\"bees-with-color/bee-A2DF.svg\" width=\"200\">\n                    <p><span class=\"greenText\"><b>Successful harvest!</b></span><br>Your pay has increased by $0.02. Your bonus pay is now $0.22.</p>\n            ","response":0,"trial_type":"html-button-response","trial_index":88,"time_elapsed":460617,"internal_node_id":"0.0-4.0-1.38","subject_id":"615ad488a894bde31da04124","study_id":"60edd13110225f80f9f3709b","session_id":"6196c701a086da7a1db2e9c1","condition":"contingent","relevant_dimensions":["wings","legs"],"bee_group":{"antennae":"X","wings":"1","pattern":"X","legs":"M"},"bonus":0},{"rt":1055.0999999642372,"stimulus":"bees-with-color/bee-B2SM.svg","response":1,"trial_type":"image-button-response","trial_index":89,"time_elapsed":461673,"internal_node_id":"0.0-4.0-0.39","subject_id":"615ad488a894bde31da04124","study_id":"60edd13110225f80f9f3709b","session_id":"6196c701a086da7a1db2e9c1","condition":"contingent","relevant_dimensions":["wings","legs"],"bee_group":{"antennae":"X","wings":"1","pattern":"X","legs":"M"},"action":"avoid","summary":"bad-avoid","bonus":0},{"rt":696,"stimulus":"\n                    <p><b>Action: <em>avoid</em></b></p>\n                    <p>This is the bee that you just saw.</p>\n                    <img src=\"bees-with-color/bee-B2SM.svg\" width=\"200\">\n                    <p><br>Your bonus pay is unchanged, and remains at $0.22.</p>\n            ","response":0,"trial_type":"html-button-response","trial_index":90,"time_elapsed":462370,"internal_node_id":"0.0-4.0-1.39","subject_id":"615ad488a894bde31da04124","study_id":"60edd13110225f80f9f3709b","session_id":"6196c701a086da7a1db2e9c1","condition":"contingent","relevant_dimensions":["wings","legs"],"bee_group":{"antennae":"X","wings":"1","pattern":"X","legs":"M"},"bonus":0},{"rt":1972.800000011921,"stimulus":"bees-with-color/bee-B2DM.svg","response":0,"trial_type":"image-button-response","trial_index":91,"time_elapsed":464344,"internal_node_id":"0.0-4.0-0.40","subject_id":"615ad488a894bde31da04124","study_id":"60edd13110225f80f9f3709b","session_id":"6196c701a086da7a1db2e9c1","condition":"contingent","relevant_dimensions":["wings","legs"],"bee_group":{"antennae":"X","wings":"1","pattern":"X","legs":"M"},"action":"harvest","summary":"good-harvest","bonus":0},{"rt":864.2000000476837,"stimulus":"\n                    <p><b>Action: <em>harvest</em></b></p>\n                    <p>This is the bee that you just saw.</p>\n                    <img src=\"bees-with-color/bee-B2DM.svg\" width=\"200\">\n                    <p><span class=\"greenText\"><b>Successful harvest!</b></span><br>Your pay has increased by $0.02. Your bonus pay is now $0.24.</p>\n            ","response":0,"trial_type":"html-button-response","trial_index":92,"time_elapsed":465209,"internal_node_id":"0.0-4.0-1.40","subject_id":"615ad488a894bde31da04124","study_id":"60edd13110225f80f9f3709b","session_id":"6196c701a086da7a1db2e9c1","condition":"contingent","relevant_dimensions":["wings","legs"],"bee_group":{"antennae":"X","wings":"1","pattern":"X","legs":"M"},"bonus":0},{"rt":3124.699999988079,"stimulus":"bees-with-color/bee-A2SM.svg","response":0,"trial_type":"image-button-response","trial_index":93,"time_elapsed":468335,"internal_node_id":"0.0-4.0-0.41","subject_id":"615ad488a894bde31da04124","study_id":"60edd13110225f80f9f3709b","session_id":"6196c701a086da7a1db2e9c1","condition":"contingent","relevant_dimensions":["wings","legs"],"bee_group":{"antennae":"X","wings":"1","pattern":"X","legs":"M"},"action":"harvest","summary":"good-harvest","bonus":0},{"rt":790.6000000238419,"stimulus":"\n                    <p><b>Action: <em>harvest</em></b></p>\n                    <p>This is the bee that you just saw.</p>\n                    <img src=\"bees-with-color/bee-A2SM.svg\" width=\"200\">\n                    <p><span class=\"greenText\"><b>Successful harvest!</b></span><br>Your pay has increased by $0.02. Your bonus pay is now $0.26.</p>\n            ","response":0,"trial_type":"html-button-response","trial_index":94,"time_elapsed":469127,"internal_node_id":"0.0-4.0-1.41","subject_id":"615ad488a894bde31da04124","study_id":"60edd13110225f80f9f3709b","session_id":"6196c701a086da7a1db2e9c1","condition":"contingent","relevant_dimensions":["wings","legs"],"bee_group":{"antennae":"X","wings":"1","pattern":"X","legs":"M"},"bonus":0},{"rt":821.3000000119209,"stimulus":"bees-with-color/bee-A2SF.svg","response":1,"trial_type":"image-button-response","trial_index":95,"time_elapsed":469950,"internal_node_id":"0.0-4.0-0.42","subject_id":"615ad488a894bde31da04124","study_id":"60edd13110225f80f9f3709b","session_id":"6196c701a086da7a1db2e9c1","condition":"contingent","relevant_dimensions":["wings","legs"],"bee_group":{"antennae":"X","wings":"1","pattern":"X","legs":"M"},"action":"avoid","summary":"bad-avoid","bonus":0},{"rt":840.5999999642372,"stimulus":"\n                    <p><b>Action: <em>avoid</em></b></p>\n                    <p>This is the bee that you just saw.</p>\n                    <img src=\"bees-with-color/bee-A2SF.svg\" width=\"200\">\n                    <p><br>Your bonus pay is unchanged, and remains at $0.26.</p>\n            ","response":0,"trial_type":"html-button-response","trial_index":96,"time_elapsed":470793,"internal_node_id":"0.0-4.0-1.42","subject_id":"615ad488a894bde31da04124","study_id":"60edd13110225f80f9f3709b","session_id":"6196c701a086da7a1db2e9c1","condition":"contingent","relevant_dimensions":["wings","legs"],"bee_group":{"antennae":"X","wings":"1","pattern":"X","legs":"M"},"bonus":0},{"rt":892.8999999761581,"stimulus":"bees-with-color/bee-B1DM.svg","response":0,"trial_type":"image-button-response","trial_index":97,"time_elapsed":471686,"internal_node_id":"0.0-4.0-0.43","subject_id":"615ad488a894bde31da04124","study_id":"60edd13110225f80f9f3709b","session_id":"6196c701a086da7a1db2e9c1","condition":"contingent","relevant_dimensions":["wings","legs"],"bee_group":{"antennae":"X","wings":"1","pattern":"X","legs":"M"},"action":"harvest","summary":"bad-harvest","bonus":0},{"rt":1224.7999999523163,"stimulus":"\n                    <p><b>Action: <em>harvest</em></b></p>\n                    <p>This is the bee that you just saw.</p>\n                    <img src=\"bees-with-color/bee-B1DM.svg\" width=\"200\">\n                    <p><span class=\"redText\">Bad choice, the bee was angry.</span><br><b>You have been stung!</b><br>Your pay has been decreased by $0.10. Your bonus pay is now $0.16.</p>\n            ","response":0,"trial_type":"html-button-response","trial_index":98,"time_elapsed":472913,"internal_node_id":"0.0-4.0-1.43","subject_id":"615ad488a894bde31da04124","study_id":"60edd13110225f80f9f3709b","session_id":"6196c701a086da7a1db2e9c1","condition":"contingent","relevant_dimensions":["wings","legs"],"bee_group":{"antennae":"X","wings":"1","pattern":"X","legs":"M"},"bonus":0},{"rt":825.6000000238419,"stimulus":"bees-with-color/bee-B2SF.svg","response":1,"trial_type":"image-button-response","trial_index":99,"time_elapsed":473741,"internal_node_id":"0.0-4.0-0.44","subject_id":"615ad488a894bde31da04124","study_id":"60edd13110225f80f9f3709b","session_id":"6196c701a086da7a1db2e9c1","condition":"contingent","relevant_dimensions":["wings","legs"],"bee_group":{"antennae":"X","wings":"1","pattern":"X","legs":"M"},"action":"avoid","summary":"bad-avoid","bonus":0},{"rt":1671.9000000357628,"stimulus":"\n                    <p><b>Action: <em>avoid</em></b></p>\n                    <p>This is the bee that you just saw.</p>\n                    <img src=\"bees-with-color/bee-B2SF.svg\" width=\"200\">\n                    <p><br>Your bonus pay is unchanged, and remains at $0.16.</p>\n            ","response":0,"trial_type":"html-button-response","trial_index":100,"time_elapsed":475414,"internal_node_id":"0.0-4.0-1.44","subject_id":"615ad488a894bde31da04124","study_id":"60edd13110225f80f9f3709b","session_id":"6196c701a086da7a1db2e9c1","condition":"contingent","relevant_dimensions":["wings","legs"],"bee_group":{"antennae":"X","wings":"1","pattern":"X","legs":"M"},"bonus":0},{"rt":1107.1000000238419,"stimulus":"bees-with-color/bee-A2DM.svg","response":0,"trial_type":"image-button-response","trial_index":101,"time_elapsed":476523,"internal_node_id":"0.0-4.0-0.45","subject_id":"615ad488a894bde31da04124","study_id":"60edd13110225f80f9f3709b","session_id":"6196c701a086da7a1db2e9c1","condition":"contingent","relevant_dimensions":["wings","legs"],"bee_group":{"antennae":"X","wings":"1","pattern":"X","legs":"M"},"action":"harvest","summary":"good-harvest","bonus":0},{"rt":863.1999999880791,"stimulus":"\n                    <p><b>Action: <em>harvest</em></b></p>\n                    <p>This is the bee that you just saw.</p>\n                    <img src=\"bees-with-color/bee-A2DM.svg\" width=\"200\">\n                    <p><span class=\"greenText\"><b>Successful harvest!</b></span><br>Your pay has increased by $0.02. Your bonus pay is now $0.18.</p>\n            ","response":0,"trial_type":"html-button-response","trial_index":102,"time_elapsed":477387,"internal_node_id":"0.0-4.0-1.45","subject_id":"615ad488a894bde31da04124","study_id":"60edd13110225f80f9f3709b","session_id":"6196c701a086da7a1db2e9c1","condition":"contingent","relevant_dimensions":["wings","legs"],"bee_group":{"antennae":"X","wings":"1","pattern":"X","legs":"M"},"bonus":0},{"rt":1378.300000011921,"stimulus":"bees-with-color/bee-B1SM.svg","response":1,"trial_type":"image-button-response","trial_index":103,"time_elapsed":478766,"internal_node_id":"0.0-4.0-0.46","subject_id":"615ad488a894bde31da04124","study_id":"60edd13110225f80f9f3709b","session_id":"6196c701a086da7a1db2e9c1","condition":"contingent","relevant_dimensions":["wings","legs"],"bee_group":{"antennae":"X","wings":"1","pattern":"X","legs":"M"},"action":"avoid","summary":"good-avoid","bonus":0},{"rt":791.4000000357628,"stimulus":"\n                    <p><b>Action: <em>avoid</em></b></p>\n                    <p>This is the bee that you just saw.</p>\n                    <img src=\"bees-with-color/bee-B1SM.svg\" width=\"200\">\n                    <p><br>Your bonus pay is unchanged, and remains at $0.18.</p>\n            ","response":0,"trial_type":"html-button-response","trial_index":104,"time_elapsed":479559,"internal_node_id":"0.0-4.0-1.46","subject_id":"615ad488a894bde31da04124","study_id":"60edd13110225f80f9f3709b","session_id":"6196c701a086da7a1db2e9c1","condition":"contingent","relevant_dimensions":["wings","legs"],"bee_group":{"antennae":"X","wings":"1","pattern":"X","legs":"M"},"bonus":0},{"rt":710.5,"stimulus":"bees-with-color/bee-A1SF.svg","response":0,"trial_type":"image-button-response","trial_index":105,"time_elapsed":480271,"internal_node_id":"0.0-4.0-0.47","subject_id":"615ad488a894bde31da04124","study_id":"60edd13110225f80f9f3709b","session_id":"6196c701a086da7a1db2e9c1","condition":"contingent","relevant_dimensions":["wings","legs"],"bee_group":{"antennae":"X","wings":"1","pattern":"X","legs":"M"},"action":"harvest","summary":"good-harvest","bonus":0},{"rt":754.5999999642372,"stimulus":"\n                    <p><b>Action: <em>harvest</em></b></p>\n                    <p>This is the bee that you just saw.</p>\n                    <img src=\"bees-with-color/bee-A1SF.svg\" width=\"200\">\n                    <p><span class=\"greenText\"><b>Successful harvest!</b></span><br>Your pay has increased by $0.02. Your bonus pay is now $0.20.</p>\n            ","response":0,"trial_type":"html-button-response","trial_index":106,"time_elapsed":481027,"internal_node_id":"0.0-4.0-1.47","subject_id":"615ad488a894bde31da04124","study_id":"60edd13110225f80f9f3709b","session_id":"6196c701a086da7a1db2e9c1","condition":"contingent","relevant_dimensions":["wings","legs"],"bee_group":{"antennae":"X","wings":"1","pattern":"X","legs":"M"},"bonus":0},{"rt":1201.0999999642372,"stimulus":"bees-with-color/bee-B2SF.svg","response":1,"trial_type":"image-button-response","trial_index":107,"time_elapsed":482229,"internal_node_id":"0.0-4.0-0.48","subject_id":"615ad488a894bde31da04124","study_id":"60edd13110225f80f9f3709b","session_id":"6196c701a086da7a1db2e9c1","condition":"contingent","relevant_dimensions":["wings","legs"],"bee_group":{"antennae":"X","wings":"1","pattern":"X","legs":"M"},"action":"avoid","summary":"bad-avoid","bonus":0},{"rt":533.8999999761581,"stimulus":"\n                    <p><b>Action: <em>avoid</em></b></p>\n                    <p>This is the bee that you just saw.</p>\n                    <img src=\"bees-with-color/bee-B2SF.svg\" width=\"200\">\n                    <p><br>Your bonus pay is unchanged, and remains at $0.20.</p>\n            ","response":0,"trial_type":"html-button-response","trial_index":108,"time_elapsed":482765,"internal_node_id":"0.0-4.0-1.48","subject_id":"615ad488a894bde31da04124","study_id":"60edd13110225f80f9f3709b","session_id":"6196c701a086da7a1db2e9c1","condition":"contingent","relevant_dimensions":["wings","legs"],"bee_group":{"antennae":"X","wings":"1","pattern":"X","legs":"M"},"bonus":0},{"rt":1172.800000011921,"stimulus":"bees-with-color/bee-A2SF.svg","response":0,"trial_type":"image-button-response","trial_index":109,"time_elapsed":483939,"internal_node_id":"0.0-4.0-0.49","subject_id":"615ad488a894bde31da04124","study_id":"60edd13110225f80f9f3709b","session_id":"6196c701a086da7a1db2e9c1","condition":"contingent","relevant_dimensions":["wings","legs"],"bee_group":{"antennae":"X","wings":"1","pattern":"X","legs":"M"},"action":"harvest","summary":"good-harvest","bonus":0},{"rt":945.9000000357628,"stimulus":"\n                    <p><b>Action: <em>harvest</em></b></p>\n                    <p>This is the bee that you just saw.</p>\n                    <img src=\"bees-with-color/bee-A2SF.svg\" width=\"200\">\n                    <p><span class=\"greenText\"><b>Successful harvest!</b></span><br>Your pay has increased by $0.02. Your bonus pay is now $0.22.</p>\n            ","response":0,"trial_type":"html-button-response","trial_index":110,"time_elapsed":484885,"internal_node_id":"0.0-4.0-1.49","subject_id":"615ad488a894bde31da04124","study_id":"60edd13110225f80f9f3709b","session_id":"6196c701a086da7a1db2e9c1","condition":"contingent","relevant_dimensions":["wings","legs"],"bee_group":{"antennae":"X","wings":"1","pattern":"X","legs":"M"},"bonus":0},{"rt":1275.699999988079,"stimulus":"bees-with-color/bee-A1SF.svg","response":0,"trial_type":"image-button-response","trial_index":111,"time_elapsed":486162,"internal_node_id":"0.0-4.0-0.50","subject_id":"615ad488a894bde31da04124","study_id":"60edd13110225f80f9f3709b","session_id":"6196c701a086da7a1db2e9c1","condition":"contingent","relevant_dimensions":["wings","legs"],"bee_group":{"antennae":"X","wings":"1","pattern":"X","legs":"M"},"action":"harvest","summary":"good-harvest","bonus":0},{"rt":805.0999999642372,"stimulus":"\n                    <p><b>Action: <em>harvest</em></b></p>\n                    <p>This is the bee that you just saw.</p>\n                    <img src=\"bees-with-color/bee-A1SF.svg\" width=\"200\">\n                    <p><span class=\"greenText\"><b>Successful harvest!</b></span><br>Your pay has increased by $0.02. Your bonus pay is now $0.24.</p>\n            ","response":0,"trial_type":"html-button-response","trial_index":112,"time_elapsed":486968,"internal_node_id":"0.0-4.0-1.50","subject_id":"615ad488a894bde31da04124","study_id":"60edd13110225f80f9f3709b","session_id":"6196c701a086da7a1db2e9c1","condition":"contingent","relevant_dimensions":["wings","legs"],"bee_group":{"antennae":"X","wings":"1","pattern":"X","legs":"M"},"bonus":0},{"rt":3292,"stimulus":"bees-with-color/bee-A2DM.svg","response":0,"trial_type":"image-button-response","trial_index":113,"time_elapsed":490261,"internal_node_id":"0.0-4.0-0.51","subject_id":"615ad488a894bde31da04124","study_id":"60edd13110225f80f9f3709b","session_id":"6196c701a086da7a1db2e9c1","condition":"contingent","relevant_dimensions":["wings","legs"],"bee_group":{"antennae":"X","wings":"1","pattern":"X","legs":"M"},"action":"harvest","summary":"good-harvest","bonus":0},{"rt":1173.3999999761581,"stimulus":"\n                    <p><b>Action: <em>harvest</em></b></p>\n                    <p>This is the bee that you just saw.</p>\n                    <img src=\"bees-with-color/bee-A2DM.svg\" width=\"200\">\n                    <p><span class=\"greenText\"><b>Successful harvest!</b></span><br>Your pay has increased by $0.02. Your bonus pay is now $0.26.</p>\n            ","response":0,"trial_type":"html-button-response","trial_index":114,"time_elapsed":491436,"internal_node_id":"0.0-4.0-1.51","subject_id":"615ad488a894bde31da04124","study_id":"60edd13110225f80f9f3709b","session_id":"6196c701a086da7a1db2e9c1","condition":"contingent","relevant_dimensions":["wings","legs"],"bee_group":{"antennae":"X","wings":"1","pattern":"X","legs":"M"},"bonus":0},{"rt":2433.599999964237,"stimulus":"bees-with-color/bee-B1SF.svg","response":0,"trial_type":"image-button-response","trial_index":115,"time_elapsed":493871,"internal_node_id":"0.0-4.0-0.52","subject_id":"615ad488a894bde31da04124","study_id":"60edd13110225f80f9f3709b","session_id":"6196c701a086da7a1db2e9c1","condition":"contingent","relevant_dimensions":["wings","legs"],"bee_group":{"antennae":"X","wings":"1","pattern":"X","legs":"M"},"action":"harvest","summary":"good-harvest","bonus":0},{"rt":2600.699999988079,"stimulus":"\n                    <p><b>Action: <em>harvest</em></b></p>\n                    <p>This is the bee that you just saw.</p>\n                    <img src=\"bees-with-color/bee-B1SF.svg\" width=\"200\">\n                    <p><span class=\"greenText\"><b>Successful harvest!</b></span><br>Your pay has increased by $0.02. Your bonus pay is now $0.28.</p>\n            ","response":0,"trial_type":"html-button-response","trial_index":116,"time_elapsed":496473,"internal_node_id":"0.0-4.0-1.52","subject_id":"615ad488a894bde31da04124","study_id":"60edd13110225f80f9f3709b","session_id":"6196c701a086da7a1db2e9c1","condition":"contingent","relevant_dimensions":["wings","legs"],"bee_group":{"antennae":"X","wings":"1","pattern":"X","legs":"M"},"bonus":0},{"rt":1556.5999999642372,"stimulus":"bees-with-color/bee-A1DM.svg","response":0,"trial_type":"image-button-response","trial_index":117,"time_elapsed":498031,"internal_node_id":"0.0-4.0-0.53","subject_id":"615ad488a894bde31da04124","study_id":"60edd13110225f80f9f3709b","session_id":"6196c701a086da7a1db2e9c1","condition":"contingent","relevant_dimensions":["wings","legs"],"bee_group":{"antennae":"X","wings":"1","pattern":"X","legs":"M"},"action":"harvest","summary":"bad-harvest","bonus":0},{"rt":937.2000000476837,"stimulus":"\n                    <p><b>Action: <em>harvest</em></b></p>\n                    <p>This is the bee that you just saw.</p>\n                    <img src=\"bees-with-color/bee-A1DM.svg\" width=\"200\">\n                    <p><span class=\"redText\">Bad choice, the bee was angry.</span><br><b>You have been stung!</b><br>Your pay has been decreased by $0.10. Your bonus pay is now $0.18.</p>\n            ","response":0,"trial_type":"html-button-response","trial_index":118,"time_elapsed":498969,"internal_node_id":"0.0-4.0-1.53","subject_id":"615ad488a894bde31da04124","study_id":"60edd13110225f80f9f3709b","session_id":"6196c701a086da7a1db2e9c1","condition":"contingent","relevant_dimensions":["wings","legs"],"bee_group":{"antennae":"X","wings":"1","pattern":"X","legs":"M"},"bonus":0},{"rt":953.5,"stimulus":"bees-with-color/bee-B1SM.svg","response":0,"trial_type":"image-button-response","trial_index":119,"time_elapsed":499924,"internal_node_id":"0.0-4.0-0.54","subject_id":"615ad488a894bde31da04124","study_id":"60edd13110225f80f9f3709b","session_id":"6196c701a086da7a1db2e9c1","condition":"contingent","relevant_dimensions":["wings","legs"],"bee_group":{"antennae":"X","wings":"1","pattern":"X","legs":"M"},"action":"harvest","summary":"bad-harvest","bonus":0},{"rt":886.0999999642372,"stimulus":"\n                    <p><b>Action: <em>harvest</em></b></p>\n                    <p>This is the bee that you just saw.</p>\n                    <img src=\"bees-with-color/bee-B1SM.svg\" width=\"200\">\n                    <p><span class=\"redText\">Bad choice, the bee was angry.</span><br><b>You have been stung!</b><br>Your pay has been decreased by $0.10. Your bonus pay is now $0.08.</p>\n            ","response":0,"trial_type":"html-button-response","trial_index":120,"time_elapsed":500811,"internal_node_id":"0.0-4.0-1.54","subject_id":"615ad488a894bde31da04124","study_id":"60edd13110225f80f9f3709b","session_id":"6196c701a086da7a1db2e9c1","condition":"contingent","relevant_dimensions":["wings","legs"],"bee_group":{"antennae":"X","wings":"1","pattern":"X","legs":"M"},"bonus":0},{"rt":600.1999999880791,"stimulus":"bees-with-color/bee-A2SM.svg","response":1,"trial_type":"image-button-response","trial_index":121,"time_elapsed":501412,"internal_node_id":"0.0-4.0-0.55","subject_id":"615ad488a894bde31da04124","study_id":"60edd13110225f80f9f3709b","session_id":"6196c701a086da7a1db2e9c1","condition":"contingent","relevant_dimensions":["wings","legs"],"bee_group":{"antennae":"X","wings":"1","pattern":"X","legs":"M"},"action":"avoid","summary":"bad-avoid","bonus":0},{"rt":1106.699999988079,"stimulus":"\n                    <p><b>Action: <em>avoid</em></b></p>\n                    <p>This is the bee that you just saw.</p>\n                    <img src=\"bees-with-color/bee-A2SM.svg\" width=\"200\">\n                    <p><br>Your bonus pay is unchanged, and remains at $0.08.</p>\n            ","response":0,"trial_type":"html-button-response","trial_index":122,"time_elapsed":502520,"internal_node_id":"0.0-4.0-1.55","subject_id":"615ad488a894bde31da04124","study_id":"60edd13110225f80f9f3709b","session_id":"6196c701a086da7a1db2e9c1","condition":"contingent","relevant_dimensions":["wings","legs"],"bee_group":{"antennae":"X","wings":"1","pattern":"X","legs":"M"},"bonus":0},{"rt":666.1000000238419,"stimulus":"bees-with-color/bee-B2DM.svg","response":0,"trial_type":"image-button-response","trial_index":123,"time_elapsed":503188,"internal_node_id":"0.0-4.0-0.56","subject_id":"615ad488a894bde31da04124","study_id":"60edd13110225f80f9f3709b","session_id":"6196c701a086da7a1db2e9c1","condition":"contingent","relevant_dimensions":["wings","legs"],"bee_group":{"antennae":"X","wings":"1","pattern":"X","legs":"M"},"action":"harvest","summary":"good-harvest","bonus":0},{"rt":768,"stimulus":"\n                    <p><b>Action: <em>harvest</em></b></p>\n                    <p>This is the bee that you just saw.</p>\n                    <img src=\"bees-with-color/bee-B2DM.svg\" width=\"200\">\n                    <p><span class=\"greenText\"><b>Successful harvest!</b></span><br>Your pay has increased by $0.02. Your bonus pay is now $0.10.</p>\n            ","response":0,"trial_type":"html-button-response","trial_index":124,"time_elapsed":503957,"internal_node_id":"0.0-4.0-1.56","subject_id":"615ad488a894bde31da04124","study_id":"60edd13110225f80f9f3709b","session_id":"6196c701a086da7a1db2e9c1","condition":"contingent","relevant_dimensions":["wings","legs"],"bee_group":{"antennae":"X","wings":"1","pattern":"X","legs":"M"},"bonus":0},{"rt":814.7999999523163,"stimulus":"bees-with-color/bee-A1SM.svg","response":0,"trial_type":"image-button-response","trial_index":125,"time_elapsed":504773,"internal_node_id":"0.0-4.0-0.57","subject_id":"615ad488a894bde31da04124","study_id":"60edd13110225f80f9f3709b","session_id":"6196c701a086da7a1db2e9c1","condition":"contingent","relevant_dimensions":["wings","legs"],"bee_group":{"antennae":"X","wings":"1","pattern":"X","legs":"M"},"action":"harvest","summary":"bad-harvest","bonus":0},{"rt":716.6999999880791,"stimulus":"\n                    <p><b>Action: <em>harvest</em></b></p>\n                    <p>This is the bee that you just saw.</p>\n                    <img src=\"bees-with-color/bee-A1SM.svg\" width=\"200\">\n                    <p><span class=\"redText\">Bad choice, the bee was angry.</span><br><b>You have been stung!</b><br>Your pay has been decreased by $0.10. Your bonus pay is now $0.00.</p>\n            ","response":0,"trial_type":"html-button-response","trial_index":126,"time_elapsed":505491,"internal_node_id":"0.0-4.0-1.57","subject_id":"615ad488a894bde31da04124","study_id":"60edd13110225f80f9f3709b","session_id":"6196c701a086da7a1db2e9c1","condition":"contingent","relevant_dimensions":["wings","legs"],"bee_group":{"antennae":"X","wings":"1","pattern":"X","legs":"M"},"bonus":0},{"rt":1510.0999999642372,"stimulus":"bees-with-color/bee-A2DF.svg","response":0,"trial_type":"image-button-response","trial_index":127,"time_elapsed":507002,"internal_node_id":"0.0-4.0-0.58","subject_id":"615ad488a894bde31da04124","study_id":"60edd13110225f80f9f3709b","session_id":"6196c701a086da7a1db2e9c1","condition":"contingent","relevant_dimensions":["wings","legs"],"bee_group":{"antennae":"X","wings":"1","pattern":"X","legs":"M"},"action":"harvest","summary":"good-harvest","bonus":0},{"rt":703.1999999880791,"stimulus":"\n                    <p><b>Action: <em>harvest</em></b></p>\n                    <p>This is the bee that you just saw.</p>\n                    <img src=\"bees-with-color/bee-A2DF.svg\" width=\"200\">\n                    <p><span class=\"greenText\"><b>Successful harvest!</b></span><br>Your pay has increased by $0.02. Your bonus pay is now $0.02.</p>\n            ","response":0,"trial_type":"html-button-response","trial_index":128,"time_elapsed":507707,"internal_node_id":"0.0-4.0-1.58","subject_id":"615ad488a894bde31da04124","study_id":"60edd13110225f80f9f3709b","session_id":"6196c701a086da7a1db2e9c1","condition":"contingent","relevant_dimensions":["wings","legs"],"bee_group":{"antennae":"X","wings":"1","pattern":"X","legs":"M"},"bonus":0},{"rt":769.0999999642372,"stimulus":"bees-with-color/bee-B1DF.svg","response":0,"trial_type":"image-button-response","trial_index":129,"time_elapsed":508477,"internal_node_id":"0.0-4.0-0.59","subject_id":"615ad488a894bde31da04124","study_id":"60edd13110225f80f9f3709b","session_id":"6196c701a086da7a1db2e9c1","condition":"contingent","relevant_dimensions":["wings","legs"],"bee_group":{"antennae":"X","wings":"1","pattern":"X","legs":"M"},"action":"harvest","summary":"good-harvest","bonus":0},{"rt":614.5999999642372,"stimulus":"\n                    <p><b>Action: <em>harvest</em></b></p>\n                    <p>This is the bee that you just saw.</p>\n                    <img src=\"bees-with-color/bee-B1DF.svg\" width=\"200\">\n                    <p><span class=\"greenText\"><b>Successful harvest!</b></span><br>Your pay has increased by $0.02. Your bonus pay is now $0.04.</p>\n            ","response":0,"trial_type":"html-button-response","trial_index":130,"time_elapsed":509093,"internal_node_id":"0.0-4.0-1.59","subject_id":"615ad488a894bde31da04124","study_id":"60edd13110225f80f9f3709b","session_id":"6196c701a086da7a1db2e9c1","condition":"contingent","relevant_dimensions":["wings","legs"],"bee_group":{"antennae":"X","wings":"1","pattern":"X","legs":"M"},"bonus":0},{"rt":835.5,"stimulus":"bees-with-color/bee-A1DF.svg","response":0,"trial_type":"image-button-response","trial_index":131,"time_elapsed":509929,"internal_node_id":"0.0-4.0-0.60","subject_id":"615ad488a894bde31da04124","study_id":"60edd13110225f80f9f3709b","session_id":"6196c701a086da7a1db2e9c1","condition":"contingent","relevant_dimensions":["wings","legs"],"bee_group":{"antennae":"X","wings":"1","pattern":"X","legs":"M"},"action":"harvest","summary":"good-harvest","bonus":0},{"rt":1273.800000011921,"stimulus":"\n                    <p><b>Action: <em>harvest</em></b></p>\n                    <p>This is the bee that you just saw.</p>\n                    <img src=\"bees-with-color/bee-A1DF.svg\" width=\"200\">\n                    <p><span class=\"greenText\"><b>Successful harvest!</b></span><br>Your pay has increased by $0.02. Your bonus pay is now $0.06.</p>\n            ","response":0,"trial_type":"html-button-response","trial_index":132,"time_elapsed":511205,"internal_node_id":"0.0-4.0-1.60","subject_id":"615ad488a894bde31da04124","study_id":"60edd13110225f80f9f3709b","session_id":"6196c701a086da7a1db2e9c1","condition":"contingent","relevant_dimensions":["wings","legs"],"bee_group":{"antennae":"X","wings":"1","pattern":"X","legs":"M"},"bonus":0},{"rt":769,"stimulus":"bees-with-color/bee-B2SM.svg","response":0,"trial_type":"image-button-response","trial_index":133,"time_elapsed":511975,"internal_node_id":"0.0-4.0-0.61","subject_id":"615ad488a894bde31da04124","study_id":"60edd13110225f80f9f3709b","session_id":"6196c701a086da7a1db2e9c1","condition":"contingent","relevant_dimensions":["wings","legs"],"bee_group":{"antennae":"X","wings":"1","pattern":"X","legs":"M"},"action":"harvest","summary":"good-harvest","bonus":0},{"rt":636.9000000357628,"stimulus":"\n                    <p><b>Action: <em>harvest</em></b></p>\n                    <p>This is the bee that you just saw.</p>\n                    <img src=\"bees-with-color/bee-B2SM.svg\" width=\"200\">\n                    <p><span class=\"greenText\"><b>Successful harvest!</b></span><br>Your pay has increased by $0.02. Your bonus pay is now $0.08.</p>\n            ","response":0,"trial_type":"html-button-response","trial_index":134,"time_elapsed":512613,"internal_node_id":"0.0-4.0-1.61","subject_id":"615ad488a894bde31da04124","study_id":"60edd13110225f80f9f3709b","session_id":"6196c701a086da7a1db2e9c1","condition":"contingent","relevant_dimensions":["wings","legs"],"bee_group":{"antennae":"X","wings":"1","pattern":"X","legs":"M"},"bonus":0},{"rt":1054.6000000238419,"stimulus":"bees-with-color/bee-B2DF.svg","response":0,"trial_type":"image-button-response","trial_index":135,"time_elapsed":513669,"internal_node_id":"0.0-4.0-0.62","subject_id":"615ad488a894bde31da04124","study_id":"60edd13110225f80f9f3709b","session_id":"6196c701a086da7a1db2e9c1","condition":"contingent","relevant_dimensions":["wings","legs"],"bee_group":{"antennae":"X","wings":"1","pattern":"X","legs":"M"},"action":"harvest","summary":"good-harvest","bonus":0},{"rt":739.5,"stimulus":"\n                    <p><b>Action: <em>harvest</em></b></p>\n                    <p>This is the bee that you just saw.</p>\n                    <img src=\"bees-with-color/bee-B2DF.svg\" width=\"200\">\n                    <p><span class=\"greenText\"><b>Successful harvest!</b></span><br>Your pay has increased by $0.02. Your bonus pay is now $0.10.</p>\n            ","response":0,"trial_type":"html-button-response","trial_index":136,"time_elapsed":514410,"internal_node_id":"0.0-4.0-1.62","subject_id":"615ad488a894bde31da04124","study_id":"60edd13110225f80f9f3709b","session_id":"6196c701a086da7a1db2e9c1","condition":"contingent","relevant_dimensions":["wings","legs"],"bee_group":{"antennae":"X","wings":"1","pattern":"X","legs":"M"},"bonus":0},{"rt":1355.3999999761581,"stimulus":"bees-with-color/bee-B1DM.svg","response":0,"trial_type":"image-button-response","trial_index":137,"time_elapsed":515767,"internal_node_id":"0.0-4.0-0.63","subject_id":"615ad488a894bde31da04124","study_id":"60edd13110225f80f9f3709b","session_id":"6196c701a086da7a1db2e9c1","condition":"contingent","relevant_dimensions":["wings","legs"],"bee_group":{"antennae":"X","wings":"1","pattern":"X","legs":"M"},"action":"harvest","summary":"bad-harvest","bonus":0},{"rt":3189.099999964237,"stimulus":"\n                    <p><b>Action: <em>harvest</em></b></p>\n                    <p>This is the bee that you just saw.</p>\n                    <img src=\"bees-with-color/bee-B1DM.svg\" width=\"200\">\n                    <p><span class=\"redText\">Bad choice, the bee was angry.</span><br><b>You have been stung!</b><br>Your pay has been decreased by $0.10. Your bonus pay is now $0.00.</p>\n            ","response":0,"trial_type":"html-button-response","trial_index":138,"time_elapsed":518958,"internal_node_id":"0.0-4.0-1.63","subject_id":"615ad488a894bde31da04124","study_id":"60edd13110225f80f9f3709b","session_id":"6196c701a086da7a1db2e9c1","condition":"contingent","relevant_dimensions":["wings","legs"],"bee_group":{"antennae":"X","wings":"1","pattern":"X","legs":"M"},"bonus":0},{"rt":4339,"stimulus":"You have completed the first part of this experiment.<br><br>You will now begin a shorter second part, in which you will receive no feedback.<br>The same rules regarding bonus pay apply.<br><br>Press any key to begin.","response":" ","trial_type":"html-keyboard-response","trial_index":139,"time_elapsed":523299,"internal_node_id":"0.0-5.0","subject_id":"615ad488a894bde31da04124","study_id":"60edd13110225f80f9f3709b","session_id":"6196c701a086da7a1db2e9c1","condition":"contingent","relevant_dimensions":["wings","legs"],"bee_group":{"antennae":"X","wings":"1","pattern":"X","legs":"M"},"bonus":0},{"rt":983.6000000238419,"stimulus":"bees-with-color/bee-B1DM.svg","response":0,"trial_type":"image-button-response","trial_index":140,"time_elapsed":524291,"internal_node_id":"0.0-6.0-0.0","subject_id":"615ad488a894bde31da04124","study_id":"60edd13110225f80f9f3709b","session_id":"6196c701a086da7a1db2e9c1","condition":"contingent","relevant_dimensions":["wings","legs"],"bee_group":{"antennae":"X","wings":"1","pattern":"X","legs":"M"},"bonus":0},{"rt":974.2999999523163,"stimulus":"bees-with-color/bee-A1SM.svg","response":0,"trial_type":"image-button-response","trial_index":141,"time_elapsed":525267,"internal_node_id":"0.0-6.0-0.1","subject_id":"615ad488a894bde31da04124","study_id":"60edd13110225f80f9f3709b","session_id":"6196c701a086da7a1db2e9c1","condition":"contingent","relevant_dimensions":["wings","legs"],"bee_group":{"antennae":"X","wings":"1","pattern":"X","legs":"M"},"bonus":0},{"rt":1149.199999988079,"stimulus":"bees-with-color/bee-A2DF.svg","response":0,"trial_type":"image-button-response","trial_index":142,"time_elapsed":526418,"internal_node_id":"0.0-6.0-0.2","subject_id":"615ad488a894bde31da04124","study_id":"60edd13110225f80f9f3709b","session_id":"6196c701a086da7a1db2e9c1","condition":"contingent","relevant_dimensions":["wings","legs"],"bee_group":{"antennae":"X","wings":"1","pattern":"X","legs":"M"},"bonus":0},{"rt":534.6999999880791,"stimulus":"bees-with-color/bee-A2DM.svg","response":0,"trial_type":"image-button-response","trial_index":143,"time_elapsed":526954,"internal_node_id":"0.0-6.0-0.3","subject_id":"615ad488a894bde31da04124","study_id":"60edd13110225f80f9f3709b","session_id":"6196c701a086da7a1db2e9c1","condition":"contingent","relevant_dimensions":["wings","legs"],"bee_group":{"antennae":"X","wings":"1","pattern":"X","legs":"M"},"bonus":0},{"rt":460.2999999523163,"stimulus":"bees-with-color/bee-B2SM.svg","response":0,"trial_type":"image-button-response","trial_index":144,"time_elapsed":527416,"internal_node_id":"0.0-6.0-0.4","subject_id":"615ad488a894bde31da04124","study_id":"60edd13110225f80f9f3709b","session_id":"6196c701a086da7a1db2e9c1","condition":"contingent","relevant_dimensions":["wings","legs"],"bee_group":{"antennae":"X","wings":"1","pattern":"X","legs":"M"},"bonus":0},{"rt":680.5999999642372,"stimulus":"bees-with-color/bee-B2DF.svg","response":0,"trial_type":"image-button-response","trial_index":145,"time_elapsed":528098,"internal_node_id":"0.0-6.0-0.5","subject_id":"615ad488a894bde31da04124","study_id":"60edd13110225f80f9f3709b","session_id":"6196c701a086da7a1db2e9c1","condition":"contingent","relevant_dimensions":["wings","legs"],"bee_group":{"antennae":"X","wings":"1","pattern":"X","legs":"M"},"bonus":0},{"rt":505.30000001192093,"stimulus":"bees-with-color/bee-A2SF.svg","response":0,"trial_type":"image-button-response","trial_index":146,"time_elapsed":528605,"internal_node_id":"0.0-6.0-0.6","subject_id":"615ad488a894bde31da04124","study_id":"60edd13110225f80f9f3709b","session_id":"6196c701a086da7a1db2e9c1","condition":"contingent","relevant_dimensions":["wings","legs"],"bee_group":{"antennae":"X","wings":"1","pattern":"X","legs":"M"},"bonus":0},{"rt":230.80000001192093,"stimulus":"bees-with-color/bee-A2SM.svg","response":0,"trial_type":"image-button-response","trial_index":147,"time_elapsed":528838,"internal_node_id":"0.0-6.0-0.7","subject_id":"615ad488a894bde31da04124","study_id":"60edd13110225f80f9f3709b","session_id":"6196c701a086da7a1db2e9c1","condition":"contingent","relevant_dimensions":["wings","legs"],"bee_group":{"antennae":"X","wings":"1","pattern":"X","legs":"M"},"bonus":0},{"rt":344.30000001192093,"stimulus":"bees-with-color/bee-B2SF.svg","response":0,"trial_type":"image-button-response","trial_index":148,"time_elapsed":529184,"internal_node_id":"0.0-6.0-0.8","subject_id":"615ad488a894bde31da04124","study_id":"60edd13110225f80f9f3709b","session_id":"6196c701a086da7a1db2e9c1","condition":"contingent","relevant_dimensions":["wings","legs"],"bee_group":{"antennae":"X","wings":"1","pattern":"X","legs":"M"},"bonus":0},{"rt":284.80000001192093,"stimulus":"bees-with-color/bee-A1SF.svg","response":0,"trial_type":"image-button-response","trial_index":149,"time_elapsed":529470,"internal_node_id":"0.0-6.0-0.9","subject_id":"615ad488a894bde31da04124","study_id":"60edd13110225f80f9f3709b","session_id":"6196c701a086da7a1db2e9c1","condition":"contingent","relevant_dimensions":["wings","legs"],"bee_group":{"antennae":"X","wings":"1","pattern":"X","legs":"M"},"bonus":0},{"rt":166.69999998807907,"stimulus":"bees-with-color/bee-B1SF.svg","response":0,"trial_type":"image-button-response","trial_index":150,"time_elapsed":529638,"internal_node_id":"0.0-6.0-0.10","subject_id":"615ad488a894bde31da04124","study_id":"60edd13110225f80f9f3709b","session_id":"6196c701a086da7a1db2e9c1","condition":"contingent","relevant_dimensions":["wings","legs"],"bee_group":{"antennae":"X","wings":"1","pattern":"X","legs":"M"},"bonus":0},{"rt":167.5999999642372,"stimulus":"bees-with-color/bee-A1DM.svg","response":0,"trial_type":"image-button-response","trial_index":151,"time_elapsed":529808,"internal_node_id":"0.0-6.0-0.11","subject_id":"615ad488a894bde31da04124","study_id":"60edd13110225f80f9f3709b","session_id":"6196c701a086da7a1db2e9c1","condition":"contingent","relevant_dimensions":["wings","legs"],"bee_group":{"antennae":"X","wings":"1","pattern":"X","legs":"M"},"bonus":0},{"rt":356.89999997615814,"stimulus":"bees-with-color/bee-B2DM.svg","response":0,"trial_type":"image-button-response","trial_index":152,"time_elapsed":530166,"internal_node_id":"0.0-6.0-0.12","subject_id":"615ad488a894bde31da04124","study_id":"60edd13110225f80f9f3709b","session_id":"6196c701a086da7a1db2e9c1","condition":"contingent","relevant_dimensions":["wings","legs"],"bee_group":{"antennae":"X","wings":"1","pattern":"X","legs":"M"},"bonus":0},{"rt":160.0999999642372,"stimulus":"bees-with-color/bee-A1DF.svg","response":0,"trial_type":"image-button-response","trial_index":153,"time_elapsed":530328,"internal_node_id":"0.0-6.0-0.13","subject_id":"615ad488a894bde31da04124","study_id":"60edd13110225f80f9f3709b","session_id":"6196c701a086da7a1db2e9c1","condition":"contingent","relevant_dimensions":["wings","legs"],"bee_group":{"antennae":"X","wings":"1","pattern":"X","legs":"M"},"bonus":0},{"rt":159.69999998807907,"stimulus":"bees-with-color/bee-B1SM.svg","response":0,"trial_type":"image-button-response","trial_index":154,"time_elapsed":530490,"internal_node_id":"0.0-6.0-0.14","subject_id":"615ad488a894bde31da04124","study_id":"60edd13110225f80f9f3709b","session_id":"6196c701a086da7a1db2e9c1","condition":"contingent","relevant_dimensions":["wings","legs"],"bee_group":{"antennae":"X","wings":"1","pattern":"X","legs":"M"},"bonus":0},{"rt":174.39999997615814,"stimulus":"bees-with-color/bee-B1DF.svg","response":0,"trial_type":"image-button-response","trial_index":155,"time_elapsed":530665,"internal_node_id":"0.0-6.0-0.15","subject_id":"615ad488a894bde31da04124","study_id":"60edd13110225f80f9f3709b","session_id":"6196c701a086da7a1db2e9c1","condition":"contingent","relevant_dimensions":["wings","legs"],"bee_group":{"antennae":"X","wings":"1","pattern":"X","legs":"M"},"bonus":0},{"rt":167.80000001192093,"stimulus":"bees-with-color/bee-A1DM.svg","response":0,"trial_type":"image-button-response","trial_index":156,"time_elapsed":530835,"internal_node_id":"0.0-6.0-0.16","subject_id":"615ad488a894bde31da04124","study_id":"60edd13110225f80f9f3709b","session_id":"6196c701a086da7a1db2e9c1","condition":"contingent","relevant_dimensions":["wings","legs"],"bee_group":{"antennae":"X","wings":"1","pattern":"X","legs":"M"},"bonus":0},{"rt":152.89999997615814,"stimulus":"bees-with-color/bee-A2SF.svg","response":0,"trial_type":"image-button-response","trial_index":157,"time_elapsed":530989,"internal_node_id":"0.0-6.0-0.17","subject_id":"615ad488a894bde31da04124","study_id":"60edd13110225f80f9f3709b","session_id":"6196c701a086da7a1db2e9c1","condition":"contingent","relevant_dimensions":["wings","legs"],"bee_group":{"antennae":"X","wings":"1","pattern":"X","legs":"M"},"bonus":0},{"rt":137.10000002384186,"stimulus":"bees-with-color/bee-B2DF.svg","response":0,"trial_type":"image-button-response","trial_index":158,"time_elapsed":531127,"internal_node_id":"0.0-6.0-0.18","subject_id":"615ad488a894bde31da04124","study_id":"60edd13110225f80f9f3709b","session_id":"6196c701a086da7a1db2e9c1","condition":"contingent","relevant_dimensions":["wings","legs"],"bee_group":{"antennae":"X","wings":"1","pattern":"X","legs":"M"},"bonus":0},{"rt":156.89999997615814,"stimulus":"bees-with-color/bee-B1SF.svg","response":0,"trial_type":"image-button-response","trial_index":159,"time_elapsed":531285,"internal_node_id":"0.0-6.0-0.19","subject_id":"615ad488a894bde31da04124","study_id":"60edd13110225f80f9f3709b","session_id":"6196c701a086da7a1db2e9c1","condition":"contingent","relevant_dimensions":["wings","legs"],"bee_group":{"antennae":"X","wings":"1","pattern":"X","legs":"M"},"bonus":0},{"rt":141,"stimulus":"bees-with-color/bee-A1SF.svg","response":0,"trial_type":"image-button-response","trial_index":160,"time_elapsed":531428,"internal_node_id":"0.0-6.0-0.20","subject_id":"615ad488a894bde31da04124","study_id":"60edd13110225f80f9f3709b","session_id":"6196c701a086da7a1db2e9c1","condition":"contingent","relevant_dimensions":["wings","legs"],"bee_group":{"antennae":"X","wings":"1","pattern":"X","legs":"M"},"bonus":0},{"rt":138.39999997615814,"stimulus":"bees-with-color/bee-B1DF.svg","response":0,"trial_type":"image-button-response","trial_index":161,"time_elapsed":531568,"internal_node_id":"0.0-6.0-0.21","subject_id":"615ad488a894bde31da04124","study_id":"60edd13110225f80f9f3709b","session_id":"6196c701a086da7a1db2e9c1","condition":"contingent","relevant_dimensions":["wings","legs"],"bee_group":{"antennae":"X","wings":"1","pattern":"X","legs":"M"},"bonus":0},{"rt":145.4000000357628,"stimulus":"bees-with-color/bee-B2SM.svg","response":0,"trial_type":"image-button-response","trial_index":162,"time_elapsed":531714,"internal_node_id":"0.0-6.0-0.22","subject_id":"615ad488a894bde31da04124","study_id":"60edd13110225f80f9f3709b","session_id":"6196c701a086da7a1db2e9c1","condition":"contingent","relevant_dimensions":["wings","legs"],"bee_group":{"antennae":"X","wings":"1","pattern":"X","legs":"M"},"bonus":0},{"rt":160.4000000357628,"stimulus":"bees-with-color/bee-B1DM.svg","response":0,"trial_type":"image-button-response","trial_index":163,"time_elapsed":531876,"internal_node_id":"0.0-6.0-0.23","subject_id":"615ad488a894bde31da04124","study_id":"60edd13110225f80f9f3709b","session_id":"6196c701a086da7a1db2e9c1","condition":"contingent","relevant_dimensions":["wings","legs"],"bee_group":{"antennae":"X","wings":"1","pattern":"X","legs":"M"},"bonus":0},{"rt":160.19999998807907,"stimulus":"bees-with-color/bee-B2DM.svg","response":0,"trial_type":"image-button-response","trial_index":164,"time_elapsed":532037,"internal_node_id":"0.0-6.0-0.24","subject_id":"615ad488a894bde31da04124","study_id":"60edd13110225f80f9f3709b","session_id":"6196c701a086da7a1db2e9c1","condition":"contingent","relevant_dimensions":["wings","legs"],"bee_group":{"antennae":"X","wings":"1","pattern":"X","legs":"M"},"bonus":0},{"rt":160.5,"stimulus":"bees-with-color/bee-B1SM.svg","response":0,"trial_type":"image-button-response","trial_index":165,"time_elapsed":532199,"internal_node_id":"0.0-6.0-0.25","subject_id":"615ad488a894bde31da04124","study_id":"60edd13110225f80f9f3709b","session_id":"6196c701a086da7a1db2e9c1","condition":"contingent","relevant_dimensions":["wings","legs"],"bee_group":{"antennae":"X","wings":"1","pattern":"X","legs":"M"},"bonus":0},{"rt":175,"stimulus":"bees-with-color/bee-B2SF.svg","response":0,"trial_type":"image-button-response","trial_index":166,"time_elapsed":532375,"internal_node_id":"0.0-6.0-0.26","subject_id":"615ad488a89