[{"success":true,"trial_type":"fullscreen","trial_index":0,"time_elapsed":3068,"internal_node_id":"0.0-0.0","subject_id":"616d94572dc3997fe205fa66","study_id":"6197b3f67c2b5cd3b6d9596a","session_id":"6197b9e6f99d132398b0636d","condition":"full-information","relevant_dimensions":["antennae","pattern"],"bee_group":{"antennae":"A","wings":"X","pattern":"D","legs":"X"},"bonus":0.5400000000000011},{"success":true,"timeout":false,"failed_images":[],"failed_audio":[],"failed_video":[],"trial_type":"preload","trial_index":1,"time_elapsed":5073,"internal_node_id":"0.0-1.0","subject_id":"616d94572dc3997fe205fa66","study_id":"6197b3f67c2b5cd3b6d9596a","session_id":"6197b9e6f99d132398b0636d","condition":"full-information","relevant_dimensions":["antennae","pattern"],"bee_group":{"antennae":"A","wings":"X","pattern":"D","legs":"X"},"bonus":0.5400000000000011},{"rt":1534.9000000357628,"stimulus":"Welcome! Press any key to begin.","response":" ","trial_type":"html-keyboard-response","trial_index":2,"time_elapsed":6610,"internal_node_id":"0.0-2.0","subject_id":"616d94572dc3997fe205fa66","study_id":"6197b3f67c2b5cd3b6d9596a","session_id":"6197b9e6f99d132398b0636d","condition":"full-information","relevant_dimensions":["antennae","pattern"],"bee_group":{"antennae":"A","wings":"X","pattern":"D","legs":"X"},"bonus":0.5400000000000011},{"view_history":[{"page_index":0,"viewing_time":3411.599999964237},{"page_index":1,"viewing_time":10227.800000011921},{"page_index":2,"viewing_time":7948},{"page_index":3,"viewing_time":10742},{"page_index":4,"viewing_time":4472},{"page_index":5,"viewing_time":5394.100000023842},{"page_index":6,"viewing_time":6617.899999976158},{"page_index":7,"viewing_time":5724.100000023842},{"page_index":8,"viewing_time":2900.5},{"page_index":9,"viewing_time":2871.5},{"page_index":10,"viewing_time":3302},{"page_index":11,"viewing_time":13879.899999976158},{"page_index":12,"viewing_time":8300.100000023842},{"page_index":13,"viewing_time":1071.8999999761581},{"page_index":14,"viewing_time":2296.100000023842}],"rt":89159.79999995232,"trial_type":"instructions","trial_index":3,"time_elapsed":95772,"internal_node_id":"0.0-3.0-0.0","subject_id":"616d94572dc3997fe205fa66","study_id":"6197b3f67c2b5cd3b6d9596a","session_id":"6197b9e6f99d132398b0636d","condition":"full-information","relevant_dimensions":["antennae","pattern"],"bee_group":{"antennae":"A","wings":"X","pattern":"D","legs":"X"},"bonus":0.5400000000000011},{"rt":10156.300000011921,"response":{"Q0":["Two or six legs","Stripes or spots on body","Single or double wings","Antennae or no antennae"]},"question_order":[0],"trial_type":"survey-multi-select","trial_index":4,"time_elapsed":105932,"internal_node_id":"0.0-3.0-1.0","subject_id":"616d94572dc3997fe205fa66","study_id":"6197b3f67c2b5cd3b6d9596a","session_id":"6197b9e6f99d132398b0636d","condition":"full-information","relevant_dimensions":["antennae","pattern"],"bee_group":{"antennae":"A","wings":"X","pattern":"D","legs":"X"},"correct":true,"bonus":0.5400000000000011},{"rt":20628,"response":{"Q1":"No.","Q2":"Based on the four features of the bee.","Q3":"You learn if it was friendly or dangerous, but do not alter your bonus."},"question_order":[0,1,2],"trial_type":"survey-multi-choice","trial_index":5,"time_elapsed":126567,"internal_node_id":"0.0-3.0-2.0","subject_id":"616d94572dc3997fe205fa66","study_id":"6197b3f67c2b5cd3b6d9596a","session_id":"6197b9e6f99d132398b0636d","condition":"full-information","relevant_dimensions":["antennae","pattern"],"bee_group":{"antennae":"A","wings":"X","pattern":"D","legs":"X"},"correct":true,"bonus":0.5400000000000011},{"rt":6846.199999988079,"stimulus":"<p>Congrats, you got everything right<br>When you're ready, click the button below to continue to the experiment.</p>","response":0,"trial_type":"html-button-response","trial_index":6,"time_elapsed":133421,"internal_node_id":"0.0-3.0-3.0","subject_id":"616d94572dc3997fe205fa66","study_id":"6197b3f67c2b5cd3b6d9596a","session_id":"6197b9e6f99d132398b0636d","condition":"full-information","relevant_dimensions":["antennae","pattern"],"bee_group":{"antennae":"A","wings":"X","pattern":"D","legs":"X"},"bonus":0.5400000000000011},{"rt":8848.699999988079,"stimulus":"bees-with-color/bee-B1SF.svg","response":0,"trial_type":"image-button-response","trial_index":7,"time_elapsed":142273,"internal_node_id":"0.0-4.0-0.0","subject_id":"616d94572dc3997fe205fa66","study_id":"6197b3f67c2b5cd3b6d9596a","session_id":"6197b9e6f99d132398b0636d","condition":"full-information","relevant_dimensions":["antennae","pattern"],"bee_group":{"antennae":"A","wings":"X","pattern":"D","legs":"X"},"action":"harvest","summary":"good-harvest","bonus":0.5400000000000011},{"rt":7927.200000047684,"stimulus":"\n                    <p><b>Action: <em>harvest</em></b></p>\n                    <p>This is the bee that you just saw.</p>\n                    <img src=\"bees-with-color/bee-B1SF.svg\" width=\"200\">\n                    <p><span class=\"greenText\"><b>Successful harvest!</b></span><br>Your pay has increased by $0.02. Your bonus pay is now $0.56.</p>\n            ","response":0,"trial_type":"html-button-response","trial_index":8,"time_elapsed":150206,"internal_node_id":"0.0-4.0-1.0","subject_id":"616d94572dc3997fe205fa66","study_id":"6197b3f67c2b5cd3b6d9596a","session_id":"6197b9e6f99d132398b0636d","condition":"full-information","relevant_dimensions":["antennae","pattern"],"bee_group":{"antennae":"A","wings":"X","pattern":"D","legs":"X"},"bonus":0.5400000000000011},{"rt":1847.5,"stimulus":"bees-with-color/bee-A2SF.svg","response":1,"trial_type":"image-button-response","trial_index":9,"time_elapsed":152056,"internal_node_id":"0.0-4.0-0.1","subject_id":"616d94572dc3997fe205fa66","study_id":"6197b3f67c2b5cd3b6d9596a","session_id":"6197b9e6f99d132398b0636d","condition":"full-information","relevant_dimensions":["antennae","pattern"],"bee_group":{"antennae":"A","wings":"X","pattern":"D","legs":"X"},"action":"avoid","summary":"bad-avoid","bonus":0.5400000000000011},{"rt":6211,"stimulus":"\n                    <p><b>Action: <em>avoid</em></b></p>\n                    <p>This is the bee that you just saw.</p>\n                    <img src=\"bees-with-color/bee-A2SF.svg\" width=\"200\">\n                    <p><span class=\"redText\">Bad choice,</span> the bee was friendly.<br>Your bonus pay is unchanged, and remains at $0.56.</p>\n            ","response":0,"trial_type":"html-button-response","trial_index":10,"time_elapsed":158269,"internal_node_id":"0.0-4.0-1.1","subject_id":"616d94572dc3997fe205fa66","study_id":"6197b3f67c2b5cd3b6d9596a","session_id":"6197b9e6f99d132398b0636d","condition":"full-information","relevant_dimensions":["antennae","pattern"],"bee_group":{"antennae":"A","wings":"X","pattern":"D","legs":"X"},"bonus":0.5400000000000011},{"rt":2427,"stimulus":"bees-with-color/bee-B1SM.svg","response":1,"trial_type":"image-button-response","trial_index":11,"time_elapsed":160699,"internal_node_id":"0.0-4.0-0.2","subject_id":"616d94572dc3997fe205fa66","study_id":"6197b3f67c2b5cd3b6d9596a","session_id":"6197b9e6f99d132398b0636d","condition":"full-information","relevant_dimensions":["antennae","pattern"],"bee_group":{"antennae":"A","wings":"X","pattern":"D","legs":"X"},"action":"avoid","summary":"bad-avoid","bonus":0.5400000000000011},{"rt":3129.899999976158,"stimulus":"\n                    <p><b>Action: <em>avoid</em></b></p>\n                    <p>This is the bee that you just saw.</p>\n                    <img src=\"bees-with-color/bee-B1SM.svg\" width=\"200\">\n                    <p><span class=\"redText\">Bad choice,</span> the bee was friendly.<br>Your bonus pay is unchanged, and remains at $0.56.</p>\n            ","response":0,"trial_type":"html-button-response","trial_index":12,"time_elapsed":163831,"internal_node_id":"0.0-4.0-1.2","subject_id":"616d94572dc3997fe205fa66","study_id":"6197b3f67c2b5cd3b6d9596a","session_id":"6197b9e6f99d132398b0636d","condition":"full-information","relevant_dimensions":["antennae","pattern"],"bee_group":{"antennae":"A","wings":"X","pattern":"D","legs":"X"},"bonus":0.5400000000000011},{"rt":1513.5999999642372,"stimulus":"bees-with-color/bee-A2DM.svg","response":1,"trial_type":"image-button-response","trial_index":13,"time_elapsed":165347,"internal_node_id":"0.0-4.0-0.3","subject_id":"616d94572dc3997fe205fa66","study_id":"6197b3f67c2b5cd3b6d9596a","session_id":"6197b9e6f99d132398b0636d","condition":"full-information","relevant_dimensions":["antennae","pattern"],"bee_group":{"antennae":"A","wings":"X","pattern":"D","legs":"X"},"action":"avoid","summary":"good-avoid","bonus":0.5400000000000011},{"rt":3918.199999988079,"stimulus":"\n                    <p><b>Action: <em>avoid</em></b></p>\n                    <p>This is the bee that you just saw.</p>\n                    <img src=\"bees-with-color/bee-A2DM.svg\" width=\"200\">\n                    <p><span class=\"greenText\">Good choice!</span>  This bee would have stung you.<br>Your bonus pay is unchanged, and remains at $0.56.</p>\n            ","response":0,"trial_type":"html-button-response","trial_index":14,"time_elapsed":169267,"internal_node_id":"0.0-4.0-1.3","subject_id":"616d94572dc3997fe205fa66","study_id":"6197b3f67c2b5cd3b6d9596a","session_id":"6197b9e6f99d132398b0636d","condition":"full-information","relevant_dimensions":["antennae","pattern"],"bee_group":{"antennae":"A","wings":"X","pattern":"D","legs":"X"},"bonus":0.5400000000000011},{"rt":2301.399999976158,"stimulus":"bees-with-color/bee-A1DM.svg","response":0,"trial_type":"image-button-response","trial_index":15,"time_elapsed":171571,"internal_node_id":"0.0-4.0-0.4","subject_id":"616d94572dc3997fe205fa66","study_id":"6197b3f67c2b5cd3b6d9596a","session_id":"6197b9e6f99d132398b0636d","condition":"full-information","relevant_dimensions":["antennae","pattern"],"bee_group":{"antennae":"A","wings":"X","pattern":"D","legs":"X"},"action":"harvest","summary":"bad-harvest","bonus":0.5400000000000011},{"rt":4167.800000011921,"stimulus":"\n                    <p><b>Action: <em>harvest</em></b></p>\n                    <p>This is the bee that you just saw.</p>\n                    <img src=\"bees-with-color/bee-A1DM.svg\" width=\"200\">\n                    <p><span class=\"redText\">Bad choice, the bee was angry.</span><br><b>You have been stung!</b><br>Your pay has been decreased by $0.10. Your bonus pay is now $0.46.</p>\n            ","response":0,"trial_type":"html-button-response","trial_index":16,"time_elapsed":175741,"internal_node_id":"0.0-4.0-1.4","subject_id":"616d94572dc3997fe205fa66","study_id":"6197b3f67c2b5cd3b6d9596a","session_id":"6197b9e6f99d132398b0636d","condition":"full-information","relevant_dimensions":["antennae","pattern"],"bee_group":{"antennae":"A","wings":"X","pattern":"D","legs":"X"},"bonus":0.5400000000000011},{"rt":1596,"stimulus":"bees-with-color/bee-B2DM.svg","response":0,"trial_type":"image-button-response","trial_index":17,"time_elapsed":177340,"internal_node_id":"0.0-4.0-0.5","subject_id":"616d94572dc3997fe205fa66","study_id":"6197b3f67c2b5cd3b6d9596a","session_id":"6197b9e6f99d132398b0636d","condition":"full-information","relevant_dimensions":["antennae","pattern"],"bee_group":{"antennae":"A","wings":"X","pattern":"D","legs":"X"},"action":"harvest","summary":"good-harvest","bonus":0.5400000000000011},{"rt":3828.899999976158,"stimulus":"\n                    <p><b>Action: <em>harvest</em></b></p>\n                    <p>This is the bee that you just saw.</p>\n                    <img src=\"bees-with-color/bee-B2DM.svg\" width=\"200\">\n                    <p><span class=\"greenText\"><b>Successful harvest!</b></span><br>Your pay has increased by $0.02. Your bonus pay is now $0.48.</p>\n            ","response":0,"trial_type":"html-button-response","trial_index":18,"time_elapsed":181172,"internal_node_id":"0.0-4.0-1.5","subject_id":"616d94572dc3997fe205fa66","study_id":"6197b3f67c2b5cd3b6d9596a","session_id":"6197b9e6f99d132398b0636d","condition":"full-information","relevant_dimensions":["antennae","pattern"],"bee_group":{"antennae":"A","wings":"X","pattern":"D","legs":"X"},"bonus":0.5400000000000011},{"rt":1855.800000011921,"stimulus":"bees-with-color/bee-B1DM.svg","response":1,"trial_type":"image-button-response","trial_index":19,"time_elapsed":183030,"internal_node_id":"0.0-4.0-0.6","subject_id":"616d94572dc3997fe205fa66","study_id":"6197b3f67c2b5cd3b6d9596a","session_id":"6197b9e6f99d132398b0636d","condition":"full-information","relevant_dimensions":["antennae","pattern"],"bee_group":{"antennae":"A","wings":"X","pattern":"D","legs":"X"},"action":"avoid","summary":"bad-avoid","bonus":0.5400000000000011},{"rt":1532.300000011921,"stimulus":"\n                    <p><b>Action: <em>avoid</em></b></p>\n                    <p>This is the bee that you just saw.</p>\n                    <img src=\"bees-with-color/bee-B1DM.svg\" width=\"200\">\n                    <p><span class=\"redText\">Bad choice,</span> the bee was friendly.<br>Your bonus pay is unchanged, and remains at $0.48.</p>\n            ","response":0,"trial_type":"html-button-response","trial_index":20,"time_elapsed":184564,"internal_node_id":"0.0-4.0-1.6","subject_id":"616d94572dc3997fe205fa66","study_id":"6197b3f67c2b5cd3b6d9596a","session_id":"6197b9e6f99d132398b0636d","condition":"full-information","relevant_dimensions":["antennae","pattern"],"bee_group":{"antennae":"A","wings":"X","pattern":"D","legs":"X"},"bonus":0.5400000000000011},{"rt":1887.8999999761581,"stimulus":"bees-with-color/bee-A1SF.svg","response":0,"trial_type":"image-button-response","trial_index":21,"time_elapsed":186454,"internal_node_id":"0.0-4.0-0.7","subject_id":"616d94572dc3997fe205fa66","study_id":"6197b3f67c2b5cd3b6d9596a","session_id":"6197b9e6f99d132398b0636d","condition":"full-information","relevant_dimensions":["antennae","pattern"],"bee_group":{"antennae":"A","wings":"X","pattern":"D","legs":"X"},"action":"harvest","summary":"good-harvest","bonus":0.5400000000000011},{"rt":1854.1000000238419,"stimulus":"\n                    <p><b>Action: <em>harvest</em></b></p>\n                    <p>This is the bee that you just saw.</p>\n                    <img src=\"bees-with-color/bee-A1SF.svg\" width=\"200\">\n                    <p><span class=\"greenText\"><b>Successful harvest!</b></span><br>Your pay has increased by $0.02. Your bonus pay is now $0.50.</p>\n            ","response":0,"trial_type":"html-button-response","trial_index":22,"time_elapsed":188310,"internal_node_id":"0.0-4.0-1.7","subject_id":"616d94572dc3997fe205fa66","study_id":"6197b3f67c2b5cd3b6d9596a","session_id":"6197b9e6f99d132398b0636d","condition":"full-information","relevant_dimensions":["antennae","pattern"],"bee_group":{"antennae":"A","wings":"X","pattern":"D","legs":"X"},"bonus":0.5400000000000011},{"rt":1979.300000011921,"stimulus":"bees-with-color/bee-A1DF.svg","response":1,"trial_type":"image-button-response","trial_index":23,"time_elapsed":190292,"internal_node_id":"0.0-4.0-0.8","subject_id":"616d94572dc3997fe205fa66","study_id":"6197b3f67c2b5cd3b6d9596a","session_id":"6197b9e6f99d132398b0636d","condition":"full-information","relevant_dimensions":["antennae","pattern"],"bee_group":{"antennae":"A","wings":"X","pattern":"D","legs":"X"},"action":"avoid","summary":"good-avoid","bonus":0.5400000000000011},{"rt":2668,"stimulus":"\n                    <p><b>Action: <em>avoid</em></b></p>\n                    <p>This is the bee that you just saw.</p>\n                    <img src=\"bees-with-color/bee-A1DF.svg\" width=\"200\">\n                    <p><span class=\"greenText\">Good choice!</span>  This bee would have stung you.<br>Your bonus pay is unchanged, and remains at $0.50.</p>\n            ","response":0,"trial_type":"html-button-response","trial_index":24,"time_elapsed":192962,"internal_node_id":"0.0-4.0-1.8","subject_id":"616d94572dc3997fe205fa66","study_id":"6197b3f67c2b5cd3b6d9596a","session_id":"6197b9e6f99d132398b0636d","condition":"full-information","relevant_dimensions":["antennae","pattern"],"bee_group":{"antennae":"A","wings":"X","pattern":"D","legs":"X"},"bonus":0.5400000000000011},{"rt":1604,"stimulus":"bees-with-color/bee-B2SF.svg","response":0,"trial_type":"image-button-response","trial_index":25,"time_elapsed":194568,"internal_node_id":"0.0-4.0-0.9","subject_id":"616d94572dc3997fe205fa66","study_id":"6197b3f67c2b5cd3b6d9596a","session_id":"6197b9e6f99d132398b0636d","condition":"full-information","relevant_dimensions":["antennae","pattern"],"bee_group":{"antennae":"A","wings":"X","pattern":"D","legs":"X"},"action":"harvest","summary":"good-harvest","bonus":0.5400000000000011},{"rt":1360.2000000476837,"stimulus":"\n                    <p><b>Action: <em>harvest</em></b></p>\n                    <p>This is the bee that you just saw.</p>\n                    <img src=\"bees-with-color/bee-B2SF.svg\" width=\"200\">\n                    <p><span class=\"greenText\"><b>Successful harvest!</b></span><br>Your pay has increased by $0.02. Your bonus pay is now $0.52.</p>\n            ","response":0,"trial_type":"html-button-response","trial_index":26,"time_elapsed":195930,"internal_node_id":"0.0-4.0-1.9","subject_id":"616d94572dc3997fe205fa66","study_id":"6197b3f67c2b5cd3b6d9596a","session_id":"6197b9e6f99d132398b0636d","condition":"full-information","relevant_dimensions":["antennae","pattern"],"bee_group":{"antennae":"A","wings":"X","pattern":"D","legs":"X"},"bonus":0.5400000000000011},{"rt":1761.699999988079,"stimulus":"bees-with-color/bee-A1SM.svg","response":0,"trial_type":"image-button-response","trial_index":27,"time_elapsed":197694,"internal_node_id":"0.0-4.0-0.10","subject_id":"616d94572dc3997fe205fa66","study_id":"6197b3f67c2b5cd3b6d9596a","session_id":"6197b9e6f99d132398b0636d","condition":"full-information","relevant_dimensions":["antennae","pattern"],"bee_group":{"antennae":"A","wings":"X","pattern":"D","legs":"X"},"action":"harvest","summary":"good-harvest","bonus":0.5400000000000011},{"rt":1390.3999999761581,"stimulus":"\n                    <p><b>Action: <em>harvest</em></b></p>\n                    <p>This is the bee that you just saw.</p>\n                    <img src=\"bees-with-color/bee-A1SM.svg\" width=\"200\">\n                    <p><span class=\"greenText\"><b>Successful harvest!</b></span><br>Your pay has increased by $0.02. Your bonus pay is now $0.54.</p>\n            ","response":0,"trial_type":"html-button-response","trial_index":28,"time_elapsed":199086,"internal_node_id":"0.0-4.0-1.10","subject_id":"616d94572dc3997fe205fa66","study_id":"6197b3f67c2b5cd3b6d9596a","session_id":"6197b9e6f99d132398b0636d","condition":"full-information","relevant_dimensions":["antennae","pattern"],"bee_group":{"antennae":"A","wings":"X","pattern":"D","legs":"X"},"bonus":0.5400000000000011},{"rt":1470.0999999642372,"stimulus":"bees-with-color/bee-B2SM.svg","response":1,"trial_type":"image-button-response","trial_index":29,"time_elapsed":200558,"internal_node_id":"0.0-4.0-0.11","subject_id":"616d94572dc3997fe205fa66","study_id":"6197b3f67c2b5cd3b6d9596a","session_id":"6197b9e6f99d132398b0636d","condition":"full-information","relevant_dimensions":["antennae","pattern"],"bee_group":{"antennae":"A","wings":"X","pattern":"D","legs":"X"},"action":"avoid","summary":"bad-avoid","bonus":0.5400000000000011},{"rt":948.3000000119209,"stimulus":"\n                    <p><b>Action: <em>avoid</em></b></p>\n                    <p>This is the bee that you just saw.</p>\n                    <img src=\"bees-with-color/bee-B2SM.svg\" width=\"200\">\n                    <p><span class=\"redText\">Bad choice,</span> the bee was friendly.<br>Your bonus pay is unchanged, and remains at $0.54.</p>\n            ","response":0,"trial_type":"html-button-response","trial_index":30,"time_elapsed":201508,"internal_node_id":"0.0-4.0-1.11","subject_id":"616d94572dc3997fe205fa66","study_id":"6197b3f67c2b5cd3b6d9596a","session_id":"6197b9e6f99d132398b0636d","condition":"full-information","relevant_dimensions":["antennae","pattern"],"bee_group":{"antennae":"A","wings":"X","pattern":"D","legs":"X"},"bonus":0.5400000000000011},{"rt":1244.300000011921,"stimulus":"bees-with-color/bee-A2DF.svg","response":1,"trial_type":"image-button-response","trial_index":31,"time_elapsed":202754,"internal_node_id":"0.0-4.0-0.12","subject_id":"616d94572dc3997fe205fa66","study_id":"6197b3f67c2b5cd3b6d9596a","session_id":"6197b9e6f99d132398b0636d","condition":"full-information","relevant_dimensions":["antennae","pattern"],"bee_group":{"antennae":"A","wings":"X","pattern":"D","legs":"X"},"action":"avoid","summary":"good-avoid","bonus":0.5400000000000011},{"rt":954.3000000119209,"stimulus":"\n                    <p><b>Action: <em>avoid</em></b></p>\n                    <p>This is the bee that you just saw.</p>\n                    <img src=\"bees-with-color/bee-A2DF.svg\" width=\"200\">\n                    <p><span class=\"greenText\">Good choice!</span>  This bee would have stung you.<br>Your bonus pay is unchanged, and remains at $0.54.</p>\n            ","response":0,"trial_type":"html-button-response","trial_index":32,"time_elapsed":203710,"internal_node_id":"0.0-4.0-1.12","subject_id":"616d94572dc3997fe205fa66","study_id":"6197b3f67c2b5cd3b6d9596a","session_id":"6197b9e6f99d132398b0636d","condition":"full-information","relevant_dimensions":["antennae","pattern"],"bee_group":{"antennae":"A","wings":"X","pattern":"D","legs":"X"},"bonus":0.5400000000000011},{"rt":2674.100000023842,"stimulus":"bees-with-color/bee-A2SM.svg","response":1,"trial_type":"image-button-response","trial_index":33,"time_elapsed":206386,"internal_node_id":"0.0-4.0-0.13","subject_id":"616d94572dc3997fe205fa66","study_id":"6197b3f67c2b5cd3b6d9596a","session_id":"6197b9e6f99d132398b0636d","condition":"full-information","relevant_dimensions":["antennae","pattern"],"bee_group":{"antennae":"A","wings":"X","pattern":"D","legs":"X"},"action":"avoid","summary":"bad-avoid","bonus":0.5400000000000011},{"rt":903.8999999761581,"stimulus":"\n                    <p><b>Action: <em>avoid</em></b></p>\n                    <p>This is the bee that you just saw.</p>\n                    <img src=\"bees-with-color/bee-A2SM.svg\" width=\"200\">\n                    <p><span class=\"redText\">Bad choice,</span> the bee was friendly.<br>Your bonus pay is unchanged, and remains at $0.54.</p>\n            ","response":0,"trial_type":"html-button-response","trial_index":34,"time_elapsed":207292,"internal_node_id":"0.0-4.0-1.13","subject_id":"616d94572dc3997fe205fa66","study_id":"6197b3f67c2b5cd3b6d9596a","session_id":"6197b9e6f99d132398b0636d","condition":"full-information","relevant_dimensions":["antennae","pattern"],"bee_group":{"antennae":"A","wings":"X","pattern":"D","legs":"X"},"bonus":0.5400000000000011},{"rt":972.1999999880791,"stimulus":"bees-with-color/bee-B2DF.svg","response":1,"trial_type":"image-button-response","trial_index":35,"time_elapsed":208266,"internal_node_id":"0.0-4.0-0.14","subject_id":"616d94572dc3997fe205fa66","study_id":"6197b3f67c2b5cd3b6d9596a","session_id":"6197b9e6f99d132398b0636d","condition":"full-information","relevant_dimensions":["antennae","pattern"],"bee_group":{"antennae":"A","wings":"X","pattern":"D","legs":"X"},"action":"avoid","summary":"bad-avoid","bonus":0.5400000000000011},{"rt":669.8999999761581,"stimulus":"\n                    <p><b>Action: <em>avoid</em></b></p>\n                    <p>This is the bee that you just saw.</p>\n                    <img src=\"bees-with-color/bee-B2DF.svg\" width=\"200\">\n                    <p><span class=\"redText\">Bad choice,</span> the bee was friendly.<br>Your bonus pay is unchanged, and remains at $0.54.</p>\n            ","response":0,"trial_type":"html-button-response","trial_index":36,"time_elapsed":208938,"internal_node_id":"0.0-4.0-1.14","subject_id":"616d94572dc3997fe205fa66","study_id":"6197b3f67c2b5cd3b6d9596a","session_id":"6197b9e6f99d132398b0636d","condition":"full-information","relevant_dimensions":["antennae","pattern"],"bee_group":{"antennae":"A","wings":"X","pattern":"D","legs":"X"},"bonus":0.5400000000000011},{"rt":1502.300000011921,"stimulus":"bees-with-color/bee-B1DF.svg","response":1,"trial_type":"image-button-response","trial_index":37,"time_elapsed":210442,"internal_node_id":"0.0-4.0-0.15","subject_id":"616d94572dc3997fe205fa66","study_id":"6197b3f67c2b5cd3b6d9596a","session_id":"6197b9e6f99d132398b0636d","condition":"full-information","relevant_dimensions":["antennae","pattern"],"bee_group":{"antennae":"A","wings":"X","pattern":"D","legs":"X"},"action":"avoid","summary":"bad-avoid","bonus":0.5400000000000011},{"rt":640.1999999880791,"stimulus":"\n                    <p><b>Action: <em>avoid</em></b></p>\n                    <p>This is the bee that you just saw.</p>\n                    <img src=\"bees-with-color/bee-B1DF.svg\" width=\"200\">\n                    <p><span class=\"redText\">Bad choice,</span> the bee was friendly.<br>Your bonus pay is unchanged, and remains at $0.54.</p>\n            ","response":0,"trial_type":"html-button-response","trial_index":38,"time_elapsed":211084,"internal_node_id":"0.0-4.0-1.15","subject_id":"616d94572dc3997fe205fa66","study_id":"6197b3f67c2b5cd3b6d9596a","session_id":"6197b9e6f99d132398b0636d","condition":"full-information","relevant_dimensions":["antennae","pattern"],"bee_group":{"antennae":"A","wings":"X","pattern":"D","legs":"X"},"bonus":0.5400000000000011},{"rt":1024.699999988079,"stimulus":"bees-with-color/bee-B2SF.svg","response":0,"trial_type":"image-button-response","trial_index":39,"time_elapsed":212110,"internal_node_id":"0.0-4.0-0.16","subject_id":"616d94572dc3997fe205fa66","study_id":"6197b3f67c2b5cd3b6d9596a","session_id":"6197b9e6f99d132398b0636d","condition":"full-information","relevant_dimensions":["antennae","pattern"],"bee_group":{"antennae":"A","wings":"X","pattern":"D","legs":"X"},"action":"harvest","summary":"good-harvest","bonus":0.5400000000000011},{"rt":1551.3999999761581,"stimulus":"\n                    <p><b>Action: <em>harvest</em></b></p>\n                    <p>This is the bee that you just saw.</p>\n                    <img src=\"bees-with-color/bee-B2SF.svg\" width=\"200\">\n                    <p><span class=\"greenText\"><b>Successful harvest!</b></span><br>Your pay has increased by $0.02. Your bonus pay is now $0.56.</p>\n            ","response":0,"trial_type":"html-button-response","trial_index":40,"time_elapsed":213664,"internal_node_id":"0.0-4.0-1.16","subject_id":"616d94572dc3997fe205fa66","study_id":"6197b3f67c2b5cd3b6d9596a","session_id":"6197b9e6f99d132398b0636d","condition":"full-information","relevant_dimensions":["antennae","pattern"],"bee_group":{"antennae":"A","wings":"X","pattern":"D","legs":"X"},"bonus":0.5400000000000011},{"rt":1211.699999988079,"stimulus":"bees-with-color/bee-A2DF.svg","response":1,"trial_type":"image-button-response","trial_index":41,"time_elapsed":214878,"internal_node_id":"0.0-4.0-0.17","subject_id":"616d94572dc3997fe205fa66","study_id":"6197b3f67c2b5cd3b6d9596a","session_id":"6197b9e6f99d132398b0636d","condition":"full-information","relevant_dimensions":["antennae","pattern"],"bee_group":{"antennae":"A","wings":"X","pattern":"D","legs":"X"},"action":"avoid","summary":"good-avoid","bonus":0.5400000000000011},{"rt":810.1000000238419,"stimulus":"\n                    <p><b>Action: <em>avoid</em></b></p>\n                    <p>This is the bee that you just saw.</p>\n                    <img src=\"bees-with-color/bee-A2DF.svg\" width=\"200\">\n                    <p><span class=\"greenText\">Good choice!</span>  This bee would have stung you.<br>Your bonus pay is unchanged, and remains at $0.56.</p>\n            ","response":0,"trial_type":"html-button-response","trial_index":42,"time_elapsed":215690,"internal_node_id":"0.0-4.0-1.17","subject_id":"616d94572dc3997fe205fa66","study_id":"6197b3f67c2b5cd3b6d9596a","session_id":"6197b9e6f99d132398b0636d","condition":"full-information","relevant_dimensions":["antennae","pattern"],"bee_group":{"antennae":"A","wings":"X","pattern":"D","legs":"X"},"bonus":0.5400000000000011},{"rt":1358.199999988079,"stimulus":"bees-with-color/bee-B1DF.svg","response":0,"trial_type":"image-button-response","trial_index":43,"time_elapsed":217050,"internal_node_id":"0.0-4.0-0.18","subject_id":"616d94572dc3997fe205fa66","study_id":"6197b3f67c2b5cd3b6d9596a","session_id":"6197b9e6f99d132398b0636d","condition":"full-information","relevant_dimensions":["antennae","pattern"],"bee_group":{"antennae":"A","wings":"X","pattern":"D","legs":"X"},"action":"harvest","summary":"good-harvest","bonus":0.5400000000000011},{"rt":1068.1000000238419,"stimulus":"\n                    <p><b>Action: <em>harvest</em></b></p>\n                    <p>This is the bee that you just saw.</p>\n                    <img src=\"bees-with-color/bee-B1DF.svg\" width=\"200\">\n                    <p><span class=\"greenText\"><b>Successful harvest!</b></span><br>Your pay has increased by $0.02. Your bonus pay is now $0.58.</p>\n            ","response":0,"trial_type":"html-button-response","trial_index":44,"time_elapsed":218120,"internal_node_id":"0.0-4.0-1.18","subject_id":"616d94572dc3997fe205fa66","study_id":"6197b3f67c2b5cd3b6d9596a","session_id":"6197b9e6f99d132398b0636d","condition":"full-information","relevant_dimensions":["antennae","pattern"],"bee_group":{"antennae":"A","wings":"X","pattern":"D","legs":"X"},"bonus":0.5400000000000011},{"rt":1467.8999999761581,"stimulus":"bees-with-color/bee-B1SM.svg","response":0,"trial_type":"image-button-response","trial_index":45,"time_elapsed":219590,"internal_node_id":"0.0-4.0-0.19","subject_id":"616d94572dc3997fe205fa66","study_id":"6197b3f67c2b5cd3b6d9596a","session_id":"6197b9e6f99d132398b0636d","condition":"full-information","relevant_dimensions":["antennae","pattern"],"bee_group":{"antennae":"A","wings":"X","pattern":"D","legs":"X"},"action":"harvest","summary":"good-harvest","bonus":0.5400000000000011},{"rt":939.6999999880791,"stimulus":"\n                    <p><b>Action: <em>harvest</em></b></p>\n                    <p>This is the bee that you just saw.</p>\n                    <img src=\"bees-with-color/bee-B1SM.svg\" width=\"200\">\n                    <p><span class=\"greenText\"><b>Successful harvest!</b></span><br>Your pay has increased by $0.02. Your bonus pay is now $0.60.</p>\n            ","response":0,"trial_type":"html-button-response","trial_index":46,"time_elapsed":220532,"internal_node_id":"0.0-4.0-1.19","subject_id":"616d94572dc3997fe205fa66","study_id":"6197b3f67c2b5cd3b6d9596a","session_id":"6197b9e6f99d132398b0636d","condition":"full-information","relevant_dimensions":["antennae","pattern"],"bee_group":{"antennae":"A","wings":"X","pattern":"D","legs":"X"},"bonus":0.5400000000000011},{"rt":1345.699999988079,"stimulus":"bees-with-color/bee-A1SM.svg","response":0,"trial_type":"image-button-response","trial_index":47,"time_elapsed":221880,"internal_node_id":"0.0-4.0-0.20","subject_id":"616d94572dc3997fe205fa66","study_id":"6197b3f67c2b5cd3b6d9596a","session_id":"6197b9e6f99d132398b0636d","condition":"full-information","relevant_dimensions":["antennae","pattern"],"bee_group":{"antennae":"A","wings":"X","pattern":"D","legs":"X"},"action":"harvest","summary":"good-harvest","bonus":0.5400000000000011},{"rt":723.6999999880791,"stimulus":"\n                    <p><b>Action: <em>harvest</em></b></p>\n                    <p>This is the bee that you just saw.</p>\n                    <img src=\"bees-with-color/bee-A1SM.svg\" width=\"200\">\n                    <p><span class=\"greenText\"><b>Successful harvest!</b></span><br>Your pay has increased by $0.02. Your bonus pay is now $0.62.</p>\n            ","response":0,"trial_type":"html-button-response","trial_index":48,"time_elapsed":222606,"internal_node_id":"0.0-4.0-1.20","subject_id":"616d94572dc3997fe205fa66","study_id":"6197b3f67c2b5cd3b6d9596a","session_id":"6197b9e6f99d132398b0636d","condition":"full-information","relevant_dimensions":["antennae","pattern"],"bee_group":{"antennae":"A","wings":"X","pattern":"D","legs":"X"},"bonus":0.5400000000000011},{"rt":1288.300000011921,"stimulus":"bees-with-color/bee-A2DM.svg","response":1,"trial_type":"image-button-response","trial_index":49,"time_elapsed":223896,"internal_node_id":"0.0-4.0-0.21","subject_id":"616d94572dc3997fe205fa66","study_id":"6197b3f67c2b5cd3b6d9596a","session_id":"6197b9e6f99d132398b0636d","condition":"full-information","relevant_dimensions":["antennae","pattern"],"bee_group":{"antennae":"A","wings":"X","pattern":"D","legs":"X"},"action":"avoid","summary":"good-avoid","bonus":0.5400000000000011},{"rt":769.8999999761581,"stimulus":"\n                    <p><b>Action: <em>avoid</em></b></p>\n                    <p>This is the bee that you just saw.</p>\n                    <img src=\"bees-with-color/bee-A2DM.svg\" width=\"200\">\n                    <p><span class=\"greenText\">Good choice!</span>  This bee would have stung you.<br>Your bonus pay is unchanged, and remains at $0.62.</p>\n            ","response":0,"trial_type":"html-button-response","trial_index":50,"time_elapsed":224668,"internal_node_id":"0.0-4.0-1.21","subject_id":"616d94572dc3997fe205fa66","study_id":"6197b3f67c2b5cd3b6d9596a","session_id":"6197b9e6f99d132398b0636d","condition":"full-information","relevant_dimensions":["antennae","pattern"],"bee_group":{"antennae":"A","wings":"X","pattern":"D","legs":"X"},"bonus":0.5400000000000011},{"rt":1124.5,"stimulus":"bees-with-color/bee-A2SF.svg","response":0,"trial_type":"image-button-response","trial_index":51,"time_elapsed":225794,"internal_node_id":"0.0-4.0-0.22","subject_id":"616d94572dc3997fe205fa66","study_id":"6197b3f67c2b5cd3b6d9596a","session_id":"6197b9e6f99d132398b0636d","condition":"full-information","relevant_dimensions":["antennae","pattern"],"bee_group":{"antennae":"A","wings":"X","pattern":"D","legs":"X"},"action":"harvest","summary":"good-harvest","bonus":0.5400000000000011},{"rt":944.5,"stimulus":"\n                    <p><b>Action: <em>harvest</em></b></p>\n                    <p>This is the bee that you just saw.</p>\n                    <img src=\"bees-with-color/bee-A2SF.svg\" width=\"200\">\n                    <p><span class=\"greenText\"><b>Successful harvest!</b></span><br>Your pay has increased by $0.02. Your bonus pay is now $0.64.</p>\n            ","response":0,"trial_type":"html-button-response","trial_index":52,"time_elapsed":226740,"internal_node_id":"0.0-4.0-1.22","subject_id":"616d94572dc3997fe205fa66","study_id":"6197b3f67c2b5cd3b6d9596a","session_id":"6197b9e6f99d132398b0636d","condition":"full-information","relevant_dimensions":["antennae","pattern"],"bee_group":{"antennae":"A","wings":"X","pattern":"D","legs":"X"},"bonus":0.5400000000000011},{"rt":1070.4000000357628,"stimulus":"bees-with-color/bee-B2SM.svg","response":0,"trial_type":"image-button-response","trial_index":53,"time_elapsed":227812,"internal_node_id":"0.0-4.0-0.23","subject_id":"616d94572dc3997fe205fa66","study_id":"6197b3f67c2b5cd3b6d9596a","session_id":"6197b9e6f99d132398b0636d","condition":"full-information","relevant_dimensions":["antennae","pattern"],"bee_group":{"antennae":"A","wings":"X","pattern":"D","legs":"X"},"action":"harvest","summary":"good-harvest","bonus":0.5400000000000011},{"rt":1005.5,"stimulus":"\n                    <p><b>Action: <em>harvest</em></b></p>\n                    <p>This is the bee that you just saw.</p>\n                    <img src=\"bees-with-color/bee-B2SM.svg\" width=\"200\">\n                    <p><span class=\"greenText\"><b>Successful harvest!</b></span><br>Your pay has increased by $0.02. Your bonus pay is now $0.66.</p>\n            ","response":0,"trial_type":"html-button-response","trial_index":54,"time_elapsed":228820,"internal_node_id":"0.0-4.0-1.23","subject_id":"616d94572dc3997fe205fa66","study_id":"6197b3f67c2b5cd3b6d9596a","session_id":"6197b9e6f99d132398b0636d","condition":"full-information","relevant_dimensions":["antennae","pattern"],"bee_group":{"antennae":"A","wings":"X","pattern":"D","legs":"X"},"bonus":0.5400000000000011},{"rt":1540.7000000476837,"stimulus":"bees-with-color/bee-A1DM.svg","response":1,"trial_type":"image-button-response","trial_index":55,"time_elapsed":230362,"internal_node_id":"0.0-4.0-0.24","subject_id":"616d94572dc3997fe205fa66","study_id":"6197b3f67c2b5cd3b6d9596a","session_id":"6197b9e6f99d132398b0636d","condition":"full-information","relevant_dimensions":["antennae","pattern"],"bee_group":{"antennae":"A","wings":"X","pattern":"D","legs":"X"},"action":"avoid","summary":"good-avoid","bonus":0.5400000000000011},{"rt":671.8000000119209,"stimulus":"\n                    <p><b>Action: <em>avoid</em></b></p>\n                    <p>This is the bee that you just saw.</p>\n                    <img src=\"bees-with-color/bee-A1DM.svg\" width=\"200\">\n                    <p><span class=\"greenText\">Good choice!</span>  This bee would have stung you.<br>Your bonus pay is unchanged, and remains at $0.66.</p>\n            ","response":0,"trial_type":"html-button-response","trial_index":56,"time_elapsed":231036,"internal_node_id":"0.0-4.0-1.24","subject_id":"616d94572dc3997fe205fa66","study_id":"6197b3f67c2b5cd3b6d9596a","session_id":"6197b9e6f99d132398b0636d","condition":"full-information","relevant_dimensions":["antennae","pattern"],"bee_group":{"antennae":"A","wings":"X","pattern":"D","legs":"X"},"bonus":0.5400000000000011},{"rt":1160.5,"stimulus":"bees-with-color/bee-B1DM.svg","response":0,"trial_type":"image-button-response","trial_index":57,"time_elapsed":232198,"internal_node_id":"0.0-4.0-0.25","subject_id":"616d94572dc3997fe205fa66","study_id":"6197b3f67c2b5cd3b6d9596a","session_id":"6197b9e6f99d132398b0636d","condition":"full-information","relevant_dimensions":["antennae","pattern"],"bee_group":{"antennae":"A","wings":"X","pattern":"D","legs":"X"},"action":"harvest","summary":"good-harvest","bonus":0.5400000000000011},{"rt":742,"stimulus":"\n                    <p><b>Action: <em>harvest</em></b></p>\n                    <p>This is the bee that you just saw.</p>\n                    <img src=\"bees-with-color/bee-B1DM.svg\" width=\"200\">\n                    <p><span class=\"greenText\"><b>Successful harvest!</b></span><br>Your pay has increased by $0.02. Your bonus pay is now $0.68.</p>\n            ","response":0,"trial_type":"html-button-response","trial_index":58,"time_elapsed":232942,"internal_node_id":"0.0-4.0-1.25","subject_id":"616d94572dc3997fe205fa66","study_id":"6197b3f67c2b5cd3b6d9596a","session_id":"6197b9e6f99d132398b0636d","condition":"full-information","relevant_dimensions":["antennae","pattern"],"bee_group":{"antennae":"A","wings":"X","pattern":"D","legs":"X"},"bonus":0.5400000000000011},{"rt":1132.300000011921,"stimulus":"bees-with-color/bee-A2SM.svg","response":0,"trial_type":"image-button-response","trial_index":59,"time_elapsed":234076,"internal_node_id":"0.0-4.0-0.26","subject_id":"616d94572dc3997fe205fa66","study_id":"6197b3f67c2b5cd3b6d9596a","session_id":"6197b9e6f99d132398b0636d","condition":"full-information","relevant_dimensions":["antennae","pattern"],"bee_group":{"antennae":"A","wings":"X","pattern":"D","legs":"X"},"action":"harvest","summary":"good-harvest","bonus":0.5400000000000011},{"rt":816.3999999761581,"stimulus":"\n                    <p><b>Action: <em>harvest</em></b></p>\n                    <p>This is the bee that you just saw.</p>\n                    <img src=\"bees-with-color/bee-A2SM.svg\" width=\"200\">\n                    <p><span class=\"greenText\"><b>Successful harvest!</b></span><br>Your pay has increased by $0.02. Your bonus pay is now $0.70.</p>\n            ","response":0,"trial_type":"html-button-response","trial_index":60,"time_elapsed":234894,"internal_node_id":"0.0-4.0-1.26","subject_id":"616d94572dc3997fe205fa66","study_id":"6197b3f67c2b5cd3b6d9596a","session_id":"6197b9e6f99d132398b0636d","condition":"full-information","relevant_dimensions":["antennae","pattern"],"bee_group":{"antennae":"A","wings":"X","pattern":"D","legs":"X"},"bonus":0.5400000000000011},{"rt":1565.9000000357628,"stimulus":"bees-with-color/bee-A1SF.svg","response":0,"trial_type":"image-button-response","trial_index":61,"time_elapsed":236462,"internal_node_id":"0.0-4.0-0.27","subject_id":"616d94572dc3997fe205fa66","study_id":"6197b3f67c2b5cd3b6d9596a","session_id":"6197b9e6f99d132398b0636d","condition":"full-information","relevant_dimensions":["antennae","pattern"],"bee_group":{"antennae":"A","wings":"X","pattern":"D","legs":"X"},"action":"harvest","summary":"good-harvest","bonus":0.5400000000000011},{"rt":760.2000000476837,"stimulus":"\n                    <p><b>Action: <em>harvest</em></b></p>\n                    <p>This is the bee that you just saw.</p>\n                    <img src=\"bees-with-color/bee-A1SF.svg\" width=\"200\">\n                    <p><span class=\"greenText\"><b>Successful harvest!</b></span><br>Your pay has increased by $0.02. Your bonus pay is now $0.72.</p>\n            ","response":0,"trial_type":"html-button-response","trial_index":62,"time_elapsed":237224,"internal_node_id":"0.0-4.0-1.27","subject_id":"616d94572dc3997fe205fa66","study_id":"6197b3f67c2b5cd3b6d9596a","session_id":"6197b9e6f99d132398b0636d","condition":"full-information","relevant_dimensions":["antennae","pattern"],"bee_group":{"antennae":"A","wings":"X","pattern":"D","legs":"X"},"bonus":0.5400000000000011},{"rt":1172,"stimulus":"bees-with-color/bee-B2DF.svg","response":1,"trial_type":"image-button-response","trial_index":63,"time_elapsed":238397,"internal_node_id":"0.0-4.0-0.28","subject_id":"616d94572dc3997fe205fa66","study_id":"6197b3f67c2b5cd3b6d9596a","session_id":"6197b9e6f99d132398b0636d","condition":"full-information","relevant_dimensions":["antennae","pattern"],"bee_group":{"antennae":"A","wings":"X","pattern":"D","legs":"X"},"action":"avoid","summary":"bad-avoid","bonus":0.5400000000000011},{"rt":701.5,"stimulus":"\n                    <p><b>Action: <em>avoid</em></b></p>\n                    <p>This is the bee that you just saw.</p>\n                    <img src=\"bees-with-color/bee-B2DF.svg\" width=\"200\">\n                    <p><span class=\"redText\">Bad choice,</span> the bee was friendly.<br>Your bonus pay is unchanged, and remains at $0.72.</p>\n            ","response":0,"trial_type":"html-button-response","trial_index":64,"time_elapsed":239101,"internal_node_id":"0.0-4.0-1.28","subject_id":"616d94572dc3997fe205fa66","study_id":"6197b3f67c2b5cd3b6d9596a","session_id":"6197b9e6f99d132398b0636d","condition":"full-information","relevant_dimensions":["antennae","pattern"],"bee_group":{"antennae":"A","wings":"X","pattern":"D","legs":"X"},"bonus":0.5400000000000011},{"rt":1164.3999999761581,"stimulus":"bees-with-color/bee-B1SF.svg","response":0,"trial_type":"image-button-response","trial_index":65,"time_elapsed":240267,"internal_node_id":"0.0-4.0-0.29","subject_id":"616d94572dc3997fe205fa66","study_id":"6197b3f67c2b5cd3b6d9596a","session_id":"6197b9e6f99d132398b0636d","condition":"full-information","relevant_dimensions":["antennae","pattern"],"bee_group":{"antennae":"A","wings":"X","pattern":"D","legs":"X"},"action":"harvest","summary":"good-harvest","bonus":0.5400000000000011},{"rt":716.1000000238419,"stimulus":"\n                    <p><b>Action: <em>harvest</em></b></p>\n                    <p>This is the bee that you just saw.</p>\n                    <img src=\"bees-with-color/bee-B1SF.svg\" width=\"200\">\n                    <p><span class=\"greenText\"><b>Successful harvest!</b></span><br>Your pay has increased by $0.02. Your bonus pay is now $0.74.</p>\n            ","response":0,"trial_type":"html-button-response","trial_index":66,"time_elapsed":240985,"internal_node_id":"0.0-4.0-1.29","subject_id":"616d94572dc3997fe205fa66","study_id":"6197b3f67c2b5cd3b6d9596a","session_id":"6197b9e6f99d132398b0636d","condition":"full-information","relevant_dimensions":["antennae","pattern"],"bee_group":{"antennae":"A","wings":"X","pattern":"D","legs":"X"},"bonus":0.5400000000000011},{"rt":1186.2000000476837,"stimulus":"bees-with-color/bee-A1DF.svg","response":1,"trial_type":"image-button-response","trial_index":67,"time_elapsed":242173,"internal_node_id":"0.0-4.0-0.30","subject_id":"616d94572dc3997fe205fa66","study_id":"6197b3f67c2b5cd3b6d9596a","session_id":"6197b9e6f99d132398b0636d","condition":"full-information","relevant_dimensions":["antennae","pattern"],"bee_group":{"antennae":"A","wings":"X","pattern":"D","legs":"X"},"action":"avoid","summary":"good-avoid","bonus":0.5400000000000011},{"rt":776.1000000238419,"stimulus":"\n                    <p><b>Action: <em>avoid</em></b></p>\n                    <p>This is the bee that you just saw.</p>\n                    <img src=\"bees-with-color/bee-A1DF.svg\" width=\"200\">\n                    <p><span class=\"greenText\">Good choice!</span>  This bee would have stung you.<br>Your bonus pay is unchanged, and remains at $0.74.</p>\n            ","response":0,"trial_type":"html-button-response","trial_index":68,"time_elapsed":242951,"internal_node_id":"0.0-4.0-1.30","subject_id":"616d94572dc3997fe205fa66","study_id":"6197b3f67c2b5cd3b6d9596a","session_id":"6197b9e6f99d132398b0636d","condition":"full-information","relevant_dimensions":["antennae","pattern"],"bee_group":{"antennae":"A","wings":"X","pattern":"D","legs":"X"},"bonus":0.5400000000000011},{"rt":1574.300000011921,"stimulus":"bees-with-color/bee-B2DM.svg","response":1,"trial_type":"image-button-response","trial_index":69,"time_elapsed":244527,"internal_node_id":"0.0-4.0-0.31","subject_id":"616d94572dc3997fe205fa66","study_id":"6197b3f67c2b5cd3b6d9596a","session_id":"6197b9e6f99d132398b0636d","condition":"full-information","relevant_dimensions":["antennae","pattern"],"bee_group":{"antennae":"A","wings":"X","pattern":"D","legs":"X"},"action":"avoid","summary":"bad-avoid","bonus":0.5400000000000011},{"rt":671.8999999761581,"stimulus":"\n                    <p><b>Action: <em>avoid</em></b></p>\n                    <p>This is the bee that you just saw.</p>\n                    <img src=\"bees-with-color/bee-B2DM.svg\" width=\"200\">\n                    <p><span class=\"redText\">Bad choice,</span> the bee was friendly.<br>Your bonus pay is unchanged, and remains at $0.74.</p>\n            ","response":0,"trial_type":"html-button-response","trial_index":70,"time_elapsed":245201,"internal_node_id":"0.0-4.0-1.31","subject_id":"616d94572dc3997fe205fa66","study_id":"6197b3f67c2b5cd3b6d9596a","session_id":"6197b9e6f99d132398b0636d","condition":"full-information","relevant_dimensions":["antennae","pattern"],"bee_group":{"antennae":"A","wings":"X","pattern":"D","legs":"X"},"bonus":0.5400000000000011},{"rt":1040.1000000238419,"stimulus":"bees-with-color/bee-B2SF.svg","response":0,"trial_type":"image-button-response","trial_index":71,"time_elapsed":246243,"internal_node_id":"0.0-4.0-0.32","subject_id":"616d94572dc3997fe205fa66","study_id":"6197b3f67c2b5cd3b6d9596a","session_id":"6197b9e6f99d132398b0636d","condition":"full-information","relevant_dimensions":["antennae","pattern"],"bee_group":{"antennae":"A","wings":"X","pattern":"D","legs":"X"},"action":"harvest","summary":"good-harvest","bonus":0.5400000000000011},{"rt":906.2000000476837,"stimulus":"\n                    <p><b>Action: <em>harvest</em></b></p>\n                    <p>This is the bee that you just saw.</p>\n                    <img src=\"bees-with-color/bee-B2SF.svg\" width=\"200\">\n                    <p><span class=\"greenText\"><b>Successful harvest!</b></span><br>Your pay has increased by $0.02. Your bonus pay is now $0.76.</p>\n            ","response":0,"trial_type":"html-button-response","trial_index":72,"time_elapsed":247151,"internal_node_id":"0.0-4.0-1.32","subject_id":"616d94572dc3997fe205fa66","study_id":"6197b3f67c2b5cd3b6d9596a","session_id":"6197b9e6f99d132398b0636d","condition":"full-information","relevant_dimensions":["antennae","pattern"],"bee_group":{"antennae":"A","wings":"X","pattern":"D","legs":"X"},"bonus":0.5400000000000011},{"rt":1136.199999988079,"stimulus":"bees-with-color/bee-A2SM.svg","response":0,"trial_type":"image-button-response","trial_index":73,"time_elapsed":248289,"internal_node_id":"0.0-4.0-0.33","subject_id":"616d94572dc3997fe205fa66","study_id":"6197b3f67c2b5cd3b6d9596a","session_id":"6197b9e6f99d132398b0636d","condition":"full-information","relevant_dimensions":["antennae","pattern"],"bee_group":{"antennae":"A","wings":"X","pattern":"D","legs":"X"},"action":"harvest","summary":"good-harvest","bonus":0.5400000000000011},{"rt":716,"stimulus":"\n                    <p><b>Action: <em>harvest</em></b></p>\n                    <p>This is the bee that you just saw.</p>\n                    <img src=\"bees-with-color/bee-A2SM.svg\" width=\"200\">\n                    <p><span class=\"greenText\"><b>Successful harvest!</b></span><br>Your pay has increased by $0.02. Your bonus pay is now $0.78.</p>\n            ","response":0,"trial_type":"html-button-response","trial_index":74,"time_elapsed":249007,"internal_node_id":"0.0-4.0-1.33","subject_id":"616d94572dc3997fe205fa66","study_id":"6197b3f67c2b5cd3b6d9596a","session_id":"6197b9e6f99d132398b0636d","condition":"full-information","relevant_dimensions":["antennae","pattern"],"bee_group":{"antennae":"A","wings":"X","pattern":"D","legs":"X"},"bonus":0.5400000000000011},{"rt":922.1999999880791,"stimulus":"bees-with-color/bee-B1SF.svg","response":0,"trial_type":"image-button-response","trial_index":75,"time_elapsed":249931,"internal_node_id":"0.0-4.0-0.34","subject_id":"616d94572dc3997fe205fa66","study_id":"6197b3f67c2b5cd3b6d9596a","session_id":"6197b9e6f99d132398b0636d","condition":"full-information","relevant_dimensions":["antennae","pattern"],"bee_group":{"antennae":"A","wings":"X","pattern":"D","legs":"X"},"action":"harvest","summary":"good-harvest","bonus":0.5400000000000011},{"rt":726.1000000238419,"stimulus":"\n                    <p><b>Action: <em>harvest</em></b></p>\n                    <p>This is the bee that you just saw.</p>\n                    <img src=\"bees-with-color/bee-B1SF.svg\" width=\"200\">\n                    <p><span class=\"greenText\"><b>Successful harvest!</b></span><br>Your pay has increased by $0.02. Your bonus pay is now $0.80.</p>\n            ","response":0,"trial_type":"html-button-response","trial_index":76,"time_elapsed":250659,"internal_node_id":"0.0-4.0-1.34","subject_id":"616d94572dc3997fe205fa66","study_id":"6197b3f67c2b5cd3b6d9596a","session_id":"6197b9e6f99d132398b0636d","condition":"full-information","relevant_dimensions":["antennae","pattern"],"bee_group":{"antennae":"A","wings":"X","pattern":"D","legs":"X"},"bonus":0.5400000000000011},{"rt":976.3000000119209,"stimulus":"bees-with-color/bee-A1DM.svg","response":1,"trial_type":"image-button-response","trial_index":77,"time_elapsed":251637,"internal_node_id":"0.0-4.0-0.35","subject_id":"616d94572dc3997fe205fa66","study_id":"6197b3f67c2b5cd3b6d9596a","session_id":"6197b9e6f99d132398b0636d","condition":"full-information","relevant_dimensions":["antennae","pattern"],"bee_group":{"antennae":"A","wings":"X","pattern":"D","legs":"X"},"action":"avoid","summary":"good-avoid","bonus":0.5400000000000011},{"rt":660,"stimulus":"\n                    <p><b>Action: <em>avoid</em></b></p>\n                    <p>This is the bee that you just saw.</p>\n                    <img src=\"bees-with-color/bee-A1DM.svg\" width=\"200\">\n                    <p><span class=\"greenText\">Good choice!</span>  This bee would have stung you.<br>Your bonus pay is unchanged, and remains at $0.80.</p>\n            ","response":0,"trial_type":"html-button-response","trial_index":78,"time_elapsed":252299,"internal_node_id":"0.0-4.0-1.35","subject_id":"616d94572dc3997fe205fa66","study_id":"6197b3f67c2b5cd3b6d9596a","session_id":"6197b9e6f99d132398b0636d","condition":"full-information","relevant_dimensions":["antennae","pattern"],"bee_group":{"antennae":"A","wings":"X","pattern":"D","legs":"X"},"bonus":0.5400000000000011},{"rt":1540.199999988079,"stimulus":"bees-with-color/bee-A2DM.svg","response":0,"trial_type":"image-button-response","trial_index":79,"time_elapsed":253841,"internal_node_id":"0.0-4.0-0.36","subject_id":"616d94572dc3997fe205fa66","study_id":"6197b3f67c2b5cd3b6d9596a","session_id":"6197b9e6f99d132398b0636d","condition":"full-information","relevant_dimensions":["antennae","pattern"],"bee_group":{"antennae":"A","wings":"X","pattern":"D","legs":"X"},"action":"harvest","summary":"bad-harvest","bonus":0.5400000000000011},{"rt":722,"stimulus":"\n                    <p><b>Action: <em>harvest</em></b></p>\n                    <p>This is the bee that you just saw.</p>\n                    <img src=\"bees-with-color/bee-A2DM.svg\" width=\"200\">\n                    <p><span class=\"redText\">Bad choice, the bee was angry.</span><br><b>You have been stung!</b><br>Your pay has been decreased by $0.10. Your bonus pay is now $0.70.</p>\n            ","response":0,"trial_type":"html-button-response","trial_index":80,"time_elapsed":254565,"internal_node_id":"0.0-4.0-1.36","subject_id":"616d94572dc3997fe205fa66","study_id":"6197b3f67c2b5cd3b6d9596a","session_id":"6197b9e6f99d132398b0636d","condition":"full-information","relevant_dimensions":["antennae","pattern"],"bee_group":{"antennae":"A","wings":"X","pattern":"D","legs":"X"},"bonus":0.5400000000000011},{"rt":1880.5,"stimulus":"bees-with-color/bee-B2SM.svg","response":0,"trial_type":"image-button-response","trial_index":81,"time_elapsed":256448,"internal_node_id":"0.0-4.0-0.37","subject_id":"616d94572dc3997fe205fa66","study_id":"6197b3f67c2b5cd3b6d9596a","session_id":"6197b9e6f99d132398b0636d","condition":"full-information","relevant_dimensions":["antennae","pattern"],"bee_group":{"antennae":"A","wings":"X","pattern":"D","legs":"X"},"action":"harvest","summary":"good-harvest","bonus":0.5400000000000011},{"rt":867.1999999880791,"stimulus":"\n                    <p><b>Action: <em>harvest</em></b></p>\n                    <p>This is the bee that you just saw.</p>\n                    <img src=\"bees-with-color/bee-B2SM.svg\" width=\"200\">\n                    <p><span class=\"greenText\"><b>Successful harvest!</b></span><br>Your pay has increased by $0.02. Your bonus pay is now $0.72.</p>\n            ","response":0,"trial_type":"html-button-response","trial_index":82,"time_elapsed":257317,"internal_node_id":"0.0-4.0-1.37","subject_id":"616d94572dc3997fe205fa66","study_id":"6197b3f67c2b5cd3b6d9596a","session_id":"6197b9e6f99d132398b0636d","condition":"full-information","relevant_dimensions":["antennae","pattern"],"bee_group":{"antennae":"A","wings":"X","pattern":"D","legs":"X"},"bonus":0.5400000000000011},{"rt":1295.9000000357628,"stimulus":"bees-with-color/bee-B1SM.svg","response":0,"trial_type":"image-button-response","trial_index":83,"time_elapsed":258615,"internal_node_id":"0.0-4.0-0.38","subject_id":"616d94572dc3997fe205fa66","study_id":"6197b3f67c2b5cd3b6d9596a","session_id":"6197b9e6f99d132398b0636d","condition":"full-information","relevant_dimensions":["antennae","pattern"],"bee_group":{"antennae":"A","wings":"X","pattern":"D","legs":"X"},"action":"harvest","summary":"good-harvest","bonus":0.5400000000000011},{"rt":593.8000000119209,"stimulus":"\n                    <p><b>Action: <em>harvest</em></b></p>\n                    <p>This is the bee that you just saw.</p>\n                    <img src=\"bees-with-color/bee-B1SM.svg\" width=\"200\">\n                    <p><span class=\"greenText\"><b>Successful harvest!</b></span><br>Your pay has increased by $0.02. Your bonus pay is now $0.74.</p>\n            ","response":0,"trial_type":"html-button-response","trial_index":84,"time_elapsed":259211,"internal_node_id":"0.0-4.0-1.38","subject_id":"616d94572dc3997fe205fa66","study_id":"6197b3f67c2b5cd3b6d9596a","session_id":"6197b9e6f99d132398b0636d","condition":"full-information","relevant_dimensions":["antennae","pattern"],"bee_group":{"antennae":"A","wings":"X","pattern":"D","legs":"X"},"bonus":0.5400000000000011},{"rt":1140.300000011921,"stimulus":"bees-with-color/bee-B1DM.svg","response":1,"trial_type":"image-button-response","trial_index":85,"time_elapsed":260353,"internal_node_id":"0.0-4.0-0.39","subject_id":"616d94572dc3997fe205fa66","study_id":"6197b3f67c2b5cd3b6d9596a","session_id":"6197b9e6f99d132398b0636d","condition":"full-information","relevant_dimensions":["antennae","pattern"],"bee_group":{"antennae":"A","wings":"X","pattern":"D","legs":"X"},"action":"avoid","summary":"bad-avoid","bonus":0.5400000000000011},{"rt":645.7999999523163,"stimulus":"\n                    <p><b>Action: <em>avoid</em></b></p>\n                    <p>This is the bee that you just saw.</p>\n                    <img src=\"bees-with-color/bee-B1DM.svg\" width=\"200\">\n                    <p><span class=\"redText\">Bad choice,</span> the bee was friendly.<br>Your bonus pay is unchanged, and remains at $0.74.</p>\n            ","response":0,"trial_type":"html-button-response","trial_index":86,"time_elapsed":261001,"internal_node_id":"0.0-4.0-1.39","subject_id":"616d94572dc3997fe205fa66","study_id":"6197b3f67c2b5cd3b6d9596a","session_id":"6197b9e6f99d132398b0636d","condition":"full-information","relevant_dimensions":["antennae","pattern"],"bee_group":{"antennae":"A","wings":"X","pattern":"D","legs":"X"},"bonus":0.5400000000000011},{"rt":940.3999999761581,"stimulus":"bees-with-color/bee-B2DF.svg","response":1,"trial_type":"image-button-response","trial_index":87,"time_elapsed":261943,"internal_node_id":"0.0-4.0-0.40","subject_id":"616d94572dc3997fe205fa66","study_id":"6197b3f67c2b5cd3b6d9596a","session_id":"6197b9e6f99d132398b0636d","condition":"full-information","relevant_dimensions":["antennae","pattern"],"bee_group":{"antennae":"A","wings":"X","pattern":"D","legs":"X"},"action":"avoid","summary":"bad-avoid","bonus":0.5400000000000011},{"rt":549.7000000476837,"stimulus":"\n                    <p><b>Action: <em>avoid</em></b></p>\n                    <p>This is the bee that you just saw.</p>\n                    <img src=\"bees-with-color/bee-B2DF.svg\" width=\"200\">\n                    <p><span class=\"redText\">Bad choice,</span> the bee was friendly.<br>Your bonus pay is unchanged, and remains at $0.74.</p>\n            ","response":0,"trial_type":"html-button-response","trial_index":88,"time_elapsed":262495,"internal_node_id":"0.0-4.0-1.40","subject_id":"616d94572dc3997fe205fa66","study_id":"6197b3f67c2b5cd3b6d9596a","session_id":"6197b9e6f99d132398b0636d","condition":"full-information","relevant_dimensions":["antennae","pattern"],"bee_group":{"antennae":"A","wings":"X","pattern":"D","legs":"X"},"bonus":0.5400000000000011},{"rt":1083.800000011921,"stimulus":"bees-with-color/bee-B1DF.svg","response":1,"trial_type":"image-button-response","trial_index":89,"time_elapsed":263581,"internal_node_id":"0.0-4.0-0.41","subject_id":"616d94572dc3997fe205fa66","study_id":"6197b3f67c2b5cd3b6d9596a","session_id":"6197b9e6f99d132398b0636d","condition":"full-information","relevant_dimensions":["antennae","pattern"],"bee_group":{"antennae":"A","wings":"X","pattern":"D","legs":"X"},"action":"avoid","summary":"bad-avoid","bonus":0.5400000000000011},{"rt":684.1000000238419,"stimulus":"\n                    <p><b>Action: <em>avoid</em></b></p>\n                    <p>This is the bee that you just saw.</p>\n                    <img src=\"bees-with-color/bee-B1DF.svg\" width=\"200\">\n                    <p><span class=\"redText\">Bad choice,</span> the bee was friendly.<br>Your bonus pay is unchanged, and remains at $0.74.</p>\n            ","response":0,"trial_type":"html-button-response","trial_index":90,"time_elapsed":264267,"internal_node_id":"0.0-4.0-1.41","subject_id":"616d94572dc3997fe205fa66","study_id":"6197b3f67c2b5cd3b6d9596a","session_id":"6197b9e6f99d132398b0636d","condition":"full-information","relevant_dimensions":["antennae","pattern"],"bee_group":{"antennae":"A","wings":"X","pattern":"D","legs":"X"},"bonus":0.5400000000000011},{"rt":886.2000000476837,"stimulus":"bees-with-color/bee-A1SM.svg","response":0,"trial_type":"image-button-response","trial_index":91,"time_elapsed":265155,"internal_node_id":"0.0-4.0-0.42","subject_id":"616d94572dc3997fe205fa66","study_id":"6197b3f67c2b5cd3b6d9596a","session_id":"6197b9e6f99d132398b0636d","condition":"full-information","relevant_dimensions":["antennae","pattern"],"bee_group":{"antennae":"A","wings":"X","pattern":"D","legs":"X"},"action":"harvest","summary":"good-harvest","bonus":0.5400000000000011},{"rt":571.8999999761581,"stimulus":"\n                    <p><b>Action: <em>harvest</em></b></p>\n                    <p>This is the bee that you just saw.</p>\n                    <img src=\"bees-with-color/bee-A1SM.svg\" width=\"200\">\n                    <p><span class=\"greenText\"><b>Successful harvest!</b></span><br>Your pay has increased by $0.02. Your bonus pay is now $0.76.</p>\n            ","response":0,"trial_type":"html-button-response","trial_index":92,"time_elapsed":265729,"internal_node_id":"0.0-4.0-1.42","subject_id":"616d94572dc3997fe205fa66","study_id":"6197b3f67c2b5cd3b6d9596a","session_id":"6197b9e6f99d132398b0636d","condition":"full-information","relevant_dimensions":["antennae","pattern"],"bee_group":{"antennae":"A","wings":"X","pattern":"D","legs":"X"},"bonus":0.5400000000000011},{"rt":1197.699999988079,"stimulus":"bees-with-color/bee-A2SF.svg","response":0,"trial_type":"image-button-response","trial_index":93,"time_elapsed":266929,"internal_node_id":"0.0-4.0-0.43","subject_id":"616d94572dc3997fe205fa66","study_id":"6197b3f67c2b5cd3b6d9596a","session_id":"6197b9e6f99d132398b0636d","condition":"full-information","relevant_dimensions":["antennae","pattern"],"bee_group":{"antennae":"A","wings":"X","pattern":"D","legs":"X"},"action":"harvest","summary":"good-harvest","bonus":0.5400000000000011},{"rt":545.1999999880791,"stimulus":"\n                    <p><b>Action: <em>harvest</em></b></p>\n                    <p>This is the bee that you just saw.</p>\n                    <img src=\"bees-with-color/bee-A2SF.svg\" width=\"200\">\n                    <p><span class=\"greenText\"><b>Successful harvest!</b></span><br>Your pay has increased by $0.02. Your bonus pay is now $0.78.</p>\n            ","response":0,"trial_type":"html-button-response","trial_index":94,"time_elapsed":267477,"internal_node_id":"0.0-4.0-1.43","subject_id":"616d94572dc3997fe205fa66","study_id":"6197b3f67c2b5cd3b6d9596a","session_id":"6197b9e6f99d132398b0636d","condition":"full-information","relevant_dimensions":["antennae","pattern"],"bee_group":{"antennae":"A","wings":"X","pattern":"D","legs":"X"},"bonus":0.5400000000000011},{"rt":1178.3999999761581,"stimulus":"bees-with-color/bee-B2DM.svg","response":1,"trial_type":"image-button-response","trial_index":95,"time_elapsed":268657,"internal_node_id":"0.0-4.0-0.44","subject_id":"616d94572dc3997fe205fa66","study_id":"6197b3f67c2b5cd3b6d9596a","session_id":"6197b9e6f99d132398b0636d","condition":"full-information","relevant_dimensions":["antennae","pattern"],"bee_group":{"antennae":"A","wings":"X","pattern":"D","legs":"X"},"action":"avoid","summary":"bad-avoid","bonus":0.5400000000000011},{"rt":589.0999999642372,"stimulus":"\n                    <p><b>Action: <em>avoid</em></b></p>\n                    <p>This is the bee that you just saw.</p>\n                    <img src=\"bees-with-color/bee-B2DM.svg\" width=\"200\">\n                    <p><span class=\"redText\">Bad choice,</span> the bee was friendly.<br>Your bonus pay is unchanged, and remains at $0.78.</p>\n            ","response":0,"trial_type":"html-button-response","trial_index":96,"time_elapsed":269248,"internal_node_id":"0.0-4.0-1.44","subject_id":"616d94572dc3997fe205fa66","study_id":"6197b3f67c2b5cd3b6d9596a","session_id":"6197b9e6f99d132398b0636d","condition":"full-information","relevant_dimensions":["antennae","pattern"],"bee_group":{"antennae":"A","wings":"X","pattern":"D","legs":"X"},"bonus":0.5400000000000011},{"rt":1172,"stimulus":"bees-with-color/bee-A1DF.svg","response":1,"trial_type":"image-button-response","trial_index":97,"time_elapsed":270421,"internal_node_id":"0.0-4.0-0.45","subject_id":"616d94572dc3997fe205fa66","study_id":"6197b3f67c2b5cd3b6d9596a","session_id":"6197b9e6f99d132398b0636d","condition":"full-information","relevant_dimensions":["antennae","pattern"],"bee_group":{"antennae":"A","wings":"X","pattern":"D","legs":"X"},"action":"avoid","summary":"good-avoid","bonus":0.5400000000000011},{"rt":666.1999999880791,"stimulus":"\n                    <p><b>Action: <em>avoid</em></b></p>\n                    <p>This is the bee that you just saw.</p>\n                    <img src=\"bees-with-color/bee-A1DF.svg\" width=\"200\">\n                    <p><span class=\"greenText\">Good choice!</span>  This bee would have stung you.<br>Your bonus pay is unchanged, and remains at $0.78.</p>\n            ","response":0,"trial_type":"html-button-response","trial_index":98,"time_elapsed":271089,"internal_node_id":"0.0-4.0-1.45","subject_id":"616d94572dc3997fe205fa66","study_id":"6197b3f67c2b5cd3b6d9596a","session_id":"6197b9e6f99d132398b0636d","condition":"full-information","relevant_dimensions":["antennae","pattern"],"bee_group":{"antennae":"A","wings":"X","pattern":"D","legs":"X"},"bonus":0.5400000000000011},{"rt":993.1999999880791,"stimulus":"bees-with-color/bee-A1SF.svg","response":0,"trial_type":"image-button-response","trial_index":99,"time_elapsed":272084,"internal_node_id":"0.0-4.0-0.46","subject_id":"616d94572dc3997fe205fa66","study_id":"6197b3f67c2b5cd3b6d9596a","session_id":"6197b9e6f99d132398b0636d","condition":"full-information","relevant_dimensions":["antennae","pattern"],"bee_group":{"antennae":"A","wings":"X","pattern":"D","legs":"X"},"action":"harvest","summary":"good-harvest","bonus":0.5400000000000011},{"rt":637.5,"stimulus":"\n                    <p><b>Action: <em>harvest</em></b></p>\n                    <p>This is the bee that you just saw.</p>\n                    <img src=\"bees-with-color/bee-A1SF.svg\" width=\"200\">\n                    <p><span class=\"greenText\"><b>Successful harvest!</b></span><br>Your pay has increased by $0.02. Your bonus pay is now $0.80.</p>\n            ","response":0,"trial_type":"html-button-response","trial_index":100,"time_elapsed":272723,"internal_node_id":"0.0-4.0-1.46","subject_id":"616d94572dc3997fe205fa66","study_id":"6197b3f67c2b5cd3b6d9596a","session_id":"6197b9e6f99d132398b0636d","condition":"full-information","relevant_dimensions":["antennae","pattern"],"bee_group":{"antennae":"A","wings":"X","pattern":"D","legs":"X"},"bonus":0.5400000000000011},{"rt":870.5,"stimulus":"bees-with-color/bee-A2DF.svg","response":0,"trial_type":"image-button-response","trial_index":101,"time_elapsed":273595,"internal_node_id":"0.0-4.0-0.47","subject_id":"616d94572dc3997fe205fa66","study_id":"6197b3f67c2b5cd3b6d9596a","session_id":"6197b9e6f99d132398b0636d","condition":"full-information","relevant_dimensions":["antennae","pattern"],"bee_group":{"antennae":"A","wings":"X","pattern":"D","legs":"X"},"action":"harvest","summary":"bad-harvest","bonus":0.5400000000000011},{"rt":1325.5,"stimulus":"\n                    <p><b>Action: <em>harvest</em></b></p>\n                    <p>This is the bee that you just saw.</p>\n                    <img src=\"bees-with-color/bee-A2DF.svg\" width=\"200\">\n                    <p><span class=\"redText\">Bad choice, the bee was angry.</span><br><b>You have been stung!</b><br>Your pay has been decreased by $0.10. Your bonus pay is now $0.70.</p>\n            ","response":0,"trial_type":"html-button-response","trial_index":102,"time_elapsed":274923,"internal_node_id":"0.0-4.0-1.47","subject_id":"616d94572dc3997fe205fa66","study_id":"6197b3f67c2b5cd3b6d9596a","session_id":"6197b9e6f99d132398b0636d","condition":"full-information","relevant_dimensions":["antennae","pattern"],"bee_group":{"antennae":"A","wings":"X","pattern":"D","legs":"X"},"bonus":0.5400000000000011},{"rt":1272.800000011921,"stimulus":"bees-with-color/bee-A1DF.svg","response":0,"trial_type":"image-button-response","trial_index":103,"time_elapsed":276197,"internal_node_id":"0.0-4.0-0.48","subject_id":"616d94572dc3997fe205fa66","study_id":"6197b3f67c2b5cd3b6d9596a","session_id":"6197b9e6f99d132398b0636d","condition":"full-information","relevant_dimensions":["antennae","pattern"],"bee_group":{"antennae":"A","wings":"X","pattern":"D","legs":"X"},"action":"harvest","summary":"bad-harvest","bonus":0.5400000000000011},{"rt":592,"stimulus":"\n                    <p><b>Action: <em>harvest</em></b></p>\n                    <p>This is the bee that you just saw.</p>\n                    <img src=\"bees-with-color/bee-A1DF.svg\" width=\"200\">\n                    <p><span class=\"redText\">Bad choice, the bee was angry.</span><br><b>You have been stung!</b><br>Your pay has been decreased by $0.10. Your bonus pay is now $0.60.</p>\n            ","response":0,"trial_type":"html-button-response","trial_index":104,"time_elapsed":276791,"internal_node_id":"0.0-4.0-1.48","subject_id":"616d94572dc3997fe205fa66","study_id":"6197b3f67c2b5cd3b6d9596a","session_id":"6197b9e6f99d132398b0636d","condition":"full-information","relevant_dimensions":["antennae","pattern"],"bee_group":{"antennae":"A","wings":"X","pattern":"D","legs":"X"},"bonus":0.5400000000000011},{"rt":1247.800000011921,"stimulus":"bees-with-color/bee-B1DF.svg","response":1,"trial_type":"image-button-response","trial_index":105,"time_elapsed":278041,"internal_node_id":"0.0-4.0-0.49","subject_id":"616d94572dc3997fe205fa66","study_id":"6197b3f67c2b5cd3b6d9596a","session_id":"6197b9e6f99d132398b0636d","condition":"full-information","relevant_dimensions":["antennae","pattern"],"bee_group":{"antennae":"A","wings":"X","pattern":"D","legs":"X"},"action":"avoid","summary":"bad-avoid","bonus":0.5400000000000011},{"rt":660.6000000238419,"stimulus":"\n                    <p><b>Action: <em>avoid</em></b></p>\n                    <p>This is the bee that you just saw.</p>\n                    <img src=\"bees-with-color/bee-B1DF.svg\" width=\"200\">\n                    <p><span class=\"redText\">Bad choice,</span> the bee was friendly.<br>Your bonus pay is unchanged, and remains at $0.60.</p>\n            ","response":0,"trial_type":"html-button-response","trial_index":106,"time_elapsed":278703,"internal_node_id":"0.0-4.0-1.49","subject_id":"616d94572dc3997fe205fa66","study_id":"6197b3f67c2b5cd3b6d9596a","session_id":"6197b9e6f99d132398b0636d","condition":"full-information","relevant_dimensions":["antennae","pattern"],"bee_group":{"antennae":"A","wings":"X","pattern":"D","legs":"X"},"bonus":0.5400000000000011},{"rt":910.6000000238419,"stimulus":"bees-with-color/bee-A2SF.svg","response":0,"trial_type":"image-button-response","trial_index":107,"time_elapsed":279615,"internal_node_id":"0.0-4.0-0.50","subject_id":"616d94572dc3997fe205fa66","study_id":"6197b3f67c2b5cd3b6d9596a","session_id":"6197b9e6f99d132398b0636d","condition":"full-information","relevant_dimensions":["antennae","pattern"],"bee_group":{"antennae":"A","wings":"X","pattern":"D","legs":"X"},"action":"harvest","summary":"good-harvest","bonus":0.5400000000000011},{"rt":1006.3999999761581,"stimulus":"\n                    <p><b>Action: <em>harvest</em></b></p>\n                    <p>This is the bee that you just saw.</p>\n                    <img src=\"bees-with-color/bee-A2SF.svg\" width=\"200\">\n                    <p><span class=\"greenText\"><b>Successful harvest!</b></span><br>Your pay has increased by $0.02. Your bonus pay is now $0.62.</p>\n            ","response":0,"trial_type":"html-button-response","trial_index":108,"time_elapsed":280623,"internal_node_id":"0.0-4.0-1.50","subject_id":"616d94572dc3997fe205fa66","study_id":"6197b3f67c2b5cd3b6d9596a","session_id":"6197b9e6f99d132398b0636d","condition":"full-information","relevant_dimensions":["antennae","pattern"],"bee_group":{"antennae":"A","wings":"X","pattern":"D","legs":"X"},"bonus":0.5400000000000011},{"rt":1334.800000011921,"stimulus":"bees-with-color/bee-A2DF.svg","response":0,"trial_type":"image-button-response","trial_index":109,"time_elapsed":281959,"internal_node_id":"0.0-4.0-0.51","subject_id":"616d94572dc3997fe205fa66","study_id":"6197b3f67c2b5cd3b6d9596a","session_id":"6197b9e6f99d132398b0636d","condition":"full-information","relevant_dimensions":["antennae","pattern"],"bee_group":{"antennae":"A","wings":"X","pattern":"D","legs":"X"},"action":"harvest","summary":"bad-harvest","bonus":0.5400000000000011},{"rt":624.5,"stimulus":"\n                    <p><b>Action: <em>harvest</em></b></p>\n                    <p>This is the bee that you just saw.</p>\n                    <img src=\"bees-with-color/bee-A2DF.svg\" width=\"200\">\n                    <p><span class=\"redText\">Bad choice, the bee was angry.</span><br><b>You have been stung!</b><br>Your pay has been decreased by $0.10. Your bonus pay is now $0.52.</p>\n            ","response":0,"trial_type":"html-button-response","trial_index":110,"time_elapsed":282585,"internal_node_id":"0.0-4.0-1.51","subject_id":"616d94572dc3997fe205fa66","study_id":"6197b3f67c2b5cd3b6d9596a","session_id":"6197b9e6f99d132398b0636d","condition":"full-information","relevant_dimensions":["antennae","pattern"],"bee_group":{"antennae":"A","wings":"X","pattern":"D","legs":"X"},"bonus":0.5400000000000011},{"rt":922.8000000119209,"stimulus":"bees-with-color/bee-B2SM.svg","response":0,"trial_type":"image-button-response","trial_index":111,"time_elapsed":283509,"internal_node_id":"0.0-4.0-0.52","subject_id":"616d94572dc3997fe205fa66","study_id":"6197b3f67c2b5cd3b6d9596a","session_id":"6197b9e6f99d132398b0636d","condition":"full-information","relevant_dimensions":["antennae","pattern"],"bee_group":{"antennae":"A","wings":"X","pattern":"D","legs":"X"},"action":"harvest","summary":"good-harvest","bonus":0.5400000000000011},{"rt":522.2999999523163,"stimulus":"\n                    <p><b>Action: <em>harvest</em></b></p>\n                    <p>This is the bee that you just saw.</p>\n                    <img src=\"bees-with-color/bee-B2SM.svg\" width=\"200\">\n                    <p><span class=\"greenText\"><b>Successful harvest!</b></span><br>Your pay has increased by $0.02. Your bonus pay is now $0.54.</p>\n            ","response":0,"trial_type":"html-button-response","trial_index":112,"time_elapsed":284033,"internal_node_id":"0.0-4.0-1.52","subject_id":"616d94572dc3997fe205fa66","study_id":"6197b3f67c2b5cd3b6d9596a","session_id":"6197b9e6f99d132398b0636d","condition":"full-information","relevant_dimensions":["antennae","pattern"],"bee_group":{"antennae":"A","wings":"X","pattern":"D","legs":"X"},"bonus":0.5400000000000011},{"rt":1420.6000000238419,"stimulus":"bees-with-color/bee-B1DM.svg","response":1,"trial_type":"image-button-response","trial_index":113,"time_elapsed":285455,"internal_node_id":"0.0-4.0-0.53","subject_id":"616d94572dc3997fe205fa66","study_id":"6197b3f67c2b5cd3b6d9596a","session_id":"6197b9e6f99d132398b0636d","condition":"full-information","relevant_dimensions":["antennae","pattern"],"bee_group":{"antennae":"A","wings":"X","pattern":"D","legs":"X"},"action":"avoid","summary":"bad-avoid","bonus":0.5400000000000011},{"rt":706.1999999880791,"stimulus":"\n                    <p><b>Action: <em>avoid</em></b></p>\n                    <p>This is the bee that you just saw.</p>\n                    <img src=\"bees-with-color/bee-B1DM.svg\" width=\"200\">\n                    <p><span class=\"redText\">Bad choice,</span> the bee was friendly.<br>Your bonus pay is unchanged, and remains at $0.54.</p>\n            ","response":0,"trial_type":"html-button-response","trial_index":114,"time_elapsed":286163,"internal_node_id":"0.0-4.0-1.53","subject_id":"616d94572dc3997fe205fa66","study_id":"6197b3f67c2b5cd3b6d9596a","session_id":"6197b9e6f99d132398b0636d","condition":"full-information","relevant_dimensions":["antennae","pattern"],"bee_group":{"antennae":"A","wings":"X","pattern":"D","legs":"X"},"bonus":0.5400000000000011},{"rt":898.6000000238419,"stimulus":"bees-with-color/bee-B2DF.svg","response":1,"trial_type":"image-button-response","trial_index":115,"time_elapsed":287063,"internal_node_id":"0.0-4.0-0.54","subject_id":"616d94572dc3997fe205fa66","study_id":"6197b3f67c2b5cd3b6d9596a","session_id":"6197b9e6f99d132398b0636d","condition":"full-information","relevant_dimensions":["antennae","pattern"],"bee_group":{"antennae":"A","wings":"X","pattern":"D","legs":"X"},"action":"avoid","summary":"bad-avoid","bonus":0.5400000000000011},{"rt":544.3999999761581,"stimulus":"\n                    <p><b>Action: <em>avoid</em></b></p>\n                    <p>This is the bee that you just saw.</p>\n                    <img src=\"bees-with-color/bee-B2DF.svg\" width=\"200\">\n                    <p><span class=\"redText\">Bad choice,</span> the bee was friendly.<br>Your bonus pay is unchanged, and remains at $0.54.</p>\n            ","response":0,"trial_type":"html-button-response","trial_index":116,"time_elapsed":287609,"internal_node_id":"0.0-4.0-1.54","subject_id":"616d94572dc3997fe205fa66","study_id":"6197b3f67c2b5cd3b6d9596a","session_id":"6197b9e6f99d132398b0636d","condition":"full-information","relevant_dimensions":["antennae","pattern"],"bee_group":{"antennae":"A","wings":"X","pattern":"D","legs":"X"},"bonus":0.5400000000000011},{"rt":944.5,"stimulus":"bees-with-color/bee-A1SM.svg","response":0,"trial_type":"image-button-response","trial_index":117,"time_elapsed":288555,"internal_node_id":"0.0-4.0-0.55","subject_id":"616d94572dc3997fe205fa66","study_id":"6197b3f67c2b5cd3b6d9596a","session_id":"6197b9e6f99d132398b0636d","condition":"full-information","relevant_dimensions":["antennae","pattern"],"bee_group":{"antennae":"A","wings":"X","pattern":"D","legs":"X"},"action":"harvest","summary":"good-harvest","bonus":0.5400000000000011},{"rt":620.1999999880791,"stimulus":"\n                    <p><b>Action: <em>harvest</em></b></p>\n                    <p>This is the bee that you just saw.</p>\n                    <img src=\"bees-with-color/bee-A1SM.svg\" width=\"200\">\n                    <p><span class=\"greenText\"><b>Successful harvest!</b></span><br>Your pay has increased by $0.02. Your bonus pay is now $0.56.</p>\n            ","response":0,"trial_type":"html-button-response","trial_index":118,"time_elapsed":289177,"internal_node_id":"0.0-4.0-1.55","subject_id":"616d94572dc3997fe205fa66","study_id":"6197b3f67c2b5cd3b6d9596a","session_id":"6197b9e6f99d132398b0636d","condition":"full-information","relevant_dimensions":["antennae","pattern"],"bee_group":{"antennae":"A","wings":"X","pattern":"D","legs":"X"},"bonus":0.5400000000000011},{"rt":738.3000000119209,"stimulus":"bees-with-color/bee-B1SM.svg","response":0,"trial_type":"image-button-response","trial_index":119,"time_elapsed":289917,"internal_node_id":"0.0-4.0-0.56","subject_id":"616d94572dc3997fe205fa66","study_id":"6197b3f67c2b5cd3b6d9596a","session_id":"6197b9e6f99d132398b0636d","condition":"full-information","relevant_dimensions":["antennae","pattern"],"bee_group":{"antennae":"A","wings":"X","pattern":"D","legs":"X"},"action":"harvest","summary":"good-harvest","bonus":0.5400000000000011},{"rt":528.2999999523163,"stimulus":"\n                    <p><b>Action: <em>harvest</em></b></p>\n                    <p>This is the bee that you just saw.</p>\n                    <img src=\"bees-with-color/bee-B1SM.svg\" width=\"200\">\n                    <p><span class=\"greenText\"><b>Successful harvest!</b></span><br>Your pay has increased by $0.02. Your bonus pay is now $0.58.</p>\n            ","response":0,"trial_type":"html-button-response","trial_index":120,"time_elapsed":290447,"internal_node_id":"0.0-4.0-1.56","subject_id":"616d94572dc3997fe205fa66","study_id":"6197b3f67c2b5cd3b6d9596a","session_id":"6197b9e6f99d132398b0636d","condition":"full-information","relevant_dimensions":["antennae","pattern"],"bee_group":{"antennae":"A","wings":"X","pattern":"D","legs":"X"},"bonus":0.5400000000000011},{"rt":1252.6000000238419,"stimulus":"bees-with-color/bee-A2DM.svg","response":0,"trial_type":"image-button-response","trial_index":121,"time_elapsed":291701,"internal_node_id":"0.0-4.0-0.57","subject_id":"616d94572dc3997fe205fa66","study_id":"6197b3f67c2b5cd3b6d9596a","session_id":"6197b9e6f99d132398b0636d","condition":"full-information","relevant_dimensions":["antennae","pattern"],"bee_group":{"antennae":"A","wings":"X","pattern":"D","legs":"X"},"action":"harvest","summary":"bad-harvest","bonus":0.5400000000000011},{"rt":658.1999999880791,"stimulus":"\n                    <p><b>Action: <em>harvest</em></b></p>\n                    <p>This is the bee that you just saw.</p>\n                    <img src=\"bees-with-color/bee-A2DM.svg\" width=\"200\">\n                    <p><span class=\"redText\">Bad choice, the bee was angry.</span><br><b>You have been stung!</b><br>Your pay has been decreased by $0.10. Your bonus pay is now $0.48.</p>\n            ","response":0,"trial_type":"html-button-response","trial_index":122,"time_elapsed":292361,"internal_node_id":"0.0-4.0-1.57","subject_id":"616d94572dc3997fe205fa66","study_id":"6197b3f67c2b5cd3b6d9596a","session_id":"6197b9e6f99d132398b0636d","condition":"full-information","relevant_dimensions":["antennae","pattern"],"bee_group":{"antennae":"A","wings":"X","pattern":"D","legs":"X"},"bonus":0.5400000000000011},{"rt":3566.199999988079,"stimulus":"bees-with-color/bee-A2SM.svg","response":0,"trial_type":"image-button-response","trial_index":123,"time_elapsed":295929,"internal_node_id":"0.0-4.0-0.58","subject_id":"616d94572dc3997fe205fa66","study_id":"6197b3f67c2b5cd3b6d9596a","session_id":"6197b9e6f99d132398b0636d","condition":"full-information","relevant_dimensions":["antennae","pattern"],"bee_group":{"antennae":"A","wings":"X","pattern":"D","legs":"X"},"action":"harvest","summary":"good-harvest","bonus":0.5400000000000011},{"rt":524.3000000119209,"stimulus":"\n                    <p><b>Action: <em>harvest</em></b></p>\n                    <p>This is the bee that you just saw.</p>\n                    <img src=\"bees-with-color/bee-A2SM.svg\" width=\"200\">\n                    <p><span class=\"greenText\"><b>Successful harvest!</b></span><br>Your pay has increased by $0.02. Your bonus pay is now $0.50.</p>\n            ","response":0,"trial_type":"html-button-response","trial_index":124,"time_elapsed":296455,"internal_node_id":"0.0-4.0-1.58","subject_id":"616d94572dc3997fe205fa66","study_id":"6197b3f67c2b5cd3b6d9596a","session_id":"6197b9e6f99d132398b0636d","condition":"full-information","relevant_dimensions":["antennae","pattern"],"bee_group":{"antennae":"A","wings":"X","pattern":"D","legs":"X"},"bonus":0.5400000000000011},{"rt":1532.2000000476837,"stimulus":"bees-with-color/bee-B1SF.svg","response":0,"trial_type":"image-button-response","trial_index":125,"time_elapsed":297990,"internal_node_id":"0.0-4.0-0.59","subject_id":"616d94572dc3997fe205fa66","study_id":"6197b3f67c2b5cd3b6d9596a","session_id":"6197b9e6f99d132398b0636d","condition":"full-information","relevant_dimensions":["antennae","pattern"],"bee_group":{"antennae":"A","wings":"X","pattern":"D","legs":"X"},"action":"harvest","summary":"good-harvest","bonus":0.5400000000000011},{"rt":830,"stimulus":"\n                    <p><b>Action: <em>harvest</em></b></p>\n                    <p>This is the bee that you just saw.</p>\n                    <img src=\"bees-with-color/bee-B1SF.svg\" width=\"200\">\n                    <p><span class=\"greenText\"><b>Successful harvest!</b></span><br>Your pay has increased by $0.02. Your bonus pay is now $0.52.</p>\n            ","response":0,"trial_type":"html-button-response","trial_index":126,"time_elapsed":298822,"internal_node_id":"0.0-4.0-1.59","subject_id":"616d94572dc3997fe205fa66","study_id":"6197b3f67c2b5cd3b6d9596a","session_id":"6197b9e6f99d132398b0636d","condition":"full-information","relevant_dimensions":["antennae","pattern"],"bee_group":{"antennae":"A","wings":"X","pattern":"D","legs":"X"},"bonus":0.5400000000000011},{"rt":3034.399999976158,"stimulus":"bees-with-color/bee-B2DM.svg","response":0,"trial_type":"image-button-response","trial_index":127,"time_elapsed":301858,"internal_node_id":"0.0-4.0-0.60","subject_id":"616d94572dc3997fe205fa66","study_id":"6197b3f67c2b5cd3b6d9596a","session_id":"6197b9e6f99d132398b0636d","condition":"full-information","relevant_dimensions":["antennae","pattern"],"bee_group":{"antennae":"A","wings":"X","pattern":"D","legs":"X"},"action":"harvest","summary":"good-harvest","bonus":0.5400000000000011},{"rt":624.3000000119209,"stimulus":"\n                    <p><b>Action: <em>harvest</em></b></p>\n                    <p>This is the bee that you just saw.</p>\n                    <img src=\"bees-with-color/bee-B2DM.svg\" width=\"200\">\n                    <p><span class=\"greenText\"><b>Successful harvest!</b></span><br>Your pay has increased by $0.02. Your bonus pay is now $0.54.</p>\n            ","response":0,"trial_type":"html-button-response","trial_index":128,"time_elapsed":302484,"internal_node_id":"0.0-4.0-1.60","subject_id":"616d94572dc3997fe205fa66","study_id":"6197b3f67c2b5cd3b6d9596a","session_id":"6197b9e6f99d132398b0636d","condition":"full-information","relevant_dimensions":["antennae","pattern"],"bee_group":{"antennae":"A","wings":"X","pattern":"D","legs":"X"},"bonus":0.5400000000000011},{"rt":1066.1000000238419,"stimulus":"bees-with-color/bee-B2SF.svg","response":0,"trial_type":"image-button-response","trial_index":129,"time_elapsed":303552,"internal_node_id":"0.0-4.0-0.61","subject_id":"616d94572dc3997fe205fa66","study_id":"6197b3f67c2b5cd3b6d9596a","session_id":"6197b9e6f99d132398b0636d","condition":"full-information","relevant_dimensions":["antennae","pattern"],"bee_group":{"antennae":"A","wings":"X","pattern":"D","legs":"X"},"action":"harvest","summary":"good-harvest","bonus":0.5400000000000011},{"rt":892.3999999761581,"stimulus":"\n                    <p><b>Action: <em>harvest</em></b></p>\n                    <p>This is the bee that you just saw.</p>\n                    <img src=\"bees-with-color/bee-B2SF.svg\" width=\"200\">\n                    <p><span class=\"greenText\"><b>Successful harvest!</b></span><br>Your pay has increased by $0.02. Your bonus pay is now $0.56.</p>\n            ","response":0,"trial_type":"html-button-response","trial_index":130,"time_elapsed":304446,"internal_node_id":"0.0-4.0-1.61","subject_id":"616d94572dc3997fe205fa66","study_id":"6197b3f67c2b5cd3b6d9596a","session_id":"6197b9e6f99d132398b0636d","condition":"full-information","relevant_dimensions":["antennae","pattern"],"bee_group":{"antennae":"A","wings":"X","pattern":"D","legs":"X"},"bonus":0.5400000000000011},{"rt":993.8999999761581,"stimulus":"bees-with-color/bee-A1DM.svg","response":1,"trial_type":"image-button-response","trial_index":131,"time_elapsed":305442,"internal_node_id":"0.0-4.0-0.62","subject_id":"616d94572dc3997fe205fa66","study_id":"6197b3f67c2b5cd3b6d9596a","session_id":"6197b9e6f99d132398b0636d","condition":"full-information","relevant_dimensions":["antennae","pattern"],"bee_group":{"antennae":"A","wings":"X","pattern":"D","legs":"X"},"action":"avoid","summary":"good-avoid","bonus":0.5400000000000011},{"rt":530.1999999880791,"stimulus":"\n                    <p><b>Action: <em>avoid</em></b></p>\n                    <p>This is the bee that you just saw.</p>\n                    <img src=\"bees-with-color/bee-A1DM.svg\" width=\"200\">\n                    <p><span class=\"greenText\">Good choice!</span>  This bee would have stung you.<br>Your bonus pay is unchanged, and remains at $0.56.</p>\n            ","response":0,"trial_type":"html-button-response","trial_index":132,"time_elapsed":305974,"internal_node_id":"0.0-4.0-1.62","subject_id":"616d94572dc3997fe205fa66","study_id":"6197b3f67c2b5cd3b6d9596a","session_id":"6197b9e6f99d132398b0636d","condition":"full-information","relevant_dimensions":["antennae","pattern"],"bee_group":{"antennae":"A","wings":"X","pattern":"D","legs":"X"},"bonus":0.5400000000000011},{"rt":804.3999999761581,"stimulus":"bees-with-color/bee-A1SF.svg","response":0,"trial_type":"image-button-response","trial_index":133,"time_elapsed":306780,"internal_node_id":"0.0-4.0-0.63","subject_id":"616d94572dc3997fe205fa66","study_id":"6197b3f67c2b5cd3b6d9596a","session_id":"6197b9e6f99d132398b0636d","condition":"full-information","relevant_dimensions":["antennae","pattern"],"bee_group":{"antennae":"A","wings":"X","pattern":"D","legs":"X"},"action":"harvest","summary":"good-harvest","bonus":0.5400000000000011},{"rt":1248.1000000238419,"stimulus":"\n                    <p><b>Action: <em>harvest</em></b></p>\n                    <p>This is the bee that you just saw.</p>\n                    <img src=\"bees-with-color/bee-A1SF.svg\" width=\"200\">\n                    <p><span class=\"greenText\"><b>Successful harvest!</b></span><br>Your pay has increased by $0.02. Your bonus pay is now $0.58.</p>\n            ","response":0,"trial_type":"html-button-response","trial_index":134,"time_elapsed":308030,"internal_node_id":"0.0-4.0-1.63","subject_id":"616d94572dc3997fe205fa66","study_id":"6197b3f67c2b5cd3b6d9596a","session_id":"6197b9e6f99d132398b0636d","condition":"full-information","relevant_dimensions":["antennae","pattern"],"bee_group":{"antennae":"A","wings":"X","pattern":"D","legs":"X"},"bonus":0.5400000000000011},{"rt":6465.199999988079,"stimulus":"You have completed the first part of this experiment.<br><br>You will now begin a shorter second part, in which you will receive no feedback.<br>The same rules regarding bonus pay apply.<br><br>Press any key to begin.","response":" ","trial_type":"html-keyboard-response","trial_index":135,"time_elapsed":314496,"internal_node_id":"0.0-5.0","subject_id":"616d94572dc3997fe205fa66","study_id":"6197b3f67c2b5cd3b6d9596a","session_id":"6197b9e6f99d132398b0636d","condition":"full-information","relevant_dimensions":["antennae","pattern"],"bee_group":{"antennae":"A","wings":"X","pattern":"D","legs":"X"},"bonus":0.5400000000000011},{"rt":2438.800000011921,"stimulus":"bees-with-color/bee-A2SF.svg","response":0,"trial_type":"image-button-response","trial_index":136,"time_elapsed":316950,"internal_node_id":"0.0-6.0-0.0","subject_id":"616d94572dc3997fe205fa66","study_id":"6197b3f67c2b5cd3b6d9596a","session_id":"6197b9e6f99d132398b0636d","condition":"full-information","relevant_dimensions":["antennae","pattern"],"bee_group":{"antennae":"A","wings":"X","pattern":"D","legs":"X"},"bonus":0.5400000000000011},{"rt":3097.699999988079,"stimulus":"bees-with-color/bee-B2SF.svg","response":0,"trial_type":"image-button-response","trial_index":137,"time_elapsed":320050,"internal_node_id":"0.0-6.0-0.1","subject_id":"616d94572dc3997fe205fa66","study_id":"6197b3f67c2b5cd3b6d9596a","session_id":"6197b9e6f99d132398b0636d","condition":"full-information","relevant_dimensions":["antennae","pattern"],"bee_group":{"antennae":"A","wings":"X","pattern":"D","legs":"X"},"bonus":0.5400000000000011},{"rt":2067.600000023842,"stimulus":"bees-with-color/bee-A1SM.svg","response":0,"trial_type":"image-button-response","trial_index":138,"time_elapsed":322120,"internal_node_id":"0.0-6.0-0.2","subject_id":"616d94572dc3997fe205fa66","study_id":"6197b3f67c2b5cd3b6d9596a","session_id":"6197b9e6f99d132398b0636d","condition":"full-information","relevant_dimensions":["antennae","pattern"],"bee_group":{"antennae":"A","wings":"X","pattern":"D","legs":"X"},"bonus":0.5400000000000011},{"rt":1075.800000011921,"stimulus":"bees-with-color/bee-A1DM.svg","response":1,"trial_type":"image-button-response","trial_index":139,"time_elapsed":323198,"internal_node_id":"0.0-6.0-0.3","subject_id":"616d94572dc3997fe205fa66","study_id":"6197b3f67c2b5cd3b6d9596a","session_id":"6197b9e6f99d132398b0636d","condition":"full-information","relevant_dimensions":["antennae","pattern"],"bee_group":{"antennae":"A","wings":"X","pattern":"D","legs":"X"},"bonus":0.5400000000000011},{"rt":3861.899999976158,"stimulus":"bees-with-color/bee-A2DF.svg","response":0,"trial_type":"image-button-response","trial_index":140,"time_elapsed":327062,"internal_node_id":"0.0-6.0-0.4","subject_id":"616d94572dc3997fe205fa66","study_id":"6197b3f67c2b5cd3b6d9596a","session_id":"6197b9e6f99d132398b0636d","condition":"full-information","relevant_dimensions":["antennae","pattern"],"bee_group":{"antennae":"A","wings":"X","pattern":"D","legs":"X"},"bonus":0.5400000000000011},{"rt":1443.800000011921,"stimulus":"bees-with-color/bee-B1DF.svg","response":1,"trial_type":"image-button-response","trial_index":141,"time_elapsed":328508,"internal_node_id":"0.0-6.0-0.5","subject_id":"616d94572dc3997fe205fa66","study_id":"6197b3f67c2b5cd3b6d9596a","session_id":"6197b9e6f99d132398b0636d","condition":"full-information","relevant_dimensions":["antennae","pattern"],"bee_group":{"antennae":"A","wings":"X","pattern":"D","legs":"X"},"bonus":0.5400000000000011},{"rt":2407.699999988079,"stimulus":"bees-with-color/bee-B2DM.svg","response":0,"trial_type":"image-button-response","trial_index":142,"time_elapsed":330918,"internal_node_id":"0.0-6.0-0.6","subject_id":"616d94572dc3997fe205fa66","study_id":"6197b3f67c2b5cd3b6d9596a","session_id":"6197b9e6f99d132398b0636d","condition":"full-information","relevant_dimensions":["antennae","pattern"],"bee_group":{"antennae":"A","wings":"X","pattern":"D","legs":"X"},"bonus":0.5400000000000011},{"rt":1146,"stimulus":"bees-with-color/bee-B2DF.svg","response":1,"trial_type":"image-button-response","trial_index":143,"time_elapsed":332066,"internal_node_id":"0.0-6.0-0.7","subject_id":"616d94572dc3997fe205fa66","study_id":"6197b3f67c2b5cd3b6d9596a","session_id":"6197b9e6f99d132398b0636d","condition":"full-information","relevant_dimensions":["antennae","pattern"],"bee_group":{"antennae":"A","wings":"X","pattern":"D","legs":"X"},"bonus":0.5400000000000011},{"rt":1097.8999999761581,"stimulus":"bees-with-color/bee-B2SM.svg","response":0,"trial_type":"image-button-response","trial_index":144,"time_elapsed":333166,"internal_node_id":"0.0-6.0-0.8","subject_id":"616d94572dc3997fe205fa66","study_id":"6197b3f67c2b5cd3b6d9596a","session_id":"6197b9e6f99d132398b0636d","condition":"full-information","relevant_dimensions":["antennae","pattern"],"bee_group":{"antennae":"A","wings":"X","pattern":"D","legs":"X"},"bonus":0.5400000000000011},{"rt":2930,"stimulus":"bees-with-color/bee-A1DF.svg","response":0,"trial_type":"image-button-response","trial_index":145,"time_elapsed":336098,"internal_node_id":"0.0-6.0-0.9","subject_id":"616d94572dc3997fe205fa66","study_id":"6197b3f67c2b5cd3b6d9596a","session_id":"6197b9e6f99d132398b0636d","condition":"full-information","relevant_dimensions":["antennae","pattern"],"bee_group":{"antennae":"A","wings":"X","pattern":"D","legs":"X"},"bonus":0.5400000000000011},{"rt":923.6000000238419,"stimulus":"bees-with-color/bee-A1SF.svg","response":0,"trial_type":"image-button-response","trial_index":146,"time_elapsed":337024,"internal_node_id":"0.0-6.0-0.10","subject_id":"616d94572dc3997fe205fa66","study_id":"6197b3f67c2b5cd3b6d9596a","session_id":"6197b9e6f99d132398b0636d","condition":"full-information","relevant_dimensions":["antennae","pattern"],"bee_group":{"antennae":"A","wings":"X","pattern":"D","legs":"X"},"bonus":0.5400000000000011},{"rt":1629.8999999761581,"stimulus":"bees-with-color/bee-A2DM.svg","response":1,"trial_type":"image-button-response","trial_index":147,"time_elapsed":338656,"internal_node_id":"0.0-6.0-0.11","subject_id":"616d94572dc3997fe205fa66","study_id":"6197b3f67c2b5cd3b6d9596a","session_id":"6197b9e6f99d132398b0636d","condition":"full-information","relevant_dimensions":["antennae","pattern"],"bee_group":{"antennae":"A","wings":"X","pattern":"D","legs":"X"},"bonus":0.5400000000000011},{"rt":1118,"stimulus":"bees-with-color/bee-A2SM.svg","response":0,"trial_type":"image-button-response","trial_index":148,"time_elapsed":339776,"internal_node_id":"0.0-6.0-0.12","subject_id":"616d94572dc3997fe205fa66","study_id":"6197b3f67c2b5cd3b6d9596a","session_id":"6197b9e6f99d132398b0636d","condition":"full-information","relevant_dimensions":["antennae","pattern"],"bee_group":{"antennae":"A","wings":"X","pattern":"D","legs":"X"},"bonus":0.5400000000000011},{"rt":1131.6000000238419,"stimulus":"bees-with-color/bee-B1SF.svg","response":0,"trial_type":"image-button-response","trial_index":149,"time_elapsed":340910,"internal_node_id":"0.0-6.0-0.13","subject_id":"616d94572dc3997fe205fa66","study_id":"6197b3f67c2b5cd3b6d9596a","session_id":"6197b9e6f99d132398b0636d","condition":"full-information","relevant_dimensions":["antennae","pattern"],"bee_group":{"antennae":"A","wings":"X","pattern":"D","legs":"X"},"bonus":0.5400000000000011},{"rt":1071.7000000476837,"stimulus":"bees-with-color/bee-B1SM.svg","response":0,"trial_type":"image-button-response","trial_index":150,"time_elapsed":341984,"internal_node_id":"0.0-6.0-0.14","subject_id":"616d94572dc3997fe205fa66","study_id":"6197b3f67c2b5cd3b6d9596a","session_id":"6197b9e6f99d132398b0636d","condition":"full-information","relevant_dimensions":["antennae","pattern"],"bee_group":{"antennae":"A","wings":"X","pattern":"D","legs":"X"},"bonus":0.5400000000000011},{"rt":1065.800000011921,"stimulus":"bees-with-color/bee-B1DM.svg","response":1,"trial_type":"image-button-response","trial_index":151,"time_elapsed":343052,"internal_node_id":"0.0-6.0-0.15","subject_id":"616d94572dc3997fe205fa66","study_id":"6197b3f67c2b5cd3b6d9596a","session_id":"6197b9e6f99d132398b0636d","condition":"full-information","relevant_dimensions":["antennae","pattern"],"bee_group":{"antennae":"A","wings":"X","pattern":"D","legs":"X"},"bonus":0.5400000000000011},{"rt":1108.0999999642372,"stimulus":"bees-with-color/bee-B2SF.svg","response":0,"trial_type":"image-button-response","trial_index":152,"time_elapsed":344162,"internal_node_id":"0.0-6.0-0.16","subject_id":"616d94572dc3997fe205fa66","study_id":"6197b3f67c2b5cd3b6d9596a","session_id":"6197b9e6f99d132398b0636d","condition":"full-information","relevant_dimensions":["antennae","pattern"],"bee_group":{"antennae":"A","wings":"X","pattern":"D","legs":"X"},"bonus":0.5400000000000011},{"rt":1256.300000011921,"stimulus":"bees-with-color/bee-A1DM.svg","response":0,"trial_type":"image-button-response","trial_index":153,"time_elapsed":345420,"internal_node_id":"0.0-6.0-0.17","subject_id":"616d94572dc3997fe205fa66","study_id":"6197b3f67c2b5cd3b6d9596a","session_id":"6197b9e6f99d132398b0636d","condition":"full-information","relevant_dimensions":["antennae","pattern"],"bee_group":{"antennae":"A","wings":"X","pattern":"D","legs":"X"},"bonus":0.5400000000000011},{"rt":1530.300000011921,"stimulus":"bees-with-color/bee-A1DF.svg","response":1,"trial_type":"image-button-response","trial_index":154,"time_elapsed":346952,"internal_node_id":"0.0-6.0-0.18","subject_id":"616d94572dc3997fe205fa66","study_id":"6197b3f67c2b5cd3b6d9596a","session_id":"6197b9e6f99d132398b0636d","condition":"full-information","relevant_dimensions":["antennae","pattern"],"bee_group":{"antennae":"A","wings":"X","pattern":"D","legs":"X"},"bonus":0.5400000000000011},{"rt":900.4000000357628,"stimulus":"bees-with-color/bee-A2SF.svg","response":0,"trial_type":"image-button-response","trial_index":155,"time_elapsed":347854,"internal_node_id":"0.0-6.0-0.19","subject_id":"616d94572dc3997fe205fa66","study_id":"6197b3f67c2b5cd3b6d9596a","session_id":"6197b9e6f99d132398b0636d","condition":"full-information","relevant_dimensions":["antennae","pattern"],"bee_group":{"antennae":"A","wings":"X","pattern":"D","legs":"X"},"bonus":0.5400000000000011},{"rt":1580.199999988079,"stimulus":"bees-with-color/bee-B2DF.svg","response":1,"trial_type":"image-button-response","trial_index":156,"time_elapsed":349436,"internal_node_id":"0.0-6.0-0.20","subject_id":"616d94572dc3997fe205fa66","study_id":"6197b3f67c2b5cd3b6d9596a","session_id":"6197b9e6f99d132398b0636d","condition":"full-in