[{"success":true,"trial_type":"fullscreen","trial_index":0,"time_elapsed":14654,"internal_node_id":"0.0-0.0","subject_id":"612cf0efe0be33cea5c5a123","study_id":"6197b3f67c2b5cd3b6d9596a","session_id":"6197b5e4cb7c2e97769614d0","condition":"contingent","relevant_dimensions":["wings","legs"],"bee_group":{"antennae":"X","wings":"2","pattern":"X","legs":"F"},"bonus":1.0200000000000005},{"success":true,"timeout":false,"failed_images":[],"failed_audio":[],"failed_video":[],"trial_type":"preload","trial_index":1,"time_elapsed":20101,"internal_node_id":"0.0-1.0","subject_id":"612cf0efe0be33cea5c5a123","study_id":"6197b3f67c2b5cd3b6d9596a","session_id":"6197b5e4cb7c2e97769614d0","condition":"contingent","relevant_dimensions":["wings","legs"],"bee_group":{"antennae":"X","wings":"2","pattern":"X","legs":"F"},"bonus":1.0200000000000005},{"rt":40171.200000047684,"stimulus":"Welcome! Press any key to begin.","response":"arrowdown","trial_type":"html-keyboard-response","trial_index":2,"time_elapsed":60274,"internal_node_id":"0.0-2.0","subject_id":"612cf0efe0be33cea5c5a123","study_id":"6197b3f67c2b5cd3b6d9596a","session_id":"6197b5e4cb7c2e97769614d0","condition":"contingent","relevant_dimensions":["wings","legs"],"bee_group":{"antennae":"X","wings":"2","pattern":"X","legs":"F"},"bonus":1.0200000000000005},{"view_history":[{"page_index":0,"viewing_time":5696.700000047684},{"page_index":1,"viewing_time":22405.799999952316},{"page_index":2,"viewing_time":11758},{"page_index":3,"viewing_time":31291.100000023842},{"page_index":4,"viewing_time":5965.899999976158},{"page_index":5,"viewing_time":20206.399999976158},{"page_index":6,"viewing_time":10816.300000071526},{"page_index":7,"viewing_time":6524.199999928474},{"page_index":6,"viewing_time":1816.8999999761581},{"page_index":7,"viewing_time":10227.100000023842},{"page_index":8,"viewing_time":19350.5},{"page_index":9,"viewing_time":37407.200000047684},{"page_index":10,"viewing_time":20320.600000023842},{"page_index":11,"viewing_time":24797.299999952316},{"page_index":12,"viewing_time":22885.700000047684},{"page_index":13,"viewing_time":1902},{"page_index":14,"viewing_time":2537.2999999523163}],"rt":255909.60000002384,"trial_type":"instructions","trial_index":3,"time_elapsed":316185,"internal_node_id":"0.0-3.0-0.0","subject_id":"612cf0efe0be33cea5c5a123","study_id":"6197b3f67c2b5cd3b6d9596a","session_id":"6197b5e4cb7c2e97769614d0","condition":"contingent","relevant_dimensions":["wings","legs"],"bee_group":{"antennae":"X","wings":"2","pattern":"X","legs":"F"},"bonus":1.0200000000000005},{"rt":19734.600000023842,"response":{"Q0":["Two or six legs","Stripes or spots on body","Single or double wings","Antennae or no antennae"]},"question_order":[0],"trial_type":"survey-multi-select","trial_index":4,"time_elapsed":335930,"internal_node_id":"0.0-3.0-1.0","subject_id":"612cf0efe0be33cea5c5a123","study_id":"6197b3f67c2b5cd3b6d9596a","session_id":"6197b5e4cb7c2e97769614d0","condition":"contingent","relevant_dimensions":["wings","legs"],"bee_group":{"antennae":"X","wings":"2","pattern":"X","legs":"F"},"correct":true,"bonus":1.0200000000000005},{"rt":24041.199999928474,"response":{"Q1":"No.","Q2":"Based on the four features of the bee.","Q3":"You do not learn if it was friendly or dangerous, and do not alter your bonus."},"question_order":[0,1,2],"trial_type":"survey-multi-choice","trial_index":5,"time_elapsed":359975,"internal_node_id":"0.0-3.0-2.0","subject_id":"612cf0efe0be33cea5c5a123","study_id":"6197b3f67c2b5cd3b6d9596a","session_id":"6197b5e4cb7c2e97769614d0","condition":"contingent","relevant_dimensions":["wings","legs"],"bee_group":{"antennae":"X","wings":"2","pattern":"X","legs":"F"},"correct":true,"bonus":1.0200000000000005},{"rt":4618.100000023842,"stimulus":"<p>Congrats, you got everything right<br>When you're ready, click the button below to continue to the experiment.</p>","response":0,"trial_type":"html-button-response","trial_index":6,"time_elapsed":364597,"internal_node_id":"0.0-3.0-3.0","subject_id":"612cf0efe0be33cea5c5a123","study_id":"6197b3f67c2b5cd3b6d9596a","session_id":"6197b5e4cb7c2e97769614d0","condition":"contingent","relevant_dimensions":["wings","legs"],"bee_group":{"antennae":"X","wings":"2","pattern":"X","legs":"F"},"bonus":1.0200000000000005},{"rt":18733.799999952316,"stimulus":"bees-with-color/bee-A2DF.svg","response":1,"trial_type":"image-button-response","trial_index":7,"time_elapsed":383336,"internal_node_id":"0.0-4.0-0.0","subject_id":"612cf0efe0be33cea5c5a123","study_id":"6197b3f67c2b5cd3b6d9596a","session_id":"6197b5e4cb7c2e97769614d0","condition":"contingent","relevant_dimensions":["wings","legs"],"bee_group":{"antennae":"X","wings":"2","pattern":"X","legs":"F"},"action":"avoid","summary":"good-avoid","bonus":1.0200000000000005},{"rt":15969.299999952316,"stimulus":"\n                    <p><b>Action: <em>avoid</em></b></p>\n                    <p>This is the bee that you just saw.</p>\n                    <img src=\"bees-with-color/bee-A2DF.svg\" width=\"200\">\n                    <p><br>Your bonus pay is unchanged, and remains at $0.54.</p>\n            ","response":0,"trial_type":"html-button-response","trial_index":8,"time_elapsed":399310,"internal_node_id":"0.0-4.0-1.0","subject_id":"612cf0efe0be33cea5c5a123","study_id":"6197b3f67c2b5cd3b6d9596a","session_id":"6197b5e4cb7c2e97769614d0","condition":"contingent","relevant_dimensions":["wings","legs"],"bee_group":{"antennae":"X","wings":"2","pattern":"X","legs":"F"},"bonus":1.0200000000000005},{"rt":6068.700000047684,"stimulus":"bees-with-color/bee-A2DM.svg","response":1,"trial_type":"image-button-response","trial_index":9,"time_elapsed":405383,"internal_node_id":"0.0-4.0-0.1","subject_id":"612cf0efe0be33cea5c5a123","study_id":"6197b3f67c2b5cd3b6d9596a","session_id":"6197b5e4cb7c2e97769614d0","condition":"contingent","relevant_dimensions":["wings","legs"],"bee_group":{"antennae":"X","wings":"2","pattern":"X","legs":"F"},"action":"avoid","summary":"bad-avoid","bonus":1.0200000000000005},{"rt":6060.600000023842,"stimulus":"\n                    <p><b>Action: <em>avoid</em></b></p>\n                    <p>This is the bee that you just saw.</p>\n                    <img src=\"bees-with-color/bee-A2DM.svg\" width=\"200\">\n                    <p><br>Your bonus pay is unchanged, and remains at $0.54.</p>\n            ","response":0,"trial_type":"html-button-response","trial_index":10,"time_elapsed":411447,"internal_node_id":"0.0-4.0-1.1","subject_id":"612cf0efe0be33cea5c5a123","study_id":"6197b3f67c2b5cd3b6d9596a","session_id":"6197b5e4cb7c2e97769614d0","condition":"contingent","relevant_dimensions":["wings","legs"],"bee_group":{"antennae":"X","wings":"2","pattern":"X","legs":"F"},"bonus":1.0200000000000005},{"rt":9537.099999904633,"stimulus":"bees-with-color/bee-B2DM.svg","response":1,"trial_type":"image-button-response","trial_index":11,"time_elapsed":420988,"internal_node_id":"0.0-4.0-0.2","subject_id":"612cf0efe0be33cea5c5a123","study_id":"6197b3f67c2b5cd3b6d9596a","session_id":"6197b5e4cb7c2e97769614d0","condition":"contingent","relevant_dimensions":["wings","legs"],"bee_group":{"antennae":"X","wings":"2","pattern":"X","legs":"F"},"action":"avoid","summary":"bad-avoid","bonus":1.0200000000000005},{"rt":6945.200000047684,"stimulus":"\n                    <p><b>Action: <em>avoid</em></b></p>\n                    <p>This is the bee that you just saw.</p>\n                    <img src=\"bees-with-color/bee-B2DM.svg\" width=\"200\">\n                    <p><br>Your bonus pay is unchanged, and remains at $0.54.</p>\n            ","response":0,"trial_type":"html-button-response","trial_index":12,"time_elapsed":427936,"internal_node_id":"0.0-4.0-1.2","subject_id":"612cf0efe0be33cea5c5a123","study_id":"6197b3f67c2b5cd3b6d9596a","session_id":"6197b5e4cb7c2e97769614d0","condition":"contingent","relevant_dimensions":["wings","legs"],"bee_group":{"antennae":"X","wings":"2","pattern":"X","legs":"F"},"bonus":1.0200000000000005},{"rt":3062.1999999284744,"stimulus":"bees-with-color/bee-A1DM.svg","response":1,"trial_type":"image-button-response","trial_index":13,"time_elapsed":431001,"internal_node_id":"0.0-4.0-0.3","subject_id":"612cf0efe0be33cea5c5a123","study_id":"6197b3f67c2b5cd3b6d9596a","session_id":"6197b5e4cb7c2e97769614d0","condition":"contingent","relevant_dimensions":["wings","legs"],"bee_group":{"antennae":"X","wings":"2","pattern":"X","legs":"F"},"action":"avoid","summary":"bad-avoid","bonus":1.0200000000000005},{"rt":7561.399999976158,"stimulus":"\n                    <p><b>Action: <em>avoid</em></b></p>\n                    <p>This is the bee that you just saw.</p>\n                    <img src=\"bees-with-color/bee-A1DM.svg\" width=\"200\">\n                    <p><br>Your bonus pay is unchanged, and remains at $0.54.</p>\n            ","response":0,"trial_type":"html-button-response","trial_index":14,"time_elapsed":438565,"internal_node_id":"0.0-4.0-1.3","subject_id":"612cf0efe0be33cea5c5a123","study_id":"6197b3f67c2b5cd3b6d9596a","session_id":"6197b5e4cb7c2e97769614d0","condition":"contingent","relevant_dimensions":["wings","legs"],"bee_group":{"antennae":"X","wings":"2","pattern":"X","legs":"F"},"bonus":1.0200000000000005},{"rt":3007.600000023842,"stimulus":"bees-with-color/bee-A1SM.svg","response":1,"trial_type":"image-button-response","trial_index":15,"time_elapsed":441576,"internal_node_id":"0.0-4.0-0.4","subject_id":"612cf0efe0be33cea5c5a123","study_id":"6197b3f67c2b5cd3b6d9596a","session_id":"6197b5e4cb7c2e97769614d0","condition":"contingent","relevant_dimensions":["wings","legs"],"bee_group":{"antennae":"X","wings":"2","pattern":"X","legs":"F"},"action":"avoid","summary":"bad-avoid","bonus":1.0200000000000005},{"rt":2925.6999999284744,"stimulus":"\n                    <p><b>Action: <em>avoid</em></b></p>\n                    <p>This is the bee that you just saw.</p>\n                    <img src=\"bees-with-color/bee-A1SM.svg\" width=\"200\">\n                    <p><br>Your bonus pay is unchanged, and remains at $0.54.</p>\n            ","response":0,"trial_type":"html-button-response","trial_index":16,"time_elapsed":444504,"internal_node_id":"0.0-4.0-1.4","subject_id":"612cf0efe0be33cea5c5a123","study_id":"6197b3f67c2b5cd3b6d9596a","session_id":"6197b5e4cb7c2e97769614d0","condition":"contingent","relevant_dimensions":["wings","legs"],"bee_group":{"antennae":"X","wings":"2","pattern":"X","legs":"F"},"bonus":1.0200000000000005},{"rt":1913.4000000953674,"stimulus":"bees-with-color/bee-B2SM.svg","response":1,"trial_type":"image-button-response","trial_index":17,"time_elapsed":446420,"internal_node_id":"0.0-4.0-0.5","subject_id":"612cf0efe0be33cea5c5a123","study_id":"6197b3f67c2b5cd3b6d9596a","session_id":"6197b5e4cb7c2e97769614d0","condition":"contingent","relevant_dimensions":["wings","legs"],"bee_group":{"antennae":"X","wings":"2","pattern":"X","legs":"F"},"action":"avoid","summary":"bad-avoid","bonus":1.0200000000000005},{"rt":3072.7999999523163,"stimulus":"\n                    <p><b>Action: <em>avoid</em></b></p>\n                    <p>This is the bee that you just saw.</p>\n                    <img src=\"bees-with-color/bee-B2SM.svg\" width=\"200\">\n                    <p><br>Your bonus pay is unchanged, and remains at $0.54.</p>\n            ","response":0,"trial_type":"html-button-response","trial_index":18,"time_elapsed":449497,"internal_node_id":"0.0-4.0-1.5","subject_id":"612cf0efe0be33cea5c5a123","study_id":"6197b3f67c2b5cd3b6d9596a","session_id":"6197b5e4cb7c2e97769614d0","condition":"contingent","relevant_dimensions":["wings","legs"],"bee_group":{"antennae":"X","wings":"2","pattern":"X","legs":"F"},"bonus":1.0200000000000005},{"rt":1924.6000000238419,"stimulus":"bees-with-color/bee-B2SF.svg","response":1,"trial_type":"image-button-response","trial_index":19,"time_elapsed":451425,"internal_node_id":"0.0-4.0-0.6","subject_id":"612cf0efe0be33cea5c5a123","study_id":"6197b3f67c2b5cd3b6d9596a","session_id":"6197b5e4cb7c2e97769614d0","condition":"contingent","relevant_dimensions":["wings","legs"],"bee_group":{"antennae":"X","wings":"2","pattern":"X","legs":"F"},"action":"avoid","summary":"good-avoid","bonus":1.0200000000000005},{"rt":9943.899999976158,"stimulus":"\n                    <p><b>Action: <em>avoid</em></b></p>\n                    <p>This is the bee that you just saw.</p>\n                    <img src=\"bees-with-color/bee-B2SF.svg\" width=\"200\">\n                    <p><br>Your bonus pay is unchanged, and remains at $0.54.</p>\n            ","response":0,"trial_type":"html-button-response","trial_index":20,"time_elapsed":461372,"internal_node_id":"0.0-4.0-1.6","subject_id":"612cf0efe0be33cea5c5a123","study_id":"6197b3f67c2b5cd3b6d9596a","session_id":"6197b5e4cb7c2e97769614d0","condition":"contingent","relevant_dimensions":["wings","legs"],"bee_group":{"antennae":"X","wings":"2","pattern":"X","legs":"F"},"bonus":1.0200000000000005},{"rt":1714.2999999523163,"stimulus":"bees-with-color/bee-B1SF.svg","response":0,"trial_type":"image-button-response","trial_index":21,"time_elapsed":463089,"internal_node_id":"0.0-4.0-0.7","subject_id":"612cf0efe0be33cea5c5a123","study_id":"6197b3f67c2b5cd3b6d9596a","session_id":"6197b5e4cb7c2e97769614d0","condition":"contingent","relevant_dimensions":["wings","legs"],"bee_group":{"antennae":"X","wings":"2","pattern":"X","legs":"F"},"action":"harvest","summary":"good-harvest","bonus":1.0200000000000005},{"rt":7874.600000023842,"stimulus":"\n                    <p><b>Action: <em>harvest</em></b></p>\n                    <p>This is the bee that you just saw.</p>\n                    <img src=\"bees-with-color/bee-B1SF.svg\" width=\"200\">\n                    <p><span class=\"greenText\"><b>Successful harvest!</b></span><br>Your pay has increased by $0.02. Your bonus pay is now $0.56.</p>\n            ","response":0,"trial_type":"html-button-response","trial_index":22,"time_elapsed":470967,"internal_node_id":"0.0-4.0-1.7","subject_id":"612cf0efe0be33cea5c5a123","study_id":"6197b3f67c2b5cd3b6d9596a","session_id":"6197b5e4cb7c2e97769614d0","condition":"contingent","relevant_dimensions":["wings","legs"],"bee_group":{"antennae":"X","wings":"2","pattern":"X","legs":"F"},"bonus":1.0200000000000005},{"rt":3296.2999999523163,"stimulus":"bees-with-color/bee-B1SM.svg","response":1,"trial_type":"image-button-response","trial_index":23,"time_elapsed":474267,"internal_node_id":"0.0-4.0-0.8","subject_id":"612cf0efe0be33cea5c5a123","study_id":"6197b3f67c2b5cd3b6d9596a","session_id":"6197b5e4cb7c2e97769614d0","condition":"contingent","relevant_dimensions":["wings","legs"],"bee_group":{"antennae":"X","wings":"2","pattern":"X","legs":"F"},"action":"avoid","summary":"bad-avoid","bonus":1.0200000000000005},{"rt":4308.200000047684,"stimulus":"\n                    <p><b>Action: <em>avoid</em></b></p>\n                    <p>This is the bee that you just saw.</p>\n                    <img src=\"bees-with-color/bee-B1SM.svg\" width=\"200\">\n                    <p><br>Your bonus pay is unchanged, and remains at $0.56.</p>\n            ","response":0,"trial_type":"html-button-response","trial_index":24,"time_elapsed":478577,"internal_node_id":"0.0-4.0-1.8","subject_id":"612cf0efe0be33cea5c5a123","study_id":"6197b3f67c2b5cd3b6d9596a","session_id":"6197b5e4cb7c2e97769614d0","condition":"contingent","relevant_dimensions":["wings","legs"],"bee_group":{"antennae":"X","wings":"2","pattern":"X","legs":"F"},"bonus":1.0200000000000005},{"rt":3282.8000000715256,"stimulus":"bees-with-color/bee-B1DF.svg","response":0,"trial_type":"image-button-response","trial_index":25,"time_elapsed":481864,"internal_node_id":"0.0-4.0-0.9","subject_id":"612cf0efe0be33cea5c5a123","study_id":"6197b3f67c2b5cd3b6d9596a","session_id":"6197b5e4cb7c2e97769614d0","condition":"contingent","relevant_dimensions":["wings","legs"],"bee_group":{"antennae":"X","wings":"2","pattern":"X","legs":"F"},"action":"harvest","summary":"good-harvest","bonus":1.0200000000000005},{"rt":2752.2000000476837,"stimulus":"\n                    <p><b>Action: <em>harvest</em></b></p>\n                    <p>This is the bee that you just saw.</p>\n                    <img src=\"bees-with-color/bee-B1DF.svg\" width=\"200\">\n                    <p><span class=\"greenText\"><b>Successful harvest!</b></span><br>Your pay has increased by $0.02. Your bonus pay is now $0.58.</p>\n            ","response":0,"trial_type":"html-button-response","trial_index":26,"time_elapsed":484619,"internal_node_id":"0.0-4.0-1.9","subject_id":"612cf0efe0be33cea5c5a123","study_id":"6197b3f67c2b5cd3b6d9596a","session_id":"6197b5e4cb7c2e97769614d0","condition":"contingent","relevant_dimensions":["wings","legs"],"bee_group":{"antennae":"X","wings":"2","pattern":"X","legs":"F"},"bonus":1.0200000000000005},{"rt":2206.6999999284744,"stimulus":"bees-with-color/bee-A2SM.svg","response":1,"trial_type":"image-button-response","trial_index":27,"time_elapsed":486830,"internal_node_id":"0.0-4.0-0.10","subject_id":"612cf0efe0be33cea5c5a123","study_id":"6197b3f67c2b5cd3b6d9596a","session_id":"6197b5e4cb7c2e97769614d0","condition":"contingent","relevant_dimensions":["wings","legs"],"bee_group":{"antennae":"X","wings":"2","pattern":"X","legs":"F"},"action":"avoid","summary":"bad-avoid","bonus":1.0200000000000005},{"rt":1640.3000000715256,"stimulus":"\n                    <p><b>Action: <em>avoid</em></b></p>\n                    <p>This is the bee that you just saw.</p>\n                    <img src=\"bees-with-color/bee-A2SM.svg\" width=\"200\">\n                    <p><br>Your bonus pay is unchanged, and remains at $0.58.</p>\n            ","response":0,"trial_type":"html-button-response","trial_index":28,"time_elapsed":488473,"internal_node_id":"0.0-4.0-1.10","subject_id":"612cf0efe0be33cea5c5a123","study_id":"6197b3f67c2b5cd3b6d9596a","session_id":"6197b5e4cb7c2e97769614d0","condition":"contingent","relevant_dimensions":["wings","legs"],"bee_group":{"antennae":"X","wings":"2","pattern":"X","legs":"F"},"bonus":1.0200000000000005},{"rt":4929.800000071526,"stimulus":"bees-with-color/bee-B1DM.svg","response":1,"trial_type":"image-button-response","trial_index":29,"time_elapsed":493405,"internal_node_id":"0.0-4.0-0.11","subject_id":"612cf0efe0be33cea5c5a123","study_id":"6197b3f67c2b5cd3b6d9596a","session_id":"6197b5e4cb7c2e97769614d0","condition":"contingent","relevant_dimensions":["wings","legs"],"bee_group":{"antennae":"X","wings":"2","pattern":"X","legs":"F"},"action":"avoid","summary":"bad-avoid","bonus":1.0200000000000005},{"rt":1825.3999999761581,"stimulus":"\n                    <p><b>Action: <em>avoid</em></b></p>\n                    <p>This is the bee that you just saw.</p>\n                    <img src=\"bees-with-color/bee-B1DM.svg\" width=\"200\">\n                    <p><br>Your bonus pay is unchanged, and remains at $0.58.</p>\n            ","response":0,"trial_type":"html-button-response","trial_index":30,"time_elapsed":495233,"internal_node_id":"0.0-4.0-1.11","subject_id":"612cf0efe0be33cea5c5a123","study_id":"6197b3f67c2b5cd3b6d9596a","session_id":"6197b5e4cb7c2e97769614d0","condition":"contingent","relevant_dimensions":["wings","legs"],"bee_group":{"antennae":"X","wings":"2","pattern":"X","legs":"F"},"bonus":1.0200000000000005},{"rt":7385.799999952316,"stimulus":"bees-with-color/bee-B2DF.svg","response":1,"trial_type":"image-button-response","trial_index":31,"time_elapsed":502623,"internal_node_id":"0.0-4.0-0.12","subject_id":"612cf0efe0be33cea5c5a123","study_id":"6197b3f67c2b5cd3b6d9596a","session_id":"6197b5e4cb7c2e97769614d0","condition":"contingent","relevant_dimensions":["wings","legs"],"bee_group":{"antennae":"X","wings":"2","pattern":"X","legs":"F"},"action":"avoid","summary":"good-avoid","bonus":1.0200000000000005},{"rt":2073.5,"stimulus":"\n                    <p><b>Action: <em>avoid</em></b></p>\n                    <p>This is the bee that you just saw.</p>\n                    <img src=\"bees-with-color/bee-B2DF.svg\" width=\"200\">\n                    <p><br>Your bonus pay is unchanged, and remains at $0.58.</p>\n            ","response":0,"trial_type":"html-button-response","trial_index":32,"time_elapsed":504700,"internal_node_id":"0.0-4.0-1.12","subject_id":"612cf0efe0be33cea5c5a123","study_id":"6197b3f67c2b5cd3b6d9596a","session_id":"6197b5e4cb7c2e97769614d0","condition":"contingent","relevant_dimensions":["wings","legs"],"bee_group":{"antennae":"X","wings":"2","pattern":"X","legs":"F"},"bonus":1.0200000000000005},{"rt":2764.399999976158,"stimulus":"bees-with-color/bee-A1SF.svg","response":0,"trial_type":"image-button-response","trial_index":33,"time_elapsed":507467,"internal_node_id":"0.0-4.0-0.13","subject_id":"612cf0efe0be33cea5c5a123","study_id":"6197b3f67c2b5cd3b6d9596a","session_id":"6197b5e4cb7c2e97769614d0","condition":"contingent","relevant_dimensions":["wings","legs"],"bee_group":{"antennae":"X","wings":"2","pattern":"X","legs":"F"},"action":"harvest","summary":"good-harvest","bonus":1.0200000000000005},{"rt":1763.8999999761581,"stimulus":"\n                    <p><b>Action: <em>harvest</em></b></p>\n                    <p>This is the bee that you just saw.</p>\n                    <img src=\"bees-with-color/bee-A1SF.svg\" width=\"200\">\n                    <p><span class=\"greenText\"><b>Successful harvest!</b></span><br>Your pay has increased by $0.02. Your bonus pay is now $0.60.</p>\n            ","response":0,"trial_type":"html-button-response","trial_index":34,"time_elapsed":509234,"internal_node_id":"0.0-4.0-1.13","subject_id":"612cf0efe0be33cea5c5a123","study_id":"6197b3f67c2b5cd3b6d9596a","session_id":"6197b5e4cb7c2e97769614d0","condition":"contingent","relevant_dimensions":["wings","legs"],"bee_group":{"antennae":"X","wings":"2","pattern":"X","legs":"F"},"bonus":1.0200000000000005},{"rt":2801.2999999523163,"stimulus":"bees-with-color/bee-A1DF.svg","response":0,"trial_type":"image-button-response","trial_index":35,"time_elapsed":512039,"internal_node_id":"0.0-4.0-0.14","subject_id":"612cf0efe0be33cea5c5a123","study_id":"6197b3f67c2b5cd3b6d9596a","session_id":"6197b5e4cb7c2e97769614d0","condition":"contingent","relevant_dimensions":["wings","legs"],"bee_group":{"antennae":"X","wings":"2","pattern":"X","legs":"F"},"action":"harvest","summary":"good-harvest","bonus":1.0200000000000005},{"rt":4200.600000023842,"stimulus":"\n                    <p><b>Action: <em>harvest</em></b></p>\n                    <p>This is the bee that you just saw.</p>\n                    <img src=\"bees-with-color/bee-A1DF.svg\" width=\"200\">\n                    <p><span class=\"greenText\"><b>Successful harvest!</b></span><br>Your pay has increased by $0.02. Your bonus pay is now $0.62.</p>\n            ","response":0,"trial_type":"html-button-response","trial_index":36,"time_elapsed":516242,"internal_node_id":"0.0-4.0-1.14","subject_id":"612cf0efe0be33cea5c5a123","study_id":"6197b3f67c2b5cd3b6d9596a","session_id":"6197b5e4cb7c2e97769614d0","condition":"contingent","relevant_dimensions":["wings","legs"],"bee_group":{"antennae":"X","wings":"2","pattern":"X","legs":"F"},"bonus":1.0200000000000005},{"rt":3828,"stimulus":"bees-with-color/bee-A2SF.svg","response":1,"trial_type":"image-button-response","trial_index":37,"time_elapsed":520073,"internal_node_id":"0.0-4.0-0.15","subject_id":"612cf0efe0be33cea5c5a123","study_id":"6197b3f67c2b5cd3b6d9596a","session_id":"6197b5e4cb7c2e97769614d0","condition":"contingent","relevant_dimensions":["wings","legs"],"bee_group":{"antennae":"X","wings":"2","pattern":"X","legs":"F"},"action":"avoid","summary":"good-avoid","bonus":1.0200000000000005},{"rt":2741.100000023842,"stimulus":"\n                    <p><b>Action: <em>avoid</em></b></p>\n                    <p>This is the bee that you just saw.</p>\n                    <img src=\"bees-with-color/bee-A2SF.svg\" width=\"200\">\n                    <p><br>Your bonus pay is unchanged, and remains at $0.62.</p>\n            ","response":0,"trial_type":"html-button-response","trial_index":38,"time_elapsed":522816,"internal_node_id":"0.0-4.0-1.15","subject_id":"612cf0efe0be33cea5c5a123","study_id":"6197b3f67c2b5cd3b6d9596a","session_id":"6197b5e4cb7c2e97769614d0","condition":"contingent","relevant_dimensions":["wings","legs"],"bee_group":{"antennae":"X","wings":"2","pattern":"X","legs":"F"},"bonus":1.0200000000000005},{"rt":4038.6999999284744,"stimulus":"bees-with-color/bee-A2SM.svg","response":1,"trial_type":"image-button-response","trial_index":39,"time_elapsed":526858,"internal_node_id":"0.0-4.0-0.16","subject_id":"612cf0efe0be33cea5c5a123","study_id":"6197b3f67c2b5cd3b6d9596a","session_id":"6197b5e4cb7c2e97769614d0","condition":"contingent","relevant_dimensions":["wings","legs"],"bee_group":{"antennae":"X","wings":"2","pattern":"X","legs":"F"},"action":"avoid","summary":"bad-avoid","bonus":1.0200000000000005},{"rt":1690.1000000238419,"stimulus":"\n                    <p><b>Action: <em>avoid</em></b></p>\n                    <p>This is the bee that you just saw.</p>\n                    <img src=\"bees-with-color/bee-A2SM.svg\" width=\"200\">\n                    <p><br>Your bonus pay is unchanged, and remains at $0.62.</p>\n            ","response":0,"trial_type":"html-button-response","trial_index":40,"time_elapsed":528550,"internal_node_id":"0.0-4.0-1.16","subject_id":"612cf0efe0be33cea5c5a123","study_id":"6197b3f67c2b5cd3b6d9596a","session_id":"6197b5e4cb7c2e97769614d0","condition":"contingent","relevant_dimensions":["wings","legs"],"bee_group":{"antennae":"X","wings":"2","pattern":"X","legs":"F"},"bonus":1.0200000000000005},{"rt":3952.100000023842,"stimulus":"bees-with-color/bee-B1DM.svg","response":1,"trial_type":"image-button-response","trial_index":41,"time_elapsed":532505,"internal_node_id":"0.0-4.0-0.17","subject_id":"612cf0efe0be33cea5c5a123","study_id":"6197b3f67c2b5cd3b6d9596a","session_id":"6197b5e4cb7c2e97769614d0","condition":"contingent","relevant_dimensions":["wings","legs"],"bee_group":{"antennae":"X","wings":"2","pattern":"X","legs":"F"},"action":"avoid","summary":"bad-avoid","bonus":1.0200000000000005},{"rt":1875.5999999046326,"stimulus":"\n                    <p><b>Action: <em>avoid</em></b></p>\n                    <p>This is the bee that you just saw.</p>\n                    <img src=\"bees-with-color/bee-B1DM.svg\" width=\"200\">\n                    <p><br>Your bonus pay is unchanged, and remains at $0.62.</p>\n            ","response":0,"trial_type":"html-button-response","trial_index":42,"time_elapsed":534382,"internal_node_id":"0.0-4.0-1.17","subject_id":"612cf0efe0be33cea5c5a123","study_id":"6197b3f67c2b5cd3b6d9596a","session_id":"6197b5e4cb7c2e97769614d0","condition":"contingent","relevant_dimensions":["wings","legs"],"bee_group":{"antennae":"X","wings":"2","pattern":"X","legs":"F"},"bonus":1.0200000000000005},{"rt":8555,"stimulus":"bees-with-color/bee-A1DF.svg","response":0,"trial_type":"image-button-response","trial_index":43,"time_elapsed":542940,"internal_node_id":"0.0-4.0-0.18","subject_id":"612cf0efe0be33cea5c5a123","study_id":"6197b3f67c2b5cd3b6d9596a","session_id":"6197b5e4cb7c2e97769614d0","condition":"contingent","relevant_dimensions":["wings","legs"],"bee_group":{"antennae":"X","wings":"2","pattern":"X","legs":"F"},"action":"harvest","summary":"good-harvest","bonus":1.0200000000000005},{"rt":3297.100000023842,"stimulus":"\n                    <p><b>Action: <em>harvest</em></b></p>\n                    <p>This is the bee that you just saw.</p>\n                    <img src=\"bees-with-color/bee-A1DF.svg\" width=\"200\">\n                    <p><span class=\"greenText\"><b>Successful harvest!</b></span><br>Your pay has increased by $0.02. Your bonus pay is now $0.64.</p>\n            ","response":0,"trial_type":"html-button-response","trial_index":44,"time_elapsed":546239,"internal_node_id":"0.0-4.0-1.18","subject_id":"612cf0efe0be33cea5c5a123","study_id":"6197b3f67c2b5cd3b6d9596a","session_id":"6197b5e4cb7c2e97769614d0","condition":"contingent","relevant_dimensions":["wings","legs"],"bee_group":{"antennae":"X","wings":"2","pattern":"X","legs":"F"},"bonus":1.0200000000000005},{"rt":1875.5,"stimulus":"bees-with-color/bee-B2DM.svg","response":1,"trial_type":"image-button-response","trial_index":45,"time_elapsed":548118,"internal_node_id":"0.0-4.0-0.19","subject_id":"612cf0efe0be33cea5c5a123","study_id":"6197b3f67c2b5cd3b6d9596a","session_id":"6197b5e4cb7c2e97769614d0","condition":"contingent","relevant_dimensions":["wings","legs"],"bee_group":{"antennae":"X","wings":"2","pattern":"X","legs":"F"},"action":"avoid","summary":"bad-avoid","bonus":1.0200000000000005},{"rt":3202,"stimulus":"\n                    <p><b>Action: <em>avoid</em></b></p>\n                    <p>This is the bee that you just saw.</p>\n                    <img src=\"bees-with-color/bee-B2DM.svg\" width=\"200\">\n                    <p><br>Your bonus pay is unchanged, and remains at $0.64.</p>\n            ","response":0,"trial_type":"html-button-response","trial_index":46,"time_elapsed":551322,"internal_node_id":"0.0-4.0-1.19","subject_id":"612cf0efe0be33cea5c5a123","study_id":"6197b3f67c2b5cd3b6d9596a","session_id":"6197b5e4cb7c2e97769614d0","condition":"contingent","relevant_dimensions":["wings","legs"],"bee_group":{"antennae":"X","wings":"2","pattern":"X","legs":"F"},"bonus":1.0200000000000005},{"rt":2382.5,"stimulus":"bees-with-color/bee-A2DM.svg","response":1,"trial_type":"image-button-response","trial_index":47,"time_elapsed":553708,"internal_node_id":"0.0-4.0-0.20","subject_id":"612cf0efe0be33cea5c5a123","study_id":"6197b3f67c2b5cd3b6d9596a","session_id":"6197b5e4cb7c2e97769614d0","condition":"contingent","relevant_dimensions":["wings","legs"],"bee_group":{"antennae":"X","wings":"2","pattern":"X","legs":"F"},"action":"avoid","summary":"bad-avoid","bonus":1.0200000000000005},{"rt":5581.100000023842,"stimulus":"\n                    <p><b>Action: <em>avoid</em></b></p>\n                    <p>This is the bee that you just saw.</p>\n                    <img src=\"bees-with-color/bee-A2DM.svg\" width=\"200\">\n                    <p><br>Your bonus pay is unchanged, and remains at $0.64.</p>\n            ","response":0,"trial_type":"html-button-response","trial_index":48,"time_elapsed":559291,"internal_node_id":"0.0-4.0-1.20","subject_id":"612cf0efe0be33cea5c5a123","study_id":"6197b3f67c2b5cd3b6d9596a","session_id":"6197b5e4cb7c2e97769614d0","condition":"contingent","relevant_dimensions":["wings","legs"],"bee_group":{"antennae":"X","wings":"2","pattern":"X","legs":"F"},"bonus":1.0200000000000005},{"rt":2851.8000000715256,"stimulus":"bees-with-color/bee-A2DF.svg","response":1,"trial_type":"image-button-response","trial_index":49,"time_elapsed":562147,"internal_node_id":"0.0-4.0-0.21","subject_id":"612cf0efe0be33cea5c5a123","study_id":"6197b3f67c2b5cd3b6d9596a","session_id":"6197b5e4cb7c2e97769614d0","condition":"contingent","relevant_dimensions":["wings","legs"],"bee_group":{"antennae":"X","wings":"2","pattern":"X","legs":"F"},"action":"avoid","summary":"good-avoid","bonus":1.0200000000000005},{"rt":3128.1999999284744,"stimulus":"\n                    <p><b>Action: <em>avoid</em></b></p>\n                    <p>This is the bee that you just saw.</p>\n                    <img src=\"bees-with-color/bee-A2DF.svg\" width=\"200\">\n                    <p><br>Your bonus pay is unchanged, and remains at $0.64.</p>\n            ","response":0,"trial_type":"html-button-response","trial_index":50,"time_elapsed":565277,"internal_node_id":"0.0-4.0-1.21","subject_id":"612cf0efe0be33cea5c5a123","study_id":"6197b3f67c2b5cd3b6d9596a","session_id":"6197b5e4cb7c2e97769614d0","condition":"contingent","relevant_dimensions":["wings","legs"],"bee_group":{"antennae":"X","wings":"2","pattern":"X","legs":"F"},"bonus":1.0200000000000005},{"rt":12878.5,"stimulus":"bees-with-color/bee-B2DF.svg","response":1,"trial_type":"image-button-response","trial_index":51,"time_elapsed":578159,"internal_node_id":"0.0-4.0-0.22","subject_id":"612cf0efe0be33cea5c5a123","study_id":"6197b3f67c2b5cd3b6d9596a","session_id":"6197b5e4cb7c2e97769614d0","condition":"contingent","relevant_dimensions":["wings","legs"],"bee_group":{"antennae":"X","wings":"2","pattern":"X","legs":"F"},"action":"avoid","summary":"good-avoid","bonus":1.0200000000000005},{"rt":3037.600000023842,"stimulus":"\n                    <p><b>Action: <em>avoid</em></b></p>\n                    <p>This is the bee that you just saw.</p>\n                    <img src=\"bees-with-color/bee-B2DF.svg\" width=\"200\">\n                    <p><br>Your bonus pay is unchanged, and remains at $0.64.</p>\n            ","response":0,"trial_type":"html-button-response","trial_index":52,"time_elapsed":581199,"internal_node_id":"0.0-4.0-1.22","subject_id":"612cf0efe0be33cea5c5a123","study_id":"6197b3f67c2b5cd3b6d9596a","session_id":"6197b5e4cb7c2e97769614d0","condition":"contingent","relevant_dimensions":["wings","legs"],"bee_group":{"antennae":"X","wings":"2","pattern":"X","legs":"F"},"bonus":1.0200000000000005},{"rt":2468.7999999523163,"stimulus":"bees-with-color/bee-B2SM.svg","response":1,"trial_type":"image-button-response","trial_index":53,"time_elapsed":583671,"internal_node_id":"0.0-4.0-0.23","subject_id":"612cf0efe0be33cea5c5a123","study_id":"6197b3f67c2b5cd3b6d9596a","session_id":"6197b5e4cb7c2e97769614d0","condition":"contingent","relevant_dimensions":["wings","legs"],"bee_group":{"antennae":"X","wings":"2","pattern":"X","legs":"F"},"action":"avoid","summary":"bad-avoid","bonus":1.0200000000000005},{"rt":1406.3000000715256,"stimulus":"\n                    <p><b>Action: <em>avoid</em></b></p>\n                    <p>This is the bee that you just saw.</p>\n                    <img src=\"bees-with-color/bee-B2SM.svg\" width=\"200\">\n                    <p><br>Your bonus pay is unchanged, and remains at $0.64.</p>\n            ","response":0,"trial_type":"html-button-response","trial_index":54,"time_elapsed":585080,"internal_node_id":"0.0-4.0-1.23","subject_id":"612cf0efe0be33cea5c5a123","study_id":"6197b3f67c2b5cd3b6d9596a","session_id":"6197b5e4cb7c2e97769614d0","condition":"contingent","relevant_dimensions":["wings","legs"],"bee_group":{"antennae":"X","wings":"2","pattern":"X","legs":"F"},"bonus":1.0200000000000005},{"rt":4137.299999952316,"stimulus":"bees-with-color/bee-B2SF.svg","response":1,"trial_type":"image-button-response","trial_index":55,"time_elapsed":589219,"internal_node_id":"0.0-4.0-0.24","subject_id":"612cf0efe0be33cea5c5a123","study_id":"6197b3f67c2b5cd3b6d9596a","session_id":"6197b5e4cb7c2e97769614d0","condition":"contingent","relevant_dimensions":["wings","legs"],"bee_group":{"antennae":"X","wings":"2","pattern":"X","legs":"F"},"action":"avoid","summary":"good-avoid","bonus":1.0200000000000005},{"rt":3660.399999976158,"stimulus":"\n                    <p><b>Action: <em>avoid</em></b></p>\n                    <p>This is the bee that you just saw.</p>\n                    <img src=\"bees-with-color/bee-B2SF.svg\" width=\"200\">\n                    <p><br>Your bonus pay is unchanged, and remains at $0.64.</p>\n            ","response":0,"trial_type":"html-button-response","trial_index":56,"time_elapsed":592883,"internal_node_id":"0.0-4.0-1.24","subject_id":"612cf0efe0be33cea5c5a123","study_id":"6197b3f67c2b5cd3b6d9596a","session_id":"6197b5e4cb7c2e97769614d0","condition":"contingent","relevant_dimensions":["wings","legs"],"bee_group":{"antennae":"X","wings":"2","pattern":"X","legs":"F"},"bonus":1.0200000000000005},{"rt":2430.899999976158,"stimulus":"bees-with-color/bee-A1SF.svg","response":0,"trial_type":"image-button-response","trial_index":57,"time_elapsed":595317,"internal_node_id":"0.0-4.0-0.25","subject_id":"612cf0efe0be33cea5c5a123","study_id":"6197b3f67c2b5cd3b6d9596a","session_id":"6197b5e4cb7c2e97769614d0","condition":"contingent","relevant_dimensions":["wings","legs"],"bee_group":{"antennae":"X","wings":"2","pattern":"X","legs":"F"},"action":"harvest","summary":"good-harvest","bonus":1.0200000000000005},{"rt":6670,"stimulus":"\n                    <p><b>Action: <em>harvest</em></b></p>\n                    <p>This is the bee that you just saw.</p>\n                    <img src=\"bees-with-color/bee-A1SF.svg\" width=\"200\">\n                    <p><span class=\"greenText\"><b>Successful harvest!</b></span><br>Your pay has increased by $0.02. Your bonus pay is now $0.66.</p>\n            ","response":0,"trial_type":"html-button-response","trial_index":58,"time_elapsed":601989,"internal_node_id":"0.0-4.0-1.25","subject_id":"612cf0efe0be33cea5c5a123","study_id":"6197b3f67c2b5cd3b6d9596a","session_id":"6197b5e4cb7c2e97769614d0","condition":"contingent","relevant_dimensions":["wings","legs"],"bee_group":{"antennae":"X","wings":"2","pattern":"X","legs":"F"},"bonus":1.0200000000000005},{"rt":2962.600000023842,"stimulus":"bees-with-color/bee-B1DF.svg","response":0,"trial_type":"image-button-response","trial_index":59,"time_elapsed":604957,"internal_node_id":"0.0-4.0-0.26","subject_id":"612cf0efe0be33cea5c5a123","study_id":"6197b3f67c2b5cd3b6d9596a","session_id":"6197b5e4cb7c2e97769614d0","condition":"contingent","relevant_dimensions":["wings","legs"],"bee_group":{"antennae":"X","wings":"2","pattern":"X","legs":"F"},"action":"harvest","summary":"good-harvest","bonus":1.0200000000000005},{"rt":2035,"stimulus":"\n                    <p><b>Action: <em>harvest</em></b></p>\n                    <p>This is the bee that you just saw.</p>\n                    <img src=\"bees-with-color/bee-B1DF.svg\" width=\"200\">\n                    <p><span class=\"greenText\"><b>Successful harvest!</b></span><br>Your pay has increased by $0.02. Your bonus pay is now $0.68.</p>\n            ","response":0,"trial_type":"html-button-response","trial_index":60,"time_elapsed":606994,"internal_node_id":"0.0-4.0-1.26","subject_id":"612cf0efe0be33cea5c5a123","study_id":"6197b3f67c2b5cd3b6d9596a","session_id":"6197b5e4cb7c2e97769614d0","condition":"contingent","relevant_dimensions":["wings","legs"],"bee_group":{"antennae":"X","wings":"2","pattern":"X","legs":"F"},"bonus":1.0200000000000005},{"rt":22603.799999952316,"stimulus":"bees-with-color/bee-A1DM.svg","response":1,"trial_type":"image-button-response","trial_index":61,"time_elapsed":629601,"internal_node_id":"0.0-4.0-0.27","subject_id":"612cf0efe0be33cea5c5a123","study_id":"6197b3f67c2b5cd3b6d9596a","session_id":"6197b5e4cb7c2e97769614d0","condition":"contingent","relevant_dimensions":["wings","legs"],"bee_group":{"antennae":"X","wings":"2","pattern":"X","legs":"F"},"action":"avoid","summary":"bad-avoid","bonus":1.0200000000000005},{"rt":2962,"stimulus":"\n                    <p><b>Action: <em>avoid</em></b></p>\n                    <p>This is the bee that you just saw.</p>\n                    <img src=\"bees-with-color/bee-A1DM.svg\" width=\"200\">\n                    <p><br>Your bonus pay is unchanged, and remains at $0.68.</p>\n            ","response":0,"trial_type":"html-button-response","trial_index":62,"time_elapsed":632565,"internal_node_id":"0.0-4.0-1.27","subject_id":"612cf0efe0be33cea5c5a123","study_id":"6197b3f67c2b5cd3b6d9596a","session_id":"6197b5e4cb7c2e97769614d0","condition":"contingent","relevant_dimensions":["wings","legs"],"bee_group":{"antennae":"X","wings":"2","pattern":"X","legs":"F"},"bonus":1.0200000000000005},{"rt":2432.399999976158,"stimulus":"bees-with-color/bee-B1SF.svg","response":0,"trial_type":"image-button-response","trial_index":63,"time_elapsed":635001,"internal_node_id":"0.0-4.0-0.28","subject_id":"612cf0efe0be33cea5c5a123","study_id":"6197b3f67c2b5cd3b6d9596a","session_id":"6197b5e4cb7c2e97769614d0","condition":"contingent","relevant_dimensions":["wings","legs"],"bee_group":{"antennae":"X","wings":"2","pattern":"X","legs":"F"},"action":"harvest","summary":"good-harvest","bonus":1.0200000000000005},{"rt":9409,"stimulus":"\n                    <p><b>Action: <em>harvest</em></b></p>\n                    <p>This is the bee that you just saw.</p>\n                    <img src=\"bees-with-color/bee-B1SF.svg\" width=\"200\">\n                    <p><span class=\"greenText\"><b>Successful harvest!</b></span><br>Your pay has increased by $0.02. Your bonus pay is now $0.70.</p>\n            ","response":0,"trial_type":"html-button-response","trial_index":64,"time_elapsed":644412,"internal_node_id":"0.0-4.0-1.28","subject_id":"612cf0efe0be33cea5c5a123","study_id":"6197b3f67c2b5cd3b6d9596a","session_id":"6197b5e4cb7c2e97769614d0","condition":"contingent","relevant_dimensions":["wings","legs"],"bee_group":{"antennae":"X","wings":"2","pattern":"X","legs":"F"},"bonus":1.0200000000000005},{"rt":1986.9000000953674,"stimulus":"bees-with-color/bee-A1SM.svg","response":1,"trial_type":"image-button-response","trial_index":65,"time_elapsed":646402,"internal_node_id":"0.0-4.0-0.29","subject_id":"612cf0efe0be33cea5c5a123","study_id":"6197b3f67c2b5cd3b6d9596a","session_id":"6197b5e4cb7c2e97769614d0","condition":"contingent","relevant_dimensions":["wings","legs"],"bee_group":{"antennae":"X","wings":"2","pattern":"X","legs":"F"},"action":"avoid","summary":"bad-avoid","bonus":1.0200000000000005},{"rt":1516.7000000476837,"stimulus":"\n                    <p><b>Action: <em>avoid</em></b></p>\n                    <p>This is the bee that you just saw.</p>\n                    <img src=\"bees-with-color/bee-A1SM.svg\" width=\"200\">\n                    <p><br>Your bonus pay is unchanged, and remains at $0.70.</p>\n            ","response":0,"trial_type":"html-button-response","trial_index":66,"time_elapsed":647922,"internal_node_id":"0.0-4.0-1.29","subject_id":"612cf0efe0be33cea5c5a123","study_id":"6197b3f67c2b5cd3b6d9596a","session_id":"6197b5e4cb7c2e97769614d0","condition":"contingent","relevant_dimensions":["wings","legs"],"bee_group":{"antennae":"X","wings":"2","pattern":"X","legs":"F"},"bonus":1.0200000000000005},{"rt":8448,"stimulus":"bees-with-color/bee-A2SF.svg","response":1,"trial_type":"image-button-response","trial_index":67,"time_elapsed":656373,"internal_node_id":"0.0-4.0-0.30","subject_id":"612cf0efe0be33cea5c5a123","study_id":"6197b3f67c2b5cd3b6d9596a","session_id":"6197b5e4cb7c2e97769614d0","condition":"contingent","relevant_dimensions":["wings","legs"],"bee_group":{"antennae":"X","wings":"2","pattern":"X","legs":"F"},"action":"avoid","summary":"good-avoid","bonus":1.0200000000000005},{"rt":1578.8999999761581,"stimulus":"\n                    <p><b>Action: <em>avoid</em></b></p>\n                    <p>This is the bee that you just saw.</p>\n                    <img src=\"bees-with-color/bee-A2SF.svg\" width=\"200\">\n                    <p><br>Your bonus pay is unchanged, and remains at $0.70.</p>\n            ","response":0,"trial_type":"html-button-response","trial_index":68,"time_elapsed":657954,"internal_node_id":"0.0-4.0-1.30","subject_id":"612cf0efe0be33cea5c5a123","study_id":"6197b3f67c2b5cd3b6d9596a","session_id":"6197b5e4cb7c2e97769614d0","condition":"contingent","relevant_dimensions":["wings","legs"],"bee_group":{"antennae":"X","wings":"2","pattern":"X","legs":"F"},"bonus":1.0200000000000005},{"rt":3329.2000000476837,"stimulus":"bees-with-color/bee-B1SM.svg","response":1,"trial_type":"image-button-response","trial_index":69,"time_elapsed":661286,"internal_node_id":"0.0-4.0-0.31","subject_id":"612cf0efe0be33cea5c5a123","study_id":"6197b3f67c2b5cd3b6d9596a","session_id":"6197b5e4cb7c2e97769614d0","condition":"contingent","relevant_dimensions":["wings","legs"],"bee_group":{"antennae":"X","wings":"2","pattern":"X","legs":"F"},"action":"avoid","summary":"bad-avoid","bonus":1.0200000000000005},{"rt":2852.7000000476837,"stimulus":"\n                    <p><b>Action: <em>avoid</em></b></p>\n                    <p>This is the bee that you just saw.</p>\n                    <img src=\"bees-with-color/bee-B1SM.svg\" width=\"200\">\n                    <p><br>Your bonus pay is unchanged, and remains at $0.70.</p>\n            ","response":0,"trial_type":"html-button-response","trial_index":70,"time_elapsed":664142,"internal_node_id":"0.0-4.0-1.31","subject_id":"612cf0efe0be33cea5c5a123","study_id":"6197b3f67c2b5cd3b6d9596a","session_id":"6197b5e4cb7c2e97769614d0","condition":"contingent","relevant_dimensions":["wings","legs"],"bee_group":{"antennae":"X","wings":"2","pattern":"X","legs":"F"},"bonus":1.0200000000000005},{"rt":1752,"stimulus":"bees-with-color/bee-B2DM.svg","response":1,"trial_type":"image-button-response","trial_index":71,"time_elapsed":665897,"internal_node_id":"0.0-4.0-0.32","subject_id":"612cf0efe0be33cea5c5a123","study_id":"6197b3f67c2b5cd3b6d9596a","session_id":"6197b5e4cb7c2e97769614d0","condition":"contingent","relevant_dimensions":["wings","legs"],"bee_group":{"antennae":"X","wings":"2","pattern":"X","legs":"F"},"action":"avoid","summary":"bad-avoid","bonus":1.0200000000000005},{"rt":1591.6999999284744,"stimulus":"\n                    <p><b>Action: <em>avoid</em></b></p>\n                    <p>This is the bee that you just saw.</p>\n                    <img src=\"bees-with-color/bee-B2DM.svg\" width=\"200\">\n                    <p><br>Your bonus pay is unchanged, and remains at $0.70.</p>\n            ","response":0,"trial_type":"html-button-response","trial_index":72,"time_elapsed":667492,"internal_node_id":"0.0-4.0-1.32","subject_id":"612cf0efe0be33cea5c5a123","study_id":"6197b3f67c2b5cd3b6d9596a","session_id":"6197b5e4cb7c2e97769614d0","condition":"contingent","relevant_dimensions":["wings","legs"],"bee_group":{"antennae":"X","wings":"2","pattern":"X","legs":"F"},"bonus":1.0200000000000005},{"rt":3582.600000023842,"stimulus":"bees-with-color/bee-A1DF.svg","response":0,"trial_type":"image-button-response","trial_index":73,"time_elapsed":671077,"internal_node_id":"0.0-4.0-0.33","subject_id":"612cf0efe0be33cea5c5a123","study_id":"6197b3f67c2b5cd3b6d9596a","session_id":"6197b5e4cb7c2e97769614d0","condition":"contingent","relevant_dimensions":["wings","legs"],"bee_group":{"antennae":"X","wings":"2","pattern":"X","legs":"F"},"action":"harvest","summary":"good-harvest","bonus":1.0200000000000005},{"rt":1628.2000000476837,"stimulus":"\n                    <p><b>Action: <em>harvest</em></b></p>\n                    <p>This is the bee that you just saw.</p>\n                    <img src=\"bees-with-color/bee-A1DF.svg\" width=\"200\">\n                    <p><span class=\"greenText\"><b>Successful harvest!</b></span><br>Your pay has increased by $0.02. Your bonus pay is now $0.72.</p>\n            ","response":0,"trial_type":"html-button-response","trial_index":74,"time_elapsed":672708,"internal_node_id":"0.0-4.0-1.33","subject_id":"612cf0efe0be33cea5c5a123","study_id":"6197b3f67c2b5cd3b6d9596a","session_id":"6197b5e4cb7c2e97769614d0","condition":"contingent","relevant_dimensions":["wings","legs"],"bee_group":{"antennae":"X","wings":"2","pattern":"X","legs":"F"},"bonus":1.0200000000000005},{"rt":1615.6000000238419,"stimulus":"bees-with-color/bee-A2SM.svg","response":1,"trial_type":"image-button-response","trial_index":75,"time_elapsed":674327,"internal_node_id":"0.0-4.0-0.34","subject_id":"612cf0efe0be33cea5c5a123","study_id":"6197b3f67c2b5cd3b6d9596a","session_id":"6197b5e4cb7c2e97769614d0","condition":"contingent","relevant_dimensions":["wings","legs"],"bee_group":{"antennae":"X","wings":"2","pattern":"X","legs":"F"},"action":"avoid","summary":"bad-avoid","bonus":1.0200000000000005},{"rt":1344.2000000476837,"stimulus":"\n                    <p><b>Action: <em>avoid</em></b></p>\n                    <p>This is the bee that you just saw.</p>\n                    <img src=\"bees-with-color/bee-A2SM.svg\" width=\"200\">\n                    <p><br>Your bonus pay is unchanged, and remains at $0.72.</p>\n            ","response":0,"trial_type":"html-button-response","trial_index":76,"time_elapsed":675674,"internal_node_id":"0.0-4.0-1.34","subject_id":"612cf0efe0be33cea5c5a123","study_id":"6197b3f67c2b5cd3b6d9596a","session_id":"6197b5e4cb7c2e97769614d0","condition":"contingent","relevant_dimensions":["wings","legs"],"bee_group":{"antennae":"X","wings":"2","pattern":"X","legs":"F"},"bonus":1.0200000000000005},{"rt":2597,"stimulus":"bees-with-color/bee-B2SM.svg","response":1,"trial_type":"image-button-response","trial_index":77,"time_elapsed":678273,"internal_node_id":"0.0-4.0-0.35","subject_id":"612cf0efe0be33cea5c5a123","study_id":"6197b3f67c2b5cd3b6d9596a","session_id":"6197b5e4cb7c2e97769614d0","condition":"contingent","relevant_dimensions":["wings","legs"],"bee_group":{"antennae":"X","wings":"2","pattern":"X","legs":"F"},"action":"avoid","summary":"bad-avoid","bonus":1.0200000000000005},{"rt":1704.2000000476837,"stimulus":"\n                    <p><b>Action: <em>avoid</em></b></p>\n                    <p>This is the bee that you just saw.</p>\n                    <img src=\"bees-with-color/bee-B2SM.svg\" width=\"200\">\n                    <p><br>Your bonus pay is unchanged, and remains at $0.72.</p>\n            ","response":0,"trial_type":"html-button-response","trial_index":78,"time_elapsed":679980,"internal_node_id":"0.0-4.0-1.35","subject_id":"612cf0efe0be33cea5c5a123","study_id":"6197b3f67c2b5cd3b6d9596a","session_id":"6197b5e4cb7c2e97769614d0","condition":"contingent","relevant_dimensions":["wings","legs"],"bee_group":{"antennae":"X","wings":"2","pattern":"X","legs":"F"},"bonus":1.0200000000000005},{"rt":2629.3000000715256,"stimulus":"bees-with-color/bee-B1DF.svg","response":0,"trial_type":"image-button-response","trial_index":79,"time_elapsed":682612,"internal_node_id":"0.0-4.0-0.36","subject_id":"612cf0efe0be33cea5c5a123","study_id":"6197b3f67c2b5cd3b6d9596a","session_id":"6197b5e4cb7c2e97769614d0","condition":"contingent","relevant_dimensions":["wings","legs"],"bee_group":{"antennae":"X","wings":"2","pattern":"X","legs":"F"},"action":"harvest","summary":"good-harvest","bonus":1.0200000000000005},{"rt":1555.5,"stimulus":"\n                    <p><b>Action: <em>harvest</em></b></p>\n                    <p>This is the bee that you just saw.</p>\n                    <img src=\"bees-with-color/bee-B1DF.svg\" width=\"200\">\n                    <p><span class=\"greenText\"><b>Successful harvest!</b></span><br>Your pay has increased by $0.02. Your bonus pay is now $0.74.</p>\n            ","response":0,"trial_type":"html-button-response","trial_index":80,"time_elapsed":684169,"internal_node_id":"0.0-4.0-1.36","subject_id":"612cf0efe0be33cea5c5a123","study_id":"6197b3f67c2b5cd3b6d9596a","session_id":"6197b5e4cb7c2e97769614d0","condition":"contingent","relevant_dimensions":["wings","legs"],"bee_group":{"antennae":"X","wings":"2","pattern":"X","legs":"F"},"bonus":1.0200000000000005},{"rt":4366.900000095367,"stimulus":"bees-with-color/bee-A2DF.svg","response":1,"trial_type":"image-button-response","trial_index":81,"time_elapsed":688539,"internal_node_id":"0.0-4.0-0.37","subject_id":"612cf0efe0be33cea5c5a123","study_id":"6197b3f67c2b5cd3b6d9596a","session_id":"6197b5e4cb7c2e97769614d0","condition":"contingent","relevant_dimensions":["wings","legs"],"bee_group":{"antennae":"X","wings":"2","pattern":"X","legs":"F"},"action":"avoid","summary":"good-avoid","bonus":1.0200000000000005},{"rt":1469.6999999284744,"stimulus":"\n                    <p><b>Action: <em>avoid</em></b></p>\n                    <p>This is the bee that you just saw.</p>\n                    <img src=\"bees-with-color/bee-A2DF.svg\" width=\"200\">\n                    <p><br>Your bonus pay is unchanged, and remains at $0.74.</p>\n            ","response":0,"trial_type":"html-button-response","trial_index":82,"time_elapsed":690010,"internal_node_id":"0.0-4.0-1.37","subject_id":"612cf0efe0be33cea5c5a123","study_id":"6197b3f67c2b5cd3b6d9596a","session_id":"6197b5e4cb7c2e97769614d0","condition":"contingent","relevant_dimensions":["wings","legs"],"bee_group":{"antennae":"X","wings":"2","pattern":"X","legs":"F"},"bonus":1.0200000000000005},{"rt":3828.5,"stimulus":"bees-with-color/bee-A2SF.svg","response":1,"trial_type":"image-button-response","trial_index":83,"time_elapsed":693841,"internal_node_id":"0.0-4.0-0.38","subject_id":"612cf0efe0be33cea5c5a123","study_id":"6197b3f67c2b5cd3b6d9596a","session_id":"6197b5e4cb7c2e97769614d0","condition":"contingent","relevant_dimensions":["wings","legs"],"bee_group":{"antennae":"X","wings":"2","pattern":"X","legs":"F"},"action":"avoid","summary":"good-avoid","bonus":1.0200000000000005},{"rt":2700.2999999523163,"stimulus":"\n                    <p><b>Action: <em>avoid</em></b></p>\n                    <p>This is the bee that you just saw.</p>\n                    <img src=\"bees-with-color/bee-A2SF.svg\" width=\"200\">\n                    <p><br>Your bonus pay is unchanged, and remains at $0.74.</p>\n            ","response":0,"trial_type":"html-button-response","trial_index":84,"time_elapsed":696543,"internal_node_id":"0.0-4.0-1.38","subject_id":"612cf0efe0be33cea5c5a123","study_id":"6197b3f67c2b5cd3b6d9596a","session_id":"6197b5e4cb7c2e97769614d0","condition":"contingent","relevant_dimensions":["wings","legs"],"bee_group":{"antennae":"X","wings":"2","pattern":"X","legs":"F"},"bonus":1.0200000000000005},{"rt":2049.7999999523163,"stimulus":"bees-with-color/bee-B1SM.svg","response":1,"trial_type":"image-button-response","trial_index":85,"time_elapsed":698596,"internal_node_id":"0.0-4.0-0.39","subject_id":"612cf0efe0be33cea5c5a123","study_id":"6197b3f67c2b5cd3b6d9596a","session_id":"6197b5e4cb7c2e97769614d0","condition":"contingent","relevant_dimensions":["wings","legs"],"bee_group":{"antennae":"X","wings":"2","pattern":"X","legs":"F"},"action":"avoid","summary":"bad-avoid","bonus":1.0200000000000005},{"rt":1147.7000000476837,"stimulus":"\n                    <p><b>Action: <em>avoid</em></b></p>\n                    <p>This is the bee that you just saw.</p>\n                    <img src=\"bees-with-color/bee-B1SM.svg\" width=\"200\">\n                    <p><br>Your bonus pay is unchanged, and remains at $0.74.</p>\n            ","response":0,"trial_type":"html-button-response","trial_index":86,"time_elapsed":699746,"internal_node_id":"0.0-4.0-1.39","subject_id":"612cf0efe0be33cea5c5a123","study_id":"6197b3f67c2b5cd3b6d9596a","session_id":"6197b5e4cb7c2e97769614d0","condition":"contingent","relevant_dimensions":["wings","legs"],"bee_group":{"antennae":"X","wings":"2","pattern":"X","legs":"F"},"bonus":1.0200000000000005},{"rt":2136.399999976158,"stimulus":"bees-with-color/bee-A2DM.svg","response":1,"trial_type":"image-button-response","trial_index":87,"time_elapsed":701884,"internal_node_id":"0.0-4.0-0.40","subject_id":"612cf0efe0be33cea5c5a123","study_id":"6197b3f67c2b5cd3b6d9596a","session_id":"6197b5e4cb7c2e97769614d0","condition":"contingent","relevant_dimensions":["wings","legs"],"bee_group":{"antennae":"X","wings":"2","pattern":"X","legs":"F"},"action":"avoid","summary":"bad-avoid","bonus":1.0200000000000005},{"rt":1184.3000000715256,"stimulus":"\n                    <p><b>Action: <em>avoid</em></b></p>\n                    <p>This is the bee that you just saw.</p>\n                    <img src=\"bees-with-color/bee-A2DM.svg\" width=\"200\">\n                    <p><br>Your bonus pay is unchanged, and remains at $0.74.</p>\n            ","response":0,"trial_type":"html-button-response","trial_index":88,"time_elapsed":703071,"internal_node_id":"0.0-4.0-1.40","subject_id":"612cf0efe0be33cea5c5a123","study_id":"6197b3f67c2b5cd3b6d9596a","session_id":"6197b5e4cb7c2e97769614d0","condition":"contingent","relevant_dimensions":["wings","legs"],"bee_group":{"antennae":"X","wings":"2","pattern":"X","legs":"F"},"bonus":1.0200000000000005},{"rt":2166.399999976158,"stimulus":"bees-with-color/bee-A1SM.svg","response":1,"trial_type":"image-button-response","trial_index":89,"time_elapsed":705240,"internal_node_id":"0.0-4.0-0.41","subject_id":"612cf0efe0be33cea5c5a123","study_id":"6197b3f67c2b5cd3b6d9596a","session_id":"6197b5e4cb7c2e97769614d0","condition":"contingent","relevant_dimensions":["wings","legs"],"bee_group":{"antennae":"X","wings":"2","pattern":"X","legs":"F"},"action":"avoid","summary":"bad-avoid","bonus":1.0200000000000005},{"rt":1876.8999999761581,"stimulus":"\n                    <p><b>Action: <em>avoid</em></b></p>\n                    <p>This is the bee that you just saw.</p>\n                    <img src=\"bees-with-color/bee-A1SM.svg\" width=\"200\">\n                    <p><br>Your bonus pay is unchanged, and remains at $0.74.</p>\n            ","response":0,"trial_type":"html-button-response","trial_index":90,"time_elapsed":707119,"internal_node_id":"0.0-4.0-1.41","subject_id":"612cf0efe0be33cea5c5a123","study_id":"6197b3f67c2b5cd3b6d9596a","session_id":"6197b5e4cb7c2e97769614d0","condition":"contingent","relevant_dimensions":["wings","legs"],"bee_group":{"antennae":"X","wings":"2","pattern":"X","legs":"F"},"bonus":1.0200000000000005},{"rt":1628.6999999284744,"stimulus":"bees-with-color/bee-A1DM.svg","response":1,"trial_type":"image-button-response","trial_index":91,"time_elapsed":708751,"internal_node_id":"0.0-4.0-0.42","subject_id":"612cf0efe0be33cea5c5a123","study_id":"6197b3f67c2b5cd3b6d9596a","session_id":"6197b5e4cb7c2e97769614d0","condition":"contingent","relevant_dimensions":["wings","legs"],"bee_group":{"antennae":"X","wings":"2","pattern":"X","legs":"F"},"action":"avoid","summary":"bad-avoid","bonus":1.0200000000000005},{"rt":1790.5,"stimulus":"\n                    <p><b>Action: <em>avoid</em></b></p>\n                    <p>This is the bee that you just saw.</p>\n                    <img src=\"bees-with-color/bee-A1DM.svg\" width=\"200\">\n                    <p><br>Your bonus pay is unchanged, and remains at $0.74.</p>\n            ","response":0,"trial_type":"html-button-response","trial_index":92,"time_elapsed":710544,"internal_node_id":"0.0-4.0-1.42","subject_id":"612cf0efe0be33cea5c5a123","study_id":"6197b3f67c2b5cd3b6d9596a","session_id":"6197b5e4cb7c2e97769614d0","condition":"contingent","relevant_dimensions":["wings","legs"],"bee_group":{"antennae":"X","wings":"2","pattern":"X","legs":"F"},"bonus":1.0200000000000005},{"rt":3736.7000000476837,"stimulus":"bees-with-color/bee-B2SF.svg","response":1,"trial_type":"image-button-response","trial_index":93,"time_elapsed":714283,"internal_node_id":"0.0-4.0-0.43","subject_id":"612cf0efe0be33cea5c5a123","study_id":"6197b3f67c2b5cd3b6d9596a","session_id":"6197b5e4cb7c2e97769614d0","condition":"contingent","relevant_dimensions":["wings","legs"],"bee_group":{"antennae":"X","wings":"2","pattern":"X","legs":"F"},"action":"avoid","summary":"good-avoid","bonus":1.0200000000000005},{"rt":2742.600000023842,"stimulus":"\n                    <p><b>Action: <em>avoid</em></b></p>\n                    <p>This is the bee that you just saw.</p>\n                    <img src=\"bees-with-color/bee-B2SF.svg\" width=\"200\">\n                    <p><br>Your bonus pay is unchanged, and remains at $0.74.</p>\n            ","response":0,"trial_type":"html-button-response","trial_index":94,"time_elapsed":717028,"internal_node_id":"0.0-4.0-1.43","subject_id":"612cf0efe0be33cea5c5a123","study_id":"6197b3f67c2b5cd3b6d9596a","session_id":"6197b5e4cb7c2e97769614d0","condition":"contingent","relevant_dimensions":["wings","legs"],"bee_group":{"antennae":"X","wings":"2","pattern":"X","legs":"F"},"bonus":1.0200000000000005},{"rt":12709.299999952316,"stimulus":"bees-with-color/bee-B2DF.svg","response":1,"trial_type":"image-button-response","trial_index":95,"time_elapsed":729740,"internal_node_id":"0.0-4.0-0.44","subject_id":"612cf0efe0be33cea5c5a123","study_id":"6197b3f67c2b5cd3b6d9596a","session_id":"6197b5e4cb7c2e97769614d0","condition":"contingent","relevant_dimensions":["wings","legs"],"bee_group":{"antennae":"X","wings":"2","pattern":"X","legs":"F"},"action":"avoid","summary":"good-avoid","bonus":1.0200000000000005},{"rt":1715.5,"stimulus":"\n                    <p><b>Action: <em>avoid</em></b></p>\n                    <p>This is the bee that you just saw.</p>\n                    <img src=\"bees-with-color/bee-B2DF.svg\" width=\"200\">\n                    <p><br>Your bonus pay is unchanged, and remains at $0.74.</p>\n            ","response":0,"trial_type":"html-button-response","trial_index":96,"time_elapsed":731457,"internal_node_id":"0.0-4.0-1.44","subject_id":"612cf0efe0be33cea5c5a123","study_id":"6197b3f67c2b5cd3b6d9596a","session_id":"6197b5e4cb7c2e97769614d0","condition":"contingent","relevant_dimensions":["wings","legs"],"bee_group":{"antennae":"X","wings":"2","pattern":"X","legs":"F"},"bonus":1.0200000000000005},{"rt":6184.799999952316,"stimulus":"bees-with-color/bee-A1SF.svg","response":0,"trial_type":"image-button-response","trial_index":97,"time_elapsed":737646,"internal_node_id":"0.0-4.0-0.45","subject_id":"612cf0efe0be33cea5c5a123","study_id":"6197b3f67c2b5cd3b6d9596a","session_id":"6197b5e4cb7c2e97769614d0","condition":"contingent","relevant_dimensions":["wings","legs"],"bee_group":{"antennae":"X","wings":"2","pattern":"X","legs":"F"},"action":"harvest","summary":"good-harvest","bonus":1.0200000000000005},{"rt":1912.3999999761581,"stimulus":"\n                    <p><b>Action: <em>harvest</em></b></p>\n                    <p>This is the bee that you just saw.</p>\n                    <img src=\"bees-with-color/bee-A1SF.svg\" width=\"200\">\n                    <p><span class=\"greenText\"><b>Successful harvest!</b></span><br>Your pay has increased by $0.02. Your bonus pay is now $0.76.</p>\n            ","response":0,"trial_type":"html-button-response","trial_index":98,"time_elapsed":739560,"internal_node_id":"0.0-4.0-1.45","subject_id":"612cf0efe0be33cea5c5a123","study_id":"6197b3f67c2b5cd3b6d9596a","session_id":"6197b5e4cb7c2e97769614d0","condition":"contingent","relevant_dimensions":["wings","legs"],"bee_group":{"antennae":"X","wings":"2","pattern":"X","legs":"F"},"bonus":1.0200000000000005},{"rt":3879.7000000476837,"stimulus":"bees-with-color/bee-B1SF.svg","response":0,"trial_type":"image-button-response","trial_index":99,"time_elapsed":743443,"internal_node_id":"0.0-4.0-0.46","subject_id":"612cf0efe0be33cea5c5a123","study_id":"6197b3f67c2b5cd3b6d9596a","session_id":"6197b5e4cb7c2e97769614d0","condition":"contingent","relevant_dimensions":["wings","legs"],"bee_group":{"antennae":"X","wings":"2","pattern":"X","legs":"F"},"action":"harvest","summary":"good-harvest","bonus":1.0200000000000005},{"rt":2223.899999976158,"stimulus":"\n                    <p><b>Action: <em>harvest</em></b></p>\n                    <p>This is the bee that you just saw.</p>\n                    <img src=\"bees-with-color/bee-B1SF.svg\" width=\"200\">\n                    <p><span class=\"greenText\"><b>Successful harvest!</b></span><br>Your pay has increased by $0.02. Your bonus pay is now $0.78.</p>\n            ","response":0,"trial_type":"html-button-response","trial_index":100,"time_elapsed":745670,"internal_node_id":"0.0-4.0-1.46","subject_id":"612cf0efe0be33cea5c5a123","study_id":"6197b3f67c2b5cd3b6d9596a","session_id":"6197b5e4cb7c2e97769614d0","condition":"contingent","relevant_dimensions":["wings","legs"],"bee_group":{"antennae":"X","wings":"2","pattern":"X","legs":"F"},"bonus":1.0200000000000005},{"rt":1428.5,"stimulus":"bees-with-color/bee-B1DM.svg","response":1,"trial_type":"image-button-response","trial_index":101,"time_elapsed":747101,"internal_node_id":"0.0-4.0-0.47","subject_id":"612cf0efe0be33cea5c5a123","study_id":"6197b3f67c2b5cd3b6d9596a","session_id":"6197b5e4cb7c2e97769614d0","condition":"contingent","relevant_dimensions":["wings","legs"],"bee_group":{"antennae":"X","wings":"2","pattern":"X","legs":"F"},"action":"avoid","summary":"bad-avoid","bonus":1.0200000000000005},{"rt":1938.8999999761581,"stimulus":"\n                    <p><b>Action: <em>avoid</em></b></p>\n                    <p>This is the bee that you just saw.</p>\n                    <img src=\"bees-with-color/bee-B1DM.svg\" width=\"200\">\n                    <p><br>Your bonus pay is unchanged, and remains at $0.78.</p>\n            ","response":0,"trial_type":"html-button-response","trial_index":102,"time_elapsed":749043,"internal_node_id":"0.0-4.0-1.47","subject_id":"612cf0efe0be33cea5c5a123","study_id":"6197b3f67c2b5cd3b6d9596a","session_id":"6197b5e4cb7c2e97769614d0","condition":"contingent","relevant_dimensions":["wings","legs"],"bee_group":{"antennae":"X","wings":"2","pattern":"X","legs":"F"},"bonus":1.0200000000000005},{"rt":2098.2999999523163,"stimulus":"bees-with-color/bee-A1SF.svg","response":0,"trial_type":"image-button-response","trial_index":103,"time_elapsed":751143,"internal_node_id":"0.0-4.0-0.48","subject_id":"612cf0efe0be33cea5c5a123","study_id":"6197b3f67c2b5cd3b6d9596a","session_id":"6197b5e4cb7c2e97769614d0","condition":"contingent","relevant_dimensions":["wings","legs"],"bee_group":{"antennae":"X","wings":"2","pattern":"X","legs":"F"},"action":"harvest","summary":"good-harvest","bonus":1.0200000000000005},{"rt":1418.1000000238419,"stimulus":"\n                    <p><b>Action: <em>harvest</em></b></p>\n                    <p>This is the bee that you just saw.</p>\n                    <img src=\"bees-with-color/bee-A1SF.svg\" width=\"200\">\n                    <p><span class=\"greenText\"><b>Successful harvest!</b></span><br>Your pay has increased by $0.02. Your bonus pay is now $0.80.</p>\n            ","response":0,"trial_type":"html-button-response","trial_index":104,"time_elapsed":752565,"internal_node_id":"0.0-4.0-1.48","subject_id":"612cf0efe0be33cea5c5a123","study_id":"6197b3f67c2b5cd3b6d9596a","session_id":"6197b5e4cb7c2e97769614d0","condition":"contingent","relevant_dimensions":["wings","legs"],"bee_group":{"antennae":"X","wings":"2","pattern":"X","legs":"F"},"bonus":1.0200000000000005},{"rt":1703.6999999284744,"stimulus":"bees-with-color/bee-B1SF.svg","response":0,"trial_type":"image-button-response","trial_index":105,"time_elapsed":754272,"internal_node_id":"0.0-4.0-0.49","subject_id":"612cf0efe0be33cea5c5a123","study_id":"6197b3f67c2b5cd3b6d9596a","session_id":"6197b5e4cb7c2e97769614d0","condition":"contingent","relevant_dimensions":["wings","legs"],"bee_group":{"antennae":"X","wings":"2","pattern":"X","legs":"F"},"action":"harvest","summary":"good-harvest","bonus":1.0200000000000005},{"rt":1381.5,"stimulus":"\n                    <p><b>Action: <em>harvest</em></b></p>\n                    <p>This is the bee that you just saw.</p>\n                    <img src=\"bees-with-color/bee-B1SF.svg\" width=\"200\">\n                    <p><span class=\"greenText\"><b>Successful harvest!</b></span><br>Your pay has increased by $0.02. Your bonus pay is now $0.82.</p>\n            ","response":0,"trial_type":"html-button-response","trial_index":106,"time_elapsed":755656,"internal_node_id":"0.0-4.0-1.49","subject_id":"612cf0efe0be33cea5c5a123","study_id":"6197b3f67c2b5cd3b6d9596a","session_id":"6197b5e4cb7c2e97769614d0","condition":"contingent","relevant_dimensions":["wings","legs"],"bee_group":{"antennae":"X","wings":"2","pattern":"X","legs":"F"},"bonus":1.0200000000000005},{"rt":2171.899999976158,"stimulus":"bees-with-color/bee-A2DM.svg","response":1,"trial_type":"image-button-response","trial_index":107,"time_elapsed":757831,"internal_node_id":"0.0-4.0-0.50","subject_id":"612cf0efe0be33cea5c5a123","study_id":"6197b3f67c2b5cd3b6d9596a","session_id":"6197b5e4cb7c2e97769614d0","condition":"contingent","relevant_dimensions":["wings","legs"],"bee_group":{"antennae":"X","wings":"2","pattern":"X","legs":"F"},"action":"avoid","summary":"bad-avoid","bonus":1.0200000000000005},{"rt":1591.7000000476837,"stimulus":"\n                    <p><b>Action: <em>avoid</em></b></p>\n                    <p>This is the bee that you just saw.</p>\n                    <img src=\"bees-with-color/bee-A2DM.svg\" width=\"200\">\n                    <p><br>Your bonus pay is unchanged, and remains at $0.82.</p>\n            ","response":0,"trial_type":"html-button-response","trial_index":108,"time_elapsed":759425,"internal_node_id":"0.0-4.0-1.50","subject_id":"612cf0efe0be33cea5c5a123","study_id":"6197b3f67c2b5cd3b6d9596a","session_id":"6197b5e4cb7c2e97769614d0","condition":"contingent","relevant_dimensions":["wings","legs"],"bee_group":{"antennae":"X","wings":"2","pattern":"X","legs":"F"},"bonus":1.0200000000000005},{"rt":2346.1999999284744,"stimulus":"bees-with-color/bee-A2SM.svg","response":1,"trial_type":"image-button-response","trial_index":109,"time_elapsed":761773,"internal_node_id":"0.0-4.0-0.51","subject_id":"612cf0efe0be33cea5c5a123","study_id":"6197b3f67c2b5cd3b6d9596a","session_id":"6197b5e4cb7c2e97769614d0","condition":"contingent","relevant_dimensions":["wings","legs"],"bee_group":{"antennae":"X","wings":"2","pattern":"X","legs":"F"},"action":"avoid","summary":"bad-avoid","bonus":1.0200000000000005},{"rt":1567.3999999761581,"stimulus":"\n                    <p><b>Action: <em>avoid</em></b></p>\n                    <p>This is the bee that you just saw.</p>\n                    <img src=\"bees-with-color/bee-A2SM.svg\" width=\"200\">\n                    <p><br>Your bonus pay is unchanged, and remains at $0.82.</p>\n            ","response":0,"trial_type":"html-button-response","trial_index":110,"time_elapsed":763343,"internal_node_id":"0.0-4.0-1.51","subject_id":"612cf0efe0be33cea5c5a123","study_id":"6197b3f67c2b5cd3b6d9596a","session_id":"6197b5e4cb7c2e97769614d0","condition":"contingent","relevant_dimensions":["wings","legs"],"bee_group":{"antennae":"X","wings":"2","pattern":"X","legs":"F"},"bonus":1.0200000000000005},{"rt":1826.7000000476837,"stimulus":"bees-with-color/bee-B1DM.svg","response":1,"trial_type":"image-button-response","trial_index":111,"time_elapsed":765173,"internal_node_id":"0.0-4.0-0.52","subject_id":"612cf0efe0be33cea5c5a123","study_id":"6197b3f67c2b5cd3b6d9596a","session_id":"6197b5e4cb7c2e97769614d0","condition":"contingent","relevant_dimensions":["wings","legs"],"bee_group":{"antennae":"X","wings":"2","pattern":"X","legs":"F"},"action":"avoid","summary":"bad-avoid","bonus":1.0200000000000005},{"rt":1554.3000000715256,"stimulus":"\n                    <p><b>Action: <em>avoid</em></b></p>\n                    <p>This is the bee that you just saw.</p>\n                    <img src=\"bees-with-color/bee-B1DM.svg\" width=\"200\">\n                    <p><br>Your bonus pay is unchanged, and remains at $0.82.</p>\n            ","response":0,"trial_type":"html-button-response","trial_index":112,"time_elapsed":766730,"internal_node_id":"0.0-4.0-1.52","subject_id":"612cf0efe0be33cea5c5a123","study_id":"6197b3f67c2b5cd3b6d9596a","session_id":"6197b5e4cb7c2e97769614d0","condition":"contingent","relevant_dimensions":["wings","legs"],"bee_group":{"antennae":"X","wings":"2","pattern":"X","legs":"F"},"bonus":1.0200000000000005},{"rt":2011.8000000715256,"stimulus":"bees-with-color/bee-A1SM.svg","response":1,"trial_type":"image-button-response","trial_index":113,"time_elapsed":768744,"internal_node_id":"0.0-4.0-0.53","subject_id":"612cf0efe0be33cea5c5a123","study_id":"6197b3f67c2b5cd3b6d9596a","session_id":"6197b5e4cb7c2e97769614d0","condition":"contingent","relevant_dimensions":["wings","legs"],"bee_group":{"antennae":"X","wings":"2","pattern":"X","legs":"F"},"action":"avoid","summary":"bad-avoid","bonus":1.0200000000000005},{"rt":1529.2000000476837,"stimulus":"\n                    <p><b>Action: <em>avoid</em></b></p>\n                    <p>This is the bee that you just saw.</p>\n                    <img src=\"bees-with-color/bee-A1SM.svg\" width=\"200\">\n                    <p><br>Your bonus pay is unchanged, and remains at $0.82.</p>\n            ","response":0,"trial_type":"html-button-response","trial_index":114,"time_elapsed":770276,"internal_node_id":"0.0-4.0-1.53","subject_id":"612cf0efe0be33cea5c5a123","study_id":"6197b3f67c2b5cd3b6d9596a","session_id":"6197b5e4cb7c2e97769614d0","condition":"contingent","relevant_dimensions":["wings","legs"],"bee_group":{"antennae":"X","wings":"2","pattern":"X","legs":"F"},"bonus":1.0200000000000005},{"rt":2891.4000000953674,"stimulus":"bees-with-color/bee-A2SF.svg","response":1,"trial_type":"image-button-response","trial_index":115,"time_elapsed":773170,"internal_node_id":"0.0-4.0-0.54","subject_id":"612cf0efe0be33cea5c5a123","study_id":"6197b3f67c2b5cd3b6d9596a","session_id":"6197b5e4cb7c2e97769614d0","condition":"contingent","relevant_dimensions":["wings","legs"],"bee_group":{"antennae":"X","wings":"2","pattern":"X","legs":"F"},"action":"avoid","summary":"good-avoid","bonus":1.0200000000000005},{"rt":4765.800000071526,"stimulus":"\n                    <p><b>Action: <em>avoid</em></b></p>\n                    <p>This is the bee that you just saw.</p>\n                    <img src=\"bees-with-color/bee-A2SF.svg\" width=\"200\">\n                    <p><br>Your bonus pay is unchanged, and remains at $0.82.</p>\n            ","response":0,"trial_type":"html-button-response","trial_index":116,"time_elapsed":777940,"internal_node_id":"0.0-4.0-1.54","subject_id":"612cf0efe0be33cea5c5a123","study_id":"6197b3f67c2b5cd3b6d9596a","session_id":"6197b5e4cb7c2e97769614d0","condition":"contingent","relevant_dimensions":["wings","legs"],"bee_group":{"antennae":"X","wings":"2","pattern":"X","legs":"F"},"bonus":1.0200000000000005},{"rt":4146.900000095367,"stimulus":"bees-with-color/bee-A2DF.svg","response":1,"trial_type":"image-button-response","trial_index":117,"time_elapsed":782090,"internal_node_id":"0.0-4.0-0.55","subject_id":"612cf0efe0be33cea5c5a123","study_id":"6197b3f67c2b5cd3b6d9596a","session_id":"6197b5e4cb7c2e97769614d0","condition":"contingent","relevant_dimensions":["wings","legs"],"bee_group":{"antennae":"X","wings":"2","pattern":"X","legs":"F"},"action":"avoid","summary":"good-avoid","bonus":1.0200000000000005},{"rt":1197,"stimulus":"\n                    <p><b>Action: <em>avoid</em></b></p>\n                    <p>This is the bee that you just saw.</p>\n                    <img src=\"bees-with-color/bee-A2DF.svg\" width=\"200\">\n                    <p><br>Your bonus pay is unchanged, and remains at $0.82.</p>\n            ","response":0,"trial_type":"html-button-response","trial_index":118,"time_elapsed":783290,"internal_node_id":"0.0-4.0-1.55","subject_id":"612cf0efe0be33cea5c5a123","study_id":"6197b3f67c2b5cd3b6d9596a","session_id":"6197b5e4cb7c2e97769614d0","condition":"contingent","relevant_dimensions":["wings","legs"],"bee_group":{"antennae":"X","wings":"2","pattern":"X","legs":"F"},"bonus":1.0200000000000005},{"rt":1899.7999999523163,"stimulus":"bees-with-color/bee-A1DM.svg","response":1,"trial_type":"image-button-response","trial_index":119,"time_elapsed":785192,"internal_node_id":"0.0-4.0-0.56","subject_id":"612cf0efe0be33cea5c5a123","study_id":"6197b3f67c2b5cd3b6d9596a","session_id":"6197b5e4cb7c2e97769614d0","condition":"contingent","relevant_dimensions":["wings","legs"],"bee_group":{"antennae":"X","wings":"2","pattern":"X","legs":"F"},"action":"avoid","summary":"bad-avoid","bonus":1.0200000000000005},{"rt":1171.6000000238419,"stimulus":"\n                    <p><b>Action: <em>avoid</em></b></p>\n                    <p>This is the bee that you just saw.</p>\n                    <img src=\"bees-with-color/bee-A1DM.svg\" width=\"200\">\n                    <p><br>Your bonus pay is unchanged, and remains at $0.82.</p>\n            ","response":0,"trial_type":"html-button-response","trial_index":120,"time_elapsed":786367,"internal_node_id":"0.0-4.0-1.56","subject_id":"612cf0efe0be33cea5c5a123","study_id":"6197b3f67c2b5cd3b6d9596a","session_id":"6197b5e4cb7c2e97769614d0","condition":"contingent","relevant_dimensions":["wings","legs"],"bee_group":{"antennae":"X","wings":"2","pattern":"X","legs":"F"},"bonus":1.0200000000000005},{"rt":2159.899999976158,"stimulus":"bees-with-color/bee-B1DF.svg","response":0,"trial_type":"image-button-response","trial_index":121,"time_elapsed":788530,"internal_node_id":"0.0-4.0-0.57","subject_id":"612cf0efe0be33cea5c5a123","study_id":"6197b3f67c2b5cd3b6d9596a","session_id":"6197b5e4cb7c2e97769614d0","condition":"contingent","relevant_dimensions":["wings","legs"],"bee_group":{"antennae":"X","wings":"2","pattern":"X","legs":"F"},"action":"harvest","summary":"good-harvest","bonus":1.0200000000000005},{"rt":1356.6000000238419,"stimulus":"\n                    <p><b>Action: <em>harvest</em></b></p>\n                    <p>This is the bee that you just saw.</p>\n                    <img src=\"bees-with-color/bee-B1DF.svg\" width=\"200\">\n                    <p><span class=\"greenText\"><b>Successful harvest!</b></span><br>Your pay has increased by $0.02. Your bonus pay is now $0.84.</p>\n            ","response":0,"trial_type":"html-button-response","trial_index":122,"time_elapsed":789889,"internal_node_id":"0.0-4.0-1.57","subject_id":"612cf0efe0be33cea5c5a123","study_id":"6197b3f67c2b5cd3b6d9596a","session_id":"6197b5e4cb7c2e97769614d0","condition":"contingent","relevant_dimensions":["wings","legs"],"bee_group":{"antennae":"X","wings":"2","pattern":"X","legs":"F"},"bonus":1.0200000000000005},{"rt":1988.0999999046326,"stimulus":"bees-with-color/bee-B2DM.svg","response":1,"trial_type":"image-button-response","trial_index":123,"time_elapsed":791880,"internal_node_id":"0.0-4.0-0.58","subject_id":"612cf0efe0be33cea5c5a123","study_id":"6197b3f67c2b5cd3b6d9596a","session_id":"6197b5e4cb7c2e97769614d0","condition":"contingent","relevant_dimensions":["wings","legs"],"bee_group":{"antennae":"X","wings":"2","pattern":"X","legs":"F"},"action":"avoid","summary":"bad-avoid","bonus":1.0200000000000005},{"rt":1084.3000000715256,"stimulus":"\n                    <p><b>Action: <em>avoid</em></b></p>\n                    <p>This is the bee that you just saw.</p>\n                    <img src=\"bees-with-color/bee-B2DM.svg\" width=\"200\">\n                    <p><br>Your bonus pay is unchanged, and remains at $0.84.</p>\n            ","response":0,"trial_type":"html-button-response","trial_index":124,"time_elapsed":792967,"internal_node_id":"0.0-4.0-1.58","subject_id":"612cf0efe0be33cea5c5a123","study_id":"6197b3f67c2b5cd3b6d9596a","session_id":"6197b5e4cb7c2e97769614d0","condition":"contingent","relevant_dimensions":["wings","legs"],"bee_group":{"antennae":"X","wings":"2","pattern":"X","legs":"F"},"bonus":1.0200000000000005},{"rt":5310.5,"stimulus":"bees-with-color/bee-B2SF.svg","response":1,"trial_type":"image-button-response","trial_index":125,"time_elapsed":798282,"internal_node_id":"0.0-4.0-0.59","subject_id":"612cf0efe0be33cea5c5a123","study_id":"6197b3f67c2b5cd3b6d9596a","session_id":"6197b5e4cb7c2e97769614d0","condition":"contingent","relevant_dimensions":["wings","legs"],"bee_group":{"antennae":"X","wings":"2","pattern":"X","legs":"F"},"action":"avoid","summary":"good-avoid","bonus":1.0200000000000005},{"rt":1703.3999999761581,"stimulus":"\n                    <p><b>Action: <em>avoid</em></b></p>\n                    <p>This is the bee that you just saw.</p>\n                    <img src=\"bees-with-color/bee-B2SF.svg\" width=\"200\">\n                    <p><br>Your bonus pay is unchanged, and remains at $0.84.</p>\n            ","response":0,"trial_type":"html-button-response","trial_index":126,"time_elapsed":799988,"internal_node_id":"0.0-4.0-1.59","subject_id":"612cf0efe0be33cea5c5a123","study_id":"6197b3f67c2b5cd3b6d9596a","session_id":"6197b5e4cb7c2e97769614d0","condition":"contingent","relevant_dimensions":["wings","legs"],"bee_group":{"antennae":"X","wings":"2","pattern":"X","legs":"F"},"bonus":1.0200000000000005},{"rt":4780.5,"stimulus":"bees-with-color/bee-B1SM.svg","response":1,"trial_type":"image-button-response","trial_index":127,"time_elapsed":804771,"internal_node_id":"0.0-4.0-0.60","subject_id":"612cf0efe0be33cea5c5a123","study_id":"6197b3f67c2b5cd3b6d9596a","session_id":"6197b5e4cb7c2e97769614d0","condition":"contingent","relevant_dimensions":["wings","legs"],"bee_group":{"antennae":"X","wings":"2","pattern":"X","legs":"F"},"action":"avoid","summary":"bad-avoid","bonus":1.0200000000000005},{"rt":1345.2000000476837,"stimulus":"\n                    <p><b>Action: <em>avoid</em></b></p>\n                    <p>This is the bee that you just saw.</p>\n                    <img src=\"bees-with-color/bee-B1SM.svg\" width=\"200\">\n                    <p><br>Your bonus pay is unchanged, and remains at $0.84.</p>\n            ","response":0,"trial_type":"html-button-response","trial_index":128,"time_elapsed":806118,"internal_node_id":"0.0-4.0-1.60","subject_id":"612cf0efe0be33cea5c5a123","study_id":"6197b3f67c2b5cd3b6d9596a","session_id":"6197b5e4cb7c2e97769614d0","condition":"contingent","relevant_dimensions":["wings","legs"],"bee_group":{"antennae":"X","wings":"2","pattern":"X","legs":"F"},"bonus":1.0200000000000005},{"rt":9493.299999952316,"stimulus":"bees-with-color/bee-B2DF.svg","response":1,"trial_type":"image-button-response","trial_index":129,"time_elapsed":815614,"internal_node_id":"0.0-4.0-0.61","subject_id":"612cf0efe0be33cea5c5a123","study_id":"6197b3f67c2b5cd3b6d9596a","session_id":"6197b5e4cb7c2e97769614d0","condition":"contingent","relevant_dimensions":["wings","legs"],"bee_group":{"antennae":"X","wings":"2","pattern":"X","legs":"F"},"action":"avoid","summary":"good-avoid","bonus":1.0200000000000005},{"rt":2829.2999999523163,"stimulus":"\n                    <p><b>Action: <em>avoid</em></b></p>\n                    <p>This is the bee that you just saw.</p>\n                    <img src=\"bees-with-color/bee-B2DF.svg\" width=\"200\">\n                    <p><br>Your bonus pay is unchanged, and remains at $0.84.</p>\n            ","response":0,"trial_type":"html-button-response","trial_index":130,"time_elapsed":818446,"internal_node_id":"0.0-4.0-1.61","subject_id":"612cf0efe0be33cea5c5a123","study_id":"6197b3f67c2b5cd3b6d9596a","session_id":"6197b5e4cb7c2e97769614d0","condition":"contingent","relevant_dimensions":["wings","legs"],"bee_group":{"antennae":"X","wings":"2","pattern":"X","legs":"F"},"bonus":1.0200000000000005},{"rt":3135.2999999523163,"stimulus":"bees-with-color/bee-B2SM.svg","response":1,"trial_type":"image-button-response","trial_index":131,"time_elapsed":821584,"internal_node_id":"0.0-4.0-0.62","subject_id":"612cf0efe0be33cea5c5a123","study_id":"6197b3f67c2b5cd3b6d9596a","session_id":"6197b5e4cb7c2e97769614d0","condition":"contingent","relevant_dimensions":["wings","legs"],"bee_group":{"antennae":"X","wings":"2","pattern":"X","legs":"F"},"action":"avoid","summary":"bad-avoid","bonus":1.0200000000000005},{"rt":2148.7000000476837,"stimulus":"\n                    <p><b>Action: <em>avoid</em></b></p>\n                    <p>This is the bee that you just saw.</p>\n                    <img src=\"bees-with-color/bee-B2SM.svg\" width=\"200\">\n                    <p><br>Your bonus pay is unchanged, and remains at $0.84.</p>\n            ","response":0,"trial_type":"html-button-response","trial_index":132,"time_elapsed":823735,"internal_node_id":"0.0-4.0-1.62","subject_id":"612cf0efe0be33cea5c5a123","study_id":"6197b3f67c2b5cd3b6d9596a","session_id":"6197b5e4cb7c2e97769614d0","condition":"contingent","relevant_dimensions":["wings","legs"],"bee_group":{"antennae":"X","wings":"2","pattern":"X","legs":"F"},"bonus":1.0200000000000005},{"rt":6261.699999928474,"stimulus":"bees-with-color/bee-A1DF.svg","response":0,"trial_type":"image-button-response","trial_index":133,"time_elapsed":829999,"internal_node_id":"0.0-4.0-0.63","subject_id":"612cf0efe0be33cea5c5a123","study_id":"6197b3f67c2b5cd3b6d9596a","session_id":"6197b5e4cb7c2e97769614d0","condition":"contingent","relevant_dimensions":["wings","legs"],"bee_group":{"antennae":"X","wings":"2","pattern":"X","legs":"F"},"action":"harvest","summary":"good-harvest","bonus":1.0200000000000005},{"rt":5188.200000047684,"stimulus":"\n                    <p><b>Action: <em>harvest</em></b></p>\n                    <p>This is the bee that you just saw.</p>\n                    <img src=\"bees-with-color/bee-A1DF.svg\" width=\"200\">\n                    <p><span class=\"greenText\"><b>Successful harvest!</b></span><br>Your pay has increased by $0.02. Your bonus pay is now $0.86.</p>\n            ","response":0,"trial_type":"html-button-response","trial_index":134,"time_elapsed":835190,"internal_node_id":"0.0-4.0-1.63","subject_id":"612cf0efe0be33cea5c5a123","study_id":"6197b3f67c2b5cd3b6d9596a","session_id":"6197b5e4cb7c2e97769614d0","condition":"contingent","relevant_dimensions":["wings","legs"],"bee_group":{"antennae":"X","wings":"2","pattern":"X","legs":"F"},"bonus":1.0200000000000005},{"rt":13312.100000023842,"stimulus":"You have completed the first part of this experiment.<br><br>You will now begin a shorter second part, in which you will receive no feedback.<br>The same rules regarding bonus pay apply.<br><br>Press any key to begin.","response":"arrowright","trial_type":"html-keyboard-response","trial_index":135,"time_elapsed":848505,"internal_node_id":"0.0-5.0","subject_id":"612cf0efe0be33cea5c5a123","study_id":"6197b3f67c2b5cd3b6d9596a","session_id":"6197b5e4cb7c2e97769614d0","condition":"contingent","relevant_dimensions":["wings","legs"],"bee_group":{"antennae":"X","wings":"2","pattern":"X","legs":"F"},"bonus":1.0200000000000005},{"rt":3112.899999976158,"stimulus":"bees-with-color/bee-B2SM.svg","response":1,"trial_type":"image-button-response","trial_index":136,"time_elapsed":851631,"internal_node_id":"0.0-6.0-0.0","subject_id":"612cf0efe0be33cea5c5a123","study_id":"6197b3f67c2b5cd3b6d9596a","session_id":"6197b5e4cb7c2e97769614d0","condition":"contingent","relevant_dimensions":["wings","legs"],"bee_group":{"antennae":"X","wings":"2","pattern":"X","legs":"F"},"bonus":1.0200000000000005},{"rt":11604.799999952316,"stimulus":"bees-with-color/bee-A2DF.svg","response":1,"trial_type":"image-button-response","trial_index":137,"time_elapsed":863239,"internal_node_id":"0.0-6.0-0.1","subject_id":"612cf0efe0be33cea5c5a123","study_id":"6197b3f67c2b5cd3b6d9596a","session_id":"6197b5e4cb7c2e97769614d0","condition":"contingent","relevant_dimensions":["wings","legs"],"bee_group":{"antennae":"X","wings":"2","pattern":"X","legs":"F"},"bonus":1.0200000000000005},{"rt":1615.8000000715256,"stimulus":"bees-with-color/bee-A2SM.svg","response":1,"trial_type":"image-button-response","trial_index":138,"time_elapsed":864859,"internal_node_id":"0.0-6.0-0.2","subject_id":"612cf0efe0be33cea5c5a123","study_id":"6197b3f67c2b5cd3b6d9596a","session_id":"6197b5e4cb7c2e97769614d0","condition":"contingent","relevant_dimensions":["wings","legs"],"bee_group":{"antennae":"X","wings":"2","pattern":"X","legs":"F"},"bonus":1.0200000000000005},{"rt":1598.5,"stimulus":"bees-with-color/bee-A2SF.svg","response":1,"trial_type":"image-button-response","trial_index":139,"time_elapsed":866461,"internal_node_id":"0.0-6.0-0.3","subject_id":"612cf0efe0be33cea5c5a123","study_id":"6197b3f67c2b5cd3b6d9596a","session_id":"6197b5e4cb7c2e97769614d0","condition":"contingent","relevant_dimensions":["wings","legs"],"bee_group":{"antennae":"X","wings":"2","pattern":"X","legs":"F"},"bonus":1.0200000000000005},{"rt":1443.9000000953674,"stimulus":"bees-with-color/bee-B1SF.svg","response":0,"trial_type":"image-button-response","trial_index":140,"time_elapsed":867908,"internal_node_id":"0.0-6.0-0.4","subject_id":"612cf0efe0be33cea5c5a123","study_id":"6197b3f67c2b5cd3b6d9596a","session_id":"6197b5e4cb7c2e97769614d0","condition":"contingent","relevant_dimensions":["wings","legs"],"bee_group":{"antennae":"X","wings":"2","pattern":"X","legs":"F"},"bonus":1.0200000000000005},{"rt":4928.900000095367,"stimulus":"bees-with-color/bee-B1SM.svg","response":1,"trial_type":"image-button-response","trial_index":141,"time_elapsed":872840,"internal_node_id":"0.0-6.0-0.5","subject_id":"612cf0efe0be33cea5c5a123","study_id":"6197b3f67c2b5cd3b6d9596a","session_id":"6197b5e4cb7c2e97769614d0","condition":"contingent","relevant_dimensions":["wings","legs"],"bee_group":{"antennae":"X","wings":"2","pattern":"X","legs":"F"},"bonus":1.0200000000000005},{"rt":1170.5,"stimulus":"bees-with-color/bee-A1DM.svg","response":1,"trial_type":"image-button-response","trial_index":142,"time_elapsed":874014,"internal_node_id":"0.0-6.0-0.6","subject_id":"612cf0efe0be33cea5c5a123","study_id":"6197b3f67c2b5cd3b6d9596a","session_id":"6197b5e4cb7c2e97769614d0","condition":"contingent","relevant_dimensions":["wings","legs"],"bee_group":{"antennae":"X","wings":"2","pattern":"X","legs":"F"},"bonus":1.0200000000000005},{"rt":2062.100000023842,"stimulus":"bees-with-color/bee-A1SF.svg","response":0,"trial_type":"image-button-response","trial_index":143,"time_elapsed":876079,"internal_node_id":"0.0-6.0-0.7","subject_id":"612cf0efe0be33cea5c5a123","study_id":"6197b3f67c2b5cd3b6d9596a","session_id":"6197b5e4cb7c2e97769614d0","condition":"contingent","relevant_dimensions":["wings","legs"],"bee_group":{"antennae":"X","wings":"2","pattern":"X","legs":"F"},"bonus":1.0200000000000005},{"rt":1553.3000000715256,"stimulus":"bees-with-color/bee-B2SF.svg","response":1,"trial_type":"image-button-response","trial_index":144,"time_elapsed":877637,"internal_node_id":"0.0-6.0-0.8","subject_id":"612cf0efe0be33cea5c5a123","study_id":"6197b3f67c2b5cd3b6d9596a","session_id":"6197b5e4cb7c2e97769614d0","condition":"contingent","relevant_dimensions":["wings","legs"],"bee_group":{"antennae":"X","wings":"2","pattern":"X","legs":"F"},"bonus":1.0200000000000005},{"rt":4596.100000023842,"stimulus":"bees-with-color/bee-B2DF.svg","response":1,"trial_type":"image-button-response","trial_index":145,"time_elapsed":882236,"internal_node_id":"0.0-6.0-0.9","subject_id":"612cf0efe0be33cea5c5a123","study_id":"6197b3f67c2b5cd3b6d9596a","session_id":"6197b5e4cb7c2e97769614d0","condition":"contingent","relevant_dimensions":["wings","legs"],"bee_group":{"antennae":"X","wings":"2","pattern":"X","legs":"F"},"bonus":1.0200000000000005},{"rt":1640.1000000238419,"stimulus":"bees-with-color/bee-A1DF.svg","response":0,"trial_type":"image-button-response","trial_index":146,"time_elapsed":883880,"internal_node_id":"0.0-6.0-0.10","subject_id":"612cf0efe0be33cea5c5a123","study_id":"6197b3f67c2b5cd3b6d9596a","session_id":"6197b5e4cb7c2e97769614d0","condition":"contingent","relevant_dimensions":["wings","legs"],"bee_group":{"antennae":"X","wings":"2","pattern":"X","legs":"F"},"bonus":1.0200000000000005},{"rt":2089.100000023842,"stimulus":"bees-with-color/bee-B1DF.svg","response":0,"trial_type":"image-button-response","trial_index":147,"time_elapsed":885973,"internal_node_id":"0.0-6.0-0.11","subject_id":"612cf0efe0be33cea5c5a123","study_id":"6197b3f67c2b5cd3b6d9596a","session_id":"6197b5e4cb7c2e97769614d0","condition":"contingent","relevant_dimensions":["wings","legs"],"bee_group":{"antennae":"X","wings":"2","pattern":"X","legs":"F"},"bonus":1.0200000000000005},{"rt":1441.5999999046326,"stimulus":"bees-with-color/bee-A2DM.svg","response":1,"trial_type":"image-button-response","trial_index":148,"time_elapsed":887418,"internal_node_id":"0.0-6.0-0.12","subject_id":"612cf0efe0be33cea5c5a123","study_id":"6197b3f67c2b5cd3b6d9596a","session_id":"6197b5e4cb7c2e97769614d0","condition":"contingent","relevant_dimensions":["wings","legs"],"bee_group":{"antennae":"X","wings":"2","pattern":"X","legs":"F"},"bonus":1.0200000000000005},{"rt":2366.3000000715256,"stimulus":"bees-with-color/bee-B1DM.svg","response":1,"trial_type":"image-button-response","trial_index":149,"time_elapsed":889789,"internal_node_id":"0.0-6.0-0.13","subject_id":"612cf0efe0be33cea5c5a123","study_id":"6197b3f67c2b5cd3b6d9596a","session_id":"6197b5e4cb7c2e97769614d0","condition":"contingent","relevant_dimensions":["wings","legs"],"bee_group":{"antennae":"X","wings":"2","pattern":"X","legs":"F"},"bonus":1.0200000000000005},{"rt":1196.2999999523163,"stimulus":"bees-with-color/bee-A1SM.svg","response":1,"trial_type":"image-button-response","trial_index":150,"time_elapsed":890989,"internal_node_id":"0.0-6.0-0.14","subject_id":"612cf0efe0be33cea5c5a123","study_id":"6197b3f67c2b5cd3b6d9596a","session_id":"6197b5e4cb7c2e97769614d0","condition":"contingent","relevant_dimensions":["wings","legs"],"bee_group":{"antennae":"X","wings":"2","pattern":"X","legs":"F"},"bonus":1.0200000000000005},{"rt":911.3000000715256,"stimulus":"bees-with-color/bee-B2DM.svg","response":1,"trial_type":"image-button-response","trial_index":151,"time_elapsed":891903,"internal_node_id":"0.0-6.0-0.15","subject_id":"612cf0efe0be33cea5c5a123","study_id":"6197b3f67c2b5cd3b6d9596a","session_id":"6197b5e4cb7c2e97769614d0","condition":"contingent","relevant_dimensions":["wings","legs"],"bee_group":{"antennae":"X","wings":"2","pattern":"X","legs":"F"},"bonus":1.0200000000000005},{"rt":1147.2000000476837,"stimulus":"bees-with-color/bee-A2SM.svg","response":1,"trial_type":"image-button-response","trial_index":152,"time_elapsed":893053,"internal_node_id":"0.0-6.0-0.16","subject_id":"612cf0efe0be33cea5c5a123","study_id":"6197b3f67c2b5cd3b6d9596a","session_id":"6197b5e4cb7c2e97769614d0","condition":"contingent","relevant_dimensions":["wings","legs"],"bee_group":{"antennae":"X","wings":"2","pattern":"X","legs":"F"},"bonus":1.0200000000000005},{"rt":1282.5,"stimulus":"bees-with-color/bee-B2SM.svg","response":1,"trial_type":"image-button-response","trial_index":153,"time_elapsed":894338,"internal_node_id":"0.0-6.0-0.17","subject_id":"612cf0efe0be33cea5c5a123","study_id":"6197b3f67c2b5cd3b6d9596a","session_id":"6197b5e4cb7c2e97769614d0","condition":"contingent","relevant_dimensions":["wings","legs"],"bee_group":{"antennae":"X","wings":"2","pattern":"X","legs":"F"},"bonus":1.0200000000000005},{"rt":1110.7000000476837,"stimulus":"bees-with-color/bee-B2DM.svg","response":1,"trial_type":"image-button-response","trial_index":154,"time_elapsed":895452,"internal_node_id":"0.0-6.0-0.18","subject_id":"612cf0efe0be33cea5c5a123","study_id":"6197b3f67c2b5cd3b6d9596a","session_id":"6197b5e4cb7c2e97769614d0","condition":"contingent","relevant_dimensions":["wings","legs"],"bee_group":{"antennae":"X","wings":"2","pattern":"X","legs":"F"},"bonus":1.0200000000000005},{"rt":1146.5,"stimulus":"bees-with-color/bee-B1SM.svg","response":1,"trial_type":"image-button-response","trial_index":155,"time_elapsed":896601,"internal_node_id":"0.0-6.0-0.19","subject_id":"612cf0efe0be33cea5c5a123","study_id":"6197b3f67c2b5cd3b6d9596a","session_id":"6197b5e4cb7c2e97769614d0","condition":"contingent","relevant_dimensions":["wings","legs"],"bee_group":{"antennae":"X","wings":"2","pattern":"X","legs":"F"},"bonus":1.0200000000000005},{"rt":3982.5,"stimulus":"bees-with-color/bee-A1SF.svg","response":0,"trial_type":"image-button-response","trial_index":156,"time_elapsed":900587,"internal_node_id":"0.0-6.0-0.20","subject_id":"612cf0efe0be33cea5c5a123","study_id":"6197b3f67c2b5cd3b6d9596a","session_id":"6197b5e4cb7c2e97769614d0","condition":"contingent","relevant_dimensions":["wings","legs"],"bee_group":{"antennae":"X","wings":"2","pattern":"X","legs":"F"},"bonus":1.0200000000000005},{"rt":3902.6999999284744,"stimulus":"bees-with-color/bee-A2SF.svg","response":1,"trial_type":"image-button-response","trial_index":157,"time_elapsed":904493,"internal_node_id":"0.0-6.0-0.21","subject_id":"612cf0efe0be33cea5c5a123","study_id":"6197b3f67c2b5cd3b6d9596a","session_id":"6197b5e4cb7c2e97769614d0","condition":"contingent","relevant_dimensions":["wings","legs"],"bee_group":{"antennae":"X","wings":"2","pattern":"X","legs":"F"},"bonus":1.0200000000000005},{"rt":2976,"stimulus":"bees-with-color/bee-A2DM.svg","response":1,"trial_type":"image-button-response","trial_index":158,"time_elapsed":907472,"internal_node_id":"0.0-6.0-0.22","subject_id":"612cf0efe0be33cea5c5a123","study_id":"6197b3f67c2b5cd3b6d9596a","session_id":"6197b5e4cb7c2e97769614d0","condition":"contingent","relevant_dimensions":["wings","legs"],"bee_group":{"antennae":"X","wings":"2","pattern":"X","legs":"F"},"bonus":1.0200000000000005},{"rt":1621.6999999284744,"stimulus":"bees-with-color/bee-A2DF.svg","response":1,"trial_type":"image-button-response","trial_index":159,"time_elapsed":909097,"internal_node_id":"0.0-6.0-0.23","subject_id":"612cf0efe0be33cea5c5a123","study_id":"6197b3f67c2b5cd3b6d9596a","session_id":"6197b5e4cb7c2e97769614d0","condition":"contingent","relevant_dimensions":["wings","legs"],"bee_group":{"antennae":"X","wings":"2","pattern":"X","legs":"F"},"bonus":1.0200000000000005},{"rt":1568.3999999761581,"stimulus":"bees-with-color/bee-B1DF.svg","response":0,"trial_type":"image-button-response","trial_index":160,"time_elapsed":910669,"internal_node_id":"0.0-6.0-0.24","subject_id":"612cf0efe0be33cea5c5a123","study_id":"6197b3f67c2b5cd3b6d9596a","session_id":"6197b5e4cb7c2e97769614d0","condition":"contingent","relevant_dimensions":["wings","legs"],"bee_group":{"antennae":"X","wings":"2","pattern":"X","legs":"F"},"bonus":1.0200000000000005},{"rt":1319.3999999761581,"stimulus":"bees-with-color/bee-A1SM.svg","response":1,"trial_type":"image-button-response","trial_index":161,"time_elapsed":911991,"internal_node_id":"0.0-6.0-0.25","subject_id":"612cf0efe0be33cea5c5a123","study_id":"6197b3f67c2b5cd3b6d9596a","session_id":"6197b5e4cb7c2e97769614d0","condition":"contingent","relevant_dimensions":["wings","legs"],"bee_group":{"antennae":"X","wings":"2","pattern":"X","legs":"F"},"bonus":1.0200000000000005},{"rt":1754.2000000476837,"stimulus":"bees-with-color/bee-B2SF.svg","response":1,"trial_type":"image-button-response","trial_index":162,"time_elapsed":913748,"internal_node_id":"0.0-6.0-0.26","subject_id":"612cf0efe0be33cea5c5a123","study_id":"6197b3f67c2b5cd3b6d9596a","session_id":"6197b5e4cb7c2e97769614d0","condition":"contingent","relevant_dimensions":["wings","legs"],"bee_group":{"antennae":"X","wings":"2","pattern":"X","legs":"F"},"bonus":1.0200000000000005},{"rt":1727.4000000953674,"stimulus":"bees-with-color/bee-B1DM.svg","response":1,"trial_type":"image-button-response","trial_index":163,"time_elapsed":915479,"internal_node_id":"0.0-6.0-0.27","subject_id":"612cf0efe0be33cea5c5a123","study_id":"6197b3f67c2b5cd3b6d9596a","session_id":"6197b5e4cb7c2e97769614d0","condition":"contingent","relevant_dimensions":["wings","legs"],"bee_group":{"antennae":"X","wings":"2","pattern":"X","legs":"F"},"bonus":1.0200000000000005},{"rt":1503.1999999284744,"stimulus":"bees-with-color/bee-A1DM.svg","response":1,"trial_type":"image-button-response","trial_index":164,"time_elapsed":916985,"internal_node_id":"0.0-6.0-0.28","subject_id":"612cf0efe0be33cea5c5a123","study_id":"6197b3f67c2b5cd3b6d9596a","session_id":"6197b5e4cb7c2e97769614d0","condition":"contingent","relevant_dimensions":["wings","legs"],"bee_group":{"antennae":"X","wings":"2","pattern":"X","legs":"F"},"bonus":1.0200000000000005},{"rt":2873.399999976158,"stimulus":"bees-with-color/bee-B1SF.svg","response":0,"trial_type":"image-button-response","trial_index":165,"time_elapsed":919863,"internal_node_id":"0.0-6.0-0.29","subject_id":"612cf0efe0be33cea5c5a123","study_id":"6197b3f67c2b5cd3b6d9596a","session_id":"6197b5e4cb7c2e97769614d0","condition":"contingent","relevant_dimensions":["wings","legs"],"bee_group":{"antennae":"X","wings":"2","pattern":"X","legs":"F"},"bonus":1.0200000000000005},{"rt":4791.699999928474,"stimulus":"bees-with-color/bee-B2DF.svg","response":1,"trial_type":"image-button-response","trial_index":166,"time_elapsed":924658,"internal_node_id":"0.0-6.0-0.30","subject_id":"612cf0efe0be33cea5c5a123","study_id":"6197b3f67c2b5cd3b6d9596a","session_id":"6197b5e4cb7c2e97769614d0","condition":"contingent","relevant_dimensions":["wings","legs"],"bee_group":{"antennae":"X","wings":"2","pattern":"X","legs":"F"},"bonus":1.0200000000000005},{"rt":2443.1999999284744,"stimulus":"bees-with-color/bee-A1DF.svg","response":0,"trial_type":"image-button-response","trial_index":167,"time_elapsed":927105,"internal_node_id":"0.0-6.0-0.31","subject_id":"612cf0efe0be33cea5c5a123","study_id":"6197b3f67c2b5cd3b6d9596a","session_id":"6197b5e4cb7c2e97769614d0","condition":"contingent","relevant_dimensions":["wings","legs"],"bee_group":{"antennae":"X","wings":"2","pattern":"X","legs":"F"},"bonus":1.0200000000000005},{"rt":12378.100000023842,"stimulus":"You started with $