[{"success":true,"trial_type":"fullscreen","trial_index":0,"time_elapsed":6153,"internal_node_id":"0.0-0.0","subject_id":"5f614deac0acc90e53c35c1d","study_id":"6197b3f67c2b5cd3b6d9596a","session_id":"619beeec2271c90a57ab2353","condition":"contingent","relevant_dimensions":["antennae","legs"],"bee_group":{"antennae":"A","wings":"X","pattern":"X","legs":"F"},"bonus":1.7800000000000014},{"success":true,"timeout":false,"failed_images":[],"failed_audio":[],"failed_video":[],"trial_type":"preload","trial_index":1,"time_elapsed":7891,"internal_node_id":"0.0-1.0","subject_id":"5f614deac0acc90e53c35c1d","study_id":"6197b3f67c2b5cd3b6d9596a","session_id":"619beeec2271c90a57ab2353","condition":"contingent","relevant_dimensions":["antennae","legs"],"bee_group":{"antennae":"A","wings":"X","pattern":"X","legs":"F"},"bonus":1.7800000000000014},{"rt":1934.5,"stimulus":"Welcome! Press any key to begin.","response":"k","trial_type":"html-keyboard-response","trial_index":2,"time_elapsed":9827,"internal_node_id":"0.0-2.0","subject_id":"5f614deac0acc90e53c35c1d","study_id":"6197b3f67c2b5cd3b6d9596a","session_id":"619beeec2271c90a57ab2353","condition":"contingent","relevant_dimensions":["antennae","legs"],"bee_group":{"antennae":"A","wings":"X","pattern":"X","legs":"F"},"bonus":1.7800000000000014},{"view_history":[{"page_index":0,"viewing_time":4265.600000023842},{"page_index":1,"viewing_time":12724.800000071526},{"page_index":2,"viewing_time":16906.299999952316},{"page_index":3,"viewing_time":12437.600000023842},{"page_index":4,"viewing_time":6823.399999976158},{"page_index":5,"viewing_time":8200.5},{"page_index":6,"viewing_time":16689.299999952316},{"page_index":7,"viewing_time":7627.900000095367},{"page_index":8,"viewing_time":4893},{"page_index":9,"viewing_time":5827.799999952316},{"page_index":10,"viewing_time":9403},{"page_index":11,"viewing_time":10099.5},{"page_index":12,"viewing_time":9426.899999976158},{"page_index":13,"viewing_time":1269.8999999761581},{"page_index":14,"viewing_time":2527.3000000715256}],"rt":129123.5,"trial_type":"instructions","trial_index":3,"time_elapsed":138951,"internal_node_id":"0.0-3.0-0.0","subject_id":"5f614deac0acc90e53c35c1d","study_id":"6197b3f67c2b5cd3b6d9596a","session_id":"619beeec2271c90a57ab2353","condition":"contingent","relevant_dimensions":["antennae","legs"],"bee_group":{"antennae":"A","wings":"X","pattern":"X","legs":"F"},"bonus":1.7800000000000014},{"rt":11886.5,"response":{"Q0":["Two or six legs","Stripes or spots on body","Single or double wings","Antennae or no antennae"]},"question_order":[0],"trial_type":"survey-multi-select","trial_index":4,"time_elapsed":150850,"internal_node_id":"0.0-3.0-1.0","subject_id":"5f614deac0acc90e53c35c1d","study_id":"6197b3f67c2b5cd3b6d9596a","session_id":"619beeec2271c90a57ab2353","condition":"contingent","relevant_dimensions":["antennae","legs"],"bee_group":{"antennae":"A","wings":"X","pattern":"X","legs":"F"},"correct":true,"bonus":1.7800000000000014},{"rt":12379.5,"response":{"Q1":"No.","Q2":"Based on the four features of the bee.","Q3":"You do not learn if it was friendly or dangerous, and do not alter your bonus."},"question_order":[0,1,2],"trial_type":"survey-multi-choice","trial_index":5,"time_elapsed":163237,"internal_node_id":"0.0-3.0-2.0","subject_id":"5f614deac0acc90e53c35c1d","study_id":"6197b3f67c2b5cd3b6d9596a","session_id":"619beeec2271c90a57ab2353","condition":"contingent","relevant_dimensions":["antennae","legs"],"bee_group":{"antennae":"A","wings":"X","pattern":"X","legs":"F"},"correct":true,"bonus":1.7800000000000014},{"rt":3471.6999999284744,"stimulus":"<p>Congrats, you got everything right<br>When you're ready, click the button below to continue to the experiment.</p>","response":0,"trial_type":"html-button-response","trial_index":6,"time_elapsed":166722,"internal_node_id":"0.0-3.0-3.0","subject_id":"5f614deac0acc90e53c35c1d","study_id":"6197b3f67c2b5cd3b6d9596a","session_id":"619beeec2271c90a57ab2353","condition":"contingent","relevant_dimensions":["antennae","legs"],"bee_group":{"antennae":"A","wings":"X","pattern":"X","legs":"F"},"bonus":1.7800000000000014},{"rt":12357.900000095367,"stimulus":"bees-with-color/bee-B1SF.svg","response":0,"trial_type":"image-button-response","trial_index":7,"time_elapsed":179083,"internal_node_id":"0.0-4.0-0.0","subject_id":"5f614deac0acc90e53c35c1d","study_id":"6197b3f67c2b5cd3b6d9596a","session_id":"619beeec2271c90a57ab2353","condition":"contingent","relevant_dimensions":["antennae","legs"],"bee_group":{"antennae":"A","wings":"X","pattern":"X","legs":"F"},"action":"harvest","summary":"good-harvest","bonus":1.7800000000000014},{"rt":24659.100000023842,"stimulus":"\n                    <p><b>Action: <em>harvest</em></b></p>\n                    <p>This is the bee that you just saw.</p>\n                    <img src=\"bees-with-color/bee-B1SF.svg\" width=\"200\">\n                    <p><span class=\"greenText\"><b>Successful harvest!</b></span><br>Your pay has increased by $0.02. Your bonus pay is now $0.56.</p>\n            ","response":0,"trial_type":"html-button-response","trial_index":8,"time_elapsed":203748,"internal_node_id":"0.0-4.0-1.0","subject_id":"5f614deac0acc90e53c35c1d","study_id":"6197b3f67c2b5cd3b6d9596a","session_id":"619beeec2271c90a57ab2353","condition":"contingent","relevant_dimensions":["antennae","legs"],"bee_group":{"antennae":"A","wings":"X","pattern":"X","legs":"F"},"bonus":1.7800000000000014},{"rt":6005.799999952316,"stimulus":"bees-with-color/bee-B2SM.svg","response":0,"trial_type":"image-button-response","trial_index":9,"time_elapsed":209757,"internal_node_id":"0.0-4.0-0.1","subject_id":"5f614deac0acc90e53c35c1d","study_id":"6197b3f67c2b5cd3b6d9596a","session_id":"619beeec2271c90a57ab2353","condition":"contingent","relevant_dimensions":["antennae","legs"],"bee_group":{"antennae":"A","wings":"X","pattern":"X","legs":"F"},"action":"harvest","summary":"good-harvest","bonus":1.7800000000000014},{"rt":11487.100000023842,"stimulus":"\n                    <p><b>Action: <em>harvest</em></b></p>\n                    <p>This is the bee that you just saw.</p>\n                    <img src=\"bees-with-color/bee-B2SM.svg\" width=\"200\">\n                    <p><span class=\"greenText\"><b>Successful harvest!</b></span><br>Your pay has increased by $0.02. Your bonus pay is now $0.58.</p>\n            ","response":0,"trial_type":"html-button-response","trial_index":10,"time_elapsed":221246,"internal_node_id":"0.0-4.0-1.1","subject_id":"5f614deac0acc90e53c35c1d","study_id":"6197b3f67c2b5cd3b6d9596a","session_id":"619beeec2271c90a57ab2353","condition":"contingent","relevant_dimensions":["antennae","legs"],"bee_group":{"antennae":"A","wings":"X","pattern":"X","legs":"F"},"bonus":1.7800000000000014},{"rt":3099.6999999284744,"stimulus":"bees-with-color/bee-A2SM.svg","response":0,"trial_type":"image-button-response","trial_index":11,"time_elapsed":224351,"internal_node_id":"0.0-4.0-0.2","subject_id":"5f614deac0acc90e53c35c1d","study_id":"6197b3f67c2b5cd3b6d9596a","session_id":"619beeec2271c90a57ab2353","condition":"contingent","relevant_dimensions":["antennae","legs"],"bee_group":{"antennae":"A","wings":"X","pattern":"X","legs":"F"},"action":"harvest","summary":"good-harvest","bonus":1.7800000000000014},{"rt":7495.399999976158,"stimulus":"\n                    <p><b>Action: <em>harvest</em></b></p>\n                    <p>This is the bee that you just saw.</p>\n                    <img src=\"bees-with-color/bee-A2SM.svg\" width=\"200\">\n                    <p><span class=\"greenText\"><b>Successful harvest!</b></span><br>Your pay has increased by $0.02. Your bonus pay is now $0.60.</p>\n            ","response":0,"trial_type":"html-button-response","trial_index":12,"time_elapsed":231848,"internal_node_id":"0.0-4.0-1.2","subject_id":"5f614deac0acc90e53c35c1d","study_id":"6197b3f67c2b5cd3b6d9596a","session_id":"619beeec2271c90a57ab2353","condition":"contingent","relevant_dimensions":["antennae","legs"],"bee_group":{"antennae":"A","wings":"X","pattern":"X","legs":"F"},"bonus":1.7800000000000014},{"rt":5833.100000023842,"stimulus":"bees-with-color/bee-B1DM.svg","response":0,"trial_type":"image-button-response","trial_index":13,"time_elapsed":237685,"internal_node_id":"0.0-4.0-0.3","subject_id":"5f614deac0acc90e53c35c1d","study_id":"6197b3f67c2b5cd3b6d9596a","session_id":"619beeec2271c90a57ab2353","condition":"contingent","relevant_dimensions":["antennae","legs"],"bee_group":{"antennae":"A","wings":"X","pattern":"X","legs":"F"},"action":"harvest","summary":"good-harvest","bonus":1.7800000000000014},{"rt":8754.899999976158,"stimulus":"\n                    <p><b>Action: <em>harvest</em></b></p>\n                    <p>This is the bee that you just saw.</p>\n                    <img src=\"bees-with-color/bee-B1DM.svg\" width=\"200\">\n                    <p><span class=\"greenText\"><b>Successful harvest!</b></span><br>Your pay has increased by $0.02. Your bonus pay is now $0.62.</p>\n            ","response":0,"trial_type":"html-button-response","trial_index":14,"time_elapsed":246445,"internal_node_id":"0.0-4.0-1.3","subject_id":"5f614deac0acc90e53c35c1d","study_id":"6197b3f67c2b5cd3b6d9596a","session_id":"619beeec2271c90a57ab2353","condition":"contingent","relevant_dimensions":["antennae","legs"],"bee_group":{"antennae":"A","wings":"X","pattern":"X","legs":"F"},"bonus":1.7800000000000014},{"rt":4373.800000071526,"stimulus":"bees-with-color/bee-B1DF.svg","response":0,"trial_type":"image-button-response","trial_index":15,"time_elapsed":250824,"internal_node_id":"0.0-4.0-0.4","subject_id":"5f614deac0acc90e53c35c1d","study_id":"6197b3f67c2b5cd3b6d9596a","session_id":"619beeec2271c90a57ab2353","condition":"contingent","relevant_dimensions":["antennae","legs"],"bee_group":{"antennae":"A","wings":"X","pattern":"X","legs":"F"},"action":"harvest","summary":"good-harvest","bonus":1.7800000000000014},{"rt":7332,"stimulus":"\n                    <p><b>Action: <em>harvest</em></b></p>\n                    <p>This is the bee that you just saw.</p>\n                    <img src=\"bees-with-color/bee-B1DF.svg\" width=\"200\">\n                    <p><span class=\"greenText\"><b>Successful harvest!</b></span><br>Your pay has increased by $0.02. Your bonus pay is now $0.64.</p>\n            ","response":0,"trial_type":"html-button-response","trial_index":16,"time_elapsed":258158,"internal_node_id":"0.0-4.0-1.4","subject_id":"5f614deac0acc90e53c35c1d","study_id":"6197b3f67c2b5cd3b6d9596a","session_id":"619beeec2271c90a57ab2353","condition":"contingent","relevant_dimensions":["antennae","legs"],"bee_group":{"antennae":"A","wings":"X","pattern":"X","legs":"F"},"bonus":1.7800000000000014},{"rt":2377.399999976158,"stimulus":"bees-with-color/bee-A1DM.svg","response":0,"trial_type":"image-button-response","trial_index":17,"time_elapsed":260540,"internal_node_id":"0.0-4.0-0.5","subject_id":"5f614deac0acc90e53c35c1d","study_id":"6197b3f67c2b5cd3b6d9596a","session_id":"619beeec2271c90a57ab2353","condition":"contingent","relevant_dimensions":["antennae","legs"],"bee_group":{"antennae":"A","wings":"X","pattern":"X","legs":"F"},"action":"harvest","summary":"good-harvest","bonus":1.7800000000000014},{"rt":6618.899999976158,"stimulus":"\n                    <p><b>Action: <em>harvest</em></b></p>\n                    <p>This is the bee that you just saw.</p>\n                    <img src=\"bees-with-color/bee-A1DM.svg\" width=\"200\">\n                    <p><span class=\"greenText\"><b>Successful harvest!</b></span><br>Your pay has increased by $0.02. Your bonus pay is now $0.66.</p>\n            ","response":0,"trial_type":"html-button-response","trial_index":18,"time_elapsed":267164,"internal_node_id":"0.0-4.0-1.5","subject_id":"5f614deac0acc90e53c35c1d","study_id":"6197b3f67c2b5cd3b6d9596a","session_id":"619beeec2271c90a57ab2353","condition":"contingent","relevant_dimensions":["antennae","legs"],"bee_group":{"antennae":"A","wings":"X","pattern":"X","legs":"F"},"bonus":1.7800000000000014},{"rt":5814.400000095367,"stimulus":"bees-with-color/bee-A2SF.svg","response":0,"trial_type":"image-button-response","trial_index":19,"time_elapsed":272984,"internal_node_id":"0.0-4.0-0.6","subject_id":"5f614deac0acc90e53c35c1d","study_id":"6197b3f67c2b5cd3b6d9596a","session_id":"619beeec2271c90a57ab2353","condition":"contingent","relevant_dimensions":["antennae","legs"],"bee_group":{"antennae":"A","wings":"X","pattern":"X","legs":"F"},"action":"harvest","summary":"bad-harvest","bonus":1.7800000000000014},{"rt":36932.699999928474,"stimulus":"\n                    <p><b>Action: <em>harvest</em></b></p>\n                    <p>This is the bee that you just saw.</p>\n                    <img src=\"bees-with-color/bee-A2SF.svg\" width=\"200\">\n                    <p><span class=\"redText\">Bad choice, the bee was angry.</span><br><b>You have been stung!</b><br>Your pay has been decreased by $0.10. Your bonus pay is now $0.56.</p>\n            ","response":0,"trial_type":"html-button-response","trial_index":20,"time_elapsed":309922,"internal_node_id":"0.0-4.0-1.6","subject_id":"5f614deac0acc90e53c35c1d","study_id":"6197b3f67c2b5cd3b6d9596a","session_id":"619beeec2271c90a57ab2353","condition":"contingent","relevant_dimensions":["antennae","legs"],"bee_group":{"antennae":"A","wings":"X","pattern":"X","legs":"F"},"bonus":1.7800000000000014},{"rt":6219.5,"stimulus":"bees-with-color/bee-A1DF.svg","response":0,"trial_type":"image-button-response","trial_index":21,"time_elapsed":316143,"internal_node_id":"0.0-4.0-0.7","subject_id":"5f614deac0acc90e53c35c1d","study_id":"6197b3f67c2b5cd3b6d9596a","session_id":"619beeec2271c90a57ab2353","condition":"contingent","relevant_dimensions":["antennae","legs"],"bee_group":{"antennae":"A","wings":"X","pattern":"X","legs":"F"},"action":"harvest","summary":"bad-harvest","bonus":1.7800000000000014},{"rt":28160.300000071526,"stimulus":"\n                    <p><b>Action: <em>harvest</em></b></p>\n                    <p>This is the bee that you just saw.</p>\n                    <img src=\"bees-with-color/bee-A1DF.svg\" width=\"200\">\n                    <p><span class=\"redText\">Bad choice, the bee was angry.</span><br><b>You have been stung!</b><br>Your pay has been decreased by $0.10. Your bonus pay is now $0.46.</p>\n            ","response":0,"trial_type":"html-button-response","trial_index":22,"time_elapsed":344306,"internal_node_id":"0.0-4.0-1.7","subject_id":"5f614deac0acc90e53c35c1d","study_id":"6197b3f67c2b5cd3b6d9596a","session_id":"619beeec2271c90a57ab2353","condition":"contingent","relevant_dimensions":["antennae","legs"],"bee_group":{"antennae":"A","wings":"X","pattern":"X","legs":"F"},"bonus":1.7800000000000014},{"rt":2497.6999999284744,"stimulus":"bees-with-color/bee-A2DF.svg","response":1,"trial_type":"image-button-response","trial_index":23,"time_elapsed":346809,"internal_node_id":"0.0-4.0-0.8","subject_id":"5f614deac0acc90e53c35c1d","study_id":"6197b3f67c2b5cd3b6d9596a","session_id":"619beeec2271c90a57ab2353","condition":"contingent","relevant_dimensions":["antennae","legs"],"bee_group":{"antennae":"A","wings":"X","pattern":"X","legs":"F"},"action":"avoid","summary":"good-avoid","bonus":1.7800000000000014},{"rt":3338.7999999523163,"stimulus":"\n                    <p><b>Action: <em>avoid</em></b></p>\n                    <p>This is the bee that you just saw.</p>\n                    <img src=\"bees-with-color/bee-A2DF.svg\" width=\"200\">\n                    <p><br>Your bonus pay is unchanged, and remains at $0.46.</p>\n            ","response":0,"trial_type":"html-button-response","trial_index":24,"time_elapsed":350151,"internal_node_id":"0.0-4.0-1.8","subject_id":"5f614deac0acc90e53c35c1d","study_id":"6197b3f67c2b5cd3b6d9596a","session_id":"619beeec2271c90a57ab2353","condition":"contingent","relevant_dimensions":["antennae","legs"],"bee_group":{"antennae":"A","wings":"X","pattern":"X","legs":"F"},"bonus":1.7800000000000014},{"rt":1927.2000000476837,"stimulus":"bees-with-color/bee-B2DF.svg","response":0,"trial_type":"image-button-response","trial_index":25,"time_elapsed":352080,"internal_node_id":"0.0-4.0-0.9","subject_id":"5f614deac0acc90e53c35c1d","study_id":"6197b3f67c2b5cd3b6d9596a","session_id":"619beeec2271c90a57ab2353","condition":"contingent","relevant_dimensions":["antennae","legs"],"bee_group":{"antennae":"A","wings":"X","pattern":"X","legs":"F"},"action":"harvest","summary":"good-harvest","bonus":1.7800000000000014},{"rt":6681.399999976158,"stimulus":"\n                    <p><b>Action: <em>harvest</em></b></p>\n                    <p>This is the bee that you just saw.</p>\n                    <img src=\"bees-with-color/bee-B2DF.svg\" width=\"200\">\n                    <p><span class=\"greenText\"><b>Successful harvest!</b></span><br>Your pay has increased by $0.02. Your bonus pay is now $0.48.</p>\n            ","response":0,"trial_type":"html-button-response","trial_index":26,"time_elapsed":358762,"internal_node_id":"0.0-4.0-1.9","subject_id":"5f614deac0acc90e53c35c1d","study_id":"6197b3f67c2b5cd3b6d9596a","session_id":"619beeec2271c90a57ab2353","condition":"contingent","relevant_dimensions":["antennae","legs"],"bee_group":{"antennae":"A","wings":"X","pattern":"X","legs":"F"},"bonus":1.7800000000000014},{"rt":1602.8999999761581,"stimulus":"bees-with-color/bee-A1SM.svg","response":0,"trial_type":"image-button-response","trial_index":27,"time_elapsed":360367,"internal_node_id":"0.0-4.0-0.10","subject_id":"5f614deac0acc90e53c35c1d","study_id":"6197b3f67c2b5cd3b6d9596a","session_id":"619beeec2271c90a57ab2353","condition":"contingent","relevant_dimensions":["antennae","legs"],"bee_group":{"antennae":"A","wings":"X","pattern":"X","legs":"F"},"action":"harvest","summary":"good-harvest","bonus":1.7800000000000014},{"rt":5744,"stimulus":"\n                    <p><b>Action: <em>harvest</em></b></p>\n                    <p>This is the bee that you just saw.</p>\n                    <img src=\"bees-with-color/bee-A1SM.svg\" width=\"200\">\n                    <p><span class=\"greenText\"><b>Successful harvest!</b></span><br>Your pay has increased by $0.02. Your bonus pay is now $0.50.</p>\n            ","response":0,"trial_type":"html-button-response","trial_index":28,"time_elapsed":366112,"internal_node_id":"0.0-4.0-1.10","subject_id":"5f614deac0acc90e53c35c1d","study_id":"6197b3f67c2b5cd3b6d9596a","session_id":"619beeec2271c90a57ab2353","condition":"contingent","relevant_dimensions":["antennae","legs"],"bee_group":{"antennae":"A","wings":"X","pattern":"X","legs":"F"},"bonus":1.7800000000000014},{"rt":1207.5999999046326,"stimulus":"bees-with-color/bee-A2DM.svg","response":0,"trial_type":"image-button-response","trial_index":29,"time_elapsed":367323,"internal_node_id":"0.0-4.0-0.11","subject_id":"5f614deac0acc90e53c35c1d","study_id":"6197b3f67c2b5cd3b6d9596a","session_id":"619beeec2271c90a57ab2353","condition":"contingent","relevant_dimensions":["antennae","legs"],"bee_group":{"antennae":"A","wings":"X","pattern":"X","legs":"F"},"action":"harvest","summary":"good-harvest","bonus":1.7800000000000014},{"rt":1661.8999999761581,"stimulus":"\n                    <p><b>Action: <em>harvest</em></b></p>\n                    <p>This is the bee that you just saw.</p>\n                    <img src=\"bees-with-color/bee-A2DM.svg\" width=\"200\">\n                    <p><span class=\"greenText\"><b>Successful harvest!</b></span><br>Your pay has increased by $0.02. Your bonus pay is now $0.52.</p>\n            ","response":0,"trial_type":"html-button-response","trial_index":30,"time_elapsed":368989,"internal_node_id":"0.0-4.0-1.11","subject_id":"5f614deac0acc90e53c35c1d","study_id":"6197b3f67c2b5cd3b6d9596a","session_id":"619beeec2271c90a57ab2353","condition":"contingent","relevant_dimensions":["antennae","legs"],"bee_group":{"antennae":"A","wings":"X","pattern":"X","legs":"F"},"bonus":1.7800000000000014},{"rt":1234.6000000238419,"stimulus":"bees-with-color/bee-B2DM.svg","response":0,"trial_type":"image-button-response","trial_index":31,"time_elapsed":370228,"internal_node_id":"0.0-4.0-0.12","subject_id":"5f614deac0acc90e53c35c1d","study_id":"6197b3f67c2b5cd3b6d9596a","session_id":"619beeec2271c90a57ab2353","condition":"contingent","relevant_dimensions":["antennae","legs"],"bee_group":{"antennae":"A","wings":"X","pattern":"X","legs":"F"},"action":"harvest","summary":"good-harvest","bonus":1.7800000000000014},{"rt":1218.8999999761581,"stimulus":"\n                    <p><b>Action: <em>harvest</em></b></p>\n                    <p>This is the bee that you just saw.</p>\n                    <img src=\"bees-with-color/bee-B2DM.svg\" width=\"200\">\n                    <p><span class=\"greenText\"><b>Successful harvest!</b></span><br>Your pay has increased by $0.02. Your bonus pay is now $0.54.</p>\n            ","response":0,"trial_type":"html-button-response","trial_index":32,"time_elapsed":371451,"internal_node_id":"0.0-4.0-1.12","subject_id":"5f614deac0acc90e53c35c1d","study_id":"6197b3f67c2b5cd3b6d9596a","session_id":"619beeec2271c90a57ab2353","condition":"contingent","relevant_dimensions":["antennae","legs"],"bee_group":{"antennae":"A","wings":"X","pattern":"X","legs":"F"},"bonus":1.7800000000000014},{"rt":1776.5,"stimulus":"bees-with-color/bee-B2SF.svg","response":0,"trial_type":"image-button-response","trial_index":33,"time_elapsed":373230,"internal_node_id":"0.0-4.0-0.13","subject_id":"5f614deac0acc90e53c35c1d","study_id":"6197b3f67c2b5cd3b6d9596a","session_id":"619beeec2271c90a57ab2353","condition":"contingent","relevant_dimensions":["antennae","legs"],"bee_group":{"antennae":"A","wings":"X","pattern":"X","legs":"F"},"action":"harvest","summary":"good-harvest","bonus":1.7800000000000014},{"rt":1613.3999999761581,"stimulus":"\n                    <p><b>Action: <em>harvest</em></b></p>\n                    <p>This is the bee that you just saw.</p>\n                    <img src=\"bees-with-color/bee-B2SF.svg\" width=\"200\">\n                    <p><span class=\"greenText\"><b>Successful harvest!</b></span><br>Your pay has increased by $0.02. Your bonus pay is now $0.56.</p>\n            ","response":0,"trial_type":"html-button-response","trial_index":34,"time_elapsed":374845,"internal_node_id":"0.0-4.0-1.13","subject_id":"5f614deac0acc90e53c35c1d","study_id":"6197b3f67c2b5cd3b6d9596a","session_id":"619beeec2271c90a57ab2353","condition":"contingent","relevant_dimensions":["antennae","legs"],"bee_group":{"antennae":"A","wings":"X","pattern":"X","legs":"F"},"bonus":1.7800000000000014},{"rt":1278.0999999046326,"stimulus":"bees-with-color/bee-A1SF.svg","response":1,"trial_type":"image-button-response","trial_index":35,"time_elapsed":376127,"internal_node_id":"0.0-4.0-0.14","subject_id":"5f614deac0acc90e53c35c1d","study_id":"6197b3f67c2b5cd3b6d9596a","session_id":"619beeec2271c90a57ab2353","condition":"contingent","relevant_dimensions":["antennae","legs"],"bee_group":{"antennae":"A","wings":"X","pattern":"X","legs":"F"},"action":"avoid","summary":"good-avoid","bonus":1.7800000000000014},{"rt":1810.3999999761581,"stimulus":"\n                    <p><b>Action: <em>avoid</em></b></p>\n                    <p>This is the bee that you just saw.</p>\n                    <img src=\"bees-with-color/bee-A1SF.svg\" width=\"200\">\n                    <p><br>Your bonus pay is unchanged, and remains at $0.56.</p>\n            ","response":0,"trial_type":"html-button-response","trial_index":36,"time_elapsed":377940,"internal_node_id":"0.0-4.0-1.14","subject_id":"5f614deac0acc90e53c35c1d","study_id":"6197b3f67c2b5cd3b6d9596a","session_id":"619beeec2271c90a57ab2353","condition":"contingent","relevant_dimensions":["antennae","legs"],"bee_group":{"antennae":"A","wings":"X","pattern":"X","legs":"F"},"bonus":1.7800000000000014},{"rt":1345.8000000715256,"stimulus":"bees-with-color/bee-B1SM.svg","response":0,"trial_type":"image-button-response","trial_index":37,"time_elapsed":379290,"internal_node_id":"0.0-4.0-0.15","subject_id":"5f614deac0acc90e53c35c1d","study_id":"6197b3f67c2b5cd3b6d9596a","session_id":"619beeec2271c90a57ab2353","condition":"contingent","relevant_dimensions":["antennae","legs"],"bee_group":{"antennae":"A","wings":"X","pattern":"X","legs":"F"},"action":"harvest","summary":"good-harvest","bonus":1.7800000000000014},{"rt":1233.0999999046326,"stimulus":"\n                    <p><b>Action: <em>harvest</em></b></p>\n                    <p>This is the bee that you just saw.</p>\n                    <img src=\"bees-with-color/bee-B1SM.svg\" width=\"200\">\n                    <p><span class=\"greenText\"><b>Successful harvest!</b></span><br>Your pay has increased by $0.02. Your bonus pay is now $0.58.</p>\n            ","response":0,"trial_type":"html-button-response","trial_index":38,"time_elapsed":380525,"internal_node_id":"0.0-4.0-1.15","subject_id":"5f614deac0acc90e53c35c1d","study_id":"6197b3f67c2b5cd3b6d9596a","session_id":"619beeec2271c90a57ab2353","condition":"contingent","relevant_dimensions":["antennae","legs"],"bee_group":{"antennae":"A","wings":"X","pattern":"X","legs":"F"},"bonus":1.7800000000000014},{"rt":1082,"stimulus":"bees-with-color/bee-B1DM.svg","response":0,"trial_type":"image-button-response","trial_index":39,"time_elapsed":381609,"internal_node_id":"0.0-4.0-0.16","subject_id":"5f614deac0acc90e53c35c1d","study_id":"6197b3f67c2b5cd3b6d9596a","session_id":"619beeec2271c90a57ab2353","condition":"contingent","relevant_dimensions":["antennae","legs"],"bee_group":{"antennae":"A","wings":"X","pattern":"X","legs":"F"},"action":"harvest","summary":"good-harvest","bonus":1.7800000000000014},{"rt":1199.1000000238419,"stimulus":"\n                    <p><b>Action: <em>harvest</em></b></p>\n                    <p>This is the bee that you just saw.</p>\n                    <img src=\"bees-with-color/bee-B1DM.svg\" width=\"200\">\n                    <p><span class=\"greenText\"><b>Successful harvest!</b></span><br>Your pay has increased by $0.02. Your bonus pay is now $0.60.</p>\n            ","response":0,"trial_type":"html-button-response","trial_index":40,"time_elapsed":382812,"internal_node_id":"0.0-4.0-1.16","subject_id":"5f614deac0acc90e53c35c1d","study_id":"6197b3f67c2b5cd3b6d9596a","session_id":"619beeec2271c90a57ab2353","condition":"contingent","relevant_dimensions":["antennae","legs"],"bee_group":{"antennae":"A","wings":"X","pattern":"X","legs":"F"},"bonus":1.7800000000000014},{"rt":1279.7999999523163,"stimulus":"bees-with-color/bee-A1DM.svg","response":0,"trial_type":"image-button-response","trial_index":41,"time_elapsed":384095,"internal_node_id":"0.0-4.0-0.17","subject_id":"5f614deac0acc90e53c35c1d","study_id":"6197b3f67c2b5cd3b6d9596a","session_id":"619beeec2271c90a57ab2353","condition":"contingent","relevant_dimensions":["antennae","legs"],"bee_group":{"antennae":"A","wings":"X","pattern":"X","legs":"F"},"action":"harvest","summary":"good-harvest","bonus":1.7800000000000014},{"rt":1016.3999999761581,"stimulus":"\n                    <p><b>Action: <em>harvest</em></b></p>\n                    <p>This is the bee that you just saw.</p>\n                    <img src=\"bees-with-color/bee-A1DM.svg\" width=\"200\">\n                    <p><span class=\"greenText\"><b>Successful harvest!</b></span><br>Your pay has increased by $0.02. Your bonus pay is now $0.62.</p>\n            ","response":0,"trial_type":"html-button-response","trial_index":42,"time_elapsed":385113,"internal_node_id":"0.0-4.0-1.17","subject_id":"5f614deac0acc90e53c35c1d","study_id":"6197b3f67c2b5cd3b6d9596a","session_id":"619beeec2271c90a57ab2353","condition":"contingent","relevant_dimensions":["antennae","legs"],"bee_group":{"antennae":"A","wings":"X","pattern":"X","legs":"F"},"bonus":1.7800000000000014},{"rt":1146.8999999761581,"stimulus":"bees-with-color/bee-B2DF.svg","response":0,"trial_type":"image-button-response","trial_index":43,"time_elapsed":386262,"internal_node_id":"0.0-4.0-0.18","subject_id":"5f614deac0acc90e53c35c1d","study_id":"6197b3f67c2b5cd3b6d9596a","session_id":"619beeec2271c90a57ab2353","condition":"contingent","relevant_dimensions":["antennae","legs"],"bee_group":{"antennae":"A","wings":"X","pattern":"X","legs":"F"},"action":"harvest","summary":"good-harvest","bonus":1.7800000000000014},{"rt":987.6999999284744,"stimulus":"\n                    <p><b>Action: <em>harvest</em></b></p>\n                    <p>This is the bee that you just saw.</p>\n                    <img src=\"bees-with-color/bee-B2DF.svg\" width=\"200\">\n                    <p><span class=\"greenText\"><b>Successful harvest!</b></span><br>Your pay has increased by $0.02. Your bonus pay is now $0.64.</p>\n            ","response":0,"trial_type":"html-button-response","trial_index":44,"time_elapsed":387253,"internal_node_id":"0.0-4.0-1.18","subject_id":"5f614deac0acc90e53c35c1d","study_id":"6197b3f67c2b5cd3b6d9596a","session_id":"619beeec2271c90a57ab2353","condition":"contingent","relevant_dimensions":["antennae","legs"],"bee_group":{"antennae":"A","wings":"X","pattern":"X","legs":"F"},"bonus":1.7800000000000014},{"rt":1171,"stimulus":"bees-with-color/bee-B2DM.svg","response":0,"trial_type":"image-button-response","trial_index":45,"time_elapsed":388428,"internal_node_id":"0.0-4.0-0.19","subject_id":"5f614deac0acc90e53c35c1d","study_id":"6197b3f67c2b5cd3b6d9596a","session_id":"619beeec2271c90a57ab2353","condition":"contingent","relevant_dimensions":["antennae","legs"],"bee_group":{"antennae":"A","wings":"X","pattern":"X","legs":"F"},"action":"harvest","summary":"good-harvest","bonus":1.7800000000000014},{"rt":1000.8999999761581,"stimulus":"\n                    <p><b>Action: <em>harvest</em></b></p>\n                    <p>This is the bee that you just saw.</p>\n                    <img src=\"bees-with-color/bee-B2DM.svg\" width=\"200\">\n                    <p><span class=\"greenText\"><b>Successful harvest!</b></span><br>Your pay has increased by $0.02. Your bonus pay is now $0.66.</p>\n            ","response":0,"trial_type":"html-button-response","trial_index":46,"time_elapsed":389432,"internal_node_id":"0.0-4.0-1.19","subject_id":"5f614deac0acc90e53c35c1d","study_id":"6197b3f67c2b5cd3b6d9596a","session_id":"619beeec2271c90a57ab2353","condition":"contingent","relevant_dimensions":["antennae","legs"],"bee_group":{"antennae":"A","wings":"X","pattern":"X","legs":"F"},"bonus":1.7800000000000014},{"rt":1221.8000000715256,"stimulus":"bees-with-color/bee-A2SF.svg","response":1,"trial_type":"image-button-response","trial_index":47,"time_elapsed":390657,"internal_node_id":"0.0-4.0-0.20","subject_id":"5f614deac0acc90e53c35c1d","study_id":"6197b3f67c2b5cd3b6d9596a","session_id":"619beeec2271c90a57ab2353","condition":"contingent","relevant_dimensions":["antennae","legs"],"bee_group":{"antennae":"A","wings":"X","pattern":"X","legs":"F"},"action":"avoid","summary":"good-avoid","bonus":1.7800000000000014},{"rt":1433.2000000476837,"stimulus":"\n                    <p><b>Action: <em>avoid</em></b></p>\n                    <p>This is the bee that you just saw.</p>\n                    <img src=\"bees-with-color/bee-A2SF.svg\" width=\"200\">\n                    <p><br>Your bonus pay is unchanged, and remains at $0.66.</p>\n            ","response":0,"trial_type":"html-button-response","trial_index":48,"time_elapsed":392091,"internal_node_id":"0.0-4.0-1.20","subject_id":"5f614deac0acc90e53c35c1d","study_id":"6197b3f67c2b5cd3b6d9596a","session_id":"619beeec2271c90a57ab2353","condition":"contingent","relevant_dimensions":["antennae","legs"],"bee_group":{"antennae":"A","wings":"X","pattern":"X","legs":"F"},"bonus":1.7800000000000014},{"rt":1623.8999999761581,"stimulus":"bees-with-color/bee-B2SF.svg","response":0,"trial_type":"image-button-response","trial_index":49,"time_elapsed":393718,"internal_node_id":"0.0-4.0-0.21","subject_id":"5f614deac0acc90e53c35c1d","study_id":"6197b3f67c2b5cd3b6d9596a","session_id":"619beeec2271c90a57ab2353","condition":"contingent","relevant_dimensions":["antennae","legs"],"bee_group":{"antennae":"A","wings":"X","pattern":"X","legs":"F"},"action":"harvest","summary":"good-harvest","bonus":1.7800000000000014},{"rt":1050,"stimulus":"\n                    <p><b>Action: <em>harvest</em></b></p>\n                    <p>This is the bee that you just saw.</p>\n                    <img src=\"bees-with-color/bee-B2SF.svg\" width=\"200\">\n                    <p><span class=\"greenText\"><b>Successful harvest!</b></span><br>Your pay has increased by $0.02. Your bonus pay is now $0.68.</p>\n            ","response":0,"trial_type":"html-button-response","trial_index":50,"time_elapsed":394771,"internal_node_id":"0.0-4.0-1.21","subject_id":"5f614deac0acc90e53c35c1d","study_id":"6197b3f67c2b5cd3b6d9596a","session_id":"619beeec2271c90a57ab2353","condition":"contingent","relevant_dimensions":["antennae","legs"],"bee_group":{"antennae":"A","wings":"X","pattern":"X","legs":"F"},"bonus":1.7800000000000014},{"rt":1432.3000000715256,"stimulus":"bees-with-color/bee-A1DF.svg","response":1,"trial_type":"image-button-response","trial_index":51,"time_elapsed":396205,"internal_node_id":"0.0-4.0-0.22","subject_id":"5f614deac0acc90e53c35c1d","study_id":"6197b3f67c2b5cd3b6d9596a","session_id":"619beeec2271c90a57ab2353","condition":"contingent","relevant_dimensions":["antennae","legs"],"bee_group":{"antennae":"A","wings":"X","pattern":"X","legs":"F"},"action":"avoid","summary":"good-avoid","bonus":1.7800000000000014},{"rt":1646.7000000476837,"stimulus":"\n                    <p><b>Action: <em>avoid</em></b></p>\n                    <p>This is the bee that you just saw.</p>\n                    <img src=\"bees-with-color/bee-A1DF.svg\" width=\"200\">\n                    <p><br>Your bonus pay is unchanged, and remains at $0.68.</p>\n            ","response":0,"trial_type":"html-button-response","trial_index":52,"time_elapsed":397855,"internal_node_id":"0.0-4.0-1.22","subject_id":"5f614deac0acc90e53c35c1d","study_id":"6197b3f67c2b5cd3b6d9596a","session_id":"619beeec2271c90a57ab2353","condition":"contingent","relevant_dimensions":["antennae","legs"],"bee_group":{"antennae":"A","wings":"X","pattern":"X","legs":"F"},"bonus":1.7800000000000014},{"rt":1079.1999999284744,"stimulus":"bees-with-color/bee-B1SF.svg","response":0,"trial_type":"image-button-response","trial_index":53,"time_elapsed":398939,"internal_node_id":"0.0-4.0-0.23","subject_id":"5f614deac0acc90e53c35c1d","study_id":"6197b3f67c2b5cd3b6d9596a","session_id":"619beeec2271c90a57ab2353","condition":"contingent","relevant_dimensions":["antennae","legs"],"bee_group":{"antennae":"A","wings":"X","pattern":"X","legs":"F"},"action":"harvest","summary":"good-harvest","bonus":1.7800000000000014},{"rt":1336.5,"stimulus":"\n                    <p><b>Action: <em>harvest</em></b></p>\n                    <p>This is the bee that you just saw.</p>\n                    <img src=\"bees-with-color/bee-B1SF.svg\" width=\"200\">\n                    <p><span class=\"greenText\"><b>Successful harvest!</b></span><br>Your pay has increased by $0.02. Your bonus pay is now $0.70.</p>\n            ","response":0,"trial_type":"html-button-response","trial_index":54,"time_elapsed":400280,"internal_node_id":"0.0-4.0-1.23","subject_id":"5f614deac0acc90e53c35c1d","study_id":"6197b3f67c2b5cd3b6d9596a","session_id":"619beeec2271c90a57ab2353","condition":"contingent","relevant_dimensions":["antennae","legs"],"bee_group":{"antennae":"A","wings":"X","pattern":"X","legs":"F"},"bonus":1.7800000000000014},{"rt":1046.5,"stimulus":"bees-with-color/bee-B1DF.svg","response":0,"trial_type":"image-button-response","trial_index":55,"time_elapsed":401329,"internal_node_id":"0.0-4.0-0.24","subject_id":"5f614deac0acc90e53c35c1d","study_id":"6197b3f67c2b5cd3b6d9596a","session_id":"619beeec2271c90a57ab2353","condition":"contingent","relevant_dimensions":["antennae","legs"],"bee_group":{"antennae":"A","wings":"X","pattern":"X","legs":"F"},"action":"harvest","summary":"good-harvest","bonus":1.7800000000000014},{"rt":948.6000000238419,"stimulus":"\n                    <p><b>Action: <em>harvest</em></b></p>\n                    <p>This is the bee that you just saw.</p>\n                    <img src=\"bees-with-color/bee-B1DF.svg\" width=\"200\">\n                    <p><span class=\"greenText\"><b>Successful harvest!</b></span><br>Your pay has increased by $0.02. Your bonus pay is now $0.72.</p>\n            ","response":0,"trial_type":"html-button-response","trial_index":56,"time_elapsed":402280,"internal_node_id":"0.0-4.0-1.24","subject_id":"5f614deac0acc90e53c35c1d","study_id":"6197b3f67c2b5cd3b6d9596a","session_id":"619beeec2271c90a57ab2353","condition":"contingent","relevant_dimensions":["antennae","legs"],"bee_group":{"antennae":"A","wings":"X","pattern":"X","legs":"F"},"bonus":1.7800000000000014},{"rt":1080.3999999761581,"stimulus":"bees-with-color/bee-A2SM.svg","response":0,"trial_type":"image-button-response","trial_index":57,"time_elapsed":403363,"internal_node_id":"0.0-4.0-0.25","subject_id":"5f614deac0acc90e53c35c1d","study_id":"6197b3f67c2b5cd3b6d9596a","session_id":"619beeec2271c90a57ab2353","condition":"contingent","relevant_dimensions":["antennae","legs"],"bee_group":{"antennae":"A","wings":"X","pattern":"X","legs":"F"},"action":"harvest","summary":"good-harvest","bonus":1.7800000000000014},{"rt":1047.7999999523163,"stimulus":"\n                    <p><b>Action: <em>harvest</em></b></p>\n                    <p>This is the bee that you just saw.</p>\n                    <img src=\"bees-with-color/bee-A2SM.svg\" width=\"200\">\n                    <p><span class=\"greenText\"><b>Successful harvest!</b></span><br>Your pay has increased by $0.02. Your bonus pay is now $0.74.</p>\n            ","response":0,"trial_type":"html-button-response","trial_index":58,"time_elapsed":404414,"internal_node_id":"0.0-4.0-1.25","subject_id":"5f614deac0acc90e53c35c1d","study_id":"6197b3f67c2b5cd3b6d9596a","session_id":"619beeec2271c90a57ab2353","condition":"contingent","relevant_dimensions":["antennae","legs"],"bee_group":{"antennae":"A","wings":"X","pattern":"X","legs":"F"},"bonus":1.7800000000000014},{"rt":1498.3999999761581,"stimulus":"bees-with-color/bee-B1SM.svg","response":0,"trial_type":"image-button-response","trial_index":59,"time_elapsed":405917,"internal_node_id":"0.0-4.0-0.26","subject_id":"5f614deac0acc90e53c35c1d","study_id":"6197b3f67c2b5cd3b6d9596a","session_id":"619beeec2271c90a57ab2353","condition":"contingent","relevant_dimensions":["antennae","legs"],"bee_group":{"antennae":"A","wings":"X","pattern":"X","legs":"F"},"action":"harvest","summary":"good-harvest","bonus":1.7800000000000014},{"rt":942.1999999284744,"stimulus":"\n                    <p><b>Action: <em>harvest</em></b></p>\n                    <p>This is the bee that you just saw.</p>\n                    <img src=\"bees-with-color/bee-B1SM.svg\" width=\"200\">\n                    <p><span class=\"greenText\"><b>Successful harvest!</b></span><br>Your pay has increased by $0.02. Your bonus pay is now $0.76.</p>\n            ","response":0,"trial_type":"html-button-response","trial_index":60,"time_elapsed":406862,"internal_node_id":"0.0-4.0-1.26","subject_id":"5f614deac0acc90e53c35c1d","study_id":"6197b3f67c2b5cd3b6d9596a","session_id":"619beeec2271c90a57ab2353","condition":"contingent","relevant_dimensions":["antennae","legs"],"bee_group":{"antennae":"A","wings":"X","pattern":"X","legs":"F"},"bonus":1.7800000000000014},{"rt":1035.8999999761581,"stimulus":"bees-with-color/bee-B2SM.svg","response":0,"trial_type":"image-button-response","trial_index":61,"time_elapsed":407901,"internal_node_id":"0.0-4.0-0.27","subject_id":"5f614deac0acc90e53c35c1d","study_id":"6197b3f67c2b5cd3b6d9596a","session_id":"619beeec2271c90a57ab2353","condition":"contingent","relevant_dimensions":["antennae","legs"],"bee_group":{"antennae":"A","wings":"X","pattern":"X","legs":"F"},"action":"harvest","summary":"good-harvest","bonus":1.7800000000000014},{"rt":1377.8000000715256,"stimulus":"\n                    <p><b>Action: <em>harvest</em></b></p>\n                    <p>This is the bee that you just saw.</p>\n                    <img src=\"bees-with-color/bee-B2SM.svg\" width=\"200\">\n                    <p><span class=\"greenText\"><b>Successful harvest!</b></span><br>Your pay has increased by $0.02. Your bonus pay is now $0.78.</p>\n            ","response":0,"trial_type":"html-button-response","trial_index":62,"time_elapsed":409282,"internal_node_id":"0.0-4.0-1.27","subject_id":"5f614deac0acc90e53c35c1d","study_id":"6197b3f67c2b5cd3b6d9596a","session_id":"619beeec2271c90a57ab2353","condition":"contingent","relevant_dimensions":["antennae","legs"],"bee_group":{"antennae":"A","wings":"X","pattern":"X","legs":"F"},"bonus":1.7800000000000014},{"rt":1339.0999999046326,"stimulus":"bees-with-color/bee-A2DF.svg","response":1,"trial_type":"image-button-response","trial_index":63,"time_elapsed":410624,"internal_node_id":"0.0-4.0-0.28","subject_id":"5f614deac0acc90e53c35c1d","study_id":"6197b3f67c2b5cd3b6d9596a","session_id":"619beeec2271c90a57ab2353","condition":"contingent","relevant_dimensions":["antennae","legs"],"bee_group":{"antennae":"A","wings":"X","pattern":"X","legs":"F"},"action":"avoid","summary":"good-avoid","bonus":1.7800000000000014},{"rt":1186.8999999761581,"stimulus":"\n                    <p><b>Action: <em>avoid</em></b></p>\n                    <p>This is the bee that you just saw.</p>\n                    <img src=\"bees-with-color/bee-A2DF.svg\" width=\"200\">\n                    <p><br>Your bonus pay is unchanged, and remains at $0.78.</p>\n            ","response":0,"trial_type":"html-button-response","trial_index":64,"time_elapsed":411814,"internal_node_id":"0.0-4.0-1.28","subject_id":"5f614deac0acc90e53c35c1d","study_id":"6197b3f67c2b5cd3b6d9596a","session_id":"619beeec2271c90a57ab2353","condition":"contingent","relevant_dimensions":["antennae","legs"],"bee_group":{"antennae":"A","wings":"X","pattern":"X","legs":"F"},"bonus":1.7800000000000014},{"rt":1130.3999999761581,"stimulus":"bees-with-color/bee-A1SF.svg","response":1,"trial_type":"image-button-response","trial_index":65,"time_elapsed":412947,"internal_node_id":"0.0-4.0-0.29","subject_id":"5f614deac0acc90e53c35c1d","study_id":"6197b3f67c2b5cd3b6d9596a","session_id":"619beeec2271c90a57ab2353","condition":"contingent","relevant_dimensions":["antennae","legs"],"bee_group":{"antennae":"A","wings":"X","pattern":"X","legs":"F"},"action":"avoid","summary":"good-avoid","bonus":1.7800000000000014},{"rt":955.9000000953674,"stimulus":"\n                    <p><b>Action: <em>avoid</em></b></p>\n                    <p>This is the bee that you just saw.</p>\n                    <img src=\"bees-with-color/bee-A1SF.svg\" width=\"200\">\n                    <p><br>Your bonus pay is unchanged, and remains at $0.78.</p>\n            ","response":0,"trial_type":"html-button-response","trial_index":66,"time_elapsed":413907,"internal_node_id":"0.0-4.0-1.29","subject_id":"5f614deac0acc90e53c35c1d","study_id":"6197b3f67c2b5cd3b6d9596a","session_id":"619beeec2271c90a57ab2353","condition":"contingent","relevant_dimensions":["antennae","legs"],"bee_group":{"antennae":"A","wings":"X","pattern":"X","legs":"F"},"bonus":1.7800000000000014},{"rt":1402.8000000715256,"stimulus":"bees-with-color/bee-A1SM.svg","response":0,"trial_type":"image-button-response","trial_index":67,"time_elapsed":415313,"internal_node_id":"0.0-4.0-0.30","subject_id":"5f614deac0acc90e53c35c1d","study_id":"6197b3f67c2b5cd3b6d9596a","session_id":"619beeec2271c90a57ab2353","condition":"contingent","relevant_dimensions":["antennae","legs"],"bee_group":{"antennae":"A","wings":"X","pattern":"X","legs":"F"},"action":"harvest","summary":"good-harvest","bonus":1.7800000000000014},{"rt":1034.7000000476837,"stimulus":"\n                    <p><b>Action: <em>harvest</em></b></p>\n                    <p>This is the bee that you just saw.</p>\n                    <img src=\"bees-with-color/bee-A1SM.svg\" width=\"200\">\n                    <p><span class=\"greenText\"><b>Successful harvest!</b></span><br>Your pay has increased by $0.02. Your bonus pay is now $0.80.</p>\n            ","response":0,"trial_type":"html-button-response","trial_index":68,"time_elapsed":416351,"internal_node_id":"0.0-4.0-1.30","subject_id":"5f614deac0acc90e53c35c1d","study_id":"6197b3f67c2b5cd3b6d9596a","session_id":"619beeec2271c90a57ab2353","condition":"contingent","relevant_dimensions":["antennae","legs"],"bee_group":{"antennae":"A","wings":"X","pattern":"X","legs":"F"},"bonus":1.7800000000000014},{"rt":857.7000000476837,"stimulus":"bees-with-color/bee-A2DM.svg","response":0,"trial_type":"image-button-response","trial_index":69,"time_elapsed":417210,"internal_node_id":"0.0-4.0-0.31","subject_id":"5f614deac0acc90e53c35c1d","study_id":"6197b3f67c2b5cd3b6d9596a","session_id":"619beeec2271c90a57ab2353","condition":"contingent","relevant_dimensions":["antennae","legs"],"bee_group":{"antennae":"A","wings":"X","pattern":"X","legs":"F"},"action":"harvest","summary":"good-harvest","bonus":1.7800000000000014},{"rt":868.2000000476837,"stimulus":"\n                    <p><b>Action: <em>harvest</em></b></p>\n                    <p>This is the bee that you just saw.</p>\n                    <img src=\"bees-with-color/bee-A2DM.svg\" width=\"200\">\n                    <p><span class=\"greenText\"><b>Successful harvest!</b></span><br>Your pay has increased by $0.02. Your bonus pay is now $0.82.</p>\n            ","response":0,"trial_type":"html-button-response","trial_index":70,"time_elapsed":418081,"internal_node_id":"0.0-4.0-1.31","subject_id":"5f614deac0acc90e53c35c1d","study_id":"6197b3f67c2b5cd3b6d9596a","session_id":"619beeec2271c90a57ab2353","condition":"contingent","relevant_dimensions":["antennae","legs"],"bee_group":{"antennae":"A","wings":"X","pattern":"X","legs":"F"},"bonus":1.7800000000000014},{"rt":861.7999999523163,"stimulus":"bees-with-color/bee-A1DM.svg","response":0,"trial_type":"image-button-response","trial_index":71,"time_elapsed":418946,"internal_node_id":"0.0-4.0-0.32","subject_id":"5f614deac0acc90e53c35c1d","study_id":"6197b3f67c2b5cd3b6d9596a","session_id":"619beeec2271c90a57ab2353","condition":"contingent","relevant_dimensions":["antennae","legs"],"bee_group":{"antennae":"A","wings":"X","pattern":"X","legs":"F"},"action":"harvest","summary":"good-harvest","bonus":1.7800000000000014},{"rt":832.2000000476837,"stimulus":"\n                    <p><b>Action: <em>harvest</em></b></p>\n                    <p>This is the bee that you just saw.</p>\n                    <img src=\"bees-with-color/bee-A1DM.svg\" width=\"200\">\n                    <p><span class=\"greenText\"><b>Successful harvest!</b></span><br>Your pay has increased by $0.02. Your bonus pay is now $0.84.</p>\n            ","response":0,"trial_type":"html-button-response","trial_index":72,"time_elapsed":419781,"internal_node_id":"0.0-4.0-1.32","subject_id":"5f614deac0acc90e53c35c1d","study_id":"6197b3f67c2b5cd3b6d9596a","session_id":"619beeec2271c90a57ab2353","condition":"contingent","relevant_dimensions":["antennae","legs"],"bee_group":{"antennae":"A","wings":"X","pattern":"X","legs":"F"},"bonus":1.7800000000000014},{"rt":1841,"stimulus":"bees-with-color/bee-A2SF.svg","response":1,"trial_type":"image-button-response","trial_index":73,"time_elapsed":421623,"internal_node_id":"0.0-4.0-0.33","subject_id":"5f614deac0acc90e53c35c1d","study_id":"6197b3f67c2b5cd3b6d9596a","session_id":"619beeec2271c90a57ab2353","condition":"contingent","relevant_dimensions":["antennae","legs"],"bee_group":{"antennae":"A","wings":"X","pattern":"X","legs":"F"},"action":"avoid","summary":"good-avoid","bonus":1.7800000000000014},{"rt":1345.1999999284744,"stimulus":"\n                    <p><b>Action: <em>avoid</em></b></p>\n                    <p>This is the bee that you just saw.</p>\n                    <img src=\"bees-with-color/bee-A2SF.svg\" width=\"200\">\n                    <p><br>Your bonus pay is unchanged, and remains at $0.84.</p>\n            ","response":0,"trial_type":"html-button-response","trial_index":74,"time_elapsed":422971,"internal_node_id":"0.0-4.0-1.33","subject_id":"5f614deac0acc90e53c35c1d","study_id":"6197b3f67c2b5cd3b6d9596a","session_id":"619beeec2271c90a57ab2353","condition":"contingent","relevant_dimensions":["antennae","legs"],"bee_group":{"antennae":"A","wings":"X","pattern":"X","legs":"F"},"bonus":1.7800000000000014},{"rt":974.7999999523163,"stimulus":"bees-with-color/bee-A2SM.svg","response":0,"trial_type":"image-button-response","trial_index":75,"time_elapsed":423949,"internal_node_id":"0.0-4.0-0.34","subject_id":"5f614deac0acc90e53c35c1d","study_id":"6197b3f67c2b5cd3b6d9596a","session_id":"619beeec2271c90a57ab2353","condition":"contingent","relevant_dimensions":["antennae","legs"],"bee_group":{"antennae":"A","wings":"X","pattern":"X","legs":"F"},"action":"harvest","summary":"good-harvest","bonus":1.7800000000000014},{"rt":891.6000000238419,"stimulus":"\n                    <p><b>Action: <em>harvest</em></b></p>\n                    <p>This is the bee that you just saw.</p>\n                    <img src=\"bees-with-color/bee-A2SM.svg\" width=\"200\">\n                    <p><span class=\"greenText\"><b>Successful harvest!</b></span><br>Your pay has increased by $0.02. Your bonus pay is now $0.86.</p>\n            ","response":0,"trial_type":"html-button-response","trial_index":76,"time_elapsed":424844,"internal_node_id":"0.0-4.0-1.34","subject_id":"5f614deac0acc90e53c35c1d","study_id":"6197b3f67c2b5cd3b6d9596a","session_id":"619beeec2271c90a57ab2353","condition":"contingent","relevant_dimensions":["antennae","legs"],"bee_group":{"antennae":"A","wings":"X","pattern":"X","legs":"F"},"bonus":1.7800000000000014},{"rt":892.8999999761581,"stimulus":"bees-with-color/bee-B2DM.svg","response":0,"trial_type":"image-button-response","trial_index":77,"time_elapsed":425740,"internal_node_id":"0.0-4.0-0.35","subject_id":"5f614deac0acc90e53c35c1d","study_id":"6197b3f67c2b5cd3b6d9596a","session_id":"619beeec2271c90a57ab2353","condition":"contingent","relevant_dimensions":["antennae","legs"],"bee_group":{"antennae":"A","wings":"X","pattern":"X","legs":"F"},"action":"harvest","summary":"good-harvest","bonus":1.7800000000000014},{"rt":1166.3000000715256,"stimulus":"\n                    <p><b>Action: <em>harvest</em></b></p>\n                    <p>This is the bee that you just saw.</p>\n                    <img src=\"bees-with-color/bee-B2DM.svg\" width=\"200\">\n                    <p><span class=\"greenText\"><b>Successful harvest!</b></span><br>Your pay has increased by $0.02. Your bonus pay is now $0.88.</p>\n            ","response":0,"trial_type":"html-button-response","trial_index":78,"time_elapsed":426909,"internal_node_id":"0.0-4.0-1.35","subject_id":"5f614deac0acc90e53c35c1d","study_id":"6197b3f67c2b5cd3b6d9596a","session_id":"619beeec2271c90a57ab2353","condition":"contingent","relevant_dimensions":["antennae","legs"],"bee_group":{"antennae":"A","wings":"X","pattern":"X","legs":"F"},"bonus":1.7800000000000014},{"rt":917,"stimulus":"bees-with-color/bee-B2SM.svg","response":0,"trial_type":"image-button-response","trial_index":79,"time_elapsed":427828,"internal_node_id":"0.0-4.0-0.36","subject_id":"5f614deac0acc90e53c35c1d","study_id":"6197b3f67c2b5cd3b6d9596a","session_id":"619beeec2271c90a57ab2353","condition":"contingent","relevant_dimensions":["antennae","legs"],"bee_group":{"antennae":"A","wings":"X","pattern":"X","legs":"F"},"action":"harvest","summary":"good-harvest","bonus":1.7800000000000014},{"rt":1017.7999999523163,"stimulus":"\n                    <p><b>Action: <em>harvest</em></b></p>\n                    <p>This is the bee that you just saw.</p>\n                    <img src=\"bees-with-color/bee-B2SM.svg\" width=\"200\">\n                    <p><span class=\"greenText\"><b>Successful harvest!</b></span><br>Your pay has increased by $0.02. Your bonus pay is now $0.90.</p>\n            ","response":0,"trial_type":"html-button-response","trial_index":80,"time_elapsed":428849,"internal_node_id":"0.0-4.0-1.36","subject_id":"5f614deac0acc90e53c35c1d","study_id":"6197b3f67c2b5cd3b6d9596a","session_id":"619beeec2271c90a57ab2353","condition":"contingent","relevant_dimensions":["antennae","legs"],"bee_group":{"antennae":"A","wings":"X","pattern":"X","legs":"F"},"bonus":1.7800000000000014},{"rt":1339.8999999761581,"stimulus":"bees-with-color/bee-B1SF.svg","response":0,"trial_type":"image-button-response","trial_index":81,"time_elapsed":430194,"internal_node_id":"0.0-4.0-0.37","subject_id":"5f614deac0acc90e53c35c1d","study_id":"6197b3f67c2b5cd3b6d9596a","session_id":"619beeec2271c90a57ab2353","condition":"contingent","relevant_dimensions":["antennae","legs"],"bee_group":{"antennae":"A","wings":"X","pattern":"X","legs":"F"},"action":"harvest","summary":"good-harvest","bonus":1.7800000000000014},{"rt":877.7000000476837,"stimulus":"\n                    <p><b>Action: <em>harvest</em></b></p>\n                    <p>This is the bee that you just saw.</p>\n                    <img src=\"bees-with-color/bee-B1SF.svg\" width=\"200\">\n                    <p><span class=\"greenText\"><b>Successful harvest!</b></span><br>Your pay has increased by $0.02. Your bonus pay is now $0.92.</p>\n            ","response":0,"trial_type":"html-button-response","trial_index":82,"time_elapsed":431074,"internal_node_id":"0.0-4.0-1.37","subject_id":"5f614deac0acc90e53c35c1d","study_id":"6197b3f67c2b5cd3b6d9596a","session_id":"619beeec2271c90a57ab2353","condition":"contingent","relevant_dimensions":["antennae","legs"],"bee_group":{"antennae":"A","wings":"X","pattern":"X","legs":"F"},"bonus":1.7800000000000014},{"rt":1329.1999999284744,"stimulus":"bees-with-color/bee-B2SF.svg","response":0,"trial_type":"image-button-response","trial_index":83,"time_elapsed":432407,"internal_node_id":"0.0-4.0-0.38","subject_id":"5f614deac0acc90e53c35c1d","study_id":"6197b3f67c2b5cd3b6d9596a","session_id":"619beeec2271c90a57ab2353","condition":"contingent","relevant_dimensions":["antennae","legs"],"bee_group":{"antennae":"A","wings":"X","pattern":"X","legs":"F"},"action":"harvest","summary":"good-harvest","bonus":1.7800000000000014},{"rt":968.2000000476837,"stimulus":"\n                    <p><b>Action: <em>harvest</em></b></p>\n                    <p>This is the bee that you just saw.</p>\n                    <img src=\"bees-with-color/bee-B2SF.svg\" width=\"200\">\n                    <p><span class=\"greenText\"><b>Successful harvest!</b></span><br>Your pay has increased by $0.02. Your bonus pay is now $0.94.</p>\n            ","response":0,"trial_type":"html-button-response","trial_index":84,"time_elapsed":433379,"internal_node_id":"0.0-4.0-1.38","subject_id":"5f614deac0acc90e53c35c1d","study_id":"6197b3f67c2b5cd3b6d9596a","session_id":"619beeec2271c90a57ab2353","condition":"contingent","relevant_dimensions":["antennae","legs"],"bee_group":{"antennae":"A","wings":"X","pattern":"X","legs":"F"},"bonus":1.7800000000000014},{"rt":1483,"stimulus":"bees-with-color/bee-A1SF.svg","response":1,"trial_type":"image-button-response","trial_index":85,"time_elapsed":434865,"internal_node_id":"0.0-4.0-0.39","subject_id":"5f614deac0acc90e53c35c1d","study_id":"6197b3f67c2b5cd3b6d9596a","session_id":"619beeec2271c90a57ab2353","condition":"contingent","relevant_dimensions":["antennae","legs"],"bee_group":{"antennae":"A","wings":"X","pattern":"X","legs":"F"},"action":"avoid","summary":"good-avoid","bonus":1.7800000000000014},{"rt":909.2000000476837,"stimulus":"\n                    <p><b>Action: <em>avoid</em></b></p>\n                    <p>This is the bee that you just saw.</p>\n                    <img src=\"bees-with-color/bee-A1SF.svg\" width=\"200\">\n                    <p><br>Your bonus pay is unchanged, and remains at $0.94.</p>\n            ","response":0,"trial_type":"html-button-response","trial_index":86,"time_elapsed":435778,"internal_node_id":"0.0-4.0-1.39","subject_id":"5f614deac0acc90e53c35c1d","study_id":"6197b3f67c2b5cd3b6d9596a","session_id":"619beeec2271c90a57ab2353","condition":"contingent","relevant_dimensions":["antennae","legs"],"bee_group":{"antennae":"A","wings":"X","pattern":"X","legs":"F"},"bonus":1.7800000000000014},{"rt":970.5,"stimulus":"bees-with-color/bee-B1DM.svg","response":0,"trial_type":"image-button-response","trial_index":87,"time_elapsed":436750,"internal_node_id":"0.0-4.0-0.40","subject_id":"5f614deac0acc90e53c35c1d","study_id":"6197b3f67c2b5cd3b6d9596a","session_id":"619beeec2271c90a57ab2353","condition":"contingent","relevant_dimensions":["antennae","legs"],"bee_group":{"antennae":"A","wings":"X","pattern":"X","legs":"F"},"action":"harvest","summary":"good-harvest","bonus":1.7800000000000014},{"rt":905.9000000953674,"stimulus":"\n                    <p><b>Action: <em>harvest</em></b></p>\n                    <p>This is the bee that you just saw.</p>\n                    <img src=\"bees-with-color/bee-B1DM.svg\" width=\"200\">\n                    <p><span class=\"greenText\"><b>Successful harvest!</b></span><br>Your pay has increased by $0.02. Your bonus pay is now $0.96.</p>\n            ","response":0,"trial_type":"html-button-response","trial_index":88,"time_elapsed":437659,"internal_node_id":"0.0-4.0-1.40","subject_id":"5f614deac0acc90e53c35c1d","study_id":"6197b3f67c2b5cd3b6d9596a","session_id":"619beeec2271c90a57ab2353","condition":"contingent","relevant_dimensions":["antennae","legs"],"bee_group":{"antennae":"A","wings":"X","pattern":"X","legs":"F"},"bonus":1.7800000000000014},{"rt":929.5,"stimulus":"bees-with-color/bee-B2DF.svg","response":0,"trial_type":"image-button-response","trial_index":89,"time_elapsed":438590,"internal_node_id":"0.0-4.0-0.41","subject_id":"5f614deac0acc90e53c35c1d","study_id":"6197b3f67c2b5cd3b6d9596a","session_id":"619beeec2271c90a57ab2353","condition":"contingent","relevant_dimensions":["antennae","legs"],"bee_group":{"antennae":"A","wings":"X","pattern":"X","legs":"F"},"action":"harvest","summary":"good-harvest","bonus":1.7800000000000014},{"rt":740.2000000476837,"stimulus":"\n                    <p><b>Action: <em>harvest</em></b></p>\n                    <p>This is the bee that you just saw.</p>\n                    <img src=\"bees-with-color/bee-B2DF.svg\" width=\"200\">\n                    <p><span class=\"greenText\"><b>Successful harvest!</b></span><br>Your pay has increased by $0.02. Your bonus pay is now $0.98.</p>\n            ","response":0,"trial_type":"html-button-response","trial_index":90,"time_elapsed":439334,"internal_node_id":"0.0-4.0-1.41","subject_id":"5f614deac0acc90e53c35c1d","study_id":"6197b3f67c2b5cd3b6d9596a","session_id":"619beeec2271c90a57ab2353","condition":"contingent","relevant_dimensions":["antennae","legs"],"bee_group":{"antennae":"A","wings":"X","pattern":"X","legs":"F"},"bonus":1.7800000000000014},{"rt":1114.5,"stimulus":"bees-with-color/bee-A1DF.svg","response":1,"trial_type":"image-button-response","trial_index":91,"time_elapsed":440450,"internal_node_id":"0.0-4.0-0.42","subject_id":"5f614deac0acc90e53c35c1d","study_id":"6197b3f67c2b5cd3b6d9596a","session_id":"619beeec2271c90a57ab2353","condition":"contingent","relevant_dimensions":["antennae","legs"],"bee_group":{"antennae":"A","wings":"X","pattern":"X","legs":"F"},"action":"avoid","summary":"good-avoid","bonus":1.7800000000000014},{"rt":846.8999999761581,"stimulus":"\n                    <p><b>Action: <em>avoid</em></b></p>\n                    <p>This is the bee that you just saw.</p>\n                    <img src=\"bees-with-color/bee-A1DF.svg\" width=\"200\">\n                    <p><br>Your bonus pay is unchanged, and remains at $0.98.</p>\n            ","response":0,"trial_type":"html-button-response","trial_index":92,"time_elapsed":441300,"internal_node_id":"0.0-4.0-1.42","subject_id":"5f614deac0acc90e53c35c1d","study_id":"6197b3f67c2b5cd3b6d9596a","session_id":"619beeec2271c90a57ab2353","condition":"contingent","relevant_dimensions":["antennae","legs"],"bee_group":{"antennae":"A","wings":"X","pattern":"X","legs":"F"},"bonus":1.7800000000000014},{"rt":895.5,"stimulus":"bees-with-color/bee-B1SM.svg","response":0,"trial_type":"image-button-response","trial_index":93,"time_elapsed":442197,"internal_node_id":"0.0-4.0-0.43","subject_id":"5f614deac0acc90e53c35c1d","study_id":"6197b3f67c2b5cd3b6d9596a","session_id":"619beeec2271c90a57ab2353","condition":"contingent","relevant_dimensions":["antennae","legs"],"bee_group":{"antennae":"A","wings":"X","pattern":"X","legs":"F"},"action":"harvest","summary":"good-harvest","bonus":1.7800000000000014},{"rt":910.3000000715256,"stimulus":"\n                    <p><b>Action: <em>harvest</em></b></p>\n                    <p>This is the bee that you just saw.</p>\n                    <img src=\"bees-with-color/bee-B1SM.svg\" width=\"200\">\n                    <p><span class=\"greenText\"><b>Successful harvest!</b></span><br>Your pay has increased by $0.02. Your bonus pay is now $1.00.</p>\n            ","response":0,"trial_type":"html-button-response","trial_index":94,"time_elapsed":443109,"internal_node_id":"0.0-4.0-1.43","subject_id":"5f614deac0acc90e53c35c1d","study_id":"6197b3f67c2b5cd3b6d9596a","session_id":"619beeec2271c90a57ab2353","condition":"contingent","relevant_dimensions":["antennae","legs"],"bee_group":{"antennae":"A","wings":"X","pattern":"X","legs":"F"},"bonus":1.7800000000000014},{"rt":1595.1999999284744,"stimulus":"bees-with-color/bee-B1DF.svg","response":0,"trial_type":"image-button-response","trial_index":95,"time_elapsed":444707,"internal_node_id":"0.0-4.0-0.44","subject_id":"5f614deac0acc90e53c35c1d","study_id":"6197b3f67c2b5cd3b6d9596a","session_id":"619beeec2271c90a57ab2353","condition":"contingent","relevant_dimensions":["antennae","legs"],"bee_group":{"antennae":"A","wings":"X","pattern":"X","legs":"F"},"action":"harvest","summary":"good-harvest","bonus":1.7800000000000014},{"rt":862.7000000476837,"stimulus":"\n                    <p><b>Action: <em>harvest</em></b></p>\n                    <p>This is the bee that you just saw.</p>\n                    <img src=\"bees-with-color/bee-B1DF.svg\" width=\"200\">\n                    <p><span class=\"greenText\"><b>Successful harvest!</b></span><br>Your pay has increased by $0.02. Your bonus pay is now $1.02.</p>\n            ","response":0,"trial_type":"html-button-response","trial_index":96,"time_elapsed":445572,"internal_node_id":"0.0-4.0-1.44","subject_id":"5f614deac0acc90e53c35c1d","study_id":"6197b3f67c2b5cd3b6d9596a","session_id":"619beeec2271c90a57ab2353","condition":"contingent","relevant_dimensions":["antennae","legs"],"bee_group":{"antennae":"A","wings":"X","pattern":"X","legs":"F"},"bonus":1.7800000000000014},{"rt":1017.3000000715256,"stimulus":"bees-with-color/bee-A1SM.svg","response":0,"trial_type":"image-button-response","trial_index":97,"time_elapsed":446590,"internal_node_id":"0.0-4.0-0.45","subject_id":"5f614deac0acc90e53c35c1d","study_id":"6197b3f67c2b5cd3b6d9596a","session_id":"619beeec2271c90a57ab2353","condition":"contingent","relevant_dimensions":["antennae","legs"],"bee_group":{"antennae":"A","wings":"X","pattern":"X","legs":"F"},"action":"harvest","summary":"good-harvest","bonus":1.7800000000000014},{"rt":937.6000000238419,"stimulus":"\n                    <p><b>Action: <em>harvest</em></b></p>\n                    <p>This is the bee that you just saw.</p>\n                    <img src=\"bees-with-color/bee-A1SM.svg\" width=\"200\">\n                    <p><span class=\"greenText\"><b>Successful harvest!</b></span><br>Your pay has increased by $0.02. Your bonus pay is now $1.04.</p>\n            ","response":0,"trial_type":"html-button-response","trial_index":98,"time_elapsed":447530,"internal_node_id":"0.0-4.0-1.45","subject_id":"5f614deac0acc90e53c35c1d","study_id":"6197b3f67c2b5cd3b6d9596a","session_id":"619beeec2271c90a57ab2353","condition":"contingent","relevant_dimensions":["antennae","legs"],"bee_group":{"antennae":"A","wings":"X","pattern":"X","legs":"F"},"bonus":1.7800000000000014},{"rt":1145.8999999761581,"stimulus":"bees-with-color/bee-A2DF.svg","response":1,"trial_type":"image-button-response","trial_index":99,"time_elapsed":448679,"internal_node_id":"0.0-4.0-0.46","subject_id":"5f614deac0acc90e53c35c1d","study_id":"6197b3f67c2b5cd3b6d9596a","session_id":"619beeec2271c90a57ab2353","condition":"contingent","relevant_dimensions":["antennae","legs"],"bee_group":{"antennae":"A","wings":"X","pattern":"X","legs":"F"},"action":"avoid","summary":"good-avoid","bonus":1.7800000000000014},{"rt":796.7999999523163,"stimulus":"\n                    <p><b>Action: <em>avoid</em></b></p>\n                    <p>This is the bee that you just saw.</p>\n                    <img src=\"bees-with-color/bee-A2DF.svg\" width=\"200\">\n                    <p><br>Your bonus pay is unchanged, and remains at $1.04.</p>\n            ","response":0,"trial_type":"html-button-response","trial_index":100,"time_elapsed":449479,"internal_node_id":"0.0-4.0-1.46","subject_id":"5f614deac0acc90e53c35c1d","study_id":"6197b3f67c2b5cd3b6d9596a","session_id":"619beeec2271c90a57ab2353","condition":"contingent","relevant_dimensions":["antennae","legs"],"bee_group":{"antennae":"A","wings":"X","pattern":"X","legs":"F"},"bonus":1.7800000000000014},{"rt":1016.2000000476837,"stimulus":"bees-with-color/bee-A2DM.svg","response":0,"trial_type":"image-button-response","trial_index":101,"time_elapsed":450498,"internal_node_id":"0.0-4.0-0.47","subject_id":"5f614deac0acc90e53c35c1d","study_id":"6197b3f67c2b5cd3b6d9596a","session_id":"619beeec2271c90a57ab2353","condition":"contingent","relevant_dimensions":["antennae","legs"],"bee_group":{"antennae":"A","wings":"X","pattern":"X","legs":"F"},"action":"harvest","summary":"good-harvest","bonus":1.7800000000000014},{"rt":812.6000000238419,"stimulus":"\n                    <p><b>Action: <em>harvest</em></b></p>\n                    <p>This is the bee that you just saw.</p>\n                    <img src=\"bees-with-color/bee-A2DM.svg\" width=\"200\">\n                    <p><span class=\"greenText\"><b>Successful harvest!</b></span><br>Your pay has increased by $0.02. Your bonus pay is now $1.06.</p>\n            ","response":0,"trial_type":"html-button-response","trial_index":102,"time_elapsed":451313,"internal_node_id":"0.0-4.0-1.47","subject_id":"5f614deac0acc90e53c35c1d","study_id":"6197b3f67c2b5cd3b6d9596a","session_id":"619beeec2271c90a57ab2353","condition":"contingent","relevant_dimensions":["antennae","legs"],"bee_group":{"antennae":"A","wings":"X","pattern":"X","legs":"F"},"bonus":1.7800000000000014},{"rt":1114.7999999523163,"stimulus":"bees-with-color/bee-A2SF.svg","response":1,"trial_type":"image-button-response","trial_index":103,"time_elapsed":452431,"internal_node_id":"0.0-4.0-0.48","subject_id":"5f614deac0acc90e53c35c1d","study_id":"6197b3f67c2b5cd3b6d9596a","session_id":"619beeec2271c90a57ab2353","condition":"contingent","relevant_dimensions":["antennae","legs"],"bee_group":{"antennae":"A","wings":"X","pattern":"X","legs":"F"},"action":"avoid","summary":"good-avoid","bonus":1.7800000000000014},{"rt":828.8000000715256,"stimulus":"\n                    <p><b>Action: <em>avoid</em></b></p>\n                    <p>This is the bee that you just saw.</p>\n                    <img src=\"bees-with-color/bee-A2SF.svg\" width=\"200\">\n                    <p><br>Your bonus pay is unchanged, and remains at $1.06.</p>\n            ","response":0,"trial_type":"html-button-response","trial_index":104,"time_elapsed":453263,"internal_node_id":"0.0-4.0-1.48","subject_id":"5f614deac0acc90e53c35c1d","study_id":"6197b3f67c2b5cd3b6d9596a","session_id":"619beeec2271c90a57ab2353","condition":"contingent","relevant_dimensions":["antennae","legs"],"bee_group":{"antennae":"A","wings":"X","pattern":"X","legs":"F"},"bonus":1.7800000000000014},{"rt":936,"stimulus":"bees-with-color/bee-B2SM.svg","response":0,"trial_type":"image-button-response","trial_index":105,"time_elapsed":454201,"internal_node_id":"0.0-4.0-0.49","subject_id":"5f614deac0acc90e53c35c1d","study_id":"6197b3f67c2b5cd3b6d9596a","session_id":"619beeec2271c90a57ab2353","condition":"contingent","relevant_dimensions":["antennae","legs"],"bee_group":{"antennae":"A","wings":"X","pattern":"X","legs":"F"},"action":"harvest","summary":"good-harvest","bonus":1.7800000000000014},{"rt":896.5,"stimulus":"\n                    <p><b>Action: <em>harvest</em></b></p>\n                    <p>This is the bee that you just saw.</p>\n                    <img src=\"bees-with-color/bee-B2SM.svg\" width=\"200\">\n                    <p><span class=\"greenText\"><b>Successful harvest!</b></span><br>Your pay has increased by $0.02. Your bonus pay is now $1.08.</p>\n            ","response":0,"trial_type":"html-button-response","trial_index":106,"time_elapsed":455098,"internal_node_id":"0.0-4.0-1.49","subject_id":"5f614deac0acc90e53c35c1d","study_id":"6197b3f67c2b5cd3b6d9596a","session_id":"619beeec2271c90a57ab2353","condition":"contingent","relevant_dimensions":["antennae","legs"],"bee_group":{"antennae":"A","wings":"X","pattern":"X","legs":"F"},"bonus":1.7800000000000014},{"rt":909.8999999761581,"stimulus":"bees-with-color/bee-B2DM.svg","response":0,"trial_type":"image-button-response","trial_index":107,"time_elapsed":456010,"internal_node_id":"0.0-4.0-0.50","subject_id":"5f614deac0acc90e53c35c1d","study_id":"6197b3f67c2b5cd3b6d9596a","session_id":"619beeec2271c90a57ab2353","condition":"contingent","relevant_dimensions":["antennae","legs"],"bee_group":{"antennae":"A","wings":"X","pattern":"X","legs":"F"},"action":"harvest","summary":"good-harvest","bonus":1.7800000000000014},{"rt":817.5,"stimulus":"\n                    <p><b>Action: <em>harvest</em></b></p>\n                    <p>This is the bee that you just saw.</p>\n                    <img src=\"bees-with-color/bee-B2DM.svg\" width=\"200\">\n                    <p><span class=\"greenText\"><b>Successful harvest!</b></span><br>Your pay has increased by $0.02. Your bonus pay is now $1.10.</p>\n            ","response":0,"trial_type":"html-button-response","trial_index":108,"time_elapsed":456831,"internal_node_id":"0.0-4.0-1.50","subject_id":"5f614deac0acc90e53c35c1d","study_id":"6197b3f67c2b5cd3b6d9596a","session_id":"619beeec2271c90a57ab2353","condition":"contingent","relevant_dimensions":["antennae","legs"],"bee_group":{"antennae":"A","wings":"X","pattern":"X","legs":"F"},"bonus":1.7800000000000014},{"rt":894.3999999761581,"stimulus":"bees-with-color/bee-B1SM.svg","response":0,"trial_type":"image-button-response","trial_index":109,"time_elapsed":457728,"internal_node_id":"0.0-4.0-0.51","subject_id":"5f614deac0acc90e53c35c1d","study_id":"6197b3f67c2b5cd3b6d9596a","session_id":"619beeec2271c90a57ab2353","condition":"contingent","relevant_dimensions":["antennae","legs"],"bee_group":{"antennae":"A","wings":"X","pattern":"X","legs":"F"},"action":"harvest","summary":"good-harvest","bonus":1.7800000000000014},{"rt":909.6000000238419,"stimulus":"\n                    <p><b>Action: <em>harvest</em></b></p>\n                    <p>This is the bee that you just saw.</p>\n                    <img src=\"bees-with-color/bee-B1SM.svg\" width=\"200\">\n                    <p><span class=\"greenText\"><b>Successful harvest!</b></span><br>Your pay has increased by $0.02. Your bonus pay is now $1.12.</p>\n            ","response":0,"trial_type":"html-button-response","trial_index":110,"time_elapsed":458640,"internal_node_id":"0.0-4.0-1.51","subject_id":"5f614deac0acc90e53c35c1d","study_id":"6197b3f67c2b5cd3b6d9596a","session_id":"619beeec2271c90a57ab2353","condition":"contingent","relevant_dimensions":["antennae","legs"],"bee_group":{"antennae":"A","wings":"X","pattern":"X","legs":"F"},"bonus":1.7800000000000014},{"rt":3336.899999976158,"stimulus":"bees-with-color/bee-A1DF.svg","response":1,"trial_type":"image-button-response","trial_index":111,"time_elapsed":461980,"internal_node_id":"0.0-4.0-0.52","subject_id":"5f614deac0acc90e53c35c1d","study_id":"6197b3f67c2b5cd3b6d9596a","session_id":"619beeec2271c90a57ab2353","condition":"contingent","relevant_dimensions":["antennae","legs"],"bee_group":{"antennae":"A","wings":"X","pattern":"X","legs":"F"},"action":"avoid","summary":"good-avoid","bonus":1.7800000000000014},{"rt":881.3999999761581,"stimulus":"\n                    <p><b>Action: <em>avoid</em></b></p>\n                    <p>This is the bee that you just saw.</p>\n                    <img src=\"bees-with-color/bee-A1DF.svg\" width=\"200\">\n                    <p><br>Your bonus pay is unchanged, and remains at $1.12.</p>\n            ","response":0,"trial_type":"html-button-response","trial_index":112,"time_elapsed":462864,"internal_node_id":"0.0-4.0-1.52","subject_id":"5f614deac0acc90e53c35c1d","study_id":"6197b3f67c2b5cd3b6d9596a","session_id":"619beeec2271c90a57ab2353","condition":"contingent","relevant_dimensions":["antennae","legs"],"bee_group":{"antennae":"A","wings":"X","pattern":"X","legs":"F"},"bonus":1.7800000000000014},{"rt":1621.3000000715256,"stimulus":"bees-with-color/bee-B1DF.svg","response":0,"trial_type":"image-button-response","trial_index":113,"time_elapsed":464489,"internal_node_id":"0.0-4.0-0.53","subject_id":"5f614deac0acc90e53c35c1d","study_id":"6197b3f67c2b5cd3b6d9596a","session_id":"619beeec2271c90a57ab2353","condition":"contingent","relevant_dimensions":["antennae","legs"],"bee_group":{"antennae":"A","wings":"X","pattern":"X","legs":"F"},"action":"harvest","summary":"good-harvest","bonus":1.7800000000000014},{"rt":1097.2000000476837,"stimulus":"\n                    <p><b>Action: <em>harvest</em></b></p>\n                    <p>This is the bee that you just saw.</p>\n                    <img src=\"bees-with-color/bee-B1DF.svg\" width=\"200\">\n                    <p><span class=\"greenText\"><b>Successful harvest!</b></span><br>Your pay has increased by $0.02. Your bonus pay is now $1.14.</p>\n            ","response":0,"trial_type":"html-button-response","trial_index":114,"time_elapsed":465590,"internal_node_id":"0.0-4.0-1.53","subject_id":"5f614deac0acc90e53c35c1d","study_id":"6197b3f67c2b5cd3b6d9596a","session_id":"619beeec2271c90a57ab2353","condition":"contingent","relevant_dimensions":["antennae","legs"],"bee_group":{"antennae":"A","wings":"X","pattern":"X","legs":"F"},"bonus":1.7800000000000014},{"rt":1239,"stimulus":"bees-with-color/bee-A2SM.svg","response":0,"trial_type":"image-button-response","trial_index":115,"time_elapsed":466831,"internal_node_id":"0.0-4.0-0.54","subject_id":"5f614deac0acc90e53c35c1d","study_id":"6197b3f67c2b5cd3b6d9596a","session_id":"619beeec2271c90a57ab2353","condition":"contingent","relevant_dimensions":["antennae","legs"],"bee_group":{"antennae":"A","wings":"X","pattern":"X","legs":"F"},"action":"harvest","summary":"good-harvest","bonus":1.7800000000000014},{"rt":1035.8999999761581,"stimulus":"\n                    <p><b>Action: <em>harvest</em></b></p>\n                    <p>This is the bee that you just saw.</p>\n                    <img src=\"bees-with-color/bee-A2SM.svg\" width=\"200\">\n                    <p><span class=\"greenText\"><b>Successful harvest!</b></span><br>Your pay has increased by $0.02. Your bonus pay is now $1.16.</p>\n            ","response":0,"trial_type":"html-button-response","trial_index":116,"time_elapsed":467870,"internal_node_id":"0.0-4.0-1.54","subject_id":"5f614deac0acc90e53c35c1d","study_id":"6197b3f67c2b5cd3b6d9596a","session_id":"619beeec2271c90a57ab2353","condition":"contingent","relevant_dimensions":["antennae","legs"],"bee_group":{"antennae":"A","wings":"X","pattern":"X","legs":"F"},"bonus":1.7800000000000014},{"rt":1050.1999999284744,"stimulus":"bees-with-color/bee-A1SM.svg","response":0,"trial_type":"image-button-response","trial_index":117,"time_elapsed":468924,"internal_node_id":"0.0-4.0-0.55","subject_id":"5f614deac0acc90e53c35c1d","study_id":"6197b3f67c2b5cd3b6d9596a","session_id":"619beeec2271c90a57ab2353","condition":"contingent","relevant_dimensions":["antennae","legs"],"bee_group":{"antennae":"A","wings":"X","pattern":"X","legs":"F"},"action":"harvest","summary":"good-harvest","bonus":1.7800000000000014},{"rt":877.3000000715256,"stimulus":"\n                    <p><b>Action: <em>harvest</em></b></p>\n                    <p>This is the bee that you just saw.</p>\n                    <img src=\"bees-with-color/bee-A1SM.svg\" width=\"200\">\n                    <p><span class=\"greenText\"><b>Successful harvest!</b></span><br>Your pay has increased by $0.02. Your bonus pay is now $1.18.</p>\n            ","response":0,"trial_type":"html-button-response","trial_index":118,"time_elapsed":469804,"internal_node_id":"0.0-4.0-1.55","subject_id":"5f614deac0acc90e53c35c1d","study_id":"6197b3f67c2b5cd3b6d9596a","session_id":"619beeec2271c90a57ab2353","condition":"contingent","relevant_dimensions":["antennae","legs"],"bee_group":{"antennae":"A","wings":"X","pattern":"X","legs":"F"},"bonus":1.7800000000000014},{"rt":1126,"stimulus":"bees-with-color/bee-B2DF.svg","response":0,"trial_type":"image-button-response","trial_index":119,"time_elapsed":470931,"internal_node_id":"0.0-4.0-0.56","subject_id":"5f614deac0acc90e53c35c1d","study_id":"6197b3f67c2b5cd3b6d9596a","session_id":"619beeec2271c90a57ab2353","condition":"contingent","relevant_dimensions":["antennae","legs"],"bee_group":{"antennae":"A","wings":"X","pattern":"X","legs":"F"},"action":"harvest","summary":"good-harvest","bonus":1.7800000000000014},{"rt":900.1999999284744,"stimulus":"\n                    <p><b>Action: <em>harvest</em></b></p>\n                    <p>This is the bee that you just saw.</p>\n                    <img src=\"bees-with-color/bee-B2DF.svg\" width=\"200\">\n                    <p><span class=\"greenText\"><b>Successful harvest!</b></span><br>Your pay has increased by $0.02. Your bonus pay is now $1.20.</p>\n            ","response":0,"trial_type":"html-button-response","trial_index":120,"time_elapsed":471833,"internal_node_id":"0.0-4.0-1.56","subject_id":"5f614deac0acc90e53c35c1d","study_id":"6197b3f67c2b5cd3b6d9596a","session_id":"619beeec2271c90a57ab2353","condition":"contingent","relevant_dimensions":["antennae","legs"],"bee_group":{"antennae":"A","wings":"X","pattern":"X","legs":"F"},"bonus":1.7800000000000014},{"rt":1202.1000000238419,"stimulus":"bees-with-color/bee-A2DM.svg","response":0,"trial_type":"image-button-response","trial_index":121,"time_elapsed":473040,"internal_node_id":"0.0-4.0-0.57","subject_id":"5f614deac0acc90e53c35c1d","study_id":"6197b3f67c2b5cd3b6d9596a","session_id":"619beeec2271c90a57ab2353","condition":"contingent","relevant_dimensions":["antennae","legs"],"bee_group":{"antennae":"A","wings":"X","pattern":"X","legs":"F"},"action":"harvest","summary":"good-harvest","bonus":1.7800000000000014},{"rt":1383.5,"stimulus":"\n                    <p><b>Action: <em>harvest</em></b></p>\n                    <p>This is the bee that you just saw.</p>\n                    <img src=\"bees-with-color/bee-A2DM.svg\" width=\"200\">\n                    <p><span class=\"greenText\"><b>Successful harvest!</b></span><br>Your pay has increased by $0.02. Your bonus pay is now $1.22.</p>\n            ","response":0,"trial_type":"html-button-response","trial_index":122,"time_elapsed":474427,"internal_node_id":"0.0-4.0-1.57","subject_id":"5f614deac0acc90e53c35c1d","study_id":"6197b3f67c2b5cd3b6d9596a","session_id":"619beeec2271c90a57ab2353","condition":"contingent","relevant_dimensions":["antennae","legs"],"bee_group":{"antennae":"A","wings":"X","pattern":"X","legs":"F"},"bonus":1.7800000000000014},{"rt":1792.6999999284744,"stimulus":"bees-with-color/bee-A1SF.svg","response":1,"trial_type":"image-button-response","trial_index":123,"time_elapsed":476222,"internal_node_id":"0.0-4.0-0.58","subject_id":"5f614deac0acc90e53c35c1d","study_id":"6197b3f67c2b5cd3b6d9596a","session_id":"619beeec2271c90a57ab2353","condition":"contingent","relevant_dimensions":["antennae","legs"],"bee_group":{"antennae":"A","wings":"X","pattern":"X","legs":"F"},"action":"avoid","summary":"good-avoid","bonus":1.7800000000000014},{"rt":1342,"stimulus":"\n                    <p><b>Action: <em>avoid</em></b></p>\n                    <p>This is the bee that you just saw.</p>\n                    <img src=\"bees-with-color/bee-A1SF.svg\" width=\"200\">\n                    <p><br>Your bonus pay is unchanged, and remains at $1.22.</p>\n            ","response":0,"trial_type":"html-button-response","trial_index":124,"time_elapsed":477566,"internal_node_id":"0.0-4.0-1.58","subject_id":"5f614deac0acc90e53c35c1d","study_id":"6197b3f67c2b5cd3b6d9596a","session_id":"619beeec2271c90a57ab2353","condition":"contingent","relevant_dimensions":["antennae","legs"],"bee_group":{"antennae":"A","wings":"X","pattern":"X","legs":"F"},"bonus":1.7800000000000014},{"rt":1307.3999999761581,"stimulus":"bees-with-color/bee-A2DF.svg","response":1,"trial_type":"image-button-response","trial_index":125,"time_elapsed":478875,"internal_node_id":"0.0-4.0-0.59","subject_id":"5f614deac0acc90e53c35c1d","study_id":"6197b3f67c2b5cd3b6d9596a","session_id":"619beeec2271c90a57ab2353","condition":"contingent","relevant_dimensions":["antennae","legs"],"bee_group":{"antennae":"A","wings":"X","pattern":"X","legs":"F"},"action":"avoid","summary":"good-avoid","bonus":1.7800000000000014},{"rt":1253.8999999761581,"stimulus":"\n                    <p><b>Action: <em>avoid</em></b></p>\n                    <p>This is the bee that you just saw.</p>\n                    <img src=\"bees-with-color/bee-A2DF.svg\" width=\"200\">\n                    <p><br>Your bonus pay is unchanged, and remains at $1.22.</p>\n            ","response":0,"trial_type":"html-button-response","trial_index":126,"time_elapsed":480131,"internal_node_id":"0.0-4.0-1.59","subject_id":"5f614deac0acc90e53c35c1d","study_id":"6197b3f67c2b5cd3b6d9596a","session_id":"619beeec2271c90a57ab2353","condition":"contingent","relevant_dimensions":["antennae","legs"],"bee_group":{"antennae":"A","wings":"X","pattern":"X","legs":"F"},"bonus":1.7800000000000014},{"rt":1155.2999999523163,"stimulus":"bees-with-color/bee-A1DM.svg","response":0,"trial_type":"image-button-response","trial_index":127,"time_elapsed":481289,"internal_node_id":"0.0-4.0-0.60","subject_id":"5f614deac0acc90e53c35c1d","study_id":"6197b3f67c2b5cd3b6d9596a","session_id":"619beeec2271c90a57ab2353","condition":"contingent","relevant_dimensions":["antennae","legs"],"bee_group":{"antennae":"A","wings":"X","pattern":"X","legs":"F"},"action":"harvest","summary":"good-harvest","bonus":1.7800000000000014},{"rt":986.1000000238419,"stimulus":"\n                    <p><b>Action: <em>harvest</em></b></p>\n                    <p>This is the bee that you just saw.</p>\n                    <img src=\"bees-with-color/bee-A1DM.svg\" width=\"200\">\n                    <p><span class=\"greenText\"><b>Successful harvest!</b></span><br>Your pay has increased by $0.02. Your bonus pay is now $1.24.</p>\n            ","response":0,"trial_type":"html-button-response","trial_index":128,"time_elapsed":482279,"internal_node_id":"0.0-4.0-1.60","subject_id":"5f614deac0acc90e53c35c1d","study_id":"6197b3f67c2b5cd3b6d9596a","session_id":"619beeec2271c90a57ab2353","condition":"contingent","relevant_dimensions":["antennae","legs"],"bee_group":{"antennae":"A","wings":"X","pattern":"X","legs":"F"},"bonus":1.7800000000000014},{"rt":1130.3999999761581,"stimulus":"bees-with-color/bee-B2SF.svg","response":0,"trial_type":"image-button-response","trial_index":129,"time_elapsed":483412,"internal_node_id":"0.0-4.0-0.61","subject_id":"5f614deac0acc90e53c35c1d","study_id":"6197b3f67c2b5cd3b6d9596a","session_id":"619beeec2271c90a57ab2353","condition":"contingent","relevant_dimensions":["antennae","legs"],"bee_group":{"antennae":"A","wings":"X","pattern":"X","legs":"F"},"action":"harvest","summary":"good-harvest","bonus":1.7800000000000014},{"rt":864.3000000715256,"stimulus":"\n                    <p><b>Action: <em>harvest</em></b></p>\n                    <p>This is the bee that you just saw.</p>\n                    <img src=\"bees-with-color/bee-B2SF.svg\" width=\"200\">\n                    <p><span class=\"greenText\"><b>Successful harvest!</b></span><br>Your pay has increased by $0.02. Your bonus pay is now $1.26.</p>\n            ","response":0,"trial_type":"html-button-response","trial_index":130,"time_elapsed":484279,"internal_node_id":"0.0-4.0-1.61","subject_id":"5f614deac0acc90e53c35c1d","study_id":"6197b3f67c2b5cd3b6d9596a","session_id":"619beeec2271c90a57ab2353","condition":"contingent","relevant_dimensions":["antennae","legs"],"bee_group":{"antennae":"A","wings":"X","pattern":"X","legs":"F"},"bonus":1.7800000000000014},{"rt":957.1000000238419,"stimulus":"bees-with-color/bee-B1DM.svg","response":0,"trial_type":"image-button-response","trial_index":131,"time_elapsed":485237,"internal_node_id":"0.0-4.0-0.62","subject_id":"5f614deac0acc90e53c35c1d","study_id":"6197b3f67c2b5cd3b6d9596a","session_id":"619beeec2271c90a57ab2353","condition":"contingent","relevant_dimensions":["antennae","legs"],"bee_group":{"antennae":"A","wings":"X","pattern":"X","legs":"F"},"action":"harvest","summary":"good-harvest","bonus":1.7800000000000014},{"rt":879.8999999761581,"stimulus":"\n                    <p><b>Action: <em>harvest</em></b></p>\n                    <p>This is the bee that you just saw.</p>\n                    <img src=\"bees-with-color/bee-B1DM.svg\" width=\"200\">\n                    <p><span class=\"greenText\"><b>Successful harvest!</b></span><br>Your pay has increased by $0.02. Your bonus pay is now $1.28.</p>\n            ","response":0,"trial_type":"html-button-response","trial_index":132,"time_elapsed":486120,"internal_node_id":"0.0-4.0-1.62","subject_id":"5f614deac0acc90e53c35c1d","study_id":"6197b3f67c2b5cd3b6d9596a","session_id":"619beeec2271c90a57ab2353","condition":"contingent","relevant_dimensions":["antennae","legs"],"bee_group":{"antennae":"A","wings":"X","pattern":"X","legs":"F"},"bonus":1.7800000000000014},{"rt":1129.0999999046326,"stimulus":"bees-with-color/bee-B1SF.svg","response":0,"trial_type":"image-button-response","trial_index":133,"time_elapsed":487253,"internal_node_id":"0.0-4.0-0.63","subject_id":"5f614deac0acc90e53c35c1d","study_id":"6197b3f67c2b5cd3b6d9596a","session_id":"619beeec2271c90a57ab2353","condition":"contingent","relevant_dimensions":["antennae","legs"],"bee_group":{"antennae":"A","wings":"X","pattern":"X","legs":"F"},"action":"harvest","summary":"good-harvest","bonus":1.7800000000000014},{"rt":798.3999999761581,"stimulus":"\n                    <p><b>Action: <em>harvest</em></b></p>\n                    <p>This is the bee that you just saw.</p>\n                    <img src=\"bees-with-color/bee-B1SF.svg\" width=\"200\">\n                    <p><span class=\"greenText\"><b>Successful harvest!</b></span><br>Your pay has increased by $0.02. Your bonus pay is now $1.30.</p>\n            ","response":0,"trial_type":"html-button-response","trial_index":134,"time_elapsed":488053,"internal_node_id":"0.0-4.0-1.63","subject_id":"5f614deac0acc90e53c35c1d","study_id":"6197b3f67c2b5cd3b6d9596a","session_id":"619beeec2271c90a57ab2353","condition":"contingent","relevant_dimensions":["antennae","legs"],"bee_group":{"antennae":"A","wings":"X","pattern":"X","legs":"F"},"bonus":1.7800000000000014},{"rt":11841.400000095367,"stimulus":"You have completed the first part of this experiment.<br><br>You will now begin a shorter second part, in which you will receive no feedback.<br>The same rules regarding bonus pay apply.<br><br>Press any key to begin.","response":"k","trial_type":"html-keyboard-response","trial_index":135,"time_elapsed":499895,"internal_node_id":"0.0-5.0","subject_id":"5f614deac0acc90e53c35c1d","study_id":"6197b3f67c2b5cd3b6d9596a","session_id":"619beeec2271c90a57ab2353","condition":"contingent","relevant_dimensions":["antennae","legs"],"bee_group":{"antennae":"A","wings":"X","pattern":"X","legs":"F"},"bonus":1.7800000000000014},{"rt":3095.3000000715256,"stimulus":"bees-with-color/bee-A2DF.svg","response":1,"trial_type":"image-button-response","trial_index":136,"time_elapsed":502998,"internal_node_id":"0.0-6.0-0.0","subject_id":"5f614deac0acc90e53c35c1d","study_id":"6197b3f67c2b5cd3b6d9596a","session_id":"619beeec2271c90a57ab2353","condition":"contingent","relevant_dimensions":["antennae","legs"],"bee_group":{"antennae":"A","wings":"X","pattern":"X","legs":"F"},"bonus":1.7800000000000014},{"rt":1730.9000000953674,"stimulus":"bees-with-color/bee-A1DM.svg","response":0,"trial_type":"image-button-response","trial_index":137,"time_elapsed":504731,"internal_node_id":"0.0-6.0-0.1","subject_id":"5f614deac0acc90e53c35c1d","study_id":"6197b3f67c2b5cd3b6d9596a","session_id":"619beeec2271c90a57ab2353","condition":"contingent","relevant_dimensions":["antennae","legs"],"bee_group":{"antennae":"A","wings":"X","pattern":"X","legs":"F"},"bonus":1.7800000000000014},{"rt":1663.5,"stimulus":"bees-with-color/bee-A1SM.svg","response":0,"trial_type":"image-button-response","trial_index":138,"time_elapsed":506396,"internal_node_id":"0.0-6.0-0.2","subject_id":"5f614deac0acc90e53c35c1d","study_id":"6197b3f67c2b5cd3b6d9596a","session_id":"619beeec2271c90a57ab2353","condition":"contingent","relevant_dimensions":["antennae","legs"],"bee_group":{"antennae":"A","wings":"X","pattern":"X","legs":"F"},"bonus":1.7800000000000014},{"rt":4484.100000023842,"stimulus":"bees-with-color/bee-B2DM.svg","response":0,"trial_type":"image-button-response","trial_index":139,"time_elapsed":510884,"internal_node_id":"0.0-6.0-0.3","subject_id":"5f614deac0acc90e53c35c1d","study_id":"6197b3f67c2b5cd3b6d9596a","session_id":"619beeec2271c90a57ab2353","condition":"contingent","relevant_dimensions":["antennae","legs"],"bee_group":{"antennae":"A","wings":"X","pattern":"X","legs":"F"},"bonus":1.7800000000000014},{"rt":1428.7999999523163,"stimulus":"bees-with-color/bee-A1SF.svg","response":1,"trial_type":"image-button-response","trial_index":140,"time_elapsed":512319,"internal_node_id":"0.0-6.0-0.4","subject_id":"5f614deac0acc90e53c35c1d","study_id":"6197b3f67c2b5cd3b6d9596a","session_id":"619beeec2271c90a57ab2353","condition":"contingent","relevant_dimensions":["antennae","legs"],"bee_group":{"antennae":"A","wings":"X","pattern":"X","legs":"F"},"bonus":1.7800000000000014},{"rt":1066.3999999761581,"stimulus":"bees-with-color/bee-B2SM.svg","response":0,"trial_type":"image-button-response","trial_index":141,"time_elapsed":513388,"internal_node_id":"0.0-6.0-0.5","subject_id":"5f614deac0acc90e53c35c1d","study_id":"6197b3f67c2b5cd3b6d9596a","session_id":"619beeec2271c90a57ab2353","condition":"contingent","relevant_dimensions":["antennae","legs"],"bee_group":{"antennae":"A","wings":"X","pattern":"X","legs":"F"},"bonus":1.7800000000000014},{"rt":952.6000000238419,"stimulus":"bees-with-color/bee-B2SF.svg","response":0,"trial_type":"image-button-response","trial_index":142,"time_elapsed":514345,"internal_node_id":"0.0-6.0-0.6","subject_id":"5f614deac0acc90e53c35c1d","study_id":"6197b3f67c2b5cd3b6d9596a","session_id":"619beeec2271c90a57ab2353","condition":"contingent","relevant_dimensions":["antennae","legs"],"bee_group":{"antennae":"A","wings":"X","pattern":"X","legs":"F"},"bonus":1.7800000000000014},{"rt":895,"stimulus":"bees-with-color/bee-B1DM.svg","response":0,"trial_type":"image-button-response","trial_index":143,"time_elapsed":515242,"internal_node_id":"0.0-6.0-0.7","subject_id":"5f614deac0acc90e53c35c1d","study_id":"6197b3f67c2b5cd3b6d9596a","session_id":"619beeec2271c90a57ab2353","condition":"contingent","relevant_dimensions":["antennae","legs"],"bee_group":{"antennae":"A","wings":"X","pattern":"X","legs":"F"},"bonus":1.7800000000000014},{"rt":922.8999999761581,"stimulus":"bees-with-color/bee-B1SM.svg","response":0,"trial_type":"image-button-response","trial_index":144,"time_elapsed":516166,"internal_node_id":"0.0-6.0-0.8","subject_id":"5f614deac0acc90e53c35c1d","study_id":"6197b3f67c2b5cd3b6d9596a","session_id":"619beeec2271c90a57ab2353","condition":"contingent","relevant_dimensions":["antennae","legs"],"bee_group":{"antennae":"A","wings":"X","pattern":"X","legs":"F"},"bonus":1.7800000000000014},{"rt":1325.1000000238419,"stimulus":"bees-with-color/bee-A2SM.svg","response":0,"trial_type":"image-button-response","trial_index":145,"time_elapsed":517494,"internal_node_id":"0.0-6.0-0.9","subject_id":"5f614deac0acc90e53c35c1d","study_id":"6197b3f67c2b5cd3b6d9596a","session_id":"619beeec2271c90a57ab2353","condition":"contingent","relevant_dimensions":["antennae","legs"],"bee_group":{"antennae":"A","wings":"X","pattern":"X","legs":"F"},"bonus":1.7800000000000014},{"rt":1303.8999999761581,"stimulus":"bees-with-color/bee-A1DF.svg","response":1,"trial_type":"image-button-response","trial_index":146,"time_elapsed":518802,"internal_node_id":"0.0-6.0-0.10","subject_id":"5f614deac0acc90e53c35c1d","study_id":"6197b3f67c2b5cd3b6d9596a","session_id":"619beeec2271c90a57ab2353","condition":"contingent","relevant_dimensions":["antennae","legs"],"bee_group":{"antennae":"A","wings":"X","pattern":"X","legs":"F"},"bonus":1.7800000000000014},{"rt":1366.7999999523163,"stimulus":"bees-with-color/bee-B1SF.svg","response":0,"trial_type":"image-button-response","trial_index":147,"time_elapsed":520173,"internal_node_id":"0.0-6.0-0.11","subject_id":"5f614deac0acc90e53c35c1d","study_id":"6197b3f67c2b5cd3b6d9596a","session_id":"619beeec2271c90a57ab2353","condition":"contingent","relevant_dimensions":["antennae","legs"],"bee_group":{"antennae":"A","wings":"X","pattern":"X","legs":"F"},"bonus":1.7800000000000014},{"rt":1250.6000000238419,"stimulus":"bees-with-color/bee-A2SF.svg","response":1,"trial_type":"image-button-response","trial_index":148,"time_elapsed":521427,"internal_node_id":"0.0-6.0-0.12","subject_id":"5f614deac0acc90e53c35c1d","study_id":"6197b3f67c2b5cd3b6d9596a","session_id":"619beeec2271c90a57ab2353","condition":"contingent","relevant_dimensions":["antennae","legs"],"bee_group":{"antennae":"A","wings":"X","pattern":"X","legs":"F"},"bonus":1.7800000000000014},{"rt":1015.8999999761581,"stimulus":"bees-with-color/bee-B2DF.svg","response":0,"trial_type":"image-button-response","trial_index":149,"time_elapsed":522447,"internal_node_id":"0.0-6.0-0.13","subject_id":"5f614deac0acc90e53c35c1d","study_id":"6197b3f67c2b5cd3b6d9596a","session_id":"619beeec2271c90a57ab2353","condition":"contingent","relevant_dimensions":["antennae","legs"],"bee_group":{"antennae":"A","wings":"X","pattern":"X","legs":"F"},"bonus":1.7800000000000014},{"rt":905.1000000238419,"stimulus":"bees-with-color/bee-B1DF.svg","response":0,"trial_type":"image-button-response","trial_index":150,"time_elapsed":523353,"internal_node_id":"0.0-6.0-0.14","subject_id":"5f614deac0acc90e53c35c1d","study_id":"6197b3f67c2b5cd3b6d9596a","session_id":"619beeec2271c90a57ab2353","condition":"contingent","relevant_dimensions":["antennae","legs"],"bee_group":{"antennae":"A","wings":"X","pattern":"X","legs":"F"},"bonus":1.7800000000000014},{"rt":975.1000000238419,"stimulus":"bees-with-color/bee-A2DM.svg","response":0,"trial_type":"image-button-response","trial_index":151,"time_elapsed":524330,"internal_node_id":"0.0-6.0-0.15","subject_id":"5f614deac0acc90e53c35c1d","study_id":"6197b3f67c2b5cd3b6d9596a","session_id":"619beeec2271c90a57ab2353","condition":"contingent","relevant_dimensions":["antennae","legs"],"bee_group":{"antennae":"A","wings":"X","pattern":"X","legs":"F"},"bonus":1.7800000000000014},{"rt":1559.5,"stimulus":"bees-with-color/bee-A2SF.svg","response":1,"trial_type":"image-button-response","trial_index":152,"time_elapsed":525894,"internal_node_id":"0.0-6.0-0.16","subject_id":"5f614deac0acc90e53c35c1d","study_id":"6197b3f67c2b5cd3b6d9596a","session_id":"619beeec2271c90a57ab2353","condition":"contingent","relevant_dimensions":["antennae","legs"],"bee_group":{"antennae":"A","wings":"X","pattern":"X","legs":"F"},"bonus":1.7800000000000014},{"rt":1855.1999999284744,"stimulus":"bees-with-color/bee-A1DM.svg","response":0,"trial_type":"image-button-response","trial_index":153,"time_elapsed":527752,"internal_node_id":"0.0-6.0-0.17","subject_id":"5f614deac0acc90e53c35c1d","study_id":"6197b3f67c2b5cd3b6d9596a","session_id":"619beeec2271c90a57ab2353","condition":"contingent","relevant_dimensions":["antennae","legs"],"bee_group":{"antennae":"A","wings":"X","pattern":"X","legs":"F"},"bonus":1.7800000000000014},{"rt":1030.7999999523163,"stimulus":"bees-with-color/bee-B2DM.svg","response":0,"trial_type":"image-button-response","trial_index":154,"time_elapsed":528788,"internal_node_id":"0.0-6.0-0.18","subject_id":"5f614deac0acc90e53c35c1d","study_id":"6197b3f67c2b5cd3b6d9596a","session_id":"619beeec2271c90a57ab2353","condition":"contingent","relevant_dimensions":["antennae","legs"],"bee_group":{"antennae":"A","wings":"X","pattern":"X","legs":"F"},"bonus":1.7800000000000014},{"rt":1154.7000000476837,"stimulus":"bees-with-color/bee-A2SM.svg","response":0,"trial_type":"image-button-response","trial_index":155,"time_elapsed":529948,"internal_node_id":"0.0-6.0-0.19","subject_id":"5f614deac0acc90e53c35c1d","study_id":"6197b3f67c2b5cd3b6d9596a","session_id":"619beeec2271c90a57ab2353","condition":"contingent","relevant_dimensions":["antennae","legs"],"bee_group":{"antennae":"A","wings":"X","pattern":"X","legs":"F"},"bonus":1.7800000000000014},{"rt":1418.5,"stimulus":"bees-with-color/bee-B1DF.svg","response":0,"trial_type":"image-button-response","trial_index":156,"time_elapsed":531370,"internal_node_id":"0.0-6.0-0.20","subject_id":"5f614deac0acc90e53c35c1d","study_id":"6197b3f67c2b5cd3b6d9596a","session_id":"619beeec2271c90a57ab2353","condition":"contingent","relevant_dimensions":["antennae","legs"],"bee_group":{"antennae":"A","wings":"X","pattern":"X","legs":"F"},"bonus":1.7800000000000014},{"rt":889.7999999523163,"stimulus":"bees-with-color/bee-B2DF.svg","response":0,"trial_type":"image-button-response","trial_index":157,"time_elapsed":532264,"internal_node_id":"0.0-6.0-0.21","subject_id":"5f614deac0acc90e53c35c1d","study_id":"6197b3f67c2b5cd3b6d9596a","session_id":"619beeec2271c90a57ab2353","condition":"contingent","relevant_dimensions":["antennae","legs"],"bee_group":{"antennae":"A","wings":"X","pattern":"X","legs":"F"},"bonus":1.7800000000000014},{"rt":1311.5,"stimulus":"bees-with-color/bee-A1DF.svg","response":1,"trial_type":"image-button-response","trial_index":158,"time_elapsed":533577,"internal_node_id":"0.0-6.0-0.22","subject_id":"5f614deac0acc90e53c35c1d","study_id":"6197b3f67c2b5cd3b6d9596a","session_id":"619beeec2271c90a57ab2353","condition":"contingent","relevant_dimensions":["antennae","legs"],"bee_group":{"antennae":"A","wings":"X","pattern":"X","legs":"F"},"bonus":1.7800000000000014},{"rt":972.7999999523163,"stimulus":"bees-with-color/bee-B1SM.svg","response":0,"trial_type":"image-button-response","trial_index":159,"time_elapsed":534553,"internal_node_id":"0.0-6.0-0.23","subject_id":"5f614deac0acc90e53c35c1d","study_id":"6197b3f67c2b5cd3b6d9596a","session_id":"619beeec2271c90a57ab2353","condition":"contingent","relevant_dimensions":["antennae","legs"],"bee_group":{"antennae":"A","wings":"X","pattern":"X","legs":"F"},"bonus":1.7800000000000014},{"rt":922.8999999761581,"stimulus":"bees-with-color/bee-A2DM.svg","response":0,"trial_type":"image-button-response","trial_index":160,"time_elapsed":535477,"internal_node_id":"0.0-6.0-0.24","subject_id":"5f614deac0acc90e53c35c1d","study_id":"6197b3f67c2b5cd3b6d9596a","session_id":"619beeec2271c90a57ab2353","condition":"contingent","relevant_dimensions":["antennae","legs"],"bee_group":{"antennae":"A","wings":"X","pattern":"X","legs":"F"},"bonus":1.7800000000000014},{"rt":1299.7000000476837,"stimulus":"bees-with-color/bee-A2DF.svg","response":1,"trial_type":"image-button-response","trial_index":161,"time_elapsed":536778,"internal_node_id":"0.0-6.0-0.25","subject_id":"5f614deac0acc90e53c35c1d","study_id":"6197b3f67c2b5cd3b6d9596a","session_id":"619beeec2271c90a57ab2353","condition":"contingent","re