[{"success":true,"trial_type":"fullscreen","trial_index":0,"time_elapsed":10172,"internal_node_id":"0.0-0.0","subject_id":"5db31089a1f8d3000c10a6c5","study_id":"60edd13110225f80f9f3709b","session_id":"6196c6f9d2e105cd1efce512","condition":"contingent","relevant_dimensions":["antennae","pattern"],"bee_group":{"antennae":"A","wings":"X","pattern":"D","legs":"X"},"bonus":0.02},{"success":true,"timeout":false,"failed_images":[],"failed_audio":[],"failed_video":[],"trial_type":"preload","trial_index":1,"time_elapsed":12144,"internal_node_id":"0.0-1.0","subject_id":"5db31089a1f8d3000c10a6c5","study_id":"60edd13110225f80f9f3709b","session_id":"6196c6f9d2e105cd1efce512","condition":"contingent","relevant_dimensions":["antennae","pattern"],"bee_group":{"antennae":"A","wings":"X","pattern":"D","legs":"X"},"bonus":0.02},{"rt":4487,"stimulus":"Welcome! Press any key to begin.","response":"n","trial_type":"html-keyboard-response","trial_index":2,"time_elapsed":16633,"internal_node_id":"0.0-2.0","subject_id":"5db31089a1f8d3000c10a6c5","study_id":"60edd13110225f80f9f3709b","session_id":"6196c6f9d2e105cd1efce512","condition":"contingent","relevant_dimensions":["antennae","pattern"],"bee_group":{"antennae":"A","wings":"X","pattern":"D","legs":"X"},"bonus":0.02},{"view_history":[{"page_index":0,"viewing_time":3992},{"page_index":1,"viewing_time":12113},{"page_index":2,"viewing_time":54940},{"page_index":3,"viewing_time":48918},{"page_index":4,"viewing_time":5489},{"page_index":5,"viewing_time":20813},{"page_index":6,"viewing_time":10801},{"page_index":7,"viewing_time":7667},{"page_index":8,"viewing_time":3666},{"page_index":9,"viewing_time":2693},{"page_index":10,"viewing_time":3072},{"page_index":11,"viewing_time":6751},{"page_index":12,"viewing_time":20882},{"page_index":13,"viewing_time":1921},{"page_index":14,"viewing_time":2165}],"rt":205884,"trial_type":"instructions","trial_index":3,"time_elapsed":222517,"internal_node_id":"0.0-3.0-0.0","subject_id":"5db31089a1f8d3000c10a6c5","study_id":"60edd13110225f80f9f3709b","session_id":"6196c6f9d2e105cd1efce512","condition":"contingent","relevant_dimensions":["antennae","pattern"],"bee_group":{"antennae":"A","wings":"X","pattern":"D","legs":"X"},"bonus":0.02},{"rt":14640,"response":{"Q0":["Two or six legs","Stripes or spots on body","Antennae or no antennae"]},"question_order":[0],"trial_type":"survey-multi-select","trial_index":4,"time_elapsed":237167,"internal_node_id":"0.0-3.0-1.0","subject_id":"5db31089a1f8d3000c10a6c5","study_id":"60edd13110225f80f9f3709b","session_id":"6196c6f9d2e105cd1efce512","condition":"contingent","relevant_dimensions":["antennae","pattern"],"bee_group":{"antennae":"A","wings":"X","pattern":"D","legs":"X"},"correct":false,"bonus":0.02},{"rt":27223,"response":{"Q1":"No.","Q2":"Based on the four features of the bee.","Q3":"You do not learn if it was friendly or dangerous, and do not alter your bonus."},"question_order":[0,1,2],"trial_type":"survey-multi-choice","trial_index":5,"time_elapsed":264395,"internal_node_id":"0.0-3.0-2.0","subject_id":"5db31089a1f8d3000c10a6c5","study_id":"60edd13110225f80f9f3709b","session_id":"6196c6f9d2e105cd1efce512","condition":"contingent","relevant_dimensions":["antennae","pattern"],"bee_group":{"antennae":"A","wings":"X","pattern":"D","legs":"X"},"correct":true,"bonus":0.02},{"rt":2477,"stimulus":"<p>You did not answer all comprehension questions correctly.<br>Press <b>continue</b> to review the instructions again.</p>","response":0,"trial_type":"html-button-response","trial_index":6,"time_elapsed":266876,"internal_node_id":"0.0-3.0-3.0","subject_id":"5db31089a1f8d3000c10a6c5","study_id":"60edd13110225f80f9f3709b","session_id":"6196c6f9d2e105cd1efce512","condition":"contingent","relevant_dimensions":["antennae","pattern"],"bee_group":{"antennae":"A","wings":"X","pattern":"D","legs":"X"},"bonus":0.02},{"view_history":[{"page_index":0,"viewing_time":2260},{"page_index":1,"viewing_time":8021},{"page_index":2,"viewing_time":7244},{"page_index":3,"viewing_time":16803},{"page_index":4,"viewing_time":7123},{"page_index":5,"viewing_time":7865},{"page_index":6,"viewing_time":5617},{"page_index":7,"viewing_time":2491},{"page_index":8,"viewing_time":2150},{"page_index":9,"viewing_time":1675},{"page_index":10,"viewing_time":1715},{"page_index":11,"viewing_time":10331},{"page_index":12,"viewing_time":5605},{"page_index":13,"viewing_time":2425},{"page_index":14,"viewing_time":1657}],"rt":82983,"trial_type":"instructions","trial_index":7,"time_elapsed":349864,"internal_node_id":"0.0-3.0-4.0-0.0","subject_id":"5db31089a1f8d3000c10a6c5","study_id":"60edd13110225f80f9f3709b","session_id":"6196c6f9d2e105cd1efce512","condition":"contingent","relevant_dimensions":["antennae","pattern"],"bee_group":{"antennae":"A","wings":"X","pattern":"D","legs":"X"},"bonus":0.02},{"rt":10846,"response":{"Q0":["Two or six legs","Stripes or spots on body","Single or double wings","Antennae or no antennae"]},"question_order":[0],"trial_type":"survey-multi-select","trial_index":8,"time_elapsed":360715,"internal_node_id":"0.0-3.0-4.0-1.0","subject_id":"5db31089a1f8d3000c10a6c5","study_id":"60edd13110225f80f9f3709b","session_id":"6196c6f9d2e105cd1efce512","condition":"contingent","relevant_dimensions":["antennae","pattern"],"bee_group":{"antennae":"A","wings":"X","pattern":"D","legs":"X"},"correct":true,"bonus":0.02},{"rt":22141,"response":{"Q1":"No.","Q2":"Based on the four features of the bee.","Q3":"You do not learn if it was friendly or dangerous, and do not alter your bonus."},"question_order":[0,1,2],"trial_type":"survey-multi-choice","trial_index":9,"time_elapsed":382860,"internal_node_id":"0.0-3.0-4.0-2.0","subject_id":"5db31089a1f8d3000c10a6c5","study_id":"60edd13110225f80f9f3709b","session_id":"6196c6f9d2e105cd1efce512","condition":"contingent","relevant_dimensions":["antennae","pattern"],"bee_group":{"antennae":"A","wings":"X","pattern":"D","legs":"X"},"correct":true,"bonus":0.02},{"rt":2300,"stimulus":"<p>Congrats, you got everything right<br>When you're ready, click the button below to continue to the experiment.</p>","response":0,"trial_type":"html-button-response","trial_index":10,"time_elapsed":385163,"internal_node_id":"0.0-3.0-4.0-3.0","subject_id":"5db31089a1f8d3000c10a6c5","study_id":"60edd13110225f80f9f3709b","session_id":"6196c6f9d2e105cd1efce512","condition":"contingent","relevant_dimensions":["antennae","pattern"],"bee_group":{"antennae":"A","wings":"X","pattern":"D","legs":"X"},"bonus":0.02},{"rt":6912,"stimulus":"bees-with-color/bee-B2DM.svg","response":0,"trial_type":"image-button-response","trial_index":11,"time_elapsed":392081,"internal_node_id":"0.0-4.0-0.0","subject_id":"5db31089a1f8d3000c10a6c5","study_id":"60edd13110225f80f9f3709b","session_id":"6196c6f9d2e105cd1efce512","condition":"contingent","relevant_dimensions":["antennae","pattern"],"bee_group":{"antennae":"A","wings":"X","pattern":"D","legs":"X"},"action":"harvest","summary":"good-harvest","bonus":0.02},{"rt":3995,"stimulus":"\n                    <p><b>Action: <em>harvest</em></b></p>\n                    <p>This is the bee that you just saw.</p>\n                    <img src=\"bees-with-color/bee-B2DM.svg\" width=\"200\">\n                    <p><span class=\"greenText\"><b>Successful harvest!</b></span><br>Your pay has increased by $0.02. Your bonus pay is now $0.56.</p>\n            ","response":0,"trial_type":"html-button-response","trial_index":12,"time_elapsed":396082,"internal_node_id":"0.0-4.0-1.0","subject_id":"5db31089a1f8d3000c10a6c5","study_id":"60edd13110225f80f9f3709b","session_id":"6196c6f9d2e105cd1efce512","condition":"contingent","relevant_dimensions":["antennae","pattern"],"bee_group":{"antennae":"A","wings":"X","pattern":"D","legs":"X"},"bonus":0.02},{"rt":4577,"stimulus":"bees-with-color/bee-B2SM.svg","response":0,"trial_type":"image-button-response","trial_index":13,"time_elapsed":400664,"internal_node_id":"0.0-4.0-0.1","subject_id":"5db31089a1f8d3000c10a6c5","study_id":"60edd13110225f80f9f3709b","session_id":"6196c6f9d2e105cd1efce512","condition":"contingent","relevant_dimensions":["antennae","pattern"],"bee_group":{"antennae":"A","wings":"X","pattern":"D","legs":"X"},"action":"harvest","summary":"good-harvest","bonus":0.02},{"rt":2792,"stimulus":"\n                    <p><b>Action: <em>harvest</em></b></p>\n                    <p>This is the bee that you just saw.</p>\n                    <img src=\"bees-with-color/bee-B2SM.svg\" width=\"200\">\n                    <p><span class=\"greenText\"><b>Successful harvest!</b></span><br>Your pay has increased by $0.02. Your bonus pay is now $0.58.</p>\n            ","response":0,"trial_type":"html-button-response","trial_index":14,"time_elapsed":403462,"internal_node_id":"0.0-4.0-1.1","subject_id":"5db31089a1f8d3000c10a6c5","study_id":"60edd13110225f80f9f3709b","session_id":"6196c6f9d2e105cd1efce512","condition":"contingent","relevant_dimensions":["antennae","pattern"],"bee_group":{"antennae":"A","wings":"X","pattern":"D","legs":"X"},"bonus":0.02},{"rt":2233,"stimulus":"bees-with-color/bee-A1SF.svg","response":1,"trial_type":"image-button-response","trial_index":15,"time_elapsed":405699,"internal_node_id":"0.0-4.0-0.2","subject_id":"5db31089a1f8d3000c10a6c5","study_id":"60edd13110225f80f9f3709b","session_id":"6196c6f9d2e105cd1efce512","condition":"contingent","relevant_dimensions":["antennae","pattern"],"bee_group":{"antennae":"A","wings":"X","pattern":"D","legs":"X"},"action":"avoid","summary":"bad-avoid","bonus":0.02},{"rt":2727,"stimulus":"\n                    <p><b>Action: <em>avoid</em></b></p>\n                    <p>This is the bee that you just saw.</p>\n                    <img src=\"bees-with-color/bee-A1SF.svg\" width=\"200\">\n                    <p><br>Your bonus pay is unchanged, and remains at $0.58.</p>\n            ","response":0,"trial_type":"html-button-response","trial_index":16,"time_elapsed":408431,"internal_node_id":"0.0-4.0-1.2","subject_id":"5db31089a1f8d3000c10a6c5","study_id":"60edd13110225f80f9f3709b","session_id":"6196c6f9d2e105cd1efce512","condition":"contingent","relevant_dimensions":["antennae","pattern"],"bee_group":{"antennae":"A","wings":"X","pattern":"D","legs":"X"},"bonus":0.02},{"rt":2556,"stimulus":"bees-with-color/bee-B2SF.svg","response":0,"trial_type":"image-button-response","trial_index":17,"time_elapsed":410991,"internal_node_id":"0.0-4.0-0.3","subject_id":"5db31089a1f8d3000c10a6c5","study_id":"60edd13110225f80f9f3709b","session_id":"6196c6f9d2e105cd1efce512","condition":"contingent","relevant_dimensions":["antennae","pattern"],"bee_group":{"antennae":"A","wings":"X","pattern":"D","legs":"X"},"action":"harvest","summary":"good-harvest","bonus":0.02},{"rt":1673,"stimulus":"\n                    <p><b>Action: <em>harvest</em></b></p>\n                    <p>This is the bee that you just saw.</p>\n                    <img src=\"bees-with-color/bee-B2SF.svg\" width=\"200\">\n                    <p><span class=\"greenText\"><b>Successful harvest!</b></span><br>Your pay has increased by $0.02. Your bonus pay is now $0.60.</p>\n            ","response":0,"trial_type":"html-button-response","trial_index":18,"time_elapsed":412667,"internal_node_id":"0.0-4.0-1.3","subject_id":"5db31089a1f8d3000c10a6c5","study_id":"60edd13110225f80f9f3709b","session_id":"6196c6f9d2e105cd1efce512","condition":"contingent","relevant_dimensions":["antennae","pattern"],"bee_group":{"antennae":"A","wings":"X","pattern":"D","legs":"X"},"bonus":0.02},{"rt":2231,"stimulus":"bees-with-color/bee-B1SM.svg","response":1,"trial_type":"image-button-response","trial_index":19,"time_elapsed":414904,"internal_node_id":"0.0-4.0-0.4","subject_id":"5db31089a1f8d3000c10a6c5","study_id":"60edd13110225f80f9f3709b","session_id":"6196c6f9d2e105cd1efce512","condition":"contingent","relevant_dimensions":["antennae","pattern"],"bee_group":{"antennae":"A","wings":"X","pattern":"D","legs":"X"},"action":"avoid","summary":"bad-avoid","bonus":0.02},{"rt":2052,"stimulus":"\n                    <p><b>Action: <em>avoid</em></b></p>\n                    <p>This is the bee that you just saw.</p>\n                    <img src=\"bees-with-color/bee-B1SM.svg\" width=\"200\">\n                    <p><br>Your bonus pay is unchanged, and remains at $0.60.</p>\n            ","response":0,"trial_type":"html-button-response","trial_index":20,"time_elapsed":416961,"internal_node_id":"0.0-4.0-1.4","subject_id":"5db31089a1f8d3000c10a6c5","study_id":"60edd13110225f80f9f3709b","session_id":"6196c6f9d2e105cd1efce512","condition":"contingent","relevant_dimensions":["antennae","pattern"],"bee_group":{"antennae":"A","wings":"X","pattern":"D","legs":"X"},"bonus":0.02},{"rt":1823,"stimulus":"bees-with-color/bee-A1SM.svg","response":0,"trial_type":"image-button-response","trial_index":21,"time_elapsed":418788,"internal_node_id":"0.0-4.0-0.5","subject_id":"5db31089a1f8d3000c10a6c5","study_id":"60edd13110225f80f9f3709b","session_id":"6196c6f9d2e105cd1efce512","condition":"contingent","relevant_dimensions":["antennae","pattern"],"bee_group":{"antennae":"A","wings":"X","pattern":"D","legs":"X"},"action":"harvest","summary":"good-harvest","bonus":0.02},{"rt":1830,"stimulus":"\n                    <p><b>Action: <em>harvest</em></b></p>\n                    <p>This is the bee that you just saw.</p>\n                    <img src=\"bees-with-color/bee-A1SM.svg\" width=\"200\">\n                    <p><span class=\"greenText\"><b>Successful harvest!</b></span><br>Your pay has increased by $0.02. Your bonus pay is now $0.62.</p>\n            ","response":0,"trial_type":"html-button-response","trial_index":22,"time_elapsed":420621,"internal_node_id":"0.0-4.0-1.5","subject_id":"5db31089a1f8d3000c10a6c5","study_id":"60edd13110225f80f9f3709b","session_id":"6196c6f9d2e105cd1efce512","condition":"contingent","relevant_dimensions":["antennae","pattern"],"bee_group":{"antennae":"A","wings":"X","pattern":"D","legs":"X"},"bonus":0.02},{"rt":2282,"stimulus":"bees-with-color/bee-A2DF.svg","response":1,"trial_type":"image-button-response","trial_index":23,"time_elapsed":422907,"internal_node_id":"0.0-4.0-0.6","subject_id":"5db31089a1f8d3000c10a6c5","study_id":"60edd13110225f80f9f3709b","session_id":"6196c6f9d2e105cd1efce512","condition":"contingent","relevant_dimensions":["antennae","pattern"],"bee_group":{"antennae":"A","wings":"X","pattern":"D","legs":"X"},"action":"avoid","summary":"good-avoid","bonus":0.02},{"rt":1652,"stimulus":"\n                    <p><b>Action: <em>avoid</em></b></p>\n                    <p>This is the bee that you just saw.</p>\n                    <img src=\"bees-with-color/bee-A2DF.svg\" width=\"200\">\n                    <p><br>Your bonus pay is unchanged, and remains at $0.62.</p>\n            ","response":0,"trial_type":"html-button-response","trial_index":24,"time_elapsed":424562,"internal_node_id":"0.0-4.0-1.6","subject_id":"5db31089a1f8d3000c10a6c5","study_id":"60edd13110225f80f9f3709b","session_id":"6196c6f9d2e105cd1efce512","condition":"contingent","relevant_dimensions":["antennae","pattern"],"bee_group":{"antennae":"A","wings":"X","pattern":"D","legs":"X"},"bonus":0.02},{"rt":1998,"stimulus":"bees-with-color/bee-A1DM.svg","response":1,"trial_type":"image-button-response","trial_index":25,"time_elapsed":426564,"internal_node_id":"0.0-4.0-0.7","subject_id":"5db31089a1f8d3000c10a6c5","study_id":"60edd13110225f80f9f3709b","session_id":"6196c6f9d2e105cd1efce512","condition":"contingent","relevant_dimensions":["antennae","pattern"],"bee_group":{"antennae":"A","wings":"X","pattern":"D","legs":"X"},"action":"avoid","summary":"good-avoid","bonus":0.02},{"rt":1859,"stimulus":"\n                    <p><b>Action: <em>avoid</em></b></p>\n                    <p>This is the bee that you just saw.</p>\n                    <img src=\"bees-with-color/bee-A1DM.svg\" width=\"200\">\n                    <p><br>Your bonus pay is unchanged, and remains at $0.62.</p>\n            ","response":0,"trial_type":"html-button-response","trial_index":26,"time_elapsed":428426,"internal_node_id":"0.0-4.0-1.7","subject_id":"5db31089a1f8d3000c10a6c5","study_id":"60edd13110225f80f9f3709b","session_id":"6196c6f9d2e105cd1efce512","condition":"contingent","relevant_dimensions":["antennae","pattern"],"bee_group":{"antennae":"A","wings":"X","pattern":"D","legs":"X"},"bonus":0.02},{"rt":5965,"stimulus":"bees-with-color/bee-A1DF.svg","response":1,"trial_type":"image-button-response","trial_index":27,"time_elapsed":434397,"internal_node_id":"0.0-4.0-0.8","subject_id":"5db31089a1f8d3000c10a6c5","study_id":"60edd13110225f80f9f3709b","session_id":"6196c6f9d2e105cd1efce512","condition":"contingent","relevant_dimensions":["antennae","pattern"],"bee_group":{"antennae":"A","wings":"X","pattern":"D","legs":"X"},"action":"avoid","summary":"good-avoid","bonus":0.02},{"rt":2568,"stimulus":"\n                    <p><b>Action: <em>avoid</em></b></p>\n                    <p>This is the bee that you just saw.</p>\n                    <img src=\"bees-with-color/bee-A1DF.svg\" width=\"200\">\n                    <p><br>Your bonus pay is unchanged, and remains at $0.62.</p>\n            ","response":0,"trial_type":"html-button-response","trial_index":28,"time_elapsed":436969,"internal_node_id":"0.0-4.0-1.8","subject_id":"5db31089a1f8d3000c10a6c5","study_id":"60edd13110225f80f9f3709b","session_id":"6196c6f9d2e105cd1efce512","condition":"contingent","relevant_dimensions":["antennae","pattern"],"bee_group":{"antennae":"A","wings":"X","pattern":"D","legs":"X"},"bonus":0.02},{"rt":3002,"stimulus":"bees-with-color/bee-A2SM.svg","response":1,"trial_type":"image-button-response","trial_index":29,"time_elapsed":439975,"internal_node_id":"0.0-4.0-0.9","subject_id":"5db31089a1f8d3000c10a6c5","study_id":"60edd13110225f80f9f3709b","session_id":"6196c6f9d2e105cd1efce512","condition":"contingent","relevant_dimensions":["antennae","pattern"],"bee_group":{"antennae":"A","wings":"X","pattern":"D","legs":"X"},"action":"avoid","summary":"bad-avoid","bonus":0.02},{"rt":1692,"stimulus":"\n                    <p><b>Action: <em>avoid</em></b></p>\n                    <p>This is the bee that you just saw.</p>\n                    <img src=\"bees-with-color/bee-A2SM.svg\" width=\"200\">\n                    <p><br>Your bonus pay is unchanged, and remains at $0.62.</p>\n            ","response":0,"trial_type":"html-button-response","trial_index":30,"time_elapsed":441670,"internal_node_id":"0.0-4.0-1.9","subject_id":"5db31089a1f8d3000c10a6c5","study_id":"60edd13110225f80f9f3709b","session_id":"6196c6f9d2e105cd1efce512","condition":"contingent","relevant_dimensions":["antennae","pattern"],"bee_group":{"antennae":"A","wings":"X","pattern":"D","legs":"X"},"bonus":0.02},{"rt":2883,"stimulus":"bees-with-color/bee-B1DF.svg","response":1,"trial_type":"image-button-response","trial_index":31,"time_elapsed":444557,"internal_node_id":"0.0-4.0-0.10","subject_id":"5db31089a1f8d3000c10a6c5","study_id":"60edd13110225f80f9f3709b","session_id":"6196c6f9d2e105cd1efce512","condition":"contingent","relevant_dimensions":["antennae","pattern"],"bee_group":{"antennae":"A","wings":"X","pattern":"D","legs":"X"},"action":"avoid","summary":"bad-avoid","bonus":0.02},{"rt":3388,"stimulus":"\n                    <p><b>Action: <em>avoid</em></b></p>\n                    <p>This is the bee that you just saw.</p>\n                    <img src=\"bees-with-color/bee-B1DF.svg\" width=\"200\">\n                    <p><br>Your bonus pay is unchanged, and remains at $0.62.</p>\n            ","response":0,"trial_type":"html-button-response","trial_index":32,"time_elapsed":447948,"internal_node_id":"0.0-4.0-1.10","subject_id":"5db31089a1f8d3000c10a6c5","study_id":"60edd13110225f80f9f3709b","session_id":"6196c6f9d2e105cd1efce512","condition":"contingent","relevant_dimensions":["antennae","pattern"],"bee_group":{"antennae":"A","wings":"X","pattern":"D","legs":"X"},"bonus":0.02},{"rt":2282,"stimulus":"bees-with-color/bee-A2DM.svg","response":0,"trial_type":"image-button-response","trial_index":33,"time_elapsed":450234,"internal_node_id":"0.0-4.0-0.11","subject_id":"5db31089a1f8d3000c10a6c5","study_id":"60edd13110225f80f9f3709b","session_id":"6196c6f9d2e105cd1efce512","condition":"contingent","relevant_dimensions":["antennae","pattern"],"bee_group":{"antennae":"A","wings":"X","pattern":"D","legs":"X"},"action":"harvest","summary":"bad-harvest","bonus":0.02},{"rt":2282,"stimulus":"\n                    <p><b>Action: <em>harvest</em></b></p>\n                    <p>This is the bee that you just saw.</p>\n                    <img src=\"bees-with-color/bee-A2DM.svg\" width=\"200\">\n                    <p><span class=\"redText\">Bad choice, the bee was angry.</span><br><b>You have been stung!</b><br>Your pay has been decreased by $0.10. Your bonus pay is now $0.52.</p>\n            ","response":0,"trial_type":"html-button-response","trial_index":34,"time_elapsed":452519,"internal_node_id":"0.0-4.0-1.11","subject_id":"5db31089a1f8d3000c10a6c5","study_id":"60edd13110225f80f9f3709b","session_id":"6196c6f9d2e105cd1efce512","condition":"contingent","relevant_dimensions":["antennae","pattern"],"bee_group":{"antennae":"A","wings":"X","pattern":"D","legs":"X"},"bonus":0.02},{"rt":2007,"stimulus":"bees-with-color/bee-A2SF.svg","response":0,"trial_type":"image-button-response","trial_index":35,"time_elapsed":454530,"internal_node_id":"0.0-4.0-0.12","subject_id":"5db31089a1f8d3000c10a6c5","study_id":"60edd13110225f80f9f3709b","session_id":"6196c6f9d2e105cd1efce512","condition":"contingent","relevant_dimensions":["antennae","pattern"],"bee_group":{"antennae":"A","wings":"X","pattern":"D","legs":"X"},"action":"harvest","summary":"good-harvest","bonus":0.02},{"rt":1690,"stimulus":"\n                    <p><b>Action: <em>harvest</em></b></p>\n                    <p>This is the bee that you just saw.</p>\n                    <img src=\"bees-with-color/bee-A2SF.svg\" width=\"200\">\n                    <p><span class=\"greenText\"><b>Successful harvest!</b></span><br>Your pay has increased by $0.02. Your bonus pay is now $0.54.</p>\n            ","response":0,"trial_type":"html-button-response","trial_index":36,"time_elapsed":456223,"internal_node_id":"0.0-4.0-1.12","subject_id":"5db31089a1f8d3000c10a6c5","study_id":"60edd13110225f80f9f3709b","session_id":"6196c6f9d2e105cd1efce512","condition":"contingent","relevant_dimensions":["antennae","pattern"],"bee_group":{"antennae":"A","wings":"X","pattern":"D","legs":"X"},"bonus":0.02},{"rt":1753,"stimulus":"bees-with-color/bee-B2DF.svg","response":1,"trial_type":"image-button-response","trial_index":37,"time_elapsed":457980,"internal_node_id":"0.0-4.0-0.13","subject_id":"5db31089a1f8d3000c10a6c5","study_id":"60edd13110225f80f9f3709b","session_id":"6196c6f9d2e105cd1efce512","condition":"contingent","relevant_dimensions":["antennae","pattern"],"bee_group":{"antennae":"A","wings":"X","pattern":"D","legs":"X"},"action":"avoid","summary":"bad-avoid","bonus":0.02},{"rt":1700,"stimulus":"\n                    <p><b>Action: <em>avoid</em></b></p>\n                    <p>This is the bee that you just saw.</p>\n                    <img src=\"bees-with-color/bee-B2DF.svg\" width=\"200\">\n                    <p><br>Your bonus pay is unchanged, and remains at $0.54.</p>\n            ","response":0,"trial_type":"html-button-response","trial_index":38,"time_elapsed":459683,"internal_node_id":"0.0-4.0-1.13","subject_id":"5db31089a1f8d3000c10a6c5","study_id":"60edd13110225f80f9f3709b","session_id":"6196c6f9d2e105cd1efce512","condition":"contingent","relevant_dimensions":["antennae","pattern"],"bee_group":{"antennae":"A","wings":"X","pattern":"D","legs":"X"},"bonus":0.02},{"rt":3358,"stimulus":"bees-with-color/bee-B1DM.svg","response":0,"trial_type":"image-button-response","trial_index":39,"time_elapsed":463045,"internal_node_id":"0.0-4.0-0.14","subject_id":"5db31089a1f8d3000c10a6c5","study_id":"60edd13110225f80f9f3709b","session_id":"6196c6f9d2e105cd1efce512","condition":"contingent","relevant_dimensions":["antennae","pattern"],"bee_group":{"antennae":"A","wings":"X","pattern":"D","legs":"X"},"action":"harvest","summary":"good-harvest","bonus":0.02},{"rt":1659,"stimulus":"\n                    <p><b>Action: <em>harvest</em></b></p>\n                    <p>This is the bee that you just saw.</p>\n                    <img src=\"bees-with-color/bee-B1DM.svg\" width=\"200\">\n                    <p><span class=\"greenText\"><b>Successful harvest!</b></span><br>Your pay has increased by $0.02. Your bonus pay is now $0.56.</p>\n            ","response":0,"trial_type":"html-button-response","trial_index":40,"time_elapsed":464709,"internal_node_id":"0.0-4.0-1.14","subject_id":"5db31089a1f8d3000c10a6c5","study_id":"60edd13110225f80f9f3709b","session_id":"6196c6f9d2e105cd1efce512","condition":"contingent","relevant_dimensions":["antennae","pattern"],"bee_group":{"antennae":"A","wings":"X","pattern":"D","legs":"X"},"bonus":0.02},{"rt":1995,"stimulus":"bees-with-color/bee-B1SF.svg","response":0,"trial_type":"image-button-response","trial_index":41,"time_elapsed":466708,"internal_node_id":"0.0-4.0-0.15","subject_id":"5db31089a1f8d3000c10a6c5","study_id":"60edd13110225f80f9f3709b","session_id":"6196c6f9d2e105cd1efce512","condition":"contingent","relevant_dimensions":["antennae","pattern"],"bee_group":{"antennae":"A","wings":"X","pattern":"D","legs":"X"},"action":"harvest","summary":"good-harvest","bonus":0.02},{"rt":1536,"stimulus":"\n                    <p><b>Action: <em>harvest</em></b></p>\n                    <p>This is the bee that you just saw.</p>\n                    <img src=\"bees-with-color/bee-B1SF.svg\" width=\"200\">\n                    <p><span class=\"greenText\"><b>Successful harvest!</b></span><br>Your pay has increased by $0.02. Your bonus pay is now $0.58.</p>\n            ","response":0,"trial_type":"html-button-response","trial_index":42,"time_elapsed":468248,"internal_node_id":"0.0-4.0-1.15","subject_id":"5db31089a1f8d3000c10a6c5","study_id":"60edd13110225f80f9f3709b","session_id":"6196c6f9d2e105cd1efce512","condition":"contingent","relevant_dimensions":["antennae","pattern"],"bee_group":{"antennae":"A","wings":"X","pattern":"D","legs":"X"},"bonus":0.02},{"rt":1809,"stimulus":"bees-with-color/bee-A1DF.svg","response":0,"trial_type":"image-button-response","trial_index":43,"time_elapsed":470061,"internal_node_id":"0.0-4.0-0.16","subject_id":"5db31089a1f8d3000c10a6c5","study_id":"60edd13110225f80f9f3709b","session_id":"6196c6f9d2e105cd1efce512","condition":"contingent","relevant_dimensions":["antennae","pattern"],"bee_group":{"antennae":"A","wings":"X","pattern":"D","legs":"X"},"action":"harvest","summary":"bad-harvest","bonus":0.02},{"rt":1721,"stimulus":"\n                    <p><b>Action: <em>harvest</em></b></p>\n                    <p>This is the bee that you just saw.</p>\n                    <img src=\"bees-with-color/bee-A1DF.svg\" width=\"200\">\n                    <p><span class=\"redText\">Bad choice, the bee was angry.</span><br><b>You have been stung!</b><br>Your pay has been decreased by $0.10. Your bonus pay is now $0.48.</p>\n            ","response":0,"trial_type":"html-button-response","trial_index":44,"time_elapsed":471785,"internal_node_id":"0.0-4.0-1.16","subject_id":"5db31089a1f8d3000c10a6c5","study_id":"60edd13110225f80f9f3709b","session_id":"6196c6f9d2e105cd1efce512","condition":"contingent","relevant_dimensions":["antennae","pattern"],"bee_group":{"antennae":"A","wings":"X","pattern":"D","legs":"X"},"bonus":0.02},{"rt":1672,"stimulus":"bees-with-color/bee-B1SM.svg","response":1,"trial_type":"image-button-response","trial_index":45,"time_elapsed":473462,"internal_node_id":"0.0-4.0-0.17","subject_id":"5db31089a1f8d3000c10a6c5","study_id":"60edd13110225f80f9f3709b","session_id":"6196c6f9d2e105cd1efce512","condition":"contingent","relevant_dimensions":["antennae","pattern"],"bee_group":{"antennae":"A","wings":"X","pattern":"D","legs":"X"},"action":"avoid","summary":"bad-avoid","bonus":0.02},{"rt":1520,"stimulus":"\n                    <p><b>Action: <em>avoid</em></b></p>\n                    <p>This is the bee that you just saw.</p>\n                    <img src=\"bees-with-color/bee-B1SM.svg\" width=\"200\">\n                    <p><br>Your bonus pay is unchanged, and remains at $0.48.</p>\n            ","response":0,"trial_type":"html-button-response","trial_index":46,"time_elapsed":474988,"internal_node_id":"0.0-4.0-1.17","subject_id":"5db31089a1f8d3000c10a6c5","study_id":"60edd13110225f80f9f3709b","session_id":"6196c6f9d2e105cd1efce512","condition":"contingent","relevant_dimensions":["antennae","pattern"],"bee_group":{"antennae":"A","wings":"X","pattern":"D","legs":"X"},"bonus":0.02},{"rt":1614,"stimulus":"bees-with-color/bee-B2DM.svg","response":0,"trial_type":"image-button-response","trial_index":47,"time_elapsed":476605,"internal_node_id":"0.0-4.0-0.18","subject_id":"5db31089a1f8d3000c10a6c5","study_id":"60edd13110225f80f9f3709b","session_id":"6196c6f9d2e105cd1efce512","condition":"contingent","relevant_dimensions":["antennae","pattern"],"bee_group":{"antennae":"A","wings":"X","pattern":"D","legs":"X"},"action":"harvest","summary":"good-harvest","bonus":0.02},{"rt":1501,"stimulus":"\n                    <p><b>Action: <em>harvest</em></b></p>\n                    <p>This is the bee that you just saw.</p>\n                    <img src=\"bees-with-color/bee-B2DM.svg\" width=\"200\">\n                    <p><span class=\"greenText\"><b>Successful harvest!</b></span><br>Your pay has increased by $0.02. Your bonus pay is now $0.50.</p>\n            ","response":0,"trial_type":"html-button-response","trial_index":48,"time_elapsed":478109,"internal_node_id":"0.0-4.0-1.18","subject_id":"5db31089a1f8d3000c10a6c5","study_id":"60edd13110225f80f9f3709b","session_id":"6196c6f9d2e105cd1efce512","condition":"contingent","relevant_dimensions":["antennae","pattern"],"bee_group":{"antennae":"A","wings":"X","pattern":"D","legs":"X"},"bonus":0.02},{"rt":1746,"stimulus":"bees-with-color/bee-B2SF.svg","response":0,"trial_type":"image-button-response","trial_index":49,"time_elapsed":479859,"internal_node_id":"0.0-4.0-0.19","subject_id":"5db31089a1f8d3000c10a6c5","study_id":"60edd13110225f80f9f3709b","session_id":"6196c6f9d2e105cd1efce512","condition":"contingent","relevant_dimensions":["antennae","pattern"],"bee_group":{"antennae":"A","wings":"X","pattern":"D","legs":"X"},"action":"harvest","summary":"good-harvest","bonus":0.02},{"rt":1669,"stimulus":"\n                    <p><b>Action: <em>harvest</em></b></p>\n                    <p>This is the bee that you just saw.</p>\n                    <img src=\"bees-with-color/bee-B2SF.svg\" width=\"200\">\n                    <p><span class=\"greenText\"><b>Successful harvest!</b></span><br>Your pay has increased by $0.02. Your bonus pay is now $0.52.</p>\n            ","response":0,"trial_type":"html-button-response","trial_index":50,"time_elapsed":481532,"internal_node_id":"0.0-4.0-1.19","subject_id":"5db31089a1f8d3000c10a6c5","study_id":"60edd13110225f80f9f3709b","session_id":"6196c6f9d2e105cd1efce512","condition":"contingent","relevant_dimensions":["antennae","pattern"],"bee_group":{"antennae":"A","wings":"X","pattern":"D","legs":"X"},"bonus":0.02},{"rt":5879,"stimulus":"bees-with-color/bee-A2SF.svg","response":0,"trial_type":"image-button-response","trial_index":51,"time_elapsed":487415,"internal_node_id":"0.0-4.0-0.20","subject_id":"5db31089a1f8d3000c10a6c5","study_id":"60edd13110225f80f9f3709b","session_id":"6196c6f9d2e105cd1efce512","condition":"contingent","relevant_dimensions":["antennae","pattern"],"bee_group":{"antennae":"A","wings":"X","pattern":"D","legs":"X"},"action":"harvest","summary":"good-harvest","bonus":0.02},{"rt":1533,"stimulus":"\n                    <p><b>Action: <em>harvest</em></b></p>\n                    <p>This is the bee that you just saw.</p>\n                    <img src=\"bees-with-color/bee-A2SF.svg\" width=\"200\">\n                    <p><span class=\"greenText\"><b>Successful harvest!</b></span><br>Your pay has increased by $0.02. Your bonus pay is now $0.54.</p>\n            ","response":0,"trial_type":"html-button-response","trial_index":52,"time_elapsed":488951,"internal_node_id":"0.0-4.0-1.20","subject_id":"5db31089a1f8d3000c10a6c5","study_id":"60edd13110225f80f9f3709b","session_id":"6196c6f9d2e105cd1efce512","condition":"contingent","relevant_dimensions":["antennae","pattern"],"bee_group":{"antennae":"A","wings":"X","pattern":"D","legs":"X"},"bonus":0.02},{"rt":2074,"stimulus":"bees-with-color/bee-A2DF.svg","response":0,"trial_type":"image-button-response","trial_index":53,"time_elapsed":491031,"internal_node_id":"0.0-4.0-0.21","subject_id":"5db31089a1f8d3000c10a6c5","study_id":"60edd13110225f80f9f3709b","session_id":"6196c6f9d2e105cd1efce512","condition":"contingent","relevant_dimensions":["antennae","pattern"],"bee_group":{"antennae":"A","wings":"X","pattern":"D","legs":"X"},"action":"harvest","summary":"bad-harvest","bonus":0.02},{"rt":1683,"stimulus":"\n                    <p><b>Action: <em>harvest</em></b></p>\n                    <p>This is the bee that you just saw.</p>\n                    <img src=\"bees-with-color/bee-A2DF.svg\" width=\"200\">\n                    <p><span class=\"redText\">Bad choice, the bee was angry.</span><br><b>You have been stung!</b><br>Your pay has been decreased by $0.10. Your bonus pay is now $0.44.</p>\n            ","response":0,"trial_type":"html-button-response","trial_index":54,"time_elapsed":492717,"internal_node_id":"0.0-4.0-1.21","subject_id":"5db31089a1f8d3000c10a6c5","study_id":"60edd13110225f80f9f3709b","session_id":"6196c6f9d2e105cd1efce512","condition":"contingent","relevant_dimensions":["antennae","pattern"],"bee_group":{"antennae":"A","wings":"X","pattern":"D","legs":"X"},"bonus":0.02},{"rt":1780,"stimulus":"bees-with-color/bee-B2SM.svg","response":0,"trial_type":"image-button-response","trial_index":55,"time_elapsed":494501,"internal_node_id":"0.0-4.0-0.22","subject_id":"5db31089a1f8d3000c10a6c5","study_id":"60edd13110225f80f9f3709b","session_id":"6196c6f9d2e105cd1efce512","condition":"contingent","relevant_dimensions":["antennae","pattern"],"bee_group":{"antennae":"A","wings":"X","pattern":"D","legs":"X"},"action":"harvest","summary":"good-harvest","bonus":0.02},{"rt":1346,"stimulus":"\n                    <p><b>Action: <em>harvest</em></b></p>\n                    <p>This is the bee that you just saw.</p>\n                    <img src=\"bees-with-color/bee-B2SM.svg\" width=\"200\">\n                    <p><span class=\"greenText\"><b>Successful harvest!</b></span><br>Your pay has increased by $0.02. Your bonus pay is now $0.46.</p>\n            ","response":0,"trial_type":"html-button-response","trial_index":56,"time_elapsed":495850,"internal_node_id":"0.0-4.0-1.22","subject_id":"5db31089a1f8d3000c10a6c5","study_id":"60edd13110225f80f9f3709b","session_id":"6196c6f9d2e105cd1efce512","condition":"contingent","relevant_dimensions":["antennae","pattern"],"bee_group":{"antennae":"A","wings":"X","pattern":"D","legs":"X"},"bonus":0.02},{"rt":3119,"stimulus":"bees-with-color/bee-A1SF.svg","response":0,"trial_type":"image-button-response","trial_index":57,"time_elapsed":498973,"internal_node_id":"0.0-4.0-0.23","subject_id":"5db31089a1f8d3000c10a6c5","study_id":"60edd13110225f80f9f3709b","session_id":"6196c6f9d2e105cd1efce512","condition":"contingent","relevant_dimensions":["antennae","pattern"],"bee_group":{"antennae":"A","wings":"X","pattern":"D","legs":"X"},"action":"harvest","summary":"good-harvest","bonus":0.02},{"rt":1388,"stimulus":"\n                    <p><b>Action: <em>harvest</em></b></p>\n                    <p>This is the bee that you just saw.</p>\n                    <img src=\"bees-with-color/bee-A1SF.svg\" width=\"200\">\n                    <p><span class=\"greenText\"><b>Successful harvest!</b></span><br>Your pay has increased by $0.02. Your bonus pay is now $0.48.</p>\n            ","response":0,"trial_type":"html-button-response","trial_index":58,"time_elapsed":500364,"internal_node_id":"0.0-4.0-1.23","subject_id":"5db31089a1f8d3000c10a6c5","study_id":"60edd13110225f80f9f3709b","session_id":"6196c6f9d2e105cd1efce512","condition":"contingent","relevant_dimensions":["antennae","pattern"],"bee_group":{"antennae":"A","wings":"X","pattern":"D","legs":"X"},"bonus":0.02},{"rt":1710,"stimulus":"bees-with-color/bee-A2DM.svg","response":0,"trial_type":"image-button-response","trial_index":59,"time_elapsed":502078,"internal_node_id":"0.0-4.0-0.24","subject_id":"5db31089a1f8d3000c10a6c5","study_id":"60edd13110225f80f9f3709b","session_id":"6196c6f9d2e105cd1efce512","condition":"contingent","relevant_dimensions":["antennae","pattern"],"bee_group":{"antennae":"A","wings":"X","pattern":"D","legs":"X"},"action":"harvest","summary":"bad-harvest","bonus":0.02},{"rt":1486,"stimulus":"\n                    <p><b>Action: <em>harvest</em></b></p>\n                    <p>This is the bee that you just saw.</p>\n                    <img src=\"bees-with-color/bee-A2DM.svg\" width=\"200\">\n                    <p><span class=\"redText\">Bad choice, the bee was angry.</span><br><b>You have been stung!</b><br>Your pay has been decreased by $0.10. Your bonus pay is now $0.38.</p>\n            ","response":0,"trial_type":"html-button-response","trial_index":60,"time_elapsed":503567,"internal_node_id":"0.0-4.0-1.24","subject_id":"5db31089a1f8d3000c10a6c5","study_id":"60edd13110225f80f9f3709b","session_id":"6196c6f9d2e105cd1efce512","condition":"contingent","relevant_dimensions":["antennae","pattern"],"bee_group":{"antennae":"A","wings":"X","pattern":"D","legs":"X"},"bonus":0.02},{"rt":1830,"stimulus":"bees-with-color/bee-B1DM.svg","response":0,"trial_type":"image-button-response","trial_index":61,"time_elapsed":505401,"internal_node_id":"0.0-4.0-0.25","subject_id":"5db31089a1f8d3000c10a6c5","study_id":"60edd13110225f80f9f3709b","session_id":"6196c6f9d2e105cd1efce512","condition":"contingent","relevant_dimensions":["antennae","pattern"],"bee_group":{"antennae":"A","wings":"X","pattern":"D","legs":"X"},"action":"harvest","summary":"good-harvest","bonus":0.02},{"rt":1563,"stimulus":"\n                    <p><b>Action: <em>harvest</em></b></p>\n                    <p>This is the bee that you just saw.</p>\n                    <img src=\"bees-with-color/bee-B1DM.svg\" width=\"200\">\n                    <p><span class=\"greenText\"><b>Successful harvest!</b></span><br>Your pay has increased by $0.02. Your bonus pay is now $0.40.</p>\n            ","response":0,"trial_type":"html-button-response","trial_index":62,"time_elapsed":506967,"internal_node_id":"0.0-4.0-1.25","subject_id":"5db31089a1f8d3000c10a6c5","study_id":"60edd13110225f80f9f3709b","session_id":"6196c6f9d2e105cd1efce512","condition":"contingent","relevant_dimensions":["antennae","pattern"],"bee_group":{"antennae":"A","wings":"X","pattern":"D","legs":"X"},"bonus":0.02},{"rt":1642,"stimulus":"bees-with-color/bee-B1DF.svg","response":0,"trial_type":"image-button-response","trial_index":63,"time_elapsed":508612,"internal_node_id":"0.0-4.0-0.26","subject_id":"5db31089a1f8d3000c10a6c5","study_id":"60edd13110225f80f9f3709b","session_id":"6196c6f9d2e105cd1efce512","condition":"contingent","relevant_dimensions":["antennae","pattern"],"bee_group":{"antennae":"A","wings":"X","pattern":"D","legs":"X"},"action":"harvest","summary":"good-harvest","bonus":0.02},{"rt":1319,"stimulus":"\n                    <p><b>Action: <em>harvest</em></b></p>\n                    <p>This is the bee that you just saw.</p>\n                    <img src=\"bees-with-color/bee-B1DF.svg\" width=\"200\">\n                    <p><span class=\"greenText\"><b>Successful harvest!</b></span><br>Your pay has increased by $0.02. Your bonus pay is now $0.42.</p>\n            ","response":0,"trial_type":"html-button-response","trial_index":64,"time_elapsed":509934,"internal_node_id":"0.0-4.0-1.26","subject_id":"5db31089a1f8d3000c10a6c5","study_id":"60edd13110225f80f9f3709b","session_id":"6196c6f9d2e105cd1efce512","condition":"contingent","relevant_dimensions":["antennae","pattern"],"bee_group":{"antennae":"A","wings":"X","pattern":"D","legs":"X"},"bonus":0.02},{"rt":1373,"stimulus":"bees-with-color/bee-B2DF.svg","response":0,"trial_type":"image-button-response","trial_index":65,"time_elapsed":511313,"internal_node_id":"0.0-4.0-0.27","subject_id":"5db31089a1f8d3000c10a6c5","study_id":"60edd13110225f80f9f3709b","session_id":"6196c6f9d2e105cd1efce512","condition":"contingent","relevant_dimensions":["antennae","pattern"],"bee_group":{"antennae":"A","wings":"X","pattern":"D","legs":"X"},"action":"harvest","summary":"good-harvest","bonus":0.02},{"rt":1337,"stimulus":"\n                    <p><b>Action: <em>harvest</em></b></p>\n                    <p>This is the bee that you just saw.</p>\n                    <img src=\"bees-with-color/bee-B2DF.svg\" width=\"200\">\n                    <p><span class=\"greenText\"><b>Successful harvest!</b></span><br>Your pay has increased by $0.02. Your bonus pay is now $0.44.</p>\n            ","response":0,"trial_type":"html-button-response","trial_index":66,"time_elapsed":512653,"internal_node_id":"0.0-4.0-1.27","subject_id":"5db31089a1f8d3000c10a6c5","study_id":"60edd13110225f80f9f3709b","session_id":"6196c6f9d2e105cd1efce512","condition":"contingent","relevant_dimensions":["antennae","pattern"],"bee_group":{"antennae":"A","wings":"X","pattern":"D","legs":"X"},"bonus":0.02},{"rt":1523,"stimulus":"bees-with-color/bee-A2SM.svg","response":1,"trial_type":"image-button-response","trial_index":67,"time_elapsed":514179,"internal_node_id":"0.0-4.0-0.28","subject_id":"5db31089a1f8d3000c10a6c5","study_id":"60edd13110225f80f9f3709b","session_id":"6196c6f9d2e105cd1efce512","condition":"contingent","relevant_dimensions":["antennae","pattern"],"bee_group":{"antennae":"A","wings":"X","pattern":"D","legs":"X"},"action":"avoid","summary":"bad-avoid","bonus":0.02},{"rt":1339,"stimulus":"\n                    <p><b>Action: <em>avoid</em></b></p>\n                    <p>This is the bee that you just saw.</p>\n                    <img src=\"bees-with-color/bee-A2SM.svg\" width=\"200\">\n                    <p><br>Your bonus pay is unchanged, and remains at $0.44.</p>\n            ","response":0,"trial_type":"html-button-response","trial_index":68,"time_elapsed":515521,"internal_node_id":"0.0-4.0-1.28","subject_id":"5db31089a1f8d3000c10a6c5","study_id":"60edd13110225f80f9f3709b","session_id":"6196c6f9d2e105cd1efce512","condition":"contingent","relevant_dimensions":["antennae","pattern"],"bee_group":{"antennae":"A","wings":"X","pattern":"D","legs":"X"},"bonus":0.02},{"rt":1552,"stimulus":"bees-with-color/bee-A1DM.svg","response":0,"trial_type":"image-button-response","trial_index":69,"time_elapsed":517077,"internal_node_id":"0.0-4.0-0.29","subject_id":"5db31089a1f8d3000c10a6c5","study_id":"60edd13110225f80f9f3709b","session_id":"6196c6f9d2e105cd1efce512","condition":"contingent","relevant_dimensions":["antennae","pattern"],"bee_group":{"antennae":"A","wings":"X","pattern":"D","legs":"X"},"action":"harvest","summary":"bad-harvest","bonus":0.02},{"rt":1378,"stimulus":"\n                    <p><b>Action: <em>harvest</em></b></p>\n                    <p>This is the bee that you just saw.</p>\n                    <img src=\"bees-with-color/bee-A1DM.svg\" width=\"200\">\n                    <p><span class=\"redText\">Bad choice, the bee was angry.</span><br><b>You have been stung!</b><br>Your pay has been decreased by $0.10. Your bonus pay is now $0.34.</p>\n            ","response":0,"trial_type":"html-button-response","trial_index":70,"time_elapsed":518458,"internal_node_id":"0.0-4.0-1.29","subject_id":"5db31089a1f8d3000c10a6c5","study_id":"60edd13110225f80f9f3709b","session_id":"6196c6f9d2e105cd1efce512","condition":"contingent","relevant_dimensions":["antennae","pattern"],"bee_group":{"antennae":"A","wings":"X","pattern":"D","legs":"X"},"bonus":0.02},{"rt":1504,"stimulus":"bees-with-color/bee-B1SF.svg","response":1,"trial_type":"image-button-response","trial_index":71,"time_elapsed":519964,"internal_node_id":"0.0-4.0-0.30","subject_id":"5db31089a1f8d3000c10a6c5","study_id":"60edd13110225f80f9f3709b","session_id":"6196c6f9d2e105cd1efce512","condition":"contingent","relevant_dimensions":["antennae","pattern"],"bee_group":{"antennae":"A","wings":"X","pattern":"D","legs":"X"},"action":"avoid","summary":"bad-avoid","bonus":0.02},{"rt":1396,"stimulus":"\n                    <p><b>Action: <em>avoid</em></b></p>\n                    <p>This is the bee that you just saw.</p>\n                    <img src=\"bees-with-color/bee-B1SF.svg\" width=\"200\">\n                    <p><br>Your bonus pay is unchanged, and remains at $0.34.</p>\n            ","response":0,"trial_type":"html-button-response","trial_index":72,"time_elapsed":521364,"internal_node_id":"0.0-4.0-1.30","subject_id":"5db31089a1f8d3000c10a6c5","study_id":"60edd13110225f80f9f3709b","session_id":"6196c6f9d2e105cd1efce512","condition":"contingent","relevant_dimensions":["antennae","pattern"],"bee_group":{"antennae":"A","wings":"X","pattern":"D","legs":"X"},"bonus":0.02},{"rt":1484,"stimulus":"bees-with-color/bee-A1SM.svg","response":1,"trial_type":"image-button-response","trial_index":73,"time_elapsed":522852,"internal_node_id":"0.0-4.0-0.31","subject_id":"5db31089a1f8d3000c10a6c5","study_id":"60edd13110225f80f9f3709b","session_id":"6196c6f9d2e105cd1efce512","condition":"contingent","relevant_dimensions":["antennae","pattern"],"bee_group":{"antennae":"A","wings":"X","pattern":"D","legs":"X"},"action":"avoid","summary":"bad-avoid","bonus":0.02},{"rt":1416,"stimulus":"\n                    <p><b>Action: <em>avoid</em></b></p>\n                    <p>This is the bee that you just saw.</p>\n                    <img src=\"bees-with-color/bee-A1SM.svg\" width=\"200\">\n                    <p><br>Your bonus pay is unchanged, and remains at $0.34.</p>\n            ","response":0,"trial_type":"html-button-response","trial_index":74,"time_elapsed":524270,"internal_node_id":"0.0-4.0-1.31","subject_id":"5db31089a1f8d3000c10a6c5","study_id":"60edd13110225f80f9f3709b","session_id":"6196c6f9d2e105cd1efce512","condition":"contingent","relevant_dimensions":["antennae","pattern"],"bee_group":{"antennae":"A","wings":"X","pattern":"D","legs":"X"},"bonus":0.02},{"rt":1466,"stimulus":"bees-with-color/bee-B2SF.svg","response":1,"trial_type":"image-button-response","trial_index":75,"time_elapsed":525738,"internal_node_id":"0.0-4.0-0.32","subject_id":"5db31089a1f8d3000c10a6c5","study_id":"60edd13110225f80f9f3709b","session_id":"6196c6f9d2e105cd1efce512","condition":"contingent","relevant_dimensions":["antennae","pattern"],"bee_group":{"antennae":"A","wings":"X","pattern":"D","legs":"X"},"action":"avoid","summary":"bad-avoid","bonus":0.02},{"rt":1427,"stimulus":"\n                    <p><b>Action: <em>avoid</em></b></p>\n                    <p>This is the bee that you just saw.</p>\n                    <img src=\"bees-with-color/bee-B2SF.svg\" width=\"200\">\n                    <p><br>Your bonus pay is unchanged, and remains at $0.34.</p>\n            ","response":0,"trial_type":"html-button-response","trial_index":76,"time_elapsed":527168,"internal_node_id":"0.0-4.0-1.32","subject_id":"5db31089a1f8d3000c10a6c5","study_id":"60edd13110225f80f9f3709b","session_id":"6196c6f9d2e105cd1efce512","condition":"contingent","relevant_dimensions":["antennae","pattern"],"bee_group":{"antennae":"A","wings":"X","pattern":"D","legs":"X"},"bonus":0.02},{"rt":1434,"stimulus":"bees-with-color/bee-B1DM.svg","response":0,"trial_type":"image-button-response","trial_index":77,"time_elapsed":528606,"internal_node_id":"0.0-4.0-0.33","subject_id":"5db31089a1f8d3000c10a6c5","study_id":"60edd13110225f80f9f3709b","session_id":"6196c6f9d2e105cd1efce512","condition":"contingent","relevant_dimensions":["antennae","pattern"],"bee_group":{"antennae":"A","wings":"X","pattern":"D","legs":"X"},"action":"harvest","summary":"good-harvest","bonus":0.02},{"rt":1297,"stimulus":"\n                    <p><b>Action: <em>harvest</em></b></p>\n                    <p>This is the bee that you just saw.</p>\n                    <img src=\"bees-with-color/bee-B1DM.svg\" width=\"200\">\n                    <p><span class=\"greenText\"><b>Successful harvest!</b></span><br>Your pay has increased by $0.02. Your bonus pay is now $0.36.</p>\n            ","response":0,"trial_type":"html-button-response","trial_index":78,"time_elapsed":529906,"internal_node_id":"0.0-4.0-1.33","subject_id":"5db31089a1f8d3000c10a6c5","study_id":"60edd13110225f80f9f3709b","session_id":"6196c6f9d2e105cd1efce512","condition":"contingent","relevant_dimensions":["antennae","pattern"],"bee_group":{"antennae":"A","wings":"X","pattern":"D","legs":"X"},"bonus":0.02},{"rt":1417,"stimulus":"bees-with-color/bee-A2SM.svg","response":1,"trial_type":"image-button-response","trial_index":79,"time_elapsed":531326,"internal_node_id":"0.0-4.0-0.34","subject_id":"5db31089a1f8d3000c10a6c5","study_id":"60edd13110225f80f9f3709b","session_id":"6196c6f9d2e105cd1efce512","condition":"contingent","relevant_dimensions":["antennae","pattern"],"bee_group":{"antennae":"A","wings":"X","pattern":"D","legs":"X"},"action":"avoid","summary":"bad-avoid","bonus":0.02},{"rt":1279,"stimulus":"\n                    <p><b>Action: <em>avoid</em></b></p>\n                    <p>This is the bee that you just saw.</p>\n                    <img src=\"bees-with-color/bee-A2SM.svg\" width=\"200\">\n                    <p><br>Your bonus pay is unchanged, and remains at $0.36.</p>\n            ","response":0,"trial_type":"html-button-response","trial_index":80,"time_elapsed":532608,"internal_node_id":"0.0-4.0-1.34","subject_id":"5db31089a1f8d3000c10a6c5","study_id":"60edd13110225f80f9f3709b","session_id":"6196c6f9d2e105cd1efce512","condition":"contingent","relevant_dimensions":["antennae","pattern"],"bee_group":{"antennae":"A","wings":"X","pattern":"D","legs":"X"},"bonus":0.02},{"rt":1433,"stimulus":"bees-with-color/bee-A1SF.svg","response":0,"trial_type":"image-button-response","trial_index":81,"time_elapsed":534046,"internal_node_id":"0.0-4.0-0.35","subject_id":"5db31089a1f8d3000c10a6c5","study_id":"60edd13110225f80f9f3709b","session_id":"6196c6f9d2e105cd1efce512","condition":"contingent","relevant_dimensions":["antennae","pattern"],"bee_group":{"antennae":"A","wings":"X","pattern":"D","legs":"X"},"action":"harvest","summary":"good-harvest","bonus":0.02},{"rt":1327,"stimulus":"\n                    <p><b>Action: <em>harvest</em></b></p>\n                    <p>This is the bee that you just saw.</p>\n                    <img src=\"bees-with-color/bee-A1SF.svg\" width=\"200\">\n                    <p><span class=\"greenText\"><b>Successful harvest!</b></span><br>Your pay has increased by $0.02. Your bonus pay is now $0.38.</p>\n            ","response":0,"trial_type":"html-button-response","trial_index":82,"time_elapsed":535376,"internal_node_id":"0.0-4.0-1.35","subject_id":"5db31089a1f8d3000c10a6c5","study_id":"60edd13110225f80f9f3709b","session_id":"6196c6f9d2e105cd1efce512","condition":"contingent","relevant_dimensions":["antennae","pattern"],"bee_group":{"antennae":"A","wings":"X","pattern":"D","legs":"X"},"bonus":0.02},{"rt":1533,"stimulus":"bees-with-color/bee-A2DF.svg","response":0,"trial_type":"image-button-response","trial_index":83,"time_elapsed":536913,"internal_node_id":"0.0-4.0-0.36","subject_id":"5db31089a1f8d3000c10a6c5","study_id":"60edd13110225f80f9f3709b","session_id":"6196c6f9d2e105cd1efce512","condition":"contingent","relevant_dimensions":["antennae","pattern"],"bee_group":{"antennae":"A","wings":"X","pattern":"D","legs":"X"},"action":"harvest","summary":"bad-harvest","bonus":0.02},{"rt":1455,"stimulus":"\n                    <p><b>Action: <em>harvest</em></b></p>\n                    <p>This is the bee that you just saw.</p>\n                    <img src=\"bees-with-color/bee-A2DF.svg\" width=\"200\">\n                    <p><span class=\"redText\">Bad choice, the bee was angry.</span><br><b>You have been stung!</b><br>Your pay has been decreased by $0.10. Your bonus pay is now $0.28.</p>\n            ","response":0,"trial_type":"html-button-response","trial_index":84,"time_elapsed":538371,"internal_node_id":"0.0-4.0-1.36","subject_id":"5db31089a1f8d3000c10a6c5","study_id":"60edd13110225f80f9f3709b","session_id":"6196c6f9d2e105cd1efce512","condition":"contingent","relevant_dimensions":["antennae","pattern"],"bee_group":{"antennae":"A","wings":"X","pattern":"D","legs":"X"},"bonus":0.02},{"rt":1517,"stimulus":"bees-with-color/bee-A2DM.svg","response":1,"trial_type":"image-button-response","trial_index":85,"time_elapsed":539891,"internal_node_id":"0.0-4.0-0.37","subject_id":"5db31089a1f8d3000c10a6c5","study_id":"60edd13110225f80f9f3709b","session_id":"6196c6f9d2e105cd1efce512","condition":"contingent","relevant_dimensions":["antennae","pattern"],"bee_group":{"antennae":"A","wings":"X","pattern":"D","legs":"X"},"action":"avoid","summary":"good-avoid","bonus":0.02},{"rt":1287,"stimulus":"\n                    <p><b>Action: <em>avoid</em></b></p>\n                    <p>This is the bee that you just saw.</p>\n                    <img src=\"bees-with-color/bee-A2DM.svg\" width=\"200\">\n                    <p><br>Your bonus pay is unchanged, and remains at $0.28.</p>\n            ","response":0,"trial_type":"html-button-response","trial_index":86,"time_elapsed":541181,"internal_node_id":"0.0-4.0-1.37","subject_id":"5db31089a1f8d3000c10a6c5","study_id":"60edd13110225f80f9f3709b","session_id":"6196c6f9d2e105cd1efce512","condition":"contingent","relevant_dimensions":["antennae","pattern"],"bee_group":{"antennae":"A","wings":"X","pattern":"D","legs":"X"},"bonus":0.02},{"rt":1580,"stimulus":"bees-with-color/bee-B2SM.svg","response":1,"trial_type":"image-button-response","trial_index":87,"time_elapsed":542767,"internal_node_id":"0.0-4.0-0.38","subject_id":"5db31089a1f8d3000c10a6c5","study_id":"60edd13110225f80f9f3709b","session_id":"6196c6f9d2e105cd1efce512","condition":"contingent","relevant_dimensions":["antennae","pattern"],"bee_group":{"antennae":"A","wings":"X","pattern":"D","legs":"X"},"action":"avoid","summary":"bad-avoid","bonus":0.02},{"rt":1287,"stimulus":"\n                    <p><b>Action: <em>avoid</em></b></p>\n                    <p>This is the bee that you just saw.</p>\n                    <img src=\"bees-with-color/bee-B2SM.svg\" width=\"200\">\n                    <p><br>Your bonus pay is unchanged, and remains at $0.28.</p>\n            ","response":0,"trial_type":"html-button-response","trial_index":88,"time_elapsed":544059,"internal_node_id":"0.0-4.0-1.38","subject_id":"5db31089a1f8d3000c10a6c5","study_id":"60edd13110225f80f9f3709b","session_id":"6196c6f9d2e105cd1efce512","condition":"contingent","relevant_dimensions":["antennae","pattern"],"bee_group":{"antennae":"A","wings":"X","pattern":"D","legs":"X"},"bonus":0.02},{"rt":1367,"stimulus":"bees-with-color/bee-B2DF.svg","response":0,"trial_type":"image-button-response","trial_index":89,"time_elapsed":545428,"internal_node_id":"0.0-4.0-0.39","subject_id":"5db31089a1f8d3000c10a6c5","study_id":"60edd13110225f80f9f3709b","session_id":"6196c6f9d2e105cd1efce512","condition":"contingent","relevant_dimensions":["antennae","pattern"],"bee_group":{"antennae":"A","wings":"X","pattern":"D","legs":"X"},"action":"harvest","summary":"good-harvest","bonus":0.02},{"rt":1207,"stimulus":"\n                    <p><b>Action: <em>harvest</em></b></p>\n                    <p>This is the bee that you just saw.</p>\n                    <img src=\"bees-with-color/bee-B2DF.svg\" width=\"200\">\n                    <p><span class=\"greenText\"><b>Successful harvest!</b></span><br>Your pay has increased by $0.02. Your bonus pay is now $0.30.</p>\n            ","response":0,"trial_type":"html-button-response","trial_index":90,"time_elapsed":546639,"internal_node_id":"0.0-4.0-1.39","subject_id":"5db31089a1f8d3000c10a6c5","study_id":"60edd13110225f80f9f3709b","session_id":"6196c6f9d2e105cd1efce512","condition":"contingent","relevant_dimensions":["antennae","pattern"],"bee_group":{"antennae":"A","wings":"X","pattern":"D","legs":"X"},"bonus":0.02},{"rt":1473,"stimulus":"bees-with-color/bee-B1SF.svg","response":0,"trial_type":"image-button-response","trial_index":91,"time_elapsed":548118,"internal_node_id":"0.0-4.0-0.40","subject_id":"5db31089a1f8d3000c10a6c5","study_id":"60edd13110225f80f9f3709b","session_id":"6196c6f9d2e105cd1efce512","condition":"contingent","relevant_dimensions":["antennae","pattern"],"bee_group":{"antennae":"A","wings":"X","pattern":"D","legs":"X"},"action":"harvest","summary":"good-harvest","bonus":0.02},{"rt":1260,"stimulus":"\n                    <p><b>Action: <em>harvest</em></b></p>\n                    <p>This is the bee that you just saw.</p>\n                    <img src=\"bees-with-color/bee-B1SF.svg\" width=\"200\">\n                    <p><span class=\"greenText\"><b>Successful harvest!</b></span><br>Your pay has increased by $0.02. Your bonus pay is now $0.32.</p>\n            ","response":0,"trial_type":"html-button-response","trial_index":92,"time_elapsed":549381,"internal_node_id":"0.0-4.0-1.40","subject_id":"5db31089a1f8d3000c10a6c5","study_id":"60edd13110225f80f9f3709b","session_id":"6196c6f9d2e105cd1efce512","condition":"contingent","relevant_dimensions":["antennae","pattern"],"bee_group":{"antennae":"A","wings":"X","pattern":"D","legs":"X"},"bonus":0.02},{"rt":1424,"stimulus":"bees-with-color/bee-B1SM.svg","response":0,"trial_type":"image-button-response","trial_index":93,"time_elapsed":550809,"internal_node_id":"0.0-4.0-0.41","subject_id":"5db31089a1f8d3000c10a6c5","study_id":"60edd13110225f80f9f3709b","session_id":"6196c6f9d2e105cd1efce512","condition":"contingent","relevant_dimensions":["antennae","pattern"],"bee_group":{"antennae":"A","wings":"X","pattern":"D","legs":"X"},"action":"harvest","summary":"good-harvest","bonus":0.02},{"rt":1457,"stimulus":"\n                    <p><b>Action: <em>harvest</em></b></p>\n                    <p>This is the bee that you just saw.</p>\n                    <img src=\"bees-with-color/bee-B1SM.svg\" width=\"200\">\n                    <p><span class=\"greenText\"><b>Successful harvest!</b></span><br>Your pay has increased by $0.02. Your bonus pay is now $0.34.</p>\n            ","response":0,"trial_type":"html-button-response","trial_index":94,"time_elapsed":552269,"internal_node_id":"0.0-4.0-1.41","subject_id":"5db31089a1f8d3000c10a6c5","study_id":"60edd13110225f80f9f3709b","session_id":"6196c6f9d2e105cd1efce512","condition":"contingent","relevant_dimensions":["antennae","pattern"],"bee_group":{"antennae":"A","wings":"X","pattern":"D","legs":"X"},"bonus":0.02},{"rt":1562,"stimulus":"bees-with-color/bee-B2DM.svg","response":0,"trial_type":"image-button-response","trial_index":95,"time_elapsed":553834,"internal_node_id":"0.0-4.0-0.42","subject_id":"5db31089a1f8d3000c10a6c5","study_id":"60edd13110225f80f9f3709b","session_id":"6196c6f9d2e105cd1efce512","condition":"contingent","relevant_dimensions":["antennae","pattern"],"bee_group":{"antennae":"A","wings":"X","pattern":"D","legs":"X"},"action":"harvest","summary":"good-harvest","bonus":0.02},{"rt":1423,"stimulus":"\n                    <p><b>Action: <em>harvest</em></b></p>\n                    <p>This is the bee that you just saw.</p>\n                    <img src=\"bees-with-color/bee-B2DM.svg\" width=\"200\">\n                    <p><span class=\"greenText\"><b>Successful harvest!</b></span><br>Your pay has increased by $0.02. Your bonus pay is now $0.36.</p>\n            ","response":0,"trial_type":"html-button-response","trial_index":96,"time_elapsed":555263,"internal_node_id":"0.0-4.0-1.42","subject_id":"5db31089a1f8d3000c10a6c5","study_id":"60edd13110225f80f9f3709b","session_id":"6196c6f9d2e105cd1efce512","condition":"contingent","relevant_dimensions":["antennae","pattern"],"bee_group":{"antennae":"A","wings":"X","pattern":"D","legs":"X"},"bonus":0.02},{"rt":1336,"stimulus":"bees-with-color/bee-A2SF.svg","response":1,"trial_type":"image-button-response","trial_index":97,"time_elapsed":556603,"internal_node_id":"0.0-4.0-0.43","subject_id":"5db31089a1f8d3000c10a6c5","study_id":"60edd13110225f80f9f3709b","session_id":"6196c6f9d2e105cd1efce512","condition":"contingent","relevant_dimensions":["antennae","pattern"],"bee_group":{"antennae":"A","wings":"X","pattern":"D","legs":"X"},"action":"avoid","summary":"bad-avoid","bonus":0.02},{"rt":1239,"stimulus":"\n                    <p><b>Action: <em>avoid</em></b></p>\n                    <p>This is the bee that you just saw.</p>\n                    <img src=\"bees-with-color/bee-A2SF.svg\" width=\"200\">\n                    <p><br>Your bonus pay is unchanged, and remains at $0.36.</p>\n            ","response":0,"trial_type":"html-button-response","trial_index":98,"time_elapsed":557845,"internal_node_id":"0.0-4.0-1.43","subject_id":"5db31089a1f8d3000c10a6c5","study_id":"60edd13110225f80f9f3709b","session_id":"6196c6f9d2e105cd1efce512","condition":"contingent","relevant_dimensions":["antennae","pattern"],"bee_group":{"antennae":"A","wings":"X","pattern":"D","legs":"X"},"bonus":0.02},{"rt":1505,"stimulus":"bees-with-color/bee-A1SM.svg","response":0,"trial_type":"image-button-response","trial_index":99,"time_elapsed":559353,"internal_node_id":"0.0-4.0-0.44","subject_id":"5db31089a1f8d3000c10a6c5","study_id":"60edd13110225f80f9f3709b","session_id":"6196c6f9d2e105cd1efce512","condition":"contingent","relevant_dimensions":["antennae","pattern"],"bee_group":{"antennae":"A","wings":"X","pattern":"D","legs":"X"},"action":"harvest","summary":"good-harvest","bonus":0.02},{"rt":1179,"stimulus":"\n                    <p><b>Action: <em>harvest</em></b></p>\n                    <p>This is the bee that you just saw.</p>\n                    <img src=\"bees-with-color/bee-A1SM.svg\" width=\"200\">\n                    <p><span class=\"greenText\"><b>Successful harvest!</b></span><br>Your pay has increased by $0.02. Your bonus pay is now $0.38.</p>\n            ","response":0,"trial_type":"html-button-response","trial_index":100,"time_elapsed":560535,"internal_node_id":"0.0-4.0-1.44","subject_id":"5db31089a1f8d3000c10a6c5","study_id":"60edd13110225f80f9f3709b","session_id":"6196c6f9d2e105cd1efce512","condition":"contingent","relevant_dimensions":["antennae","pattern"],"bee_group":{"antennae":"A","wings":"X","pattern":"D","legs":"X"},"bonus":0.02},{"rt":1288,"stimulus":"bees-with-color/bee-A1DM.svg","response":1,"trial_type":"image-button-response","trial_index":101,"time_elapsed":561826,"internal_node_id":"0.0-4.0-0.45","subject_id":"5db31089a1f8d3000c10a6c5","study_id":"60edd13110225f80f9f3709b","session_id":"6196c6f9d2e105cd1efce512","condition":"contingent","relevant_dimensions":["antennae","pattern"],"bee_group":{"antennae":"A","wings":"X","pattern":"D","legs":"X"},"action":"avoid","summary":"good-avoid","bonus":0.02},{"rt":1357,"stimulus":"\n                    <p><b>Action: <em>avoid</em></b></p>\n                    <p>This is the bee that you just saw.</p>\n                    <img src=\"bees-with-color/bee-A1DM.svg\" width=\"200\">\n                    <p><br>Your bonus pay is unchanged, and remains at $0.38.</p>\n            ","response":0,"trial_type":"html-button-response","trial_index":102,"time_elapsed":563186,"internal_node_id":"0.0-4.0-1.45","subject_id":"5db31089a1f8d3000c10a6c5","study_id":"60edd13110225f80f9f3709b","session_id":"6196c6f9d2e105cd1efce512","condition":"contingent","relevant_dimensions":["antennae","pattern"],"bee_group":{"antennae":"A","wings":"X","pattern":"D","legs":"X"},"bonus":0.02},{"rt":1309,"stimulus":"bees-with-color/bee-B1DF.svg","response":0,"trial_type":"image-button-response","trial_index":103,"time_elapsed":564498,"internal_node_id":"0.0-4.0-0.46","subject_id":"5db31089a1f8d3000c10a6c5","study_id":"60edd13110225f80f9f3709b","session_id":"6196c6f9d2e105cd1efce512","condition":"contingent","relevant_dimensions":["antennae","pattern"],"bee_group":{"antennae":"A","wings":"X","pattern":"D","legs":"X"},"action":"harvest","summary":"good-harvest","bonus":0.02},{"rt":1406,"stimulus":"\n                    <p><b>Action: <em>harvest</em></b></p>\n                    <p>This is the bee that you just saw.</p>\n                    <img src=\"bees-with-color/bee-B1DF.svg\" width=\"200\">\n                    <p><span class=\"greenText\"><b>Successful harvest!</b></span><br>Your pay has increased by $0.02. Your bonus pay is now $0.40.</p>\n            ","response":0,"trial_type":"html-button-response","trial_index":104,"time_elapsed":565907,"internal_node_id":"0.0-4.0-1.46","subject_id":"5db31089a1f8d3000c10a6c5","study_id":"60edd13110225f80f9f3709b","session_id":"6196c6f9d2e105cd1efce512","condition":"contingent","relevant_dimensions":["antennae","pattern"],"bee_group":{"antennae":"A","wings":"X","pattern":"D","legs":"X"},"bonus":0.02},{"rt":1583,"stimulus":"bees-with-color/bee-A1DF.svg","response":1,"trial_type":"image-button-response","trial_index":105,"time_elapsed":567494,"internal_node_id":"0.0-4.0-0.47","subject_id":"5db31089a1f8d3000c10a6c5","study_id":"60edd13110225f80f9f3709b","session_id":"6196c6f9d2e105cd1efce512","condition":"contingent","relevant_dimensions":["antennae","pattern"],"bee_group":{"antennae":"A","wings":"X","pattern":"D","legs":"X"},"action":"avoid","summary":"good-avoid","bonus":0.02},{"rt":1386,"stimulus":"\n                    <p><b>Action: <em>avoid</em></b></p>\n                    <p>This is the bee that you just saw.</p>\n                    <img src=\"bees-with-color/bee-A1DF.svg\" width=\"200\">\n                    <p><br>Your bonus pay is unchanged, and remains at $0.40.</p>\n            ","response":0,"trial_type":"html-button-response","trial_index":106,"time_elapsed":568883,"internal_node_id":"0.0-4.0-1.47","subject_id":"5db31089a1f8d3000c10a6c5","study_id":"60edd13110225f80f9f3709b","session_id":"6196c6f9d2e105cd1efce512","condition":"contingent","relevant_dimensions":["antennae","pattern"],"bee_group":{"antennae":"A","wings":"X","pattern":"D","legs":"X"},"bonus":0.02},{"rt":1377,"stimulus":"bees-with-color/bee-A2SM.svg","response":0,"trial_type":"image-button-response","trial_index":107,"time_elapsed":570263,"internal_node_id":"0.0-4.0-0.48","subject_id":"5db31089a1f8d3000c10a6c5","study_id":"60edd13110225f80f9f3709b","session_id":"6196c6f9d2e105cd1efce512","condition":"contingent","relevant_dimensions":["antennae","pattern"],"bee_group":{"antennae":"A","wings":"X","pattern":"D","legs":"X"},"action":"harvest","summary":"good-harvest","bonus":0.02},{"rt":1288,"stimulus":"\n                    <p><b>Action: <em>harvest</em></b></p>\n                    <p>This is the bee that you just saw.</p>\n                    <img src=\"bees-with-color/bee-A2SM.svg\" width=\"200\">\n                    <p><span class=\"greenText\"><b>Successful harvest!</b></span><br>Your pay has increased by $0.02. Your bonus pay is now $0.42.</p>\n            ","response":0,"trial_type":"html-button-response","trial_index":108,"time_elapsed":571554,"internal_node_id":"0.0-4.0-1.48","subject_id":"5db31089a1f8d3000c10a6c5","study_id":"60edd13110225f80f9f3709b","session_id":"6196c6f9d2e105cd1efce512","condition":"contingent","relevant_dimensions":["antennae","pattern"],"bee_group":{"antennae":"A","wings":"X","pattern":"D","legs":"X"},"bonus":0.02},{"rt":1484,"stimulus":"bees-with-color/bee-B1SM.svg","response":0,"trial_type":"image-button-response","trial_index":109,"time_elapsed":573042,"internal_node_id":"0.0-4.0-0.49","subject_id":"5db31089a1f8d3000c10a6c5","study_id":"60edd13110225f80f9f3709b","session_id":"6196c6f9d2e105cd1efce512","condition":"contingent","relevant_dimensions":["antennae","pattern"],"bee_group":{"antennae":"A","wings":"X","pattern":"D","legs":"X"},"action":"harvest","summary":"good-harvest","bonus":0.02},{"rt":1683,"stimulus":"\n                    <p><b>Action: <em>harvest</em></b></p>\n                    <p>This is the bee that you just saw.</p>\n                    <img src=\"bees-with-color/bee-B1SM.svg\" width=\"200\">\n                    <p><span class=\"greenText\"><b>Successful harvest!</b></span><br>Your pay has increased by $0.02. Your bonus pay is now $0.44.</p>\n            ","response":0,"trial_type":"html-button-response","trial_index":110,"time_elapsed":574728,"internal_node_id":"0.0-4.0-1.49","subject_id":"5db31089a1f8d3000c10a6c5","study_id":"60edd13110225f80f9f3709b","session_id":"6196c6f9d2e105cd1efce512","condition":"contingent","relevant_dimensions":["antennae","pattern"],"bee_group":{"antennae":"A","wings":"X","pattern":"D","legs":"X"},"bonus":0.02},{"rt":1626,"stimulus":"bees-with-color/bee-A1SF.svg","response":0,"trial_type":"image-button-response","trial_index":111,"time_elapsed":576356,"internal_node_id":"0.0-4.0-0.50","subject_id":"5db31089a1f8d3000c10a6c5","study_id":"60edd13110225f80f9f3709b","session_id":"6196c6f9d2e105cd1efce512","condition":"contingent","relevant_dimensions":["antennae","pattern"],"bee_group":{"antennae":"A","wings":"X","pattern":"D","legs":"X"},"action":"harvest","summary":"good-harvest","bonus":0.02},{"rt":1372,"stimulus":"\n                    <p><b>Action: <em>harvest</em></b></p>\n                    <p>This is the bee that you just saw.</p>\n                    <img src=\"bees-with-color/bee-A1SF.svg\" width=\"200\">\n                    <p><span class=\"greenText\"><b>Successful harvest!</b></span><br>Your pay has increased by $0.02. Your bonus pay is now $0.46.</p>\n            ","response":0,"trial_type":"html-button-response","trial_index":112,"time_elapsed":577732,"internal_node_id":"0.0-4.0-1.50","subject_id":"5db31089a1f8d3000c10a6c5","study_id":"60edd13110225f80f9f3709b","session_id":"6196c6f9d2e105cd1efce512","condition":"contingent","relevant_dimensions":["antennae","pattern"],"bee_group":{"antennae":"A","wings":"X","pattern":"D","legs":"X"},"bonus":0.02},{"rt":1386,"stimulus":"bees-with-color/bee-A1DF.svg","response":0,"trial_type":"image-button-response","trial_index":113,"time_elapsed":579122,"internal_node_id":"0.0-4.0-0.51","subject_id":"5db31089a1f8d3000c10a6c5","study_id":"60edd13110225f80f9f3709b","session_id":"6196c6f9d2e105cd1efce512","condition":"contingent","relevant_dimensions":["antennae","pattern"],"bee_group":{"antennae":"A","wings":"X","pattern":"D","legs":"X"},"action":"harvest","summary":"bad-harvest","bonus":0.02},{"rt":1788,"stimulus":"\n                    <p><b>Action: <em>harvest</em></b></p>\n                    <p>This is the bee that you just saw.</p>\n                    <img src=\"bees-with-color/bee-A1DF.svg\" width=\"200\">\n                    <p><span class=\"redText\">Bad choice, the bee was angry.</span><br><b>You have been stung!</b><br>Your pay has been decreased by $0.10. Your bonus pay is now $0.36.</p>\n            ","response":0,"trial_type":"html-button-response","trial_index":114,"time_elapsed":580916,"internal_node_id":"0.0-4.0-1.51","subject_id":"5db31089a1f8d3000c10a6c5","study_id":"60edd13110225f80f9f3709b","session_id":"6196c6f9d2e105cd1efce512","condition":"contingent","relevant_dimensions":["antennae","pattern"],"bee_group":{"antennae":"A","wings":"X","pattern":"D","legs":"X"},"bonus":0.02},{"rt":1830,"stimulus":"bees-with-color/bee-A2DM.svg","response":1,"trial_type":"image-button-response","trial_index":115,"time_elapsed":582749,"internal_node_id":"0.0-4.0-0.52","subject_id":"5db31089a1f8d3000c10a6c5","study_id":"60edd13110225f80f9f3709b","session_id":"6196c6f9d2e105cd1efce512","condition":"contingent","relevant_dimensions":["antennae","pattern"],"bee_group":{"antennae":"A","wings":"X","pattern":"D","legs":"X"},"action":"avoid","summary":"good-avoid","bonus":0.02},{"rt":1337,"stimulus":"\n                    <p><b>Action: <em>avoid</em></b></p>\n                    <p>This is the bee that you just saw.</p>\n                    <img src=\"bees-with-color/bee-A2DM.svg\" width=\"200\">\n                    <p><br>Your bonus pay is unchanged, and remains at $0.36.</p>\n            ","response":0,"trial_type":"html-button-response","trial_index":116,"time_elapsed":584089,"internal_node_id":"0.0-4.0-1.52","subject_id":"5db31089a1f8d3000c10a6c5","study_id":"60edd13110225f80f9f3709b","session_id":"6196c6f9d2e105cd1efce512","condition":"contingent","relevant_dimensions":["antennae","pattern"],"bee_group":{"antennae":"A","wings":"X","pattern":"D","legs":"X"},"bonus":0.02},{"rt":1855,"stimulus":"bees-with-color/bee-B2SM.svg","response":1,"trial_type":"image-button-response","trial_index":117,"time_elapsed":585949,"internal_node_id":"0.0-4.0-0.53","subject_id":"5db31089a1f8d3000c10a6c5","study_id":"60edd13110225f80f9f3709b","session_id":"6196c6f9d2e105cd1efce512","condition":"contingent","relevant_dimensions":["antennae","pattern"],"bee_group":{"antennae":"A","wings":"X","pattern":"D","legs":"X"},"action":"avoid","summary":"bad-avoid","bonus":0.02},{"rt":1410,"stimulus":"\n                    <p><b>Action: <em>avoid</em></b></p>\n                    <p>This is the bee that you just saw.</p>\n                    <img src=\"bees-with-color/bee-B2SM.svg\" width=\"200\">\n                    <p><br>Your bonus pay is unchanged, and remains at $0.36.</p>\n            ","response":0,"trial_type":"html-button-response","trial_index":118,"time_elapsed":587362,"internal_node_id":"0.0-4.0-1.53","subject_id":"5db31089a1f8d3000c10a6c5","study_id":"60edd13110225f80f9f3709b","session_id":"6196c6f9d2e105cd1efce512","condition":"contingent","relevant_dimensions":["antennae","pattern"],"bee_group":{"antennae":"A","wings":"X","pattern":"D","legs":"X"},"bonus":0.02},{"rt":1483,"stimulus":"bees-with-color/bee-B2DF.svg","response":1,"trial_type":"image-button-response","trial_index":119,"time_elapsed":588849,"internal_node_id":"0.0-4.0-0.54","subject_id":"5db31089a1f8d3000c10a6c5","study_id":"60edd13110225f80f9f3709b","session_id":"6196c6f9d2e105cd1efce512","condition":"contingent","relevant_dimensions":["antennae","pattern"],"bee_group":{"antennae":"A","wings":"X","pattern":"D","legs":"X"},"action":"avoid","summary":"bad-avoid","bonus":0.02},{"rt":1368,"stimulus":"\n                    <p><b>Action: <em>avoid</em></b></p>\n                    <p>This is the bee that you just saw.</p>\n                    <img src=\"bees-with-color/bee-B2DF.svg\" width=\"200\">\n                    <p><br>Your bonus pay is unchanged, and remains at $0.36.</p>\n            ","response":0,"trial_type":"html-button-response","trial_index":120,"time_elapsed":590220,"internal_node_id":"0.0-4.0-1.54","subject_id":"5db31089a1f8d3000c10a6c5","study_id":"60edd13110225f80f9f3709b","session_id":"6196c6f9d2e105cd1efce512","condition":"contingent","relevant_dimensions":["antennae","pattern"],"bee_group":{"antennae":"A","wings":"X","pattern":"D","legs":"X"},"bonus":0.02},{"rt":1957,"stimulus":"bees-with-color/bee-B1SF.svg","response":1,"trial_type":"image-button-response","trial_index":121,"time_elapsed":592180,"internal_node_id":"0.0-4.0-0.55","subject_id":"5db31089a1f8d3000c10a6c5","study_id":"60edd13110225f80f9f3709b","session_id":"6196c6f9d2e105cd1efce512","condition":"contingent","relevant_dimensions":["antennae","pattern"],"bee_group":{"antennae":"A","wings":"X","pattern":"D","legs":"X"},"action":"avoid","summary":"bad-avoid","bonus":0.02},{"rt":1456,"stimulus":"\n                    <p><b>Action: <em>avoid</em></b></p>\n                    <p>This is the bee that you just saw.</p>\n                    <img src=\"bees-with-color/bee-B1SF.svg\" width=\"200\">\n                    <p><br>Your bonus pay is unchanged, and remains at $0.36.</p>\n            ","response":0,"trial_type":"html-button-response","trial_index":122,"time_elapsed":593639,"internal_node_id":"0.0-4.0-1.55","subject_id":"5db31089a1f8d3000c10a6c5","study_id":"60edd13110225f80f9f3709b","session_id":"6196c6f9d2e105cd1efce512","condition":"contingent","relevant_dimensions":["antennae","pattern"],"bee_group":{"antennae":"A","wings":"X","pattern":"D","legs":"X"},"bonus":0.02},{"rt":3120,"stimulus":"bees-with-color/bee-B2SF.svg","response":1,"trial_type":"image-button-response","trial_index":123,"time_elapsed":596762,"internal_node_id":"0.0-4.0-0.56","subject_id":"5db31089a1f8d3000c10a6c5","study_id":"60edd13110225f80f9f3709b","session_id":"6196c6f9d2e105cd1efce512","condition":"contingent","relevant_dimensions":["antennae","pattern"],"bee_group":{"antennae":"A","wings":"X","pattern":"D","legs":"X"},"action":"avoid","summary":"bad-avoid","bonus":0.02},{"rt":2068,"stimulus":"\n                    <p><b>Action: <em>avoid</em></b></p>\n                    <p>This is the bee that you just saw.</p>\n                    <img src=\"bees-with-color/bee-B2SF.svg\" width=\"200\">\n                    <p><br>Your bonus pay is unchanged, and remains at $0.36.</p>\n            ","response":0,"trial_type":"html-button-response","trial_index":124,"time_elapsed":598833,"internal_node_id":"0.0-4.0-1.56","subject_id":"5db31089a1f8d3000c10a6c5","study_id":"60edd13110225f80f9f3709b","session_id":"6196c6f9d2e105cd1efce512","condition":"contingent","relevant_dimensions":["antennae","pattern"],"bee_group":{"antennae":"A","wings":"X","pattern":"D","legs":"X"},"bonus":0.02},{"rt":1415,"stimulus":"bees-with-color/bee-B2DM.svg","response":1,"trial_type":"image-button-response","trial_index":125,"time_elapsed":600252,"internal_node_id":"0.0-4.0-0.57","subject_id":"5db31089a1f8d3000c10a6c5","study_id":"60edd13110225f80f9f3709b","session_id":"6196c6f9d2e105cd1efce512","condition":"contingent","relevant_dimensions":["antennae","pattern"],"bee_group":{"antennae":"A","wings":"X","pattern":"D","legs":"X"},"action":"avoid","summary":"bad-avoid","bonus":0.02},{"rt":1445,"stimulus":"\n                    <p><b>Action: <em>avoid</em></b></p>\n                    <p>This is the bee that you just saw.</p>\n                    <img src=\"bees-with-color/bee-B2DM.svg\" width=\"200\">\n                    <p><br>Your bonus pay is unchanged, and remains at $0.36.</p>\n            ","response":0,"trial_type":"html-button-response","trial_index":126,"time_elapsed":601700,"internal_node_id":"0.0-4.0-1.57","subject_id":"5db31089a1f8d3000c10a6c5","study_id":"60edd13110225f80f9f3709b","session_id":"6196c6f9d2e105cd1efce512","condition":"contingent","relevant_dimensions":["antennae","pattern"],"bee_group":{"antennae":"A","wings":"X","pattern":"D","legs":"X"},"bonus":0.02},{"rt":1465,"stimulus":"bees-with-color/bee-A1SM.svg","response":1,"trial_type":"image-button-response","trial_index":127,"time_elapsed":603169,"internal_node_id":"0.0-4.0-0.58","subject_id":"5db31089a1f8d3000c10a6c5","study_id":"60edd13110225f80f9f3709b","session_id":"6196c6f9d2e105cd1efce512","condition":"contingent","relevant_dimensions":["antennae","pattern"],"bee_group":{"antennae":"A","wings":"X","pattern":"D","legs":"X"},"action":"avoid","summary":"bad-avoid","bonus":0.02},{"rt":1515,"stimulus":"\n                    <p><b>Action: <em>avoid</em></b></p>\n                    <p>This is the bee that you just saw.</p>\n                    <img src=\"bees-with-color/bee-A1SM.svg\" width=\"200\">\n                    <p><br>Your bonus pay is unchanged, and remains at $0.36.</p>\n            ","response":0,"trial_type":"html-button-response","trial_index":128,"time_elapsed":604687,"internal_node_id":"0.0-4.0-1.58","subject_id":"5db31089a1f8d3000c10a6c5","study_id":"60edd13110225f80f9f3709b","session_id":"6196c6f9d2e105cd1efce512","condition":"contingent","relevant_dimensions":["antennae","pattern"],"bee_group":{"antennae":"A","wings":"X","pattern":"D","legs":"X"},"bonus":0.02},{"rt":1330,"stimulus":"bees-with-color/bee-A2SF.svg","response":1,"trial_type":"image-button-response","trial_index":129,"time_elapsed":606020,"internal_node_id":"0.0-4.0-0.59","subject_id":"5db31089a1f8d3000c10a6c5","study_id":"60edd13110225f80f9f3709b","session_id":"6196c6f9d2e105cd1efce512","condition":"contingent","relevant_dimensions":["antennae","pattern"],"bee_group":{"antennae":"A","wings":"X","pattern":"D","legs":"X"},"action":"avoid","summary":"bad-avoid","bonus":0.02},{"rt":1205,"stimulus":"\n                    <p><b>Action: <em>avoid</em></b></p>\n                    <p>This is the bee that you just saw.</p>\n                    <img src=\"bees-with-color/bee-A2SF.svg\" width=\"200\">\n                    <p><br>Your bonus pay is unchanged, and remains at $0.36.</p>\n            ","response":0,"trial_type":"html-button-response","trial_index":130,"time_elapsed":607228,"internal_node_id":"0.0-4.0-1.59","subject_id":"5db31089a1f8d3000c10a6c5","study_id":"60edd13110225f80f9f3709b","session_id":"6196c6f9d2e105cd1efce512","condition":"contingent","relevant_dimensions":["antennae","pattern"],"bee_group":{"antennae":"A","wings":"X","pattern":"D","legs":"X"},"bonus":0.02},{"rt":1505,"stimulus":"bees-with-color/bee-A1DM.svg","response":1,"trial_type":"image-button-response","trial_index":131,"time_elapsed":608736,"internal_node_id":"0.0-4.0-0.60","subject_id":"5db31089a1f8d3000c10a6c5","study_id":"60edd13110225f80f9f3709b","session_id":"6196c6f9d2e105cd1efce512","condition":"contingent","relevant_dimensions":["antennae","pattern"],"bee_group":{"antennae":"A","wings":"X","pattern":"D","legs":"X"},"action":"avoid","summary":"good-avoid","bonus":0.02},{"rt":1306,"stimulus":"\n                    <p><b>Action: <em>avoid</em></b></p>\n                    <p>This is the bee that you just saw.</p>\n                    <img src=\"bees-with-color/bee-A1DM.svg\" width=\"200\">\n                    <p><br>Your bonus pay is unchanged, and remains at $0.36.</p>\n            ","response":0,"trial_type":"html-button-response","trial_index":132,"time_elapsed":610048,"internal_node_id":"0.0-4.0-1.60","subject_id":"5db31089a1f8d3000c10a6c5","study_id":"60edd13110225f80f9f3709b","session_id":"6196c6f9d2e105cd1efce512","condition":"contingent","relevant_dimensions":["antennae","pattern"],"bee_group":{"antennae":"A","wings":"X","pattern":"D","legs":"X"},"bonus":0.02},{"rt":1334,"stimulus":"bees-with-color/bee-A2DF.svg","response":0,"trial_type":"image-button-response","trial_index":133,"time_elapsed":611386,"internal_node_id":"0.0-4.0-0.61","subject_id":"5db31089a1f8d3000c10a6c5","study_id":"60edd13110225f80f9f3709b","session_id":"6196c6f9d2e105cd1efce512","condition":"contingent","relevant_dimensions":["antennae","pattern"],"bee_group":{"antennae":"A","wings":"X","pattern":"D","legs":"X"},"action":"harvest","summary":"bad-harvest","bonus":0.02},{"rt":1693,"stimulus":"\n                    <p><b>Action: <em>harvest</em></b></p>\n                    <p>This is the bee that you just saw.</p>\n                    <img src=\"bees-with-color/bee-A2DF.svg\" width=\"200\">\n                    <p><span class=\"redText\">Bad choice, the bee was angry.</span><br><b>You have been stung!</b><br>Your pay has been decreased by $0.10. Your bonus pay is now $0.26.</p>\n            ","response":0,"trial_type":"html-button-response","trial_index":134,"time_elapsed":613082,"internal_node_id":"0.0-4.0-1.61","subject_id":"5db31089a1f8d3000c10a6c5","study_id":"60edd13110225f80f9f3709b","session_id":"6196c6f9d2e105cd1efce512","condition":"contingent","relevant_dimensions":["antennae","pattern"],"bee_group":{"antennae":"A","wings":"X","pattern":"D","legs":"X"},"bonus":0.02},{"rt":1200,"stimulus":"bees-with-color/bee-B1DM.svg","response":1,"trial_type":"image-button-response","trial_index":135,"time_elapsed":614285,"internal_node_id":"0.0-4.0-0.62","subject_id":"5db31089a1f8d3000c10a6c5","study_id":"60edd13110225f80f9f3709b","session_id":"6196c6f9d2e105cd1efce512","condition":"contingent","relevant_dimensions":["antennae","pattern"],"bee_group":{"antennae":"A","wings":"X","pattern":"D","legs":"X"},"action":"avoid","summary":"bad-avoid","bonus":0.02},{"rt":1317,"stimulus":"\n                    <p><b>Action: <em>avoid</em></b></p>\n                    <p>This is the bee that you just saw.</p>\n                    <img src=\"bees-with-color/bee-B1DM.svg\" width=\"200\">\n                    <p><br>Your bonus pay is unchanged, and remains at $0.26.</p>\n            ","response":0,"trial_type":"html-button-response","trial_index":136,"time_elapsed":615605,"internal_node_id":"0.0-4.0-1.62","subject_id":"5db31089a1f8d3000c10a6c5","study_id":"60edd13110225f80f9f3709b","session_id":"6196c6f9d2e105cd1efce512","condition":"contingent","relevant_dimensions":["antennae","pattern"],"bee_group":{"antennae":"A","wings":"X","pattern":"D","legs":"X"},"bonus":0.02},{"rt":1384,"stimulus":"bees-with-color/bee-B1DF.svg","response":0,"trial_type":"image-button-response","trial_index":137,"time_elapsed":616993,"internal_node_id":"0.0-4.0-0.63","subject_id":"5db31089a1f8d3000c10a6c5","study_id":"60edd13110225f80f9f3709b","session_id":"6196c6f9d2e105cd1efce512","condition":"contingent","relevant_dimensions":["antennae","pattern"],"bee_group":{"antennae":"A","wings":"X","pattern":"D","legs":"X"},"action":"harvest","summary":"good-harvest","bonus":0.02},{"rt":1930,"stimulus":"\n                    <p><b>Action: <em>harvest</em></b></p>\n                    <p>This is the bee that you just saw.</p>\n                    <img src=\"bees-with-color/bee-B1DF.svg\" width=\"200\">\n                    <p><span class=\"greenText\"><b>Successful harvest!</b></span><br>Your pay has increased by $0.02. Your bonus pay is now $0.28.</p>\n            ","response":0,"trial_type":"html-button-response","trial_index":138,"time_elapsed":618926,"internal_node_id":"0.0-4.0-1.63","subject_id":"5db31089a1f8d3000c10a6c5","study_id":"60edd13110225f80f9f3709b","session_id":"6196c6f9d2e105cd1efce512","condition":"contingent","relevant_dimensions":["antennae","pattern"],"bee_group":{"antennae":"A","wings":"X","pattern":"D","legs":"X"},"bonus":0.02},{"rt":8429,"stimulus":"You have completed the first part of this experiment.<br><br>You will now begin a shorter second part, in which you will receive no feedback.<br>The same rules regarding bonus pay apply.<br><br>Press any key to begin.","response":"m","trial_type":"html-keyboard-response","trial_index":139,"time_elapsed":627357,"internal_node_id":"0.0-5.0","subject_id":"5db31089a1f8d3000c10a6c5","study_id":"60edd13110225f80f9f3709b","session_id":"6196c6f9d2e105cd1efce512","condition":"contingent","relevant_dimensions":["antennae","pattern"],"bee_group":{"antennae":"A","wings":"X","pattern":"D","legs":"X"},"bonus":0.02},{"rt":2261,"stimulus":"bees-with-color/bee-A1SF.svg","response":0,"trial_type":"image-button-response","trial_index":140,"time_elapsed":629629,"internal_node_id":"0.0-6.0-0.0","subject_id":"5db31089a1f8d3000c10a6c5","study_id":"60edd13110225f80f9f3709b","session_id":"6196c6f9d2e105cd1efce512","condition":"contingent","relevant_dimensions":["antennae","pattern"],"bee_group":{"antennae":"A","wings":"X","pattern":"D","legs":"X"},"bonus":0.02},{"rt":4370,"stimulus":"bees-with-color/bee-A1DM.svg","response":0,"trial_type":"image-button-response","trial_index":141,"time_elapsed":634004,"internal_node_id":"0.0-6.0-0.1","subject_id":"5db31089a1f8d3000c10a6c5","study_id":"60edd13110225f80f9f3709b","session_id":"6196c6f9d2e105cd1efce512","condition":"contingent","relevant_dimensions":["antennae","pattern"],"bee_group":{"antennae":"A","wings":"X","pattern":"D","legs":"X"},"bonus":0.02},{"rt":2104,"stimulus":"bees-with-color/bee-B1DF.svg","response":1,"trial_type":"image-button-response","trial_index":142,"time_elapsed":636113,"internal_node_id":"0.0-6.0-0.2","subject_id":"5db31089a1f8d3000c10a6c5","study_id":"60edd13110225f80f9f3709b","session_id":"6196c6f9d2e105cd1efce512","condition":"contingent","relevant_dimensions":["antennae","pattern"],"bee_group":{"antennae":"A","wings":"X","pattern":"D","legs":"X"},"bonus":0.02},{"rt":1422,"stimulus":"bees-with-color/bee-A2DF.svg","response":0,"trial_type":"image-button-response","trial_index":143,"time_elapsed":637542,"internal_node_id":"0.0-6.0-0.3","subject_id":"5db31089a1f8d3000c10a6c5","study_id":"60edd13110225f80f9f3709b","session_id":"6196c6f9d2e105cd1efce512","condition":"contingent","relevant_dimensions":["antennae","pattern"],"bee_group":{"antennae":"A","wings":"X","pattern":"D","legs":"X"},"bonus":0.02},{"rt":1574,"stimulus":"bees-with-color/bee-B1DM.svg","response":1,"trial_type":"image-button-response","trial_index":144,"time_elapsed":639121,"internal_node_id":"0.0-6.0-0.4","subject_id":"5db31089a1f8d3000c10a6c5","study_id":"60edd13110225f80f9f3709b","session_id":"6196c6f9d2e105cd1efce512","condition":"contingent","relevant_dimensions":["antennae","pattern"],"bee_group":{"antennae":"A","wings":"X","pattern":"D","legs":"X"},"bonus":0.02},{"rt":1511,"stimulus":"bees-with-color/bee-B2SM.svg","response":0,"trial_type":"image-button-response","trial_index":145,"time_elapsed":640636,"internal_node_id":"0.0-6.0-0.5","subject_id":"5db31089a1f8d3000c10a6c5","study_id":"60edd13110225f80f9f3709b","session_id":"6196c6f9d2e105cd1efce512","condition":"contingent","relevant_dimensions":["antennae","pattern"],"bee_group":{"antennae":"A","wings":"X","pattern":"D","legs":"X"},"bonus":0.02},{"rt":840,"stimulus":"bees-with-color/bee-A2SM.svg","response":0,"trial_type":"image-button-response","trial_index":146,"time_elapsed":641483,"internal_node_id":"0.0-6.0-0.6","subject_id":"5db31089a1f8d3000c10a6c5","study_id":"60edd13110225f80f9f3709b","session_id":"6196c6f9d2e105cd1efce512","condition":"contingent","relevant_dimensions":["antennae","pattern"],"bee_group":{"antennae":"A","wings":"X","pattern":"D","legs":"X"},"bonus":0.02},{"rt":1713,"stimulus":"bees-with-color/bee-B1SF.svg","response":1,"trial_type":"image-button-response","trial_index":147,"time_elapsed":643200,"internal_node_id":"0.0-6.0-0.7","subject_id":"5db31089a1f8d3000c10a6c5","study_id":"60edd13110225f80f9f3709b","session_id":"6196c6f9d2e105cd1efce512","condition":"contingent","relevant_dimensions":["antennae","pattern"],"bee_group":{"antennae":"A","wings":"X","pattern":"D","legs":"X"},"bonus":0.02},{"rt":1502,"stimulus":"bees-with-color/bee-A2SF.svg","response":0,"trial_type":"image-button-response","trial_index":148,"time_elapsed":644706,"internal_node_id":"0.0-6.0-0.8","subject_id":"5db31089a1f8d3000c10a6c5","study_id":"60edd13110225f80f9f3709b","session_id":"6196c6f9d2e105cd1efce512","condition":"contingent","relevant_dimensions":["antennae","pattern"],"bee_group":{"antennae":"A","wings":"X","pattern":"D","legs":"X"},"bonus":0.02},{"rt":1774,"stimulus":"bees-with-color/bee-B2DF.svg","response":0,"trial_type":"image-button-response","trial_index":149,"time_elapsed":646487,"internal_node_id":"0.0-6.0-0.9","subject_id":"5db31089a1f8d3000c10a6c5","study_id":"60edd13110225f80f9f3709b","session_id":"6196c6f9d2e105cd1efce512","condition":"contingent","relevant_dimensions":["antennae","pattern"],"bee_group":{"antennae":"A","wings":"X","pattern":"D","legs":"X"},"bonus":0.02},{"rt":1894,"stimulus":"bees-with-color/bee-B2DM.svg","response":1,"trial_type":"image-button-response","trial_index":150,"time_elapsed":648385,"internal_node_id":"0.0-6.0-0.10","subject_id":"5db31089a1f8d3000c10a6c5","study_id":"60edd13110225f80f9f3709b","session_id":"6196c6f9d2e105cd1efce512","condition":"contingent","relevant_dimensions":["antennae","pattern"],"bee_group":{"antennae":"A","wings":"X","pattern":"D","legs":"X"},"bonus":0.02},{"rt":1303,"stimulus":"bees-with-color/bee-A1SM.svg","response":0,"trial_type":"image-button-response","trial_index":151,"time_elapsed":649693,"internal_node_id":"0.0-6.0-0.11","subject_id":"5db31089a1f8d3000c10a6c5","study_id":"60edd13110225f80f9f3709b","session_id":"6196c6f9d2e105cd1efce512","condition":"contingent","relevant_dimensions":["antennae","pattern"],"bee_group":{"antennae":"A","wings":"X","pattern":"D","legs":"X"},"bonus":0.02},{"rt":1770,"stimulus":"bees-with-color/bee-B1SM.svg","response":1,"trial_type":"image-button-response","trial_index":152,"time_elapsed":651467,"internal_node_id":"0.0-6.0-0.12","subject_id":"5db31089a1f8d3000c10a6c5","study_id":"60edd13110225f80f9f3709b","session_id":"6196c6f9d2e105cd1efce512","condition":"contingent","relevant_dimensions":["antennae","pattern"],"bee_group":{"antennae":"A","wings":"X","pattern":"D","legs":"X"},"bonus":0.02},{"rt":1314,"stimulus":"bees-with-color/bee-A1DF.svg","response":1,"trial_type":"image-button-response","trial_index":153,"time_elapsed":652788,"internal_node_id":"0.0-6.0-0.13","subject_id":"5db31089a1f8d3000c10a6c5","study_id":"60edd13110225f80f9f3709b","session_id":"6196c6f9d2e105cd1efce512","condition":"contingent","relevant_dimensions":["antennae","pattern"],"bee_group":{"antennae":"A","wings":"X","pattern":"D","legs":"X"},"bonus":0.02},{"rt":1544,"stimulus":"bees-with-color/bee-B2SF.svg","response":0,"trial_type":"image-button-response","trial_index":154,"time_elapsed":654344,"internal_node_id":"0.0-6.0-0.14","subject_id":"5db31089a1f8d3000c10a6c5","study_id":"60edd13110225f80f9f3709b","session_id":"6196c6f9d2e105cd1efce512","condition":"contingent","relevant_dimensions":["antennae","pattern"],"bee_group":{"antennae":"A","wings":"X","pattern":"D","legs":"X"},"bonus":0.02},{"rt":1110,"stimulus":"bees-with-color/bee-A2DM.svg","response":0,"trial_type":"image-button-response","trial_index":155,"time_elapsed":655459,"internal_node_id":"0.0-6.0-0.15","subject_id":"5db31089a1f8d3000c10a6c5","study_id":"60edd13110225f80f9f3709b","session_id":"6196c6f9d2e105cd1efce512","condition":"contingent","relevant_dimensions":["antennae","pattern"],"bee_group":{"antennae":"A","wings":"X","pattern":"D","legs":"X"},"bonus":0.02},{"rt":880,"stimulus":"bees-with-color/bee-B1DM.svg","response":0,"trial_type":"image-button-response","trial_index":156,"time_elapsed":656347,"internal_node_id":"0.0-6.0-0.16","subject_id":"5db31089a1f8d3000c10a6c5","study_id":"60edd13110225f80f9f3709b","session_id":"6196c6f9d2e105cd1efce512","condition":"contingent","relevant_dimensions":["antennae","pattern"],"bee_group":{"antennae":"A","wings":"X","pattern":"D","legs":"X"},"bonus":0.02},{"rt":1620,"stimulus":"bees-with-color/bee-A1SF.svg","response":1,"trial_type":"image-button-response","trial_index":157,"time_elapsed":657971,"internal_node_id":"0.0-6.0-0.17","subject_id":"5db31089a1f8d3000c10a6c5","study_id":"60edd13110225f80f9f3709b","session_id":"6196c6f9d2e105cd1efce512","condition":"contingent","relevant_dimensions":["antennae","pattern"],"bee_group":{"antennae":"A","wings":"X","pattern":"D","legs":"X"},"bonus":0.02},{"rt":1287,"stimulus":"bees-with-color/bee-B2DM.svg","response":0,"trial_type":"image-button-response","trial_index":158,"time_elapsed":659262,"internal_node_id":"0.0-6.0-0.18","subject_id":"5db31089a1f8d3000c10a6c5","study_id":"60edd13110225f80f9f3709b","session_id":"6196c6f9d2e105cd1efce512","condition":"contingent","relevant_dimensions":["antennae","pattern"],"bee_group":{"antennae":"A","wings":"X","pattern":"D","legs":"X"},"bonus":0.02},{"rt":1411,"stimulus":"bees-with-color/bee-A2SM.svg","response":1,"trial_type":"image-button-response","trial_index":159,"time_elapsed":660680,"internal_node_id":"0.0-6.0-0.19","subject_id":"5db31089a1f8d3000c10a6c5","study_id":"60edd13110225f80f9f3709b","session_id":"6196c6f9d2e105cd1efce512","condition":"contingent","relevant_dimensions":["antennae","pattern"],"bee_group":{"antennae":"A","wings":"X","pattern":"D","legs":"X"},"bonus":0.02},{"rt":1388,"stimulus":"bees-with-color/bee-A1DF.svg","response":0,"trial_type":"image-button-response","trial_index":160,"time_elapsed":662072,"internal_node_id":"0.0-6.0-0.20","subject_id":"5db31089a1f8d3000c10a6c5","study_id":"60edd13110225f80f9f3709b","session_id":"6196c6f9d2e105cd1efce512","condition":"contingent","relevant_dimensions":["antennae","pattern"],"bee_group":{"antennae":"A","wings":"X","pattern":"D","legs":"X"},"bonus":0.02},{"rt":1650,"stimulus":"bees-with-color/bee-B1DF.svg","response":1,"trial_type":"image-button-response","trial_index":161,"time_elapsed":663726,"internal_node_id":"0.0-6.0-0.21","subject_id":"5db31089a1f8d3000c10a6c5","study_id":"60edd13110225f80f9f3709b","session_id":"6196c6f9d2e105cd1efce512","condition":"contingent","relevant_dimensions":["antennae","pattern"],"bee_group":{"antennae":"A","wings":"X","pattern":"D","legs":"X"},"bonus":0.02},{"rt":1860,"stimulus":"bees-with-color/bee-B2SF.svg","response":0,"trial_type":"image-button-response","trial_index":162,"time_elapsed":665590,"internal_node_id":"0.0-6.0-0.22","subject_id":"5db31089a1f8d3000c10a6c5","study_id":"60edd13110225f80f9f3709b","session_id":"6196c6f9d2e105cd1efce512","condition":"contingent","relevant_dimensions":["antennae","pattern"],"bee_group":{"antennae":"A","wings":"X","pattern":"D","legs":"X"},"bonus":0.02},{"rt":1166,"stimulus":"bees-with-color/bee-A2DF.svg","response":0,"trial_type":"image-button-response","trial_index":163,"time_elapsed":666762,"internal_node_id":"0.0-6.0-0.23","subject_id":"5db31089a1f8d3000c10a6c5","study_id":"60edd13110225f80f9f3709b","session_id":"6196c6f9d2e105cd1efce512","condition":"contingent","relevant_dimensions":["antennae","pattern"],"bee_group":{"antennae":"A","wings":"X","pattern":"D","legs":"X"},"bonus":0.02},{"rt":1118,"stimulus":"bees-with-color/bee-B2DF.svg","response":0,"trial_type":"image-button-response","trial_index":164,"time_elapsed":667884,"internal_node_id":"0.0-6.0-0.24","subject_id":"5db31089a1f8d3000c10a6c5","study_id":"60edd13110225f80f9f3709b","session_id":"6196c6f9d2e105cd1efce512","condition":"contingent","relevant_dimensions":["antennae","pattern"],"bee_group":{"antennae":"A","wings":"X","pattern":"D","legs":"X"},"bonus":0.02},{"rt":1663,"stimulus":"bees-with-color/bee-B2SM.svg","response":0,"trial_type":"image-button-response","trial_index":165,"time_elapsed":669551,"internal_node_id":"0.0-6.0-0.25","subject_id":"5db31089a1f8d3000c10a6c5","study_id":"60edd13110225f80f9f3709b","session_id":"6196c6f9d2e105cd1efce512","condition":"contingent","relevant_dimensions":["antennae","pattern"],"bee_group":{"antennae":"A","wings":"X","pattern":"D","legs":"X"},"bonus":0.02},{"rt":1207,"stimulus":"bees-with-color/bee-A2DM.svg","response":0,"trial_type":"image-button-response","trial_index":166,"time_elapsed":670762,"internal_node_id":"0.0-6.0-0.26","subject_id":"5db31089a1f8d3000c10a6c5","study_id":"60edd13110225f80f9f3709b","session_id":"6196c6f9d2e105cd1efce512","condition":"contingent","relevant_dimensions":["antennae","pattern"],"bee_group":{"antennae":"A","wings":"X","pattern":"D","legs":"X"},"bonus":0.02},{"rt":2254,"stimulus":"bees-with-color/bee-B1SM.svg","response":1,"trial_type":"image-button-response","trial_index":167,"time_elapsed":673019,"internal_node_id":"0.0-6.0-0.27","subject_id":"5db31089a1f8d3000c10a6c5","study_id":"60edd13110225f80f9f3709b","session_id":"6196c6f9d2e105cd1efce512","condition":"contingent","relevant_dimensions":["antennae","pattern"],"bee_group":{"antennae":"A","wings":"X","pattern":"D","legs":"X"},"bonus":0.02},{"rt":1363,"stimulus":"bees-with-color/bee-B1SF.svg","response":1,"trial_type":"image-button-response","trial_index":168,"time_elapsed":674388,"internal_node_id":"0.0-6.0-0.28","subject_id":"5db31089a1f8d3000c10a6c5","study_id":"60edd13110225f80f9f3709b","session_id":"6196c6f9d2e105cd1efce512","condition":"contingent","relevant_dimensions":["antennae","pattern"],"bee_group":{"antennae":"A","wings":"X","pattern":"D","legs":"X"},"bonus":0.02},{"rt":1375,"stimulus":"bees-with-color/bee-A1SM.svg","response":0,"trial_type":"image-button-response","trial_index":169,"time_elapsed":675769,"internal_node_id":"0.0-6.0-0.29","subject_id":"5db31089a1f8d3000c10a6c5","study_id":"60edd13110225f80f9f3709b","session_id":"6196c6f9d2e105cd1efce512","condition":"contingent","relevant_dimensions":["antennae","pattern"],"bee_group":{"antennae":"A","wings":"X","pattern":"D","legs":"X"},"bonus":0.02},{"rt":1040,"stimulus":"bees-with-color/bee-A1DM.svg","response":0,"trial_type":"image-button-response","trial_i