[{"success":true,"trial_type":"fullscreen","trial_index":0,"time_elapsed":2288,"internal_node_id":"0.0-0.0","subject_id":"5c53ef4f26a39500019719b4","study_id":"6197b3f67c2b5cd3b6d9596a","session_id":"619bfbde652574d984a61006","condition":"full-information","relevant_dimensions":["antennae","wings"],"bee_group":{"antennae":"B","wings":"1","pattern":"X","legs":"X"},"bonus":1.720000000000001},{"success":true,"timeout":false,"failed_images":[],"failed_audio":[],"failed_video":[],"trial_type":"preload","trial_index":1,"time_elapsed":3911,"internal_node_id":"0.0-1.0","subject_id":"5c53ef4f26a39500019719b4","study_id":"6197b3f67c2b5cd3b6d9596a","session_id":"619bfbde652574d984a61006","condition":"full-information","relevant_dimensions":["antennae","wings"],"bee_group":{"antennae":"B","wings":"1","pattern":"X","legs":"X"},"bonus":1.720000000000001},{"rt":5198.300000000745,"stimulus":"Welcome! Press any key to begin.","response":" ","trial_type":"html-keyboard-response","trial_index":2,"time_elapsed":9110,"internal_node_id":"0.0-2.0","subject_id":"5c53ef4f26a39500019719b4","study_id":"6197b3f67c2b5cd3b6d9596a","session_id":"619bfbde652574d984a61006","condition":"full-information","relevant_dimensions":["antennae","wings"],"bee_group":{"antennae":"B","wings":"1","pattern":"X","legs":"X"},"bonus":1.720000000000001},{"view_history":[{"page_index":0,"viewing_time":3002.5},{"page_index":1,"viewing_time":7929.700000000186},{"page_index":2,"viewing_time":5584.100000000559},{"page_index":3,"viewing_time":7582.0999999996275},{"page_index":4,"viewing_time":4427.9000000003725},{"page_index":5,"viewing_time":3280.0999999996275},{"page_index":6,"viewing_time":5603.9000000003725},{"page_index":7,"viewing_time":4306.0999999996275},{"page_index":8,"viewing_time":4229.9000000003725},{"page_index":9,"viewing_time":2658},{"page_index":10,"viewing_time":2202.199999999255},{"page_index":11,"viewing_time":7083.9000000003725},{"page_index":12,"viewing_time":4940},{"page_index":13,"viewing_time":942},{"page_index":14,"viewing_time":1313.9000000003725}],"rt":65086.800000000745,"trial_type":"instructions","trial_index":3,"time_elapsed":74197,"internal_node_id":"0.0-3.0-0.0","subject_id":"5c53ef4f26a39500019719b4","study_id":"6197b3f67c2b5cd3b6d9596a","session_id":"619bfbde652574d984a61006","condition":"full-information","relevant_dimensions":["antennae","wings"],"bee_group":{"antennae":"B","wings":"1","pattern":"X","legs":"X"},"bonus":1.720000000000001},{"rt":9247,"response":{"Q0":["Two or six legs","Stripes or spots on body","Single or double wings","Antennae or no antennae"]},"question_order":[0],"trial_type":"survey-multi-select","trial_index":4,"time_elapsed":83450,"internal_node_id":"0.0-3.0-1.0","subject_id":"5c53ef4f26a39500019719b4","study_id":"6197b3f67c2b5cd3b6d9596a","session_id":"619bfbde652574d984a61006","condition":"full-information","relevant_dimensions":["antennae","wings"],"bee_group":{"antennae":"B","wings":"1","pattern":"X","legs":"X"},"correct":true,"bonus":1.720000000000001},{"rt":16545.400000000373,"response":{"Q1":"No.","Q2":"Based on the four features of the bee.","Q3":"You do not learn if it was friendly or dangerous, and do not alter your bonus."},"question_order":[0,1,2],"trial_type":"survey-multi-choice","trial_index":5,"time_elapsed":99999,"internal_node_id":"0.0-3.0-2.0","subject_id":"5c53ef4f26a39500019719b4","study_id":"6197b3f67c2b5cd3b6d9596a","session_id":"619bfbde652574d984a61006","condition":"full-information","relevant_dimensions":["antennae","wings"],"bee_group":{"antennae":"B","wings":"1","pattern":"X","legs":"X"},"correct":false,"bonus":1.720000000000001},{"rt":2317.7000000001863,"stimulus":"<p>You did not answer all comprehension questions correctly.<br>Press <b>continue</b> to review the instructions again.</p>","response":0,"trial_type":"html-button-response","trial_index":6,"time_elapsed":102322,"internal_node_id":"0.0-3.0-3.0","subject_id":"5c53ef4f26a39500019719b4","study_id":"6197b3f67c2b5cd3b6d9596a","session_id":"619bfbde652574d984a61006","condition":"full-information","relevant_dimensions":["antennae","wings"],"bee_group":{"antennae":"B","wings":"1","pattern":"X","legs":"X"},"bonus":1.720000000000001},{"view_history":[{"page_index":0,"viewing_time":742.5},{"page_index":1,"viewing_time":1530.0999999996275},{"page_index":2,"viewing_time":727.9000000003725},{"page_index":3,"viewing_time":1018},{"page_index":4,"viewing_time":826},{"page_index":5,"viewing_time":518},{"page_index":6,"viewing_time":528.0999999996275},{"page_index":7,"viewing_time":1560},{"page_index":8,"viewing_time":998},{"page_index":9,"viewing_time":939.9000000003725},{"page_index":10,"viewing_time":962.0999999996275},{"page_index":11,"viewing_time":6260},{"page_index":12,"viewing_time":4701.799999999814},{"page_index":13,"viewing_time":1014.2000000001863},{"page_index":14,"viewing_time":533.9000000003725}],"rt":22860.89999999944,"trial_type":"instructions","trial_index":7,"time_elapsed":125183,"internal_node_id":"0.0-3.0-4.0-0.0","subject_id":"5c53ef4f26a39500019719b4","study_id":"6197b3f67c2b5cd3b6d9596a","session_id":"619bfbde652574d984a61006","condition":"full-information","relevant_dimensions":["antennae","wings"],"bee_group":{"antennae":"B","wings":"1","pattern":"X","legs":"X"},"bonus":1.720000000000001},{"rt":4801.700000000186,"response":{"Q0":["Two or six legs","Stripes or spots on body","Single or double wings","Antennae or no antennae"]},"question_order":[0],"trial_type":"survey-multi-select","trial_index":8,"time_elapsed":129987,"internal_node_id":"0.0-3.0-4.0-1.0","subject_id":"5c53ef4f26a39500019719b4","study_id":"6197b3f67c2b5cd3b6d9596a","session_id":"619bfbde652574d984a61006","condition":"full-information","relevant_dimensions":["antennae","wings"],"bee_group":{"antennae":"B","wings":"1","pattern":"X","legs":"X"},"correct":true,"bonus":1.720000000000001},{"rt":21307.89999999944,"response":{"Q1":"No.","Q2":"Based on the four features of the bee.","Q3":"You learn if it was friendly or dangerous, but do not alter your bonus."},"question_order":[0,1,2],"trial_type":"survey-multi-choice","trial_index":9,"time_elapsed":151299,"internal_node_id":"0.0-3.0-4.0-2.0","subject_id":"5c53ef4f26a39500019719b4","study_id":"6197b3f67c2b5cd3b6d9596a","session_id":"619bfbde652574d984a61006","condition":"full-information","relevant_dimensions":["antennae","wings"],"bee_group":{"antennae":"B","wings":"1","pattern":"X","legs":"X"},"correct":true,"bonus":1.720000000000001},{"rt":2107.9000000003725,"stimulus":"<p>Congrats, you got everything right<br>When you're ready, click the button below to continue to the experiment.</p>","response":0,"trial_type":"html-button-response","trial_index":10,"time_elapsed":153411,"internal_node_id":"0.0-3.0-4.0-3.0","subject_id":"5c53ef4f26a39500019719b4","study_id":"6197b3f67c2b5cd3b6d9596a","session_id":"619bfbde652574d984a61006","condition":"full-information","relevant_dimensions":["antennae","wings"],"bee_group":{"antennae":"B","wings":"1","pattern":"X","legs":"X"},"bonus":1.720000000000001},{"rt":4519.899999999441,"stimulus":"bees-with-color/bee-B2DM.svg","response":1,"trial_type":"image-button-response","trial_index":11,"time_elapsed":157934,"internal_node_id":"0.0-4.0-0.0","subject_id":"5c53ef4f26a39500019719b4","study_id":"6197b3f67c2b5cd3b6d9596a","session_id":"619bfbde652574d984a61006","condition":"full-information","relevant_dimensions":["antennae","wings"],"bee_group":{"antennae":"B","wings":"1","pattern":"X","legs":"X"},"action":"avoid","summary":"bad-avoid","bonus":1.720000000000001},{"rt":40711.40000000037,"stimulus":"\n                    <p><b>Action: <em>avoid</em></b></p>\n                    <p>This is the bee that you just saw.</p>\n                    <img src=\"bees-with-color/bee-B2DM.svg\" width=\"200\">\n                    <p><span class=\"redText\">Bad choice,</span> the bee was friendly.<br>Your bonus pay is unchanged, and remains at $0.54.</p>\n            ","response":0,"trial_type":"html-button-response","trial_index":12,"time_elapsed":198647,"internal_node_id":"0.0-4.0-1.0","subject_id":"5c53ef4f26a39500019719b4","study_id":"6197b3f67c2b5cd3b6d9596a","session_id":"619bfbde652574d984a61006","condition":"full-information","relevant_dimensions":["antennae","wings"],"bee_group":{"antennae":"B","wings":"1","pattern":"X","legs":"X"},"bonus":1.720000000000001},{"rt":2588.300000000745,"stimulus":"bees-with-color/bee-A1DM.svg","response":1,"trial_type":"image-button-response","trial_index":13,"time_elapsed":201237,"internal_node_id":"0.0-4.0-0.1","subject_id":"5c53ef4f26a39500019719b4","study_id":"6197b3f67c2b5cd3b6d9596a","session_id":"619bfbde652574d984a61006","condition":"full-information","relevant_dimensions":["antennae","wings"],"bee_group":{"antennae":"B","wings":"1","pattern":"X","legs":"X"},"action":"avoid","summary":"bad-avoid","bonus":1.720000000000001},{"rt":16220.5,"stimulus":"\n                    <p><b>Action: <em>avoid</em></b></p>\n                    <p>This is the bee that you just saw.</p>\n                    <img src=\"bees-with-color/bee-A1DM.svg\" width=\"200\">\n                    <p><span class=\"redText\">Bad choice,</span> the bee was friendly.<br>Your bonus pay is unchanged, and remains at $0.54.</p>\n            ","response":0,"trial_type":"html-button-response","trial_index":14,"time_elapsed":217459,"internal_node_id":"0.0-4.0-1.1","subject_id":"5c53ef4f26a39500019719b4","study_id":"6197b3f67c2b5cd3b6d9596a","session_id":"619bfbde652574d984a61006","condition":"full-information","relevant_dimensions":["antennae","wings"],"bee_group":{"antennae":"B","wings":"1","pattern":"X","legs":"X"},"bonus":1.720000000000001},{"rt":2584.100000000559,"stimulus":"bees-with-color/bee-A2DF.svg","response":1,"trial_type":"image-button-response","trial_index":15,"time_elapsed":220045,"internal_node_id":"0.0-4.0-0.2","subject_id":"5c53ef4f26a39500019719b4","study_id":"6197b3f67c2b5cd3b6d9596a","session_id":"619bfbde652574d984a61006","condition":"full-information","relevant_dimensions":["antennae","wings"],"bee_group":{"antennae":"B","wings":"1","pattern":"X","legs":"X"},"action":"avoid","summary":"bad-avoid","bonus":1.720000000000001},{"rt":14234.800000000745,"stimulus":"\n                    <p><b>Action: <em>avoid</em></b></p>\n                    <p>This is the bee that you just saw.</p>\n                    <img src=\"bees-with-color/bee-A2DF.svg\" width=\"200\">\n                    <p><span class=\"redText\">Bad choice,</span> the bee was friendly.<br>Your bonus pay is unchanged, and remains at $0.54.</p>\n            ","response":0,"trial_type":"html-button-response","trial_index":16,"time_elapsed":234281,"internal_node_id":"0.0-4.0-1.2","subject_id":"5c53ef4f26a39500019719b4","study_id":"6197b3f67c2b5cd3b6d9596a","session_id":"619bfbde652574d984a61006","condition":"full-information","relevant_dimensions":["antennae","wings"],"bee_group":{"antennae":"B","wings":"1","pattern":"X","legs":"X"},"bonus":1.720000000000001},{"rt":1540.5,"stimulus":"bees-with-color/bee-B1SM.svg","response":1,"trial_type":"image-button-response","trial_index":17,"time_elapsed":235823,"internal_node_id":"0.0-4.0-0.3","subject_id":"5c53ef4f26a39500019719b4","study_id":"6197b3f67c2b5cd3b6d9596a","session_id":"619bfbde652574d984a61006","condition":"full-information","relevant_dimensions":["antennae","wings"],"bee_group":{"antennae":"B","wings":"1","pattern":"X","legs":"X"},"action":"avoid","summary":"good-avoid","bonus":1.720000000000001},{"rt":19760.60000000056,"stimulus":"\n                    <p><b>Action: <em>avoid</em></b></p>\n                    <p>This is the bee that you just saw.</p>\n                    <img src=\"bees-with-color/bee-B1SM.svg\" width=\"200\">\n                    <p><span class=\"greenText\">Good choice!</span>  This bee would have stung you.<br>Your bonus pay is unchanged, and remains at $0.54.</p>\n            ","response":0,"trial_type":"html-button-response","trial_index":18,"time_elapsed":255585,"internal_node_id":"0.0-4.0-1.3","subject_id":"5c53ef4f26a39500019719b4","study_id":"6197b3f67c2b5cd3b6d9596a","session_id":"619bfbde652574d984a61006","condition":"full-information","relevant_dimensions":["antennae","wings"],"bee_group":{"antennae":"B","wings":"1","pattern":"X","legs":"X"},"bonus":1.720000000000001},{"rt":1112.300000000745,"stimulus":"bees-with-color/bee-B1SF.svg","response":1,"trial_type":"image-button-response","trial_index":19,"time_elapsed":256699,"internal_node_id":"0.0-4.0-0.4","subject_id":"5c53ef4f26a39500019719b4","study_id":"6197b3f67c2b5cd3b6d9596a","session_id":"619bfbde652574d984a61006","condition":"full-information","relevant_dimensions":["antennae","wings"],"bee_group":{"antennae":"B","wings":"1","pattern":"X","legs":"X"},"action":"avoid","summary":"good-avoid","bonus":1.720000000000001},{"rt":15004.600000000559,"stimulus":"\n                    <p><b>Action: <em>avoid</em></b></p>\n                    <p>This is the bee that you just saw.</p>\n                    <img src=\"bees-with-color/bee-B1SF.svg\" width=\"200\">\n                    <p><span class=\"greenText\">Good choice!</span>  This bee would have stung you.<br>Your bonus pay is unchanged, and remains at $0.54.</p>\n            ","response":0,"trial_type":"html-button-response","trial_index":20,"time_elapsed":271705,"internal_node_id":"0.0-4.0-1.4","subject_id":"5c53ef4f26a39500019719b4","study_id":"6197b3f67c2b5cd3b6d9596a","session_id":"619bfbde652574d984a61006","condition":"full-information","relevant_dimensions":["antennae","wings"],"bee_group":{"antennae":"B","wings":"1","pattern":"X","legs":"X"},"bonus":1.720000000000001},{"rt":950.5,"stimulus":"bees-with-color/bee-B2SF.svg","response":1,"trial_type":"image-button-response","trial_index":21,"time_elapsed":272657,"internal_node_id":"0.0-4.0-0.5","subject_id":"5c53ef4f26a39500019719b4","study_id":"6197b3f67c2b5cd3b6d9596a","session_id":"619bfbde652574d984a61006","condition":"full-information","relevant_dimensions":["antennae","wings"],"bee_group":{"antennae":"B","wings":"1","pattern":"X","legs":"X"},"action":"avoid","summary":"bad-avoid","bonus":1.720000000000001},{"rt":17266.599999999627,"stimulus":"\n                    <p><b>Action: <em>avoid</em></b></p>\n                    <p>This is the bee that you just saw.</p>\n                    <img src=\"bees-with-color/bee-B2SF.svg\" width=\"200\">\n                    <p><span class=\"redText\">Bad choice,</span> the bee was friendly.<br>Your bonus pay is unchanged, and remains at $0.54.</p>\n            ","response":0,"trial_type":"html-button-response","trial_index":22,"time_elapsed":289925,"internal_node_id":"0.0-4.0-1.5","subject_id":"5c53ef4f26a39500019719b4","study_id":"6197b3f67c2b5cd3b6d9596a","session_id":"619bfbde652574d984a61006","condition":"full-information","relevant_dimensions":["antennae","wings"],"bee_group":{"antennae":"B","wings":"1","pattern":"X","legs":"X"},"bonus":1.720000000000001},{"rt":1852.4000000003725,"stimulus":"bees-with-color/bee-A1SF.svg","response":1,"trial_type":"image-button-response","trial_index":23,"time_elapsed":291779,"internal_node_id":"0.0-4.0-0.6","subject_id":"5c53ef4f26a39500019719b4","study_id":"6197b3f67c2b5cd3b6d9596a","session_id":"619bfbde652574d984a61006","condition":"full-information","relevant_dimensions":["antennae","wings"],"bee_group":{"antennae":"B","wings":"1","pattern":"X","legs":"X"},"action":"avoid","summary":"bad-avoid","bonus":1.720000000000001},{"rt":12388.5,"stimulus":"\n                    <p><b>Action: <em>avoid</em></b></p>\n                    <p>This is the bee that you just saw.</p>\n                    <img src=\"bees-with-color/bee-A1SF.svg\" width=\"200\">\n                    <p><span class=\"redText\">Bad choice,</span> the bee was friendly.<br>Your bonus pay is unchanged, and remains at $0.54.</p>\n            ","response":0,"trial_type":"html-button-response","trial_index":24,"time_elapsed":304169,"internal_node_id":"0.0-4.0-1.6","subject_id":"5c53ef4f26a39500019719b4","study_id":"6197b3f67c2b5cd3b6d9596a","session_id":"619bfbde652574d984a61006","condition":"full-information","relevant_dimensions":["antennae","wings"],"bee_group":{"antennae":"B","wings":"1","pattern":"X","legs":"X"},"bonus":1.720000000000001},{"rt":1618.2000000001863,"stimulus":"bees-with-color/bee-B2SM.svg","response":1,"trial_type":"image-button-response","trial_index":25,"time_elapsed":305789,"internal_node_id":"0.0-4.0-0.7","subject_id":"5c53ef4f26a39500019719b4","study_id":"6197b3f67c2b5cd3b6d9596a","session_id":"619bfbde652574d984a61006","condition":"full-information","relevant_dimensions":["antennae","wings"],"bee_group":{"antennae":"B","wings":"1","pattern":"X","legs":"X"},"action":"avoid","summary":"bad-avoid","bonus":1.720000000000001},{"rt":10792.700000000186,"stimulus":"\n                    <p><b>Action: <em>avoid</em></b></p>\n                    <p>This is the bee that you just saw.</p>\n                    <img src=\"bees-with-color/bee-B2SM.svg\" width=\"200\">\n                    <p><span class=\"redText\">Bad choice,</span> the bee was friendly.<br>Your bonus pay is unchanged, and remains at $0.54.</p>\n            ","response":0,"trial_type":"html-button-response","trial_index":26,"time_elapsed":316583,"internal_node_id":"0.0-4.0-1.7","subject_id":"5c53ef4f26a39500019719b4","study_id":"6197b3f67c2b5cd3b6d9596a","session_id":"619bfbde652574d984a61006","condition":"full-information","relevant_dimensions":["antennae","wings"],"bee_group":{"antennae":"B","wings":"1","pattern":"X","legs":"X"},"bonus":1.720000000000001},{"rt":10974.200000000186,"stimulus":"bees-with-color/bee-A2DM.svg","response":1,"trial_type":"image-button-response","trial_index":27,"time_elapsed":327559,"internal_node_id":"0.0-4.0-0.8","subject_id":"5c53ef4f26a39500019719b4","study_id":"6197b3f67c2b5cd3b6d9596a","session_id":"619bfbde652574d984a61006","condition":"full-information","relevant_dimensions":["antennae","wings"],"bee_group":{"antennae":"B","wings":"1","pattern":"X","legs":"X"},"action":"avoid","summary":"bad-avoid","bonus":1.720000000000001},{"rt":10348.5,"stimulus":"\n                    <p><b>Action: <em>avoid</em></b></p>\n                    <p>This is the bee that you just saw.</p>\n                    <img src=\"bees-with-color/bee-A2DM.svg\" width=\"200\">\n                    <p><span class=\"redText\">Bad choice,</span> the bee was friendly.<br>Your bonus pay is unchanged, and remains at $0.54.</p>\n            ","response":0,"trial_type":"html-button-response","trial_index":28,"time_elapsed":337909,"internal_node_id":"0.0-4.0-1.8","subject_id":"5c53ef4f26a39500019719b4","study_id":"6197b3f67c2b5cd3b6d9596a","session_id":"619bfbde652574d984a61006","condition":"full-information","relevant_dimensions":["antennae","wings"],"bee_group":{"antennae":"B","wings":"1","pattern":"X","legs":"X"},"bonus":1.720000000000001},{"rt":10884.399999999441,"stimulus":"bees-with-color/bee-B1DF.svg","response":1,"trial_type":"image-button-response","trial_index":29,"time_elapsed":348795,"internal_node_id":"0.0-4.0-0.9","subject_id":"5c53ef4f26a39500019719b4","study_id":"6197b3f67c2b5cd3b6d9596a","session_id":"619bfbde652574d984a61006","condition":"full-information","relevant_dimensions":["antennae","wings"],"bee_group":{"antennae":"B","wings":"1","pattern":"X","legs":"X"},"action":"avoid","summary":"good-avoid","bonus":1.720000000000001},{"rt":11998.5,"stimulus":"\n                    <p><b>Action: <em>avoid</em></b></p>\n                    <p>This is the bee that you just saw.</p>\n                    <img src=\"bees-with-color/bee-B1DF.svg\" width=\"200\">\n                    <p><span class=\"greenText\">Good choice!</span>  This bee would have stung you.<br>Your bonus pay is unchanged, and remains at $0.54.</p>\n            ","response":0,"trial_type":"html-button-response","trial_index":30,"time_elapsed":360795,"internal_node_id":"0.0-4.0-1.9","subject_id":"5c53ef4f26a39500019719b4","study_id":"6197b3f67c2b5cd3b6d9596a","session_id":"619bfbde652574d984a61006","condition":"full-information","relevant_dimensions":["antennae","wings"],"bee_group":{"antennae":"B","wings":"1","pattern":"X","legs":"X"},"bonus":1.720000000000001},{"rt":1038.6000000005588,"stimulus":"bees-with-color/bee-B2DF.svg","response":1,"trial_type":"image-button-response","trial_index":31,"time_elapsed":361835,"internal_node_id":"0.0-4.0-0.10","subject_id":"5c53ef4f26a39500019719b4","study_id":"6197b3f67c2b5cd3b6d9596a","session_id":"619bfbde652574d984a61006","condition":"full-information","relevant_dimensions":["antennae","wings"],"bee_group":{"antennae":"B","wings":"1","pattern":"X","legs":"X"},"action":"avoid","summary":"bad-avoid","bonus":1.720000000000001},{"rt":17226.700000000186,"stimulus":"\n                    <p><b>Action: <em>avoid</em></b></p>\n                    <p>This is the bee that you just saw.</p>\n                    <img src=\"bees-with-color/bee-B2DF.svg\" width=\"200\">\n                    <p><span class=\"redText\">Bad choice,</span> the bee was friendly.<br>Your bonus pay is unchanged, and remains at $0.54.</p>\n            ","response":0,"trial_type":"html-button-response","trial_index":32,"time_elapsed":379063,"internal_node_id":"0.0-4.0-1.10","subject_id":"5c53ef4f26a39500019719b4","study_id":"6197b3f67c2b5cd3b6d9596a","session_id":"619bfbde652574d984a61006","condition":"full-information","relevant_dimensions":["antennae","wings"],"bee_group":{"antennae":"B","wings":"1","pattern":"X","legs":"X"},"bonus":1.720000000000001},{"rt":10318,"stimulus":"bees-with-color/bee-A1SM.svg","response":1,"trial_type":"image-button-response","trial_index":33,"time_elapsed":389383,"internal_node_id":"0.0-4.0-0.11","subject_id":"5c53ef4f26a39500019719b4","study_id":"6197b3f67c2b5cd3b6d9596a","session_id":"619bfbde652574d984a61006","condition":"full-information","relevant_dimensions":["antennae","wings"],"bee_group":{"antennae":"B","wings":"1","pattern":"X","legs":"X"},"action":"avoid","summary":"bad-avoid","bonus":1.720000000000001},{"rt":10276.799999999814,"stimulus":"\n                    <p><b>Action: <em>avoid</em></b></p>\n                    <p>This is the bee that you just saw.</p>\n                    <img src=\"bees-with-color/bee-A1SM.svg\" width=\"200\">\n                    <p><span class=\"redText\">Bad choice,</span> the bee was friendly.<br>Your bonus pay is unchanged, and remains at $0.54.</p>\n            ","response":0,"trial_type":"html-button-response","trial_index":34,"time_elapsed":399661,"internal_node_id":"0.0-4.0-1.11","subject_id":"5c53ef4f26a39500019719b4","study_id":"6197b3f67c2b5cd3b6d9596a","session_id":"619bfbde652574d984a61006","condition":"full-information","relevant_dimensions":["antennae","wings"],"bee_group":{"antennae":"B","wings":"1","pattern":"X","legs":"X"},"bonus":1.720000000000001},{"rt":13600.399999999441,"stimulus":"bees-with-color/bee-B1DM.svg","response":1,"trial_type":"image-button-response","trial_index":35,"time_elapsed":413263,"internal_node_id":"0.0-4.0-0.12","subject_id":"5c53ef4f26a39500019719b4","study_id":"6197b3f67c2b5cd3b6d9596a","session_id":"619bfbde652574d984a61006","condition":"full-information","relevant_dimensions":["antennae","wings"],"bee_group":{"antennae":"B","wings":"1","pattern":"X","legs":"X"},"action":"avoid","summary":"good-avoid","bonus":1.720000000000001},{"rt":78446.60000000056,"stimulus":"\n                    <p><b>Action: <em>avoid</em></b></p>\n                    <p>This is the bee that you just saw.</p>\n                    <img src=\"bees-with-color/bee-B1DM.svg\" width=\"200\">\n                    <p><span class=\"greenText\">Good choice!</span>  This bee would have stung you.<br>Your bonus pay is unchanged, and remains at $0.54.</p>\n            ","response":0,"trial_type":"html-button-response","trial_index":36,"time_elapsed":491710,"internal_node_id":"0.0-4.0-1.12","subject_id":"5c53ef4f26a39500019719b4","study_id":"6197b3f67c2b5cd3b6d9596a","session_id":"619bfbde652574d984a61006","condition":"full-information","relevant_dimensions":["antennae","wings"],"bee_group":{"antennae":"B","wings":"1","pattern":"X","legs":"X"},"bonus":1.720000000000001},{"rt":9308.5,"stimulus":"bees-with-color/bee-A1DF.svg","response":1,"trial_type":"image-button-response","trial_index":37,"time_elapsed":501020,"internal_node_id":"0.0-4.0-0.13","subject_id":"5c53ef4f26a39500019719b4","study_id":"6197b3f67c2b5cd3b6d9596a","session_id":"619bfbde652574d984a61006","condition":"full-information","relevant_dimensions":["antennae","wings"],"bee_group":{"antennae":"B","wings":"1","pattern":"X","legs":"X"},"action":"avoid","summary":"bad-avoid","bonus":1.720000000000001},{"rt":17348.700000000186,"stimulus":"\n                    <p><b>Action: <em>avoid</em></b></p>\n                    <p>This is the bee that you just saw.</p>\n                    <img src=\"bees-with-color/bee-A1DF.svg\" width=\"200\">\n                    <p><span class=\"redText\">Bad choice,</span> the bee was friendly.<br>Your bonus pay is unchanged, and remains at $0.54.</p>\n            ","response":0,"trial_type":"html-button-response","trial_index":38,"time_elapsed":518370,"internal_node_id":"0.0-4.0-1.13","subject_id":"5c53ef4f26a39500019719b4","study_id":"6197b3f67c2b5cd3b6d9596a","session_id":"619bfbde652574d984a61006","condition":"full-information","relevant_dimensions":["antennae","wings"],"bee_group":{"antennae":"B","wings":"1","pattern":"X","legs":"X"},"bonus":1.720000000000001},{"rt":7932.700000000186,"stimulus":"bees-with-color/bee-A2SF.svg","response":1,"trial_type":"image-button-response","trial_index":39,"time_elapsed":526304,"internal_node_id":"0.0-4.0-0.14","subject_id":"5c53ef4f26a39500019719b4","study_id":"6197b3f67c2b5cd3b6d9596a","session_id":"619bfbde652574d984a61006","condition":"full-information","relevant_dimensions":["antennae","wings"],"bee_group":{"antennae":"B","wings":"1","pattern":"X","legs":"X"},"action":"avoid","summary":"bad-avoid","bonus":1.720000000000001},{"rt":15838.5,"stimulus":"\n                    <p><b>Action: <em>avoid</em></b></p>\n                    <p>This is the bee that you just saw.</p>\n                    <img src=\"bees-with-color/bee-A2SF.svg\" width=\"200\">\n                    <p><span class=\"redText\">Bad choice,</span> the bee was friendly.<br>Your bonus pay is unchanged, and remains at $0.54.</p>\n            ","response":0,"trial_type":"html-button-response","trial_index":40,"time_elapsed":542144,"internal_node_id":"0.0-4.0-1.14","subject_id":"5c53ef4f26a39500019719b4","study_id":"6197b3f67c2b5cd3b6d9596a","session_id":"619bfbde652574d984a61006","condition":"full-information","relevant_dimensions":["antennae","wings"],"bee_group":{"antennae":"B","wings":"1","pattern":"X","legs":"X"},"bonus":1.720000000000001},{"rt":6456.600000000559,"stimulus":"bees-with-color/bee-A2SM.svg","response":1,"trial_type":"image-button-response","trial_index":41,"time_elapsed":548602,"internal_node_id":"0.0-4.0-0.15","subject_id":"5c53ef4f26a39500019719b4","study_id":"6197b3f67c2b5cd3b6d9596a","session_id":"619bfbde652574d984a61006","condition":"full-information","relevant_dimensions":["antennae","wings"],"bee_group":{"antennae":"B","wings":"1","pattern":"X","legs":"X"},"action":"avoid","summary":"bad-avoid","bonus":1.720000000000001},{"rt":9544.600000000559,"stimulus":"\n                    <p><b>Action: <em>avoid</em></b></p>\n                    <p>This is the bee that you just saw.</p>\n                    <img src=\"bees-with-color/bee-A2SM.svg\" width=\"200\">\n                    <p><span class=\"redText\">Bad choice,</span> the bee was friendly.<br>Your bonus pay is unchanged, and remains at $0.54.</p>\n            ","response":0,"trial_type":"html-button-response","trial_index":42,"time_elapsed":558149,"internal_node_id":"0.0-4.0-1.15","subject_id":"5c53ef4f26a39500019719b4","study_id":"6197b3f67c2b5cd3b6d9596a","session_id":"619bfbde652574d984a61006","condition":"full-information","relevant_dimensions":["antennae","wings"],"bee_group":{"antennae":"B","wings":"1","pattern":"X","legs":"X"},"bonus":1.720000000000001},{"rt":11536.5,"stimulus":"bees-with-color/bee-A2SF.svg","response":0,"trial_type":"image-button-response","trial_index":43,"time_elapsed":569687,"internal_node_id":"0.0-4.0-0.16","subject_id":"5c53ef4f26a39500019719b4","study_id":"6197b3f67c2b5cd3b6d9596a","session_id":"619bfbde652574d984a61006","condition":"full-information","relevant_dimensions":["antennae","wings"],"bee_group":{"antennae":"B","wings":"1","pattern":"X","legs":"X"},"action":"harvest","summary":"good-harvest","bonus":1.720000000000001},{"rt":1518.4000000003725,"stimulus":"\n                    <p><b>Action: <em>harvest</em></b></p>\n                    <p>This is the bee that you just saw.</p>\n                    <img src=\"bees-with-color/bee-A2SF.svg\" width=\"200\">\n                    <p><span class=\"greenText\"><b>Successful harvest!</b></span><br>Your pay has increased by $0.02. Your bonus pay is now $0.56.</p>\n            ","response":0,"trial_type":"html-button-response","trial_index":44,"time_elapsed":571207,"internal_node_id":"0.0-4.0-1.16","subject_id":"5c53ef4f26a39500019719b4","study_id":"6197b3f67c2b5cd3b6d9596a","session_id":"619bfbde652574d984a61006","condition":"full-information","relevant_dimensions":["antennae","wings"],"bee_group":{"antennae":"B","wings":"1","pattern":"X","legs":"X"},"bonus":1.720000000000001},{"rt":7332.5999999996275,"stimulus":"bees-with-color/bee-B1DF.svg","response":1,"trial_type":"image-button-response","trial_index":45,"time_elapsed":578541,"internal_node_id":"0.0-4.0-0.17","subject_id":"5c53ef4f26a39500019719b4","study_id":"6197b3f67c2b5cd3b6d9596a","session_id":"619bfbde652574d984a61006","condition":"full-information","relevant_dimensions":["antennae","wings"],"bee_group":{"antennae":"B","wings":"1","pattern":"X","legs":"X"},"action":"avoid","summary":"good-avoid","bonus":1.720000000000001},{"rt":766.7000000001863,"stimulus":"\n                    <p><b>Action: <em>avoid</em></b></p>\n                    <p>This is the bee that you just saw.</p>\n                    <img src=\"bees-with-color/bee-B1DF.svg\" width=\"200\">\n                    <p><span class=\"greenText\">Good choice!</span>  This bee would have stung you.<br>Your bonus pay is unchanged, and remains at $0.56.</p>\n            ","response":0,"trial_type":"html-button-response","trial_index":46,"time_elapsed":579309,"internal_node_id":"0.0-4.0-1.17","subject_id":"5c53ef4f26a39500019719b4","study_id":"6197b3f67c2b5cd3b6d9596a","session_id":"619bfbde652574d984a61006","condition":"full-information","relevant_dimensions":["antennae","wings"],"bee_group":{"antennae":"B","wings":"1","pattern":"X","legs":"X"},"bonus":1.720000000000001},{"rt":6624.4000000003725,"stimulus":"bees-with-color/bee-B1DM.svg","response":1,"trial_type":"image-button-response","trial_index":47,"time_elapsed":585935,"internal_node_id":"0.0-4.0-0.18","subject_id":"5c53ef4f26a39500019719b4","study_id":"6197b3f67c2b5cd3b6d9596a","session_id":"619bfbde652574d984a61006","condition":"full-information","relevant_dimensions":["antennae","wings"],"bee_group":{"antennae":"B","wings":"1","pattern":"X","legs":"X"},"action":"avoid","summary":"good-avoid","bonus":1.720000000000001},{"rt":814.7000000001863,"stimulus":"\n                    <p><b>Action: <em>avoid</em></b></p>\n                    <p>This is the bee that you just saw.</p>\n                    <img src=\"bees-with-color/bee-B1DM.svg\" width=\"200\">\n                    <p><span class=\"greenText\">Good choice!</span>  This bee would have stung you.<br>Your bonus pay is unchanged, and remains at $0.56.</p>\n            ","response":0,"trial_type":"html-button-response","trial_index":48,"time_elapsed":586751,"internal_node_id":"0.0-4.0-1.18","subject_id":"5c53ef4f26a39500019719b4","study_id":"6197b3f67c2b5cd3b6d9596a","session_id":"619bfbde652574d984a61006","condition":"full-information","relevant_dimensions":["antennae","wings"],"bee_group":{"antennae":"B","wings":"1","pattern":"X","legs":"X"},"bonus":1.720000000000001},{"rt":9686.799999999814,"stimulus":"bees-with-color/bee-B2SM.svg","response":0,"trial_type":"image-button-response","trial_index":49,"time_elapsed":596439,"internal_node_id":"0.0-4.0-0.19","subject_id":"5c53ef4f26a39500019719b4","study_id":"6197b3f67c2b5cd3b6d9596a","session_id":"619bfbde652574d984a61006","condition":"full-information","relevant_dimensions":["antennae","wings"],"bee_group":{"antennae":"B","wings":"1","pattern":"X","legs":"X"},"action":"harvest","summary":"good-harvest","bonus":1.720000000000001},{"rt":664.6000000005588,"stimulus":"\n                    <p><b>Action: <em>harvest</em></b></p>\n                    <p>This is the bee that you just saw.</p>\n                    <img src=\"bees-with-color/bee-B2SM.svg\" width=\"200\">\n                    <p><span class=\"greenText\"><b>Successful harvest!</b></span><br>Your pay has increased by $0.02. Your bonus pay is now $0.58.</p>\n            ","response":0,"trial_type":"html-button-response","trial_index":50,"time_elapsed":597105,"internal_node_id":"0.0-4.0-1.19","subject_id":"5c53ef4f26a39500019719b4","study_id":"6197b3f67c2b5cd3b6d9596a","session_id":"619bfbde652574d984a61006","condition":"full-information","relevant_dimensions":["antennae","wings"],"bee_group":{"antennae":"B","wings":"1","pattern":"X","legs":"X"},"bonus":1.720000000000001},{"rt":9866.700000000186,"stimulus":"bees-with-color/bee-A2SM.svg","response":1,"trial_type":"image-button-response","trial_index":51,"time_elapsed":606973,"internal_node_id":"0.0-4.0-0.20","subject_id":"5c53ef4f26a39500019719b4","study_id":"6197b3f67c2b5cd3b6d9596a","session_id":"619bfbde652574d984a61006","condition":"full-information","relevant_dimensions":["antennae","wings"],"bee_group":{"antennae":"B","wings":"1","pattern":"X","legs":"X"},"action":"avoid","summary":"bad-avoid","bonus":1.720000000000001},{"rt":812.8000000007451,"stimulus":"\n                    <p><b>Action: <em>avoid</em></b></p>\n                    <p>This is the bee that you just saw.</p>\n                    <img src=\"bees-with-color/bee-A2SM.svg\" width=\"200\">\n                    <p><span class=\"redText\">Bad choice,</span> the bee was friendly.<br>Your bonus pay is unchanged, and remains at $0.58.</p>\n            ","response":0,"trial_type":"html-button-response","trial_index":52,"time_elapsed":607787,"internal_node_id":"0.0-4.0-1.20","subject_id":"5c53ef4f26a39500019719b4","study_id":"6197b3f67c2b5cd3b6d9596a","session_id":"619bfbde652574d984a61006","condition":"full-information","relevant_dimensions":["antennae","wings"],"bee_group":{"antennae":"B","wings":"1","pattern":"X","legs":"X"},"bonus":1.720000000000001},{"rt":11644.399999999441,"stimulus":"bees-with-color/bee-B2DF.svg","response":0,"trial_type":"image-button-response","trial_index":53,"time_elapsed":619433,"internal_node_id":"0.0-4.0-0.21","subject_id":"5c53ef4f26a39500019719b4","study_id":"6197b3f67c2b5cd3b6d9596a","session_id":"619bfbde652574d984a61006","condition":"full-information","relevant_dimensions":["antennae","wings"],"bee_group":{"antennae":"B","wings":"1","pattern":"X","legs":"X"},"action":"harvest","summary":"good-harvest","bonus":1.720000000000001},{"rt":880.5999999996275,"stimulus":"\n                    <p><b>Action: <em>harvest</em></b></p>\n                    <p>This is the bee that you just saw.</p>\n                    <img src=\"bees-with-color/bee-B2DF.svg\" width=\"200\">\n                    <p><span class=\"greenText\"><b>Successful harvest!</b></span><br>Your pay has increased by $0.02. Your bonus pay is now $0.60.</p>\n            ","response":0,"trial_type":"html-button-response","trial_index":54,"time_elapsed":620315,"internal_node_id":"0.0-4.0-1.21","subject_id":"5c53ef4f26a39500019719b4","study_id":"6197b3f67c2b5cd3b6d9596a","session_id":"619bfbde652574d984a61006","condition":"full-information","relevant_dimensions":["antennae","wings"],"bee_group":{"antennae":"B","wings":"1","pattern":"X","legs":"X"},"bonus":1.720000000000001},{"rt":10688.400000000373,"stimulus":"bees-with-color/bee-A1DM.svg","response":0,"trial_type":"image-button-response","trial_index":55,"time_elapsed":631005,"internal_node_id":"0.0-4.0-0.22","subject_id":"5c53ef4f26a39500019719b4","study_id":"6197b3f67c2b5cd3b6d9596a","session_id":"619bfbde652574d984a61006","condition":"full-information","relevant_dimensions":["antennae","wings"],"bee_group":{"antennae":"B","wings":"1","pattern":"X","legs":"X"},"action":"harvest","summary":"good-harvest","bonus":1.720000000000001},{"rt":1034.8999999994412,"stimulus":"\n                    <p><b>Action: <em>harvest</em></b></p>\n                    <p>This is the bee that you just saw.</p>\n                    <img src=\"bees-with-color/bee-A1DM.svg\" width=\"200\">\n                    <p><span class=\"greenText\"><b>Successful harvest!</b></span><br>Your pay has increased by $0.02. Your bonus pay is now $0.62.</p>\n            ","response":0,"trial_type":"html-button-response","trial_index":56,"time_elapsed":632041,"internal_node_id":"0.0-4.0-1.22","subject_id":"5c53ef4f26a39500019719b4","study_id":"6197b3f67c2b5cd3b6d9596a","session_id":"619bfbde652574d984a61006","condition":"full-information","relevant_dimensions":["antennae","wings"],"bee_group":{"antennae":"B","wings":"1","pattern":"X","legs":"X"},"bonus":1.720000000000001},{"rt":7804.5,"stimulus":"bees-with-color/bee-A2DF.svg","response":0,"trial_type":"image-button-response","trial_index":57,"time_elapsed":639847,"internal_node_id":"0.0-4.0-0.23","subject_id":"5c53ef4f26a39500019719b4","study_id":"6197b3f67c2b5cd3b6d9596a","session_id":"619bfbde652574d984a61006","condition":"full-information","relevant_dimensions":["antennae","wings"],"bee_group":{"antennae":"B","wings":"1","pattern":"X","legs":"X"},"action":"harvest","summary":"good-harvest","bonus":1.720000000000001},{"rt":818.5999999996275,"stimulus":"\n                    <p><b>Action: <em>harvest</em></b></p>\n                    <p>This is the bee that you just saw.</p>\n                    <img src=\"bees-with-color/bee-A2DF.svg\" width=\"200\">\n                    <p><span class=\"greenText\"><b>Successful harvest!</b></span><br>Your pay has increased by $0.02. Your bonus pay is now $0.64.</p>\n            ","response":0,"trial_type":"html-button-response","trial_index":58,"time_elapsed":640667,"internal_node_id":"0.0-4.0-1.23","subject_id":"5c53ef4f26a39500019719b4","study_id":"6197b3f67c2b5cd3b6d9596a","session_id":"619bfbde652574d984a61006","condition":"full-information","relevant_dimensions":["antennae","wings"],"bee_group":{"antennae":"B","wings":"1","pattern":"X","legs":"X"},"bonus":1.720000000000001},{"rt":11608.400000000373,"stimulus":"bees-with-color/bee-A2DM.svg","response":0,"trial_type":"image-button-response","trial_index":59,"time_elapsed":652277,"internal_node_id":"0.0-4.0-0.24","subject_id":"5c53ef4f26a39500019719b4","study_id":"6197b3f67c2b5cd3b6d9596a","session_id":"619bfbde652574d984a61006","condition":"full-information","relevant_dimensions":["antennae","wings"],"bee_group":{"antennae":"B","wings":"1","pattern":"X","legs":"X"},"action":"harvest","summary":"good-harvest","bonus":1.720000000000001},{"rt":892.7000000001863,"stimulus":"\n                    <p><b>Action: <em>harvest</em></b></p>\n                    <p>This is the bee that you just saw.</p>\n                    <img src=\"bees-with-color/bee-A2DM.svg\" width=\"200\">\n                    <p><span class=\"greenText\"><b>Successful harvest!</b></span><br>Your pay has increased by $0.02. Your bonus pay is now $0.66.</p>\n            ","response":0,"trial_type":"html-button-response","trial_index":60,"time_elapsed":653171,"internal_node_id":"0.0-4.0-1.24","subject_id":"5c53ef4f26a39500019719b4","study_id":"6197b3f67c2b5cd3b6d9596a","session_id":"619bfbde652574d984a61006","condition":"full-information","relevant_dimensions":["antennae","wings"],"bee_group":{"antennae":"B","wings":"1","pattern":"X","legs":"X"},"bonus":1.720000000000001},{"rt":9750.399999999441,"stimulus":"bees-with-color/bee-A1SF.svg","response":0,"trial_type":"image-button-response","trial_index":61,"time_elapsed":662923,"internal_node_id":"0.0-4.0-0.25","subject_id":"5c53ef4f26a39500019719b4","study_id":"6197b3f67c2b5cd3b6d9596a","session_id":"619bfbde652574d984a61006","condition":"full-information","relevant_dimensions":["antennae","wings"],"bee_group":{"antennae":"B","wings":"1","pattern":"X","legs":"X"},"action":"harvest","summary":"good-harvest","bonus":1.720000000000001},{"rt":714.6000000005588,"stimulus":"\n                    <p><b>Action: <em>harvest</em></b></p>\n                    <p>This is the bee that you just saw.</p>\n                    <img src=\"bees-with-color/bee-A1SF.svg\" width=\"200\">\n                    <p><span class=\"greenText\"><b>Successful harvest!</b></span><br>Your pay has increased by $0.02. Your bonus pay is now $0.68.</p>\n            ","response":0,"trial_type":"html-button-response","trial_index":62,"time_elapsed":663639,"internal_node_id":"0.0-4.0-1.25","subject_id":"5c53ef4f26a39500019719b4","study_id":"6197b3f67c2b5cd3b6d9596a","session_id":"619bfbde652574d984a61006","condition":"full-information","relevant_dimensions":["antennae","wings"],"bee_group":{"antennae":"B","wings":"1","pattern":"X","legs":"X"},"bonus":1.720000000000001},{"rt":10654.600000000559,"stimulus":"bees-with-color/bee-B2SF.svg","response":0,"trial_type":"image-button-response","trial_index":63,"time_elapsed":674295,"internal_node_id":"0.0-4.0-0.26","subject_id":"5c53ef4f26a39500019719b4","study_id":"6197b3f67c2b5cd3b6d9596a","session_id":"619bfbde652574d984a61006","condition":"full-information","relevant_dimensions":["antennae","wings"],"bee_group":{"antennae":"B","wings":"1","pattern":"X","legs":"X"},"action":"harvest","summary":"good-harvest","bonus":1.720000000000001},{"rt":866.8999999994412,"stimulus":"\n                    <p><b>Action: <em>harvest</em></b></p>\n                    <p>This is the bee that you just saw.</p>\n                    <img src=\"bees-with-color/bee-B2SF.svg\" width=\"200\">\n                    <p><span class=\"greenText\"><b>Successful harvest!</b></span><br>Your pay has increased by $0.02. Your bonus pay is now $0.70.</p>\n            ","response":0,"trial_type":"html-button-response","trial_index":64,"time_elapsed":675163,"internal_node_id":"0.0-4.0-1.26","subject_id":"5c53ef4f26a39500019719b4","study_id":"6197b3f67c2b5cd3b6d9596a","session_id":"619bfbde652574d984a61006","condition":"full-information","relevant_dimensions":["antennae","wings"],"bee_group":{"antennae":"B","wings":"1","pattern":"X","legs":"X"},"bonus":1.720000000000001},{"rt":8588.5,"stimulus":"bees-with-color/bee-B1SM.svg","response":1,"trial_type":"image-button-response","trial_index":65,"time_elapsed":683753,"internal_node_id":"0.0-4.0-0.27","subject_id":"5c53ef4f26a39500019719b4","study_id":"6197b3f67c2b5cd3b6d9596a","session_id":"619bfbde652574d984a61006","condition":"full-information","relevant_dimensions":["antennae","wings"],"bee_group":{"antennae":"B","wings":"1","pattern":"X","legs":"X"},"action":"avoid","summary":"good-avoid","bonus":1.720000000000001},{"rt":956.5,"stimulus":"\n                    <p><b>Action: <em>avoid</em></b></p>\n                    <p>This is the bee that you just saw.</p>\n                    <img src=\"bees-with-color/bee-B1SM.svg\" width=\"200\">\n                    <p><span class=\"greenText\">Good choice!</span>  This bee would have stung you.<br>Your bonus pay is unchanged, and remains at $0.70.</p>\n            ","response":0,"trial_type":"html-button-response","trial_index":66,"time_elapsed":684711,"internal_node_id":"0.0-4.0-1.27","subject_id":"5c53ef4f26a39500019719b4","study_id":"6197b3f67c2b5cd3b6d9596a","session_id":"619bfbde652574d984a61006","condition":"full-information","relevant_dimensions":["antennae","wings"],"bee_group":{"antennae":"B","wings":"1","pattern":"X","legs":"X"},"bonus":1.720000000000001},{"rt":7816.5,"stimulus":"bees-with-color/bee-B1SF.svg","response":1,"trial_type":"image-button-response","trial_index":67,"time_elapsed":692529,"internal_node_id":"0.0-4.0-0.28","subject_id":"5c53ef4f26a39500019719b4","study_id":"6197b3f67c2b5cd3b6d9596a","session_id":"619bfbde652574d984a61006","condition":"full-information","relevant_dimensions":["antennae","wings"],"bee_group":{"antennae":"B","wings":"1","pattern":"X","legs":"X"},"action":"avoid","summary":"good-avoid","bonus":1.720000000000001},{"rt":1286.7000000001863,"stimulus":"\n                    <p><b>Action: <em>avoid</em></b></p>\n                    <p>This is the bee that you just saw.</p>\n                    <img src=\"bees-with-color/bee-B1SF.svg\" width=\"200\">\n                    <p><span class=\"greenText\">Good choice!</span>  This bee would have stung you.<br>Your bonus pay is unchanged, and remains at $0.70.</p>\n            ","response":0,"trial_type":"html-button-response","trial_index":68,"time_elapsed":693817,"internal_node_id":"0.0-4.0-1.28","subject_id":"5c53ef4f26a39500019719b4","study_id":"6197b3f67c2b5cd3b6d9596a","session_id":"619bfbde652574d984a61006","condition":"full-information","relevant_dimensions":["antennae","wings"],"bee_group":{"antennae":"B","wings":"1","pattern":"X","legs":"X"},"bonus":1.720000000000001},{"rt":8748.599999999627,"stimulus":"bees-with-color/bee-A1SM.svg","response":0,"trial_type":"image-button-response","trial_index":69,"time_elapsed":702567,"internal_node_id":"0.0-4.0-0.29","subject_id":"5c53ef4f26a39500019719b4","study_id":"6197b3f67c2b5cd3b6d9596a","session_id":"619bfbde652574d984a61006","condition":"full-information","relevant_dimensions":["antennae","wings"],"bee_group":{"antennae":"B","wings":"1","pattern":"X","legs":"X"},"action":"harvest","summary":"good-harvest","bonus":1.720000000000001},{"rt":680.7000000001863,"stimulus":"\n                    <p><b>Action: <em>harvest</em></b></p>\n                    <p>This is the bee that you just saw.</p>\n                    <img src=\"bees-with-color/bee-A1SM.svg\" width=\"200\">\n                    <p><span class=\"greenText\"><b>Successful harvest!</b></span><br>Your pay has increased by $0.02. Your bonus pay is now $0.72.</p>\n            ","response":0,"trial_type":"html-button-response","trial_index":70,"time_elapsed":703249,"internal_node_id":"0.0-4.0-1.29","subject_id":"5c53ef4f26a39500019719b4","study_id":"6197b3f67c2b5cd3b6d9596a","session_id":"619bfbde652574d984a61006","condition":"full-information","relevant_dimensions":["antennae","wings"],"bee_group":{"antennae":"B","wings":"1","pattern":"X","legs":"X"},"bonus":1.720000000000001},{"rt":10978.5,"stimulus":"bees-with-color/bee-B2DM.svg","response":0,"trial_type":"image-button-response","trial_index":71,"time_elapsed":714229,"internal_node_id":"0.0-4.0-0.30","subject_id":"5c53ef4f26a39500019719b4","study_id":"6197b3f67c2b5cd3b6d9596a","session_id":"619bfbde652574d984a61006","condition":"full-information","relevant_dimensions":["antennae","wings"],"bee_group":{"antennae":"B","wings":"1","pattern":"X","legs":"X"},"action":"harvest","summary":"good-harvest","bonus":1.720000000000001},{"rt":680.7000000001863,"stimulus":"\n                    <p><b>Action: <em>harvest</em></b></p>\n                    <p>This is the bee that you just saw.</p>\n                    <img src=\"bees-with-color/bee-B2DM.svg\" width=\"200\">\n                    <p><span class=\"greenText\"><b>Successful harvest!</b></span><br>Your pay has increased by $0.02. Your bonus pay is now $0.74.</p>\n            ","response":0,"trial_type":"html-button-response","trial_index":72,"time_elapsed":714911,"internal_node_id":"0.0-4.0-1.30","subject_id":"5c53ef4f26a39500019719b4","study_id":"6197b3f67c2b5cd3b6d9596a","session_id":"619bfbde652574d984a61006","condition":"full-information","relevant_dimensions":["antennae","wings"],"bee_group":{"antennae":"B","wings":"1","pattern":"X","legs":"X"},"bonus":1.720000000000001},{"rt":35586.40000000037,"stimulus":"bees-with-color/bee-A1DF.svg","response":0,"trial_type":"image-button-response","trial_index":73,"time_elapsed":750499,"internal_node_id":"0.0-4.0-0.31","subject_id":"5c53ef4f26a39500019719b4","study_id":"6197b3f67c2b5cd3b6d9596a","session_id":"619bfbde652574d984a61006","condition":"full-information","relevant_dimensions":["antennae","wings"],"bee_group":{"antennae":"B","wings":"1","pattern":"X","legs":"X"},"action":"harvest","summary":"good-harvest","bonus":1.720000000000001},{"rt":858.7999999998137,"stimulus":"\n                    <p><b>Action: <em>harvest</em></b></p>\n                    <p>This is the bee that you just saw.</p>\n                    <img src=\"bees-with-color/bee-A1DF.svg\" width=\"200\">\n                    <p><span class=\"greenText\"><b>Successful harvest!</b></span><br>Your pay has increased by $0.02. Your bonus pay is now $0.76.</p>\n            ","response":0,"trial_type":"html-button-response","trial_index":74,"time_elapsed":751359,"internal_node_id":"0.0-4.0-1.31","subject_id":"5c53ef4f26a39500019719b4","study_id":"6197b3f67c2b5cd3b6d9596a","session_id":"619bfbde652574d984a61006","condition":"full-information","relevant_dimensions":["antennae","wings"],"bee_group":{"antennae":"B","wings":"1","pattern":"X","legs":"X"},"bonus":1.720000000000001},{"rt":12732.5,"stimulus":"bees-with-color/bee-A2DF.svg","response":0,"trial_type":"image-button-response","trial_index":75,"time_elapsed":764093,"internal_node_id":"0.0-4.0-0.32","subject_id":"5c53ef4f26a39500019719b4","study_id":"6197b3f67c2b5cd3b6d9596a","session_id":"619bfbde652574d984a61006","condition":"full-information","relevant_dimensions":["antennae","wings"],"bee_group":{"antennae":"B","wings":"1","pattern":"X","legs":"X"},"action":"harvest","summary":"good-harvest","bonus":1.720000000000001},{"rt":950.8999999994412,"stimulus":"\n                    <p><b>Action: <em>harvest</em></b></p>\n                    <p>This is the bee that you just saw.</p>\n                    <img src=\"bees-with-color/bee-A2DF.svg\" width=\"200\">\n                    <p><span class=\"greenText\"><b>Successful harvest!</b></span><br>Your pay has increased by $0.02. Your bonus pay is now $0.78.</p>\n            ","response":0,"trial_type":"html-button-response","trial_index":76,"time_elapsed":765045,"internal_node_id":"0.0-4.0-1.32","subject_id":"5c53ef4f26a39500019719b4","study_id":"6197b3f67c2b5cd3b6d9596a","session_id":"619bfbde652574d984a61006","condition":"full-information","relevant_dimensions":["antennae","wings"],"bee_group":{"antennae":"B","wings":"1","pattern":"X","legs":"X"},"bonus":1.720000000000001},{"rt":8056.299999999814,"stimulus":"bees-with-color/bee-A1SF.svg","response":0,"trial_type":"image-button-response","trial_index":77,"time_elapsed":773103,"internal_node_id":"0.0-4.0-0.33","subject_id":"5c53ef4f26a39500019719b4","study_id":"6197b3f67c2b5cd3b6d9596a","session_id":"619bfbde652574d984a61006","condition":"full-information","relevant_dimensions":["antennae","wings"],"bee_group":{"antennae":"B","wings":"1","pattern":"X","legs":"X"},"action":"harvest","summary":"good-harvest","bonus":1.720000000000001},{"rt":798.9000000003725,"stimulus":"\n                    <p><b>Action: <em>harvest</em></b></p>\n                    <p>This is the bee that you just saw.</p>\n                    <img src=\"bees-with-color/bee-A1SF.svg\" width=\"200\">\n                    <p><span class=\"greenText\"><b>Successful harvest!</b></span><br>Your pay has increased by $0.02. Your bonus pay is now $0.80.</p>\n            ","response":0,"trial_type":"html-button-response","trial_index":78,"time_elapsed":773903,"internal_node_id":"0.0-4.0-1.33","subject_id":"5c53ef4f26a39500019719b4","study_id":"6197b3f67c2b5cd3b6d9596a","session_id":"619bfbde652574d984a61006","condition":"full-information","relevant_dimensions":["antennae","wings"],"bee_group":{"antennae":"B","wings":"1","pattern":"X","legs":"X"},"bonus":1.720000000000001},{"rt":8460.700000000186,"stimulus":"bees-with-color/bee-B2DM.svg","response":0,"trial_type":"image-button-response","trial_index":79,"time_elapsed":782365,"internal_node_id":"0.0-4.0-0.34","subject_id":"5c53ef4f26a39500019719b4","study_id":"6197b3f67c2b5cd3b6d9596a","session_id":"619bfbde652574d984a61006","condition":"full-information","relevant_dimensions":["antennae","wings"],"bee_group":{"antennae":"B","wings":"1","pattern":"X","legs":"X"},"action":"harvest","summary":"good-harvest","bonus":1.720000000000001},{"rt":724.7000000001863,"stimulus":"\n                    <p><b>Action: <em>harvest</em></b></p>\n                    <p>This is the bee that you just saw.</p>\n                    <img src=\"bees-with-color/bee-B2DM.svg\" width=\"200\">\n                    <p><span class=\"greenText\"><b>Successful harvest!</b></span><br>Your pay has increased by $0.02. Your bonus pay is now $0.82.</p>\n            ","response":0,"trial_type":"html-button-response","trial_index":80,"time_elapsed":783091,"internal_node_id":"0.0-4.0-1.34","subject_id":"5c53ef4f26a39500019719b4","study_id":"6197b3f67c2b5cd3b6d9596a","session_id":"619bfbde652574d984a61006","condition":"full-information","relevant_dimensions":["antennae","wings"],"bee_group":{"antennae":"B","wings":"1","pattern":"X","legs":"X"},"bonus":1.720000000000001},{"rt":13598.400000000373,"stimulus":"bees-with-color/bee-A1SM.svg","response":0,"trial_type":"image-button-response","trial_index":81,"time_elapsed":796691,"internal_node_id":"0.0-4.0-0.35","subject_id":"5c53ef4f26a39500019719b4","study_id":"6197b3f67c2b5cd3b6d9596a","session_id":"619bfbde652574d984a61006","condition":"full-information","relevant_dimensions":["antennae","wings"],"bee_group":{"antennae":"B","wings":"1","pattern":"X","legs":"X"},"action":"harvest","summary":"good-harvest","bonus":1.720000000000001},{"rt":630.6999999992549,"stimulus":"\n                    <p><b>Action: <em>harvest</em></b></p>\n                    <p>This is the bee that you just saw.</p>\n                    <img src=\"bees-with-color/bee-A1SM.svg\" width=\"200\">\n                    <p><span class=\"greenText\"><b>Successful harvest!</b></span><br>Your pay has increased by $0.02. Your bonus pay is now $0.84.</p>\n            ","response":0,"trial_type":"html-button-response","trial_index":82,"time_elapsed":797323,"internal_node_id":"0.0-4.0-1.35","subject_id":"5c53ef4f26a39500019719b4","study_id":"6197b3f67c2b5cd3b6d9596a","session_id":"619bfbde652574d984a61006","condition":"full-information","relevant_dimensions":["antennae","wings"],"bee_group":{"antennae":"B","wings":"1","pattern":"X","legs":"X"},"bonus":1.720000000000001},{"rt":9046.899999999441,"stimulus":"bees-with-color/bee-B1DF.svg","response":1,"trial_type":"image-button-response","trial_index":83,"time_elapsed":806371,"internal_node_id":"0.0-4.0-0.36","subject_id":"5c53ef4f26a39500019719b4","study_id":"6197b3f67c2b5cd3b6d9596a","session_id":"619bfbde652574d984a61006","condition":"full-information","relevant_dimensions":["antennae","wings"],"bee_group":{"antennae":"B","wings":"1","pattern":"X","legs":"X"},"action":"avoid","summary":"good-avoid","bonus":1.720000000000001},{"rt":614.7000000001863,"stimulus":"\n                    <p><b>Action: <em>avoid</em></b></p>\n                    <p>This is the bee that you just saw.</p>\n                    <img src=\"bees-with-color/bee-B1DF.svg\" width=\"200\">\n                    <p><span class=\"greenText\">Good choice!</span>  This bee would have stung you.<br>Your bonus pay is unchanged, and remains at $0.84.</p>\n            ","response":0,"trial_type":"html-button-response","trial_index":84,"time_elapsed":806987,"internal_node_id":"0.0-4.0-1.36","subject_id":"5c53ef4f26a39500019719b4","study_id":"6197b3f67c2b5cd3b6d9596a","session_id":"619bfbde652574d984a61006","condition":"full-information","relevant_dimensions":["antennae","wings"],"bee_group":{"antennae":"B","wings":"1","pattern":"X","legs":"X"},"bonus":1.720000000000001},{"rt":14096.700000000186,"stimulus":"bees-with-color/bee-B2SF.svg","response":0,"trial_type":"image-button-response","trial_index":85,"time_elapsed":821085,"internal_node_id":"0.0-4.0-0.37","subject_id":"5c53ef4f26a39500019719b4","study_id":"6197b3f67c2b5cd3b6d9596a","session_id":"619bfbde652574d984a61006","condition":"full-information","relevant_dimensions":["antennae","wings"],"bee_group":{"antennae":"B","wings":"1","pattern":"X","legs":"X"},"action":"harvest","summary":"good-harvest","bonus":1.720000000000001},{"rt":904.6000000005588,"stimulus":"\n                    <p><b>Action: <em>harvest</em></b></p>\n                    <p>This is the bee that you just saw.</p>\n                    <img src=\"bees-with-color/bee-B2SF.svg\" width=\"200\">\n                    <p><span class=\"greenText\"><b>Successful harvest!</b></span><br>Your pay has increased by $0.02. Your bonus pay is now $0.86.</p>\n            ","response":0,"trial_type":"html-button-response","trial_index":86,"time_elapsed":821991,"internal_node_id":"0.0-4.0-1.37","subject_id":"5c53ef4f26a39500019719b4","study_id":"6197b3f67c2b5cd3b6d9596a","session_id":"619bfbde652574d984a61006","condition":"full-information","relevant_dimensions":["antennae","wings"],"bee_group":{"antennae":"B","wings":"1","pattern":"X","legs":"X"},"bonus":1.720000000000001},{"rt":10596.400000000373,"stimulus":"bees-with-color/bee-A2DM.svg","response":0,"trial_type":"image-button-response","trial_index":87,"time_elapsed":832588,"internal_node_id":"0.0-4.0-0.38","subject_id":"5c53ef4f26a39500019719b4","study_id":"6197b3f67c2b5cd3b6d9596a","session_id":"619bfbde652574d984a61006","condition":"full-information","relevant_dimensions":["antennae","wings"],"bee_group":{"antennae":"B","wings":"1","pattern":"X","legs":"X"},"action":"harvest","summary":"good-harvest","bonus":1.720000000000001},{"rt":682.7999999998137,"stimulus":"\n                    <p><b>Action: <em>harvest</em></b></p>\n                    <p>This is the bee that you just saw.</p>\n                    <img src=\"bees-with-color/bee-A2DM.svg\" width=\"200\">\n                    <p><span class=\"greenText\"><b>Successful harvest!</b></span><br>Your pay has increased by $0.02. Your bonus pay is now $0.88.</p>\n            ","response":0,"trial_type":"html-button-response","trial_index":88,"time_elapsed":833273,"internal_node_id":"0.0-4.0-1.38","subject_id":"5c53ef4f26a39500019719b4","study_id":"6197b3f67c2b5cd3b6d9596a","session_id":"619bfbde652574d984a61006","condition":"full-information","relevant_dimensions":["antennae","wings"],"bee_group":{"antennae":"B","wings":"1","pattern":"X","legs":"X"},"bonus":1.720000000000001},{"rt":6960.600000000559,"stimulus":"bees-with-color/bee-B1DM.svg","response":1,"trial_type":"image-button-response","trial_index":89,"time_elapsed":840235,"internal_node_id":"0.0-4.0-0.39","subject_id":"5c53ef4f26a39500019719b4","study_id":"6197b3f67c2b5cd3b6d9596a","session_id":"619bfbde652574d984a61006","condition":"full-information","relevant_dimensions":["antennae","wings"],"bee_group":{"antennae":"B","wings":"1","pattern":"X","legs":"X"},"action":"avoid","summary":"good-avoid","bonus":1.720000000000001},{"rt":670.5,"stimulus":"\n                    <p><b>Action: <em>avoid</em></b></p>\n                    <p>This is the bee that you just saw.</p>\n                    <img src=\"bees-with-color/bee-B1DM.svg\" width=\"200\">\n                    <p><span class=\"greenText\">Good choice!</span>  This bee would have stung you.<br>Your bonus pay is unchanged, and remains at $0.88.</p>\n            ","response":0,"trial_type":"html-button-response","trial_index":90,"time_elapsed":840907,"internal_node_id":"0.0-4.0-1.39","subject_id":"5c53ef4f26a39500019719b4","study_id":"6197b3f67c2b5cd3b6d9596a","session_id":"619bfbde652574d984a61006","condition":"full-information","relevant_dimensions":["antennae","wings"],"bee_group":{"antennae":"B","wings":"1","pattern":"X","legs":"X"},"bonus":1.720000000000001},{"rt":8880.5,"stimulus":"bees-with-color/bee-A2SM.svg","response":0,"trial_type":"image-button-response","trial_index":91,"time_elapsed":849788,"internal_node_id":"0.0-4.0-0.40","subject_id":"5c53ef4f26a39500019719b4","study_id":"6197b3f67c2b5cd3b6d9596a","session_id":"619bfbde652574d984a61006","condition":"full-information","relevant_dimensions":["antennae","wings"],"bee_group":{"antennae":"B","wings":"1","pattern":"X","legs":"X"},"action":"harvest","summary":"good-harvest","bonus":1.720000000000001},{"rt":756.7000000001863,"stimulus":"\n                    <p><b>Action: <em>harvest</em></b></p>\n                    <p>This is the bee that you just saw.</p>\n                    <img src=\"bees-with-color/bee-A2SM.svg\" width=\"200\">\n                    <p><span class=\"greenText\"><b>Successful harvest!</b></span><br>Your pay has increased by $0.02. Your bonus pay is now $0.90.</p>\n            ","response":0,"trial_type":"html-button-response","trial_index":92,"time_elapsed":850547,"internal_node_id":"0.0-4.0-1.40","subject_id":"5c53ef4f26a39500019719b4","study_id":"6197b3f67c2b5cd3b6d9596a","session_id":"619bfbde652574d984a61006","condition":"full-information","relevant_dimensions":["antennae","wings"],"bee_group":{"antennae":"B","wings":"1","pattern":"X","legs":"X"},"bonus":1.720000000000001},{"rt":9278.600000000559,"stimulus":"bees-with-color/bee-A1DF.svg","response":0,"trial_type":"image-button-response","trial_index":93,"time_elapsed":859827,"internal_node_id":"0.0-4.0-0.41","subject_id":"5c53ef4f26a39500019719b4","study_id":"6197b3f67c2b5cd3b6d9596a","session_id":"619bfbde652574d984a61006","condition":"full-information","relevant_dimensions":["antennae","wings"],"bee_group":{"antennae":"B","wings":"1","pattern":"X","legs":"X"},"action":"harvest","summary":"good-harvest","bonus":1.720000000000001},{"rt":874.7999999998137,"stimulus":"\n                    <p><b>Action: <em>harvest</em></b></p>\n                    <p>This is the bee that you just saw.</p>\n                    <img src=\"bees-with-color/bee-A1DF.svg\" width=\"200\">\n                    <p><span class=\"greenText\"><b>Successful harvest!</b></span><br>Your pay has increased by $0.02. Your bonus pay is now $0.92.</p>\n            ","response":0,"trial_type":"html-button-response","trial_index":94,"time_elapsed":860703,"internal_node_id":"0.0-4.0-1.41","subject_id":"5c53ef4f26a39500019719b4","study_id":"6197b3f67c2b5cd3b6d9596a","session_id":"619bfbde652574d984a61006","condition":"full-information","relevant_dimensions":["antennae","wings"],"bee_group":{"antennae":"B","wings":"1","pattern":"X","legs":"X"},"bonus":1.720000000000001},{"rt":9958.299999999814,"stimulus":"bees-with-color/bee-B1SF.svg","response":1,"trial_type":"image-button-response","trial_index":95,"time_elapsed":870663,"internal_node_id":"0.0-4.0-0.42","subject_id":"5c53ef4f26a39500019719b4","study_id":"6197b3f67c2b5cd3b6d9596a","session_id":"619bfbde652574d984a61006","condition":"full-information","relevant_dimensions":["antennae","wings"],"bee_group":{"antennae":"B","wings":"1","pattern":"X","legs":"X"},"action":"avoid","summary":"good-avoid","bonus":1.720000000000001},{"rt":1186.7999999998137,"stimulus":"\n                    <p><b>Action: <em>avoid</em></b></p>\n                    <p>This is the bee that you just saw.</p>\n                    <img src=\"bees-with-color/bee-B1SF.svg\" width=\"200\">\n                    <p><span class=\"greenText\">Good choice!</span>  This bee would have stung you.<br>Your bonus pay is unchanged, and remains at $0.92.</p>\n            ","response":0,"trial_type":"html-button-response","trial_index":96,"time_elapsed":871851,"internal_node_id":"0.0-4.0-1.42","subject_id":"5c53ef4f26a39500019719b4","study_id":"6197b3f67c2b5cd3b6d9596a","session_id":"619bfbde652574d984a61006","condition":"full-information","relevant_dimensions":["antennae","wings"],"bee_group":{"antennae":"B","wings":"1","pattern":"X","legs":"X"},"bonus":1.720000000000001},{"rt":12442.5,"stimulus":"bees-with-color/bee-B2SM.svg","response":0,"trial_type":"image-button-response","trial_index":97,"time_elapsed":884295,"internal_node_id":"0.0-4.0-0.43","subject_id":"5c53ef4f26a39500019719b4","study_id":"6197b3f67c2b5cd3b6d9596a","session_id":"619bfbde652574d984a61006","condition":"full-information","relevant_dimensions":["antennae","wings"],"bee_group":{"antennae":"B","wings":"1","pattern":"X","legs":"X"},"action":"harvest","summary":"good-harvest","bonus":1.720000000000001},{"rt":668.7000000001863,"stimulus":"\n                    <p><b>Action: <em>harvest</em></b></p>\n                    <p>This is the bee that you just saw.</p>\n                    <img src=\"bees-with-color/bee-B2SM.svg\" width=\"200\">\n                    <p><span class=\"greenText\"><b>Successful harvest!</b></span><br>Your pay has increased by $0.02. Your bonus pay is now $0.94.</p>\n            ","response":0,"trial_type":"html-button-response","trial_index":98,"time_elapsed":884965,"internal_node_id":"0.0-4.0-1.43","subject_id":"5c53ef4f26a39500019719b4","study_id":"6197b3f67c2b5cd3b6d9596a","session_id":"619bfbde652574d984a61006","condition":"full-information","relevant_dimensions":["antennae","wings"],"bee_group":{"antennae":"B","wings":"1","pattern":"X","legs":"X"},"bonus":1.720000000000001},{"rt":10994.600000000559,"stimulus":"bees-with-color/bee-B1SM.svg","response":1,"trial_type":"image-button-response","trial_index":99,"time_elapsed":895961,"internal_node_id":"0.0-4.0-0.44","subject_id":"5c53ef4f26a39500019719b4","study_id":"6197b3f67c2b5cd3b6d9596a","session_id":"619bfbde652574d984a61006","condition":"full-information","relevant_dimensions":["antennae","wings"],"bee_group":{"antennae":"B","wings":"1","pattern":"X","legs":"X"},"action":"avoid","summary":"good-avoid","bonus":1.720000000000001},{"rt":576.5999999996275,"stimulus":"\n                    <p><b>Action: <em>avoid</em></b></p>\n                    <p>This is the bee that you just saw.</p>\n                    <img src=\"bees-with-color/bee-B1SM.svg\" width=\"200\">\n                    <p><span class=\"greenText\">Good choice!</span>  This bee would have stung you.<br>Your bonus pay is unchanged, and remains at $0.94.</p>\n            ","response":0,"trial_type":"html-button-response","trial_index":100,"time_elapsed":896539,"internal_node_id":"0.0-4.0-1.44","subject_id":"5c53ef4f26a39500019719b4","study_id":"6197b3f67c2b5cd3b6d9596a","session_id":"619bfbde652574d984a61006","condition":"full-information","relevant_dimensions":["antennae","wings"],"bee_group":{"antennae":"B","wings":"1","pattern":"X","legs":"X"},"bonus":1.720000000000001},{"rt":8004.5,"stimulus":"bees-with-color/bee-B2DF.svg","response":0,"trial_type":"image-button-response","trial_index":101,"time_elapsed":904545,"internal_node_id":"0.0-4.0-0.45","subject_id":"5c53ef4f26a39500019719b4","study_id":"6197b3f67c2b5cd3b6d9596a","session_id":"619bfbde652574d984a61006","condition":"full-information","relevant_dimensions":["antennae","wings"],"bee_group":{"antennae":"B","wings":"1","pattern":"X","legs":"X"},"action":"harvest","summary":"good-harvest","bonus":1.720000000000001},{"rt":900.7999999998137,"stimulus":"\n                    <p><b>Action: <em>harvest</em></b></p>\n                    <p>This is the bee that you just saw.</p>\n                    <img src=\"bees-with-color/bee-B2DF.svg\" width=\"200\">\n                    <p><span class=\"greenText\"><b>Successful harvest!</b></span><br>Your pay has increased by $0.02. Your bonus pay is now $0.96.</p>\n            ","response":0,"trial_type":"html-button-response","trial_index":102,"time_elapsed":905447,"internal_node_id":"0.0-4.0-1.45","subject_id":"5c53ef4f26a39500019719b4","study_id":"6197b3f67c2b5cd3b6d9596a","session_id":"619bfbde652574d984a61006","condition":"full-information","relevant_dimensions":["antennae","wings"],"bee_group":{"antennae":"B","wings":"1","pattern":"X","legs":"X"},"bonus":1.720000000000001},{"rt":10158.700000000186,"stimulus":"bees-with-color/bee-A1DM.svg","response":0,"trial_type":"image-button-response","trial_index":103,"time_elapsed":915607,"internal_node_id":"0.0-4.0-0.46","subject_id":"5c53ef4f26a39500019719b4","study_id":"6197b3f67c2b5cd3b6d9596a","session_id":"619bfbde652574d984a61006","condition":"full-information","relevant_dimensions":["antennae","wings"],"bee_group":{"antennae":"B","wings":"1","pattern":"X","legs":"X"},"action":"harvest","summary":"good-harvest","bonus":1.720000000000001},{"rt":868.7000000001863,"stimulus":"\n                    <p><b>Action: <em>harvest</em></b></p>\n                    <p>This is the bee that you just saw.</p>\n                    <img src=\"bees-with-color/bee-A1DM.svg\" width=\"200\">\n                    <p><span class=\"greenText\"><b>Successful harvest!</b></span><br>Your pay has increased by $0.02. Your bonus pay is now $0.98.</p>\n            ","response":0,"trial_type":"html-button-response","trial_index":104,"time_elapsed":916477,"internal_node_id":"0.0-4.0-1.46","subject_id":"5c53ef4f26a39500019719b4","study_id":"6197b3f67c2b5cd3b6d9596a","session_id":"619bfbde652574d984a61006","condition":"full-information","relevant_dimensions":["antennae","wings"],"bee_group":{"antennae":"B","wings":"1","pattern":"X","legs":"X"},"bonus":1.720000000000001},{"rt":7524.600000000559,"stimulus":"bees-with-color/bee-A2SF.svg","response":0,"trial_type":"image-button-response","trial_index":105,"time_elapsed":924003,"internal_node_id":"0.0-4.0-0.47","subject_id":"5c53ef4f26a39500019719b4","study_id":"6197b3f67c2b5cd3b6d9596a","session_id":"619bfbde652574d984a61006","condition":"full-information","relevant_dimensions":["antennae","wings"],"bee_group":{"antennae":"B","wings":"1","pattern":"X","legs":"X"},"action":"harvest","summary":"good-harvest","bonus":1.720000000000001},{"rt":672.5,"stimulus":"\n                    <p><b>Action: <em>harvest</em></b></p>\n                    <p>This is the bee that you just saw.</p>\n                    <img src=\"bees-with-color/bee-A2SF.svg\" width=\"200\">\n                    <p><span class=\"greenText\"><b>Successful harvest!</b></span><br>Your pay has increased by $0.02. Your bonus pay is now $1.00.</p>\n            ","response":0,"trial_type":"html-button-response","trial_index":106,"time_elapsed":924677,"internal_node_id":"0.0-4.0-1.47","subject_id":"5c53ef4f26a39500019719b4","study_id":"6197b3f67c2b5cd3b6d9596a","session_id":"619bfbde652574d984a61006","condition":"full-information","relevant_dimensions":["antennae","wings"],"bee_group":{"antennae":"B","wings":"1","pattern":"X","legs":"X"},"bonus":1.720000000000001},{"rt":5462.600000000559,"stimulus":"bees-with-color/bee-B1DF.svg","response":1,"trial_type":"image-button-response","trial_index":107,"time_elapsed":930141,"internal_node_id":"0.0-4.0-0.48","subject_id":"5c53ef4f26a39500019719b4","study_id":"6197b3f67c2b5cd3b6d9596a","session_id":"619bfbde652574d984a61006","condition":"full-information","relevant_dimensions":["antennae","wings"],"bee_group":{"antennae":"B","wings":"1","pattern":"X","legs":"X"},"action":"avoid","summary":"good-avoid","bonus":1.720000000000001},{"rt":862.7000000001863,"stimulus":"\n                    <p><b>Action: <em>avoid</em></b></p>\n                    <p>This is the bee that you just saw.</p>\n                    <img src=\"bees-with-color/bee-B1DF.svg\" width=\"200\">\n                    <p><span class=\"greenText\">Good choice!</span>  This bee would have stung you.<br>Your bonus pay is unchanged, and remains at $1.00.</p>\n            ","response":0,"trial_type":"html-button-response","trial_index":108,"time_elapsed":931005,"internal_node_id":"0.0-4.0-1.48","subject_id":"5c53ef4f26a39500019719b4","study_id":"6197b3f67c2b5cd3b6d9596a","session_id":"619bfbde652574d984a61006","condition":"full-information","relevant_dimensions":["antennae","wings"],"bee_group":{"antennae":"B","wings":"1","pattern":"X","legs":"X"},"bonus":1.720000000000001},{"rt":6674.5,"stimulus":"bees-with-color/bee-A1DF.svg","response":0,"trial_type":"image-button-response","trial_index":109,"time_elapsed":937681,"internal_node_id":"0.0-4.0-0.49","subject_id":"5c53ef4f26a39500019719b4","study_id":"6197b3f67c2b5cd3b6d9596a","session_id":"619bfbde652574d984a61006","condition":"full-information","relevant_dimensions":["antennae","wings"],"bee_group":{"antennae":"B","wings":"1","pattern":"X","legs":"X"},"action":"harvest","summary":"good-harvest","bonus":1.720000000000001},{"rt":730.8999999994412,"stimulus":"\n                    <p><b>Action: <em>harvest</em></b></p>\n                    <p>This is the bee that you just saw.</p>\n                    <img src=\"bees-with-color/bee-A1DF.svg\" width=\"200\">\n                    <p><span class=\"greenText\"><b>Successful harvest!</b></span><br>Your pay has increased by $0.02. Your bonus pay is now $1.02.</p>\n            ","response":0,"trial_type":"html-button-response","trial_index":110,"time_elapsed":938413,"internal_node_id":"0.0-4.0-1.49","subject_id":"5c53ef4f26a39500019719b4","study_id":"6197b3f67c2b5cd3b6d9596a","session_id":"619bfbde652574d984a61006","condition":"full-information","relevant_dimensions":["antennae","wings"],"bee_group":{"antennae":"B","wings":"1","pattern":"X","legs":"X"},"bonus":1.720000000000001},{"rt":9542.5,"stimulus":"bees-with-color/bee-B2DF.svg","response":0,"trial_type":"image-button-response","trial_index":111,"time_elapsed":947957,"internal_node_id":"0.0-4.0-0.50","subject_id":"5c53ef4f26a39500019719b4","study_id":"6197b3f67c2b5cd3b6d9596a","session_id":"619bfbde652574d984a61006","condition":"full-information","relevant_dimensions":["antennae","wings"],"bee_group":{"antennae":"B","wings":"1","pattern":"X","legs":"X"},"action":"harvest","summary":"good-harvest","bonus":1.720000000000001},{"rt":590.5,"stimulus":"\n                    <p><b>Action: <em>harvest</em></b></p>\n                    <p>This is the bee that you just saw.</p>\n                    <img src=\"bees-with-color/bee-B2DF.svg\" width=\"200\">\n                    <p><span class=\"greenText\"><b>Successful harvest!</b></span><br>Your pay has increased by $0.02. Your bonus pay is now $1.04.</p>\n            ","response":0,"trial_type":"html-button-response","trial_index":112,"time_elapsed":948549,"internal_node_id":"0.0-4.0-1.50","subject_id":"5c53ef4f26a39500019719b4","study_id":"6197b3f67c2b5cd3b6d9596a","session_id":"619bfbde652574d984a61006","condition":"full-information","relevant_dimensions":["antennae","wings"],"bee_group":{"antennae":"B","wings":"1","pattern":"X","legs":"X"},"bonus":1.720000000000001},{"rt":6702.600000000559,"stimulus":"bees-with-color/bee-B2DM.svg","response":0,"trial_type":"image-button-response","trial_index":113,"time_elapsed":955253,"internal_node_id":"0.0-4.0-0.51","subject_id":"5c53ef4f26a39500019719b4","study_id":"6197b3f67c2b5cd3b6d9596a","session_id":"619bfbde652574d984a61006","condition":"full-information","relevant_dimensions":["antennae","wings"],"bee_group":{"antennae":"B","wings":"1","pattern":"X","legs":"X"},"action":"harvest","summary":"good-harvest","bonus":1.720000000000001},{"rt":820.7999999998137,"stimulus":"\n                    <p><b>Action: <em>harvest</em></b></p>\n                    <p>This is the bee that you just saw.</p>\n                    <img src=\"bees-with-color/bee-B2DM.svg\" width=\"200\">\n                    <p><span class=\"greenText\"><b>Successful harvest!</b></span><br>Your pay has increased by $0.02. Your bonus pay is now $1.06.</p>\n            ","response":0,"trial_type":"html-button-response","trial_index":114,"time_elapsed":956075,"internal_node_id":"0.0-4.0-1.51","subject_id":"5c53ef4f26a39500019719b4","study_id":"6197b3f67c2b5cd3b6d9596a","session_id":"619bfbde652574d984a61006","condition":"full-information","relevant_dimensions":["antennae","wings"],"bee_group":{"antennae":"B","wings":"1","pattern":"X","legs":"X"},"bonus":1.720000000000001},{"rt":5692.600000000559,"stimulus":"bees-with-color/bee-B1SM.svg","response":1,"trial_type":"image-button-response","trial_index":115,"time_elapsed":961769,"internal_node_id":"0.0-4.0-0.52","subject_id":"5c53ef4f26a39500019719b4","study_id":"6197b3f67c2b5cd3b6d9596a","session_id":"619bfbde652574d984a61006","condition":"full-information","relevant_dimensions":["antennae","wings"],"bee_group":{"antennae":"B","wings":"1","pattern":"X","legs":"X"},"action":"avoid","summary":"good-avoid","bonus":1.720000000000001},{"rt":1168.7000000001863,"stimulus":"\n                    <p><b>Action: <em>avoid</em></b></p>\n                    <p>This is the bee that you just saw.</p>\n                    <img src=\"bees-with-color/bee-B1SM.svg\" width=\"200\">\n                    <p><span class=\"greenText\">Good choice!</span>  This bee would have stung you.<br>Your bonus pay is unchanged, and remains at $1.06.</p>\n            ","response":0,"trial_type":"html-button-response","trial_index":116,"time_elapsed":962939,"internal_node_id":"0.0-4.0-1.52","subject_id":"5c53ef4f26a39500019719b4","study_id":"6197b3f67c2b5cd3b6d9596a","session_id":"619bfbde652574d984a61006","condition":"full-information","relevant_dimensions":["antennae","wings"],"bee_group":{"antennae":"B","wings":"1","pattern":"X","legs":"X"},"bonus":1.720000000000001},{"rt":11592.5,"stimulus":"bees-with-color/bee-A2DM.svg","response":0,"trial_type":"image-button-response","trial_index":117,"time_elapsed":974533,"internal_node_id":"0.0-4.0-0.53","subject_id":"5c53ef4f26a39500019719b4","study_id":"6197b3f67c2b5cd3b6d9596a","session_id":"619bfbde652574d984a61006","condition":"full-information","relevant_dimensions":["antennae","wings"],"bee_group":{"antennae":"B","wings":"1","pattern":"X","legs":"X"},"action":"harvest","summary":"good-harvest","bonus":1.720000000000001},{"rt":666.7999999998137,"stimulus":"\n                    <p><b>Action: <em>harvest</em></b></p>\n                    <p>This is the bee that you just saw.</p>\n                    <img src=\"bees-with-color/bee-A2DM.svg\" width=\"200\">\n                    <p><span class=\"greenText\"><b>Successful harvest!</b></span><br>Your pay has increased by $0.02. Your bonus pay is now $1.08.</p>\n            ","response":0,"trial_type":"html-button-response","trial_index":118,"time_elapsed":975201,"internal_node_id":"0.0-4.0-1.53","subject_id":"5c53ef4f26a39500019719b4","study_id":"6197b3f67c2b5cd3b6d9596a","session_id":"619bfbde652574d984a61006","condition":"full-information","relevant_dimensions":["antennae","wings"],"bee_group":{"antennae":"B","wings":"1","pattern":"X","legs":"X"},"bonus":1.720000000000001},{"rt":17860.60000000056,"stimulus":"bees-with-color/bee-A2SM.svg","response":0,"trial_type":"image-button-response","trial_index":119,"time_elapsed":993063,"internal_node_id":"0.0-4.0-0.54","subject_id":"5c53ef4f26a39500019719b4","study_id":"6197b3f67c2b5cd3b6d9596a","session_id":"619bfbde652574d984a61006","condition":"full-information","relevant_dimensions":["antennae","wings"],"bee_group":{"antennae":"B","wings":"1","pattern":"X","legs":"X"},"action":"harvest","summary":"good-harvest","bonus":1.720000000000001},{"rt":666.5,"stimulus":"\n                    <p><b>Action: <em>harvest</em></b></p>\n                    <p>This is the bee that you just saw.</p>\n                    <img src=\"bees-with-color/bee-A2SM.svg\" width=\"200\">\n                    <p><span class=\"greenText\"><b>Successful harvest!</b></span><br>Your pay has increased by $0.02. Your bonus pay is now $1.10.</p>\n            ","response":0,"trial_type":"html-button-response","trial_index":120,"time_elapsed":993731,"internal_node_id":"0.0-4.0-1.54","subject_id":"5c53ef4f26a39500019719b4","study_id":"6197b3f67c2b5cd3b6d9596a","session_id":"619bfbde652574d984a61006","condition":"full-information","relevant_dimensions":["antennae","wings"],"bee_group":{"antennae":"B","wings":"1","pattern":"X","legs":"X"},"bonus":1.720000000000001},{"rt":8214.5,"stimulus":"bees-with-color/bee-A1SM.svg","response":0,"trial_type":"image-button-response","trial_index":121,"time_elapsed":1001947,"internal_node_id":"0.0-4.0-0.55","subject_id":"5c53ef4f26a39500019719b4","study_id":"6197b3f67c2b5cd3b6d9596a","session_id":"619bfbde652574d984a61006","condition":"full-information","relevant_dimensions":["antennae","wings"],"bee_group":{"antennae":"B","wings":"1","pattern":"X","legs":"X"},"action":"harvest","summary":"good-harvest","bonus":1.720000000000001},{"rt":776.7999999998137,"stimulus":"\n                    <p><b>Action: <em>harvest</em></b></p>\n                    <p>This is the bee that you just saw.</p>\n                    <img src=\"bees-with-color/bee-A1SM.svg\" width=\"200\">\n                    <p><span class=\"greenText\"><b>Successful harvest!</b></span><br>Your pay has increased by $0.02. Your bonus pay is now $1.12.</p>\n            ","response":0,"trial_type":"html-button-response","trial_index":122,"time_elapsed":1002725,"internal_node_id":"0.0-4.0-1.55","subject_id":"5c53ef4f26a39500019719b4","study_id":"6197b3f67c2b5cd3b6d9596a","session_id":"619bfbde652574d984a61006","condition":"full-information","relevant_dimensions":["antennae","wings"],"bee_group":{"antennae":"B","wings":"1","pattern":"X","legs":"X"},"bonus":1.720000000000001},{"rt":9192.600000000559,"stimulus":"bees-with-color/bee-A2DF.svg","response":0,"trial_type":"image-button-response","trial_index":123,"time_elapsed":1011919,"internal_node_id":"0.0-4.0-0.56","subject_id":"5c53ef4f26a39500019719b4","study_id":"6197b3f67c2b5cd3b6d9596a","session_id":"619bfbde652574d984a61006","condition":"full-information","relevant_dimensions":["antennae","wings"],"bee_group":{"antennae":"B","wings":"1","pattern":"X","legs":"X"},"action":"harvest","summary":"good-harvest","bonus":1.720000000000001},{"rt":998.5999999996275,"stimulus":"\n                    <p><b>Action: <em>harvest</em></b></p>\n                    <p>This is the bee that you just saw.</p>\n                    <img src=\"bees-with-color/bee-A2DF.svg\" width=\"200\">\n                    <p><span class=\"greenText\"><b>Successful harvest!</b></span><br>Your pay has increased by $0.02. Your bonus pay is now $1.14.</p>\n            ","response":0,"trial_type":"html-button-response","trial_index":124,"time_elapsed":1012919,"internal_node_id":"0.0-4.0-1.56","subject_id":"5c53ef4f26a39500019719b4","study_id":"6197b3f67c2b5cd3b6d9596a","session_id":"619bfbde652574d984a61006","condition":"full-information","relevant_dimensions":["antennae","wings"],"bee_group":{"antennae":"B","wings":"1","pattern":"X","legs":"X"},"bonus":1.720000000000001},{"rt":5744.399999999441,"stimulus":"bees-with-color/bee-A1SF.svg","response":0,"trial_type":"image-button-response","trial_index":125,"time_elapsed":1018665,"internal_node_id":"0.0-4.0-0.57","subject_id":"5c53ef4f26a39500019719b4","study_id":"6197b3f67c2b5cd3b6d9596a","session_id":"619bfbde652574d984a61006","condition":"full-information","relevant_dimensions":["antennae","wings"],"bee_group":{"antennae":"B","wings":"1","pattern":"X","legs":"X"},"action":"harvest","summary":"good-harvest","bonus":1.720000000000001},{"rt":792.6000000005588,"stimulus":"\n                    <p><b>Action: <em>harvest</em></b></p>\n                    <p>This is the bee that you just saw.</p>\n                    <img src=\"bees-with-color/bee-A1SF.svg\" width=\"200\">\n                    <p><span class=\"greenText\"><b>Successful harvest!</b></span><br>Your pay has increased by $0.02. Your bonus pay is now $1.16.</p>\n            ","response":0,"trial_type":"html-button-response","trial_index":126,"time_elapsed":1019459,"internal_node_id":"0.0-4.0-1.57","subject_id":"5c53ef4f26a39500019719b4","study_id":"6197b3f67c2b5cd3b6d9596a","session_id":"619bfbde652574d984a61006","condition":"full-information","relevant_dimensions":["antennae","wings"],"bee_group":{"antennae":"B","wings":"1","pattern":"X","legs":"X"},"bonus":1.720000000000001},{"rt":9288.400000000373,"stimulus":"bees-with-color/bee-A1DM.svg","response":0,"trial_type":"image-button-response","trial_index":127,"time_elapsed":1028749,"internal_node_id":"0.0-4.0-0.58","subject_id":"5c53ef4f26a39500019719b4","study_id":"6197b3f67c2b5cd3b6d9596a","session_id":"619bfbde652574d984a61006","condition":"full-information","relevant_dimensions":["antennae","wings"],"bee_group":{"antennae":"B","wings":"1","pattern":"X","legs":"X"},"action":"harvest","summary":"good-harvest","bonus":1.720000000000001},{"rt":1220.699999999255,"stimulus":"\n                    <p><b>Action: <em>harvest</em></b></p>\n                    <p>This is the bee that you just saw.</p>\n                    <img src=\"bees-with-color/bee-A1DM.svg\" width=\"200\">\n                    <p><span class=\"greenText\"><b>Successful harvest!</b></span><br>Your pay has increased by $0.02. Your bonus pay is now $1.18.</p>\n            ","response":0,"trial_type":"html-button-response","trial_index":128,"time_elapsed":1029971,"internal_node_id":"0.0-4.0-1.58","subject_id":"5c53ef4f26a39500019719b4","study_id":"6197b3f67c2b5cd3b6d9596a","session_id":"619bfbde652574d984a61006","condition":"full-information","relevant_dimensions":["antennae","wings"],"bee_group":{"antennae":"B","wings":"1","pattern":"X","legs":"X"},"bonus":1.720000000000001},{"rt":6518.5,"stimulus":"bees-with-color/bee-B1DM.svg","response":1,"trial_type":"image-button-response","trial_index":129,"time_elapsed":1036491,"internal_node_id":"0.0-4.0-0.59","subject_id":"5c53ef4f26a39500019719b4","study_id":"6197b3f67c2b5cd3b6d9596a","session_id":"619bfbde652574d984a61006","condition":"full-information","relevant_dimensions":["antennae","wings"],"bee_group":{"antennae":"B","wings":"1","pattern":"X","legs":"X"},"action":"avoid","summary":"good-avoid","bonus":1.720000000000001},{"rt":752.5999999996275,"stimulus":"\n                    <p><b>Action: <em>avoid</em></b></p>\n                    <p>This is the bee that you just saw.</p>\n                    <img src=\"bees-with-color/bee-B1DM.svg\" width=\"200\">\n                    <p><span class=\"greenText\">Good choice!</span>  This bee would have stung you.<br>Your bonus pay is unchanged, and remains at $1.18.</p>\n            ","response":0,"trial_type":"html-button-response","trial_index":130,"time_elapsed":1037245,"internal_node_id":"0.0-4.0-1.59","subject_id":"5c53ef4f26a39500019719b4","study_id":"6197b3f67c2b5cd3b6d9596a","session_id":"619bfbde652574d984a61006","condition":"full-information","relevant_dimensions":["antennae","wings"],"bee_group":{"antennae":"B","wings":"1","pattern":"X","legs":"X"},"bonus":1.720000000000001},{"rt":5272.5,"stimulus":"bees-with-color/bee-B1SF.svg","response":1,"trial_type":"image-button-response","trial_index":131,"time_elapsed":1042519,"internal_node_id":"0.0-4.0-0.60","subject_id":"5c53ef4f26a39500019719b4","study_id":"6197b3f67c2b5cd3b6d9596a","session_id":"619bfbde652574d984a61006","condition":"full-information","relevant_dimensions":["antennae","wings"],"bee_group":{"antennae":"B","wings":"1","pattern":"X","legs":"X"},"action":"avoid","summary":"good-avoid","bonus":1.720000000000001},{"rt":658.7999999998137,"stimulus":"\n                    <p><b>Action: <em>avoid</em></b></p>\n                    <p>This is the bee that you just saw.</p>\n                    <img src=\"bees-with-color/bee-B1SF.svg\" width=\"200\">\n                    <p><span class=\"greenText\">Good choice!</span>  This bee would have stung you.<br>Your bonus pay is unchanged, and remains at $1.18.</p>\n            ","response":0,"trial_type":"html-button-response","trial_index":132,"time_elapsed":1043179,"internal_node_id":"0.0-4.0-1.60","subject_id":"5c53ef4f26a39500019719b4","study_id":"6197b3f67c2b5cd3b6d9596a","session_id":"619bfbde652574d984a61006","condition":"full-information","relevant_dimensions":["antennae","wings"],"bee_group":{"antennae":"B","wings":"1","pattern":"X","legs":"X"},"bonus":1.720000000000001},{"rt":17678.599999999627,"stimulus":"bees-with-color/bee-B2SF.svg","response":0,"trial_type":"image-button-response","trial_index":133,"time_elapsed":1060859,"internal_node_id":"0.0-4.0-0.61","subject_id":"5c53ef4f26a39500019719b4","study_id":"6197b3f67c2b5cd3b6d9596a","session_id":"619bfbde652574d984a61006","condition":"full-information","relevant_dimensions":["antennae","wings"],"bee_group":{"antennae":"B","wings":"1","pattern":"X","legs":"X"},"action":"harvest","summary":"good-harvest","bonus":1.720000000000001},{"rt":1168.7999999998137,"stimulus":"\n                    <p><b>Action: <em>harvest</em></b></p>\n                    <p>This is the bee that you just saw.</p>\n                    <img src=\"bees-with-color/bee-B2SF.svg\" width=\"200\">\n                    <p><span class=\"greenText\"><b>Successful harvest!</b></span><br>Your pay has increased by $0.02. Your bonus pay is now $1.20.</p>\n            ","response":0,"trial_type":"html-button-response","trial_index":134,"time_elapsed":1062029,"internal_node_id":"0.0-4.0-1.61","subject_id":"5c53ef4f26a39500019719b4","study_id":"6197b3f67c2b5cd3b6d9596a","session_id":"619bfbde652574d984a61006","condition":"full-information","relevant_dimensions":["antennae","wings"],"bee_group":{"antennae":"B","wings":"1","pattern":"X","legs":"X"},"bonus":1.720000000000001},{"rt":5928.5,"stimulus":"bees-with-color/bee-B2SM.svg","response":0,"trial_type":"image-button-response","trial_index":135,"time_elapsed":1067959,"internal_node_id":"0.0-4.0-0.62","subject_id":"5c53ef4f26a39500019719b4","study_id":"6197b3f67c2b5cd3b6d9596a","session_id":"619bfbde652574d984a61006","condition":"full-information","relevant_dimensions":["antennae","wings"],"bee_group":{"antennae":"B","wings":"1","pattern":"X","legs":"X"},"action":"harvest","summary":"good-harvest","bonus":1.720000000000001},{"rt":728.5,"stimulus":"\n                    <p><b>Action: <em>harvest</em></b></p>\n                    <p>This is the bee that you just saw.</p>\n                    <img src=\"bees-with-color/bee-B2SM.svg\" width=\"200\">\n                    <p><span class=\"greenText\"><b>Successful harvest!</b></span><br>Your pay has increased by $0.02. Your bonus pay is now $1.22.</p>\n            ","response":0,"trial_type":"html-button-response","trial_index":136,"time_elapsed":1068689,"internal_node_id":"0.0-4.0-1.62","subject_id":"5c53ef4f26a39500019719b4","study_id":"6197b3f67c2b5cd3b6d9596a","session_id":"619bfbde652574d984a61006","condition":"full-information","relevant_dimensions":["antennae","wings"],"bee_group":{"antennae":"B","wings":"1","pattern":"X","legs":"X"},"bonus":1.720000000000001},{"rt":9856.399999999441,"stimulus":"bees-with-color/bee-A2SF.svg","response":0,"trial_type":"image-button-response","trial_index":137,"time_elapsed":1078547,"internal_node_id":"0.0-4.0-0.63","subject_id":"5c53ef4f26a39500019719b4","study_id":"6197b3f67c2b5cd3b6d9596a","session_id":"619bfbde652574d984a61006","condition":"full-information","relevant_dimensions":["antennae","wings"],"bee_group":{"antennae":"B","wings":"1","pattern":"X","legs":"X"},"action":"harvest","summary":"good-harvest","bonus":1.720000000000001},{"rt":546.6999999992549,"stimulus":"\n                    <p><b>Action: <em>harvest</em></b></p>\n                    <p>This is the bee that you just saw.</p>\n                    <img src=\"bees-with-color/bee-A2SF.svg\" width=\"200\">\n                    <p><span class=\"greenText\"><b>Successful harvest!</b></span><br>Your pay has increased by $0.02. Your bonus pay is now $1.24.</p>\n            ","response":0,"trial_type":"html-button-response","trial_index":138,"time_elapsed":1079095,"internal_node_id":"0.0-4.0-1.63","subject_id":"5c53ef4f26a39500019719b4","study_id":"6197b3f67c2b5cd3b6d9596a","session_id":"619bfbde652574d984a61006","condition":"full-information","relevant_dimensions":["antennae","wings"],"bee_group":{"antennae":"B","wings":"1","pattern":"X","legs":"X"},"bonus":1.720000000000001},{"rt":4175.399999999441,"stimulus":"You have completed the first part of this experiment.<br><br>You will now begin a shorter second part, in which you will receive no feedback.<br>The same rules regarding bonus pay apply.<br><br>Press any key to begin.","response":"enter","trial_type":"html-keyboard-response","trial_index":139,"time_elapsed":1083271,"internal_node_id":"0.0-5.0","subject_id":"5c53ef4f26a39500019719b4","study_id":"6197b3f67c2b5cd3b6d9596a","session_id":"619bfbde652574d984a61006","condition":"full-information","relevant_dimensions":["antennae","wings"],"bee_group":{"antennae":"B","wings":"1","pattern":"X","legs":"X"},"bonus":1.720000000000001},{"rt":13669.399999999441,"stimulus":"bees-with-color/bee-B2DF.svg","response":0,"trial_type":"image-button-response","trial_index":140,"time_elapsed":1096945,"internal_node_id":"0.0-6.0-0.0","subject_id":"5c53ef4f26a39500019719b4","study_id":"6197b3f67c2b5cd3b6d9596a","session_id":"619bfbde652574d984a61006","condition":"full-information","relevant_dimensions":["antennae","wings"],"bee_group":{"antennae":"B","wings":"1","pattern":"X","legs":"X"},"bonus":1.720000000000001},{"rt":12324,"stimulus":"bees-with-color/bee-A1DF.svg","response":0,"trial_type":"image-button-response","trial_index":141,"time_elapsed":1109271,"internal_node_id":"0.0-6.0-0.1","subject_id":"5c53ef4f26a39500019719b4","study_id":"6197b3f67c2b5cd3b6d9596a","session_id":"619bfbde652574d984a61006","condition":"full-information","relevant_dimensions":["antennae","wings"],"bee_group":{"antennae":"B","wings":"1","pattern":"X","legs":"X"},"bonus":1.720000000000001},{"rt":10291.900000000373,"stimulus":"bees-with-color/bee-B1SM.svg","response":1,"trial_type":"image-button-response","trial_index":142,"time_elapsed":1119564,"internal_node_id":"0.0-6.0-0.2","subject_id":"5c53ef4f26a39500019719b4","study_id":"6197b3f67c2b5cd3b6d9596a","session_id":"619bfbde652574d984a61006","condition":"full-information","relevant_dimensions":["antennae","wings"],"bee_group":{"antennae":"B","wings":"1","pattern":"X","legs":"X"},"bonus":1.720000000000001},{"rt":8960,"stimulus":"bees-with-color/bee-A2DF.svg","response":0,"trial_type":"image-button-response","trial_index":143,"time_elapsed":1128526,"internal_node_id":"0.0-6.0-0.3","subject_id":"5c53ef4f26a39500019719b4","study_id":"6197b3f67c2b5cd3b6d9596a","session_id":"619bfbde652574d984a61006","condition":"full-information","relevant_dimensions":["antennae","wings"],"bee_group":{"antennae":"B","wings":"1","pattern":"X","legs":"X"},"bonus":1.720000000000001},{"rt":14187.799999999814,"stimulus":"bees-with-color/bee-A2SM.svg","response":0,"trial_type":"image-button-response","trial_index":144,"time_elapsed":1142716,"internal_node_id":"0.0-6.0-0.4","subject_id":"5c53ef4f26a39500019719b4","study_id":"6197b3f67c2b5cd3b6d9596a","session_id":"619bfbde652574d984a61006","condition":"full-information","relevant_dimensions":["antennae","wings"],"bee_group":{"antennae":"B","wings":"1","pattern":"X","legs":"X"},"bonus":1.720000000000001},{"rt":12402,"stimulus":"bees-with-color/bee-A1SF.svg","response":0,"trial_type":"image-button-response","trial_index":145,"time_elapsed":1155120,"internal_node_id":"0.0-6.0-0.5","subject_id":"5c53ef4f26a39500019719b4","study_id":"6197b3f67c2b5cd3b6d9596a","session_id":"619bfbde652574d984a61006","condition":"full-information","relevant_dimensions":["antennae","wings"],"bee_group":{"antennae":"B","wings":"1","pattern":"X","legs":"X"},"bonus":1.720000000000001},{"rt":9375.900000000373,"stimulus":"bees-with-color/bee-B1DF.svg","response":1,"trial_type":"image-button-response","trial_index":146,"time_elapsed":1164498,"internal_node_id":"0.0-6.0-0.6","subject_id":"5c53ef4f26a39500019719b4","study_id":"6197b3f67c2b5cd3b6d9596a","session_id":"619bfbde652574d984a61006","condition":"full-information","relevant_dimensions":["antennae","wings"],"bee_group":{"antennae":"B","wings":"1","pattern":"X","legs":"X"},"bonus":1.720000000000001},{"rt":8082,"stimulus":"bees-with-color/bee-A2DM.svg","response":0,"trial_type":"image-button-response","trial_index":147,"time_elapsed":1172582,"internal_node_id":"0.0-6.0-0.7","subject_id":"5c53ef4f26a39500019719b4","study_id":"6197b3f67c2b5cd3b6d9596a","session_id":"619bfbde652574d984a61006","condition":"full-information","relevant_dimensions":["antennae","wings"],"bee_group":{"antennae":"B","wings":"1","pattern":"X","legs":"X"},"bonus":1.720000000000001},{"rt":6154.100000000559,"stimulus":"bees-with-color/bee-A1SM.svg","response":0,"trial_type":"image-button-response","trial_index":148,"time_elapsed":1178739,"internal_node_id":"0.0-6.0-0.8","subject_id":"5c53ef4f26a39500019719b4","study_id":"6197b3f67c2b5cd3b6d9596a","session_id":"619bfbde652574d984a61006","condition":"full-information","relevant_dimensions":["antennae","wings"],"bee_group":{"antennae":"B","wings":"1","pattern":"X","legs":"X"},"bonus":1.720000000000001},{"rt":9489.899999999441,"stimulus":"bees-with-color/bee-B1SF.svg","response":1,"trial_type":"image-button-response","trial_index":149,"time_elapsed":1188231,"internal_node_id":"0.0-6.0-0.9","subject_id":"5c53ef4f26a39500019719b4","study_id":"6197b3f67c2b5cd3b6d9596a","session_id":"619bfbde652574d984a61006","condition":"full-information","relevant_dimensions":["antennae","wings"],"bee_group":{"antennae":"B","wings":"1","pattern":"X","legs":"X"},"bonus":1.720000000000001},{"rt":8819.899999999441,"stimulus":"bees-with-color/bee-B1DM.svg","response":1,"trial_type":"image-button-response","trial_index":150,"time_elapsed":1197053,"internal_node_id":"0.0-6.0-0.10","subject_id":"5c53ef4f26a39500019719b4","study_id":"6197b3f67c2b5cd3b6d9596a","session_id":"619bfbde652574d984a61006","condition":"full-information","relevant_dimensions":["antennae","wings"],"bee_group":{"antennae":"B","wings":"1","pattern":"X","legs":"X"},"bonus":1.720000000000001},{"rt":4729.899999999441,"stimulus":"bees-with-color/bee-B2DM.svg","response":0,"trial_type":"image-button-response","trial_index":151,"time_elapsed":1201785,"internal_node_id":"0.0-6.0-0.11","subject_id":"5c53ef4f26a39500019719b4","study_id":"6197b3f67c2b5cd3b6d9596a","session_id":"619bfbde652574d984a61006","condition":"full-information","relevant_dimensions":["antennae","wings"],"bee_group":{"antennae":"B","wings":"1","pattern":"X","legs":"X"},"bonus":1.720000000000001},{"rt":7838.0999999996275,"stimulus":"bees-with-color/bee-A2SF.svg","response":0,"trial_type":"image-button-response","trial_index":152,"time_elapsed":1209625,"internal_node_id":"0.0-6.0-0.12","subject_id":"5c53ef4f26a39500019719b4","study_id":"6197b3f67c2b5cd3b6d9596a","session_id":"619bfbde652574d984a61006","condition":"full-information","relevant_dimensions":["antennae","wings"],"bee_group":{"antennae":"B","wings":"1","pattern":"X","legs":"X"},"bonus":1.720000000000001},{"rt":8358,"stimulus":"bees-with-color/bee-B2SM.svg","response":0,"trial_type":"image-button-response","trial_index":153,"time_elapsed":1217985,"internal_node_id":"0.0-6.0-0.13","subject_id":"5c53ef4f26a39500019719b4","study_id":"6197b3f67c2b5cd3b6d9596a","session_id":"619bfbde652574d984a61006","condition":"full-information","relevant_dimensions":["antennae","wings"],"bee_group":{"antennae":"B","wings":"1","pattern":"X","legs":"X"},"bonus":1.720000000000001},{"rt":5119.799999999814,"stimulus":"bees-with-color/bee-B2SF.svg","response":0,"trial_type":"image-button-response","trial_index":154,"time_elapsed":1223107,"internal_node_id":"0.0-6.0-0.14","subject_id":"5c53ef4f26a39500019719b4","study_id":"6197b3f67c2b5cd3b6d9596a","session_id":"619bfbde652574d984a61006","condition":"full-information","relevant_dimensions":["antennae","wings"],"bee_group":{"antennae":"B","wings":"1","pattern":"X","legs":"X"},"bonus":1.720000000000001},{"rt":9782,"stimulus":"bees-with-color/bee-A1DM.svg","response":0,"trial_type":"image-button-response","trial_index":155,"time_elapsed":1232891,"internal_node_id":"0.0-6.0-0.15","subject_id":"5c53ef4f26a39500019719b4","study_id":"6197b3f67c2b5cd3b6d9596a","session_id":"619bfbde652574d984a61006","condition":"full-information","relevant_dimensions":["antennae","wings"],"bee_group":{"antennae":"B","wings":"1","pattern":"X","legs":"X"},"bonus":1.720000000000001},{"rt":