[{"success":true,"trial_type":"fullscreen","trial_index":0,"time_elapsed":19939,"internal_node_id":"0.0-0.0","subject_id":"5ef5f63c7aa58727ac4f8588","study_id":"6197b3f67c2b5cd3b6d9596a","session_id":"619beef1c0aee2f9df46b1a1","condition":"contingent","relevant_dimensions":["antennae","legs"],"bee_group":{"antennae":"A","wings":"X","pattern":"X","legs":"M"},"bonus":1.5800000000000014},{"success":true,"timeout":false,"failed_images":[],"failed_audio":[],"failed_video":[],"trial_type":"preload","trial_index":1,"time_elapsed":22336,"internal_node_id":"0.0-1.0","subject_id":"5ef5f63c7aa58727ac4f8588","study_id":"6197b3f67c2b5cd3b6d9596a","session_id":"619beef1c0aee2f9df46b1a1","condition":"contingent","relevant_dimensions":["antennae","legs"],"bee_group":{"antennae":"A","wings":"X","pattern":"X","legs":"M"},"bonus":1.5800000000000014},{"rt":1646.8000000715256,"stimulus":"Welcome! Press any key to begin.","response":"j","trial_type":"html-keyboard-response","trial_index":2,"time_elapsed":23985,"internal_node_id":"0.0-2.0","subject_id":"5ef5f63c7aa58727ac4f8588","study_id":"6197b3f67c2b5cd3b6d9596a","session_id":"619beef1c0aee2f9df46b1a1","condition":"contingent","relevant_dimensions":["antennae","legs"],"bee_group":{"antennae":"A","wings":"X","pattern":"X","legs":"M"},"bonus":1.5800000000000014},{"view_history":[{"page_index":0,"viewing_time":4942.900000095367},{"page_index":1,"viewing_time":21240.099999904633},{"page_index":2,"viewing_time":13447.800000071526},{"page_index":3,"viewing_time":13367.699999928474},{"page_index":4,"viewing_time":6904.200000047684},{"page_index":5,"viewing_time":7079.899999976158},{"page_index":6,"viewing_time":2936.3000000715256},{"page_index":5,"viewing_time":12248},{"page_index":6,"viewing_time":31928},{"page_index":7,"viewing_time":8463.599999904633},{"page_index":8,"viewing_time":4456.300000071526},{"page_index":9,"viewing_time":5151.799999952316},{"page_index":10,"viewing_time":3808.2000000476837},{"page_index":11,"viewing_time":11479.899999976158},{"page_index":12,"viewing_time":7840.100000023842},{"page_index":13,"viewing_time":102799.89999997616},{"page_index":14,"viewing_time":2263.899999976158}],"rt":260358.80000007153,"trial_type":"instructions","trial_index":3,"time_elapsed":284344,"internal_node_id":"0.0-3.0-0.0","subject_id":"5ef5f63c7aa58727ac4f8588","study_id":"6197b3f67c2b5cd3b6d9596a","session_id":"619beef1c0aee2f9df46b1a1","condition":"contingent","relevant_dimensions":["antennae","legs"],"bee_group":{"antennae":"A","wings":"X","pattern":"X","legs":"M"},"bonus":1.5800000000000014},{"rt":14756.299999952316,"response":{"Q0":["Two or six legs","Stripes or spots on body","Single or double wings","Antennae or no antennae"]},"question_order":[0],"trial_type":"survey-multi-select","trial_index":4,"time_elapsed":299104,"internal_node_id":"0.0-3.0-1.0","subject_id":"5ef5f63c7aa58727ac4f8588","study_id":"6197b3f67c2b5cd3b6d9596a","session_id":"619beef1c0aee2f9df46b1a1","condition":"contingent","relevant_dimensions":["antennae","legs"],"bee_group":{"antennae":"A","wings":"X","pattern":"X","legs":"M"},"correct":true,"bonus":1.5800000000000014},{"rt":27982,"response":{"Q1":"No.","Q2":"Based on the four features of the bee.","Q3":"You do not learn if it was friendly or dangerous, and do not alter your bonus."},"question_order":[0,1,2],"trial_type":"survey-multi-choice","trial_index":5,"time_elapsed":327088,"internal_node_id":"0.0-3.0-2.0","subject_id":"5ef5f63c7aa58727ac4f8588","study_id":"6197b3f67c2b5cd3b6d9596a","session_id":"619beef1c0aee2f9df46b1a1","condition":"contingent","relevant_dimensions":["antennae","legs"],"bee_group":{"antennae":"A","wings":"X","pattern":"X","legs":"M"},"correct":true,"bonus":1.5800000000000014},{"rt":4718.899999976158,"stimulus":"<p>Congrats, you got everything right<br>When you're ready, click the button below to continue to the experiment.</p>","response":0,"trial_type":"html-button-response","trial_index":6,"time_elapsed":331808,"internal_node_id":"0.0-3.0-3.0","subject_id":"5ef5f63c7aa58727ac4f8588","study_id":"6197b3f67c2b5cd3b6d9596a","session_id":"619beef1c0aee2f9df46b1a1","condition":"contingent","relevant_dimensions":["antennae","legs"],"bee_group":{"antennae":"A","wings":"X","pattern":"X","legs":"M"},"bonus":1.5800000000000014},{"rt":3789.3000000715256,"stimulus":"bees-with-color/bee-B2DM.svg","response":0,"trial_type":"image-button-response","trial_index":7,"time_elapsed":335600,"internal_node_id":"0.0-4.0-0.0","subject_id":"5ef5f63c7aa58727ac4f8588","study_id":"6197b3f67c2b5cd3b6d9596a","session_id":"619beef1c0aee2f9df46b1a1","condition":"contingent","relevant_dimensions":["antennae","legs"],"bee_group":{"antennae":"A","wings":"X","pattern":"X","legs":"M"},"action":"harvest","summary":"good-harvest","bonus":1.5800000000000014},{"rt":6862,"stimulus":"\n                    <p><b>Action: <em>harvest</em></b></p>\n                    <p>This is the bee that you just saw.</p>\n                    <img src=\"bees-with-color/bee-B2DM.svg\" width=\"200\">\n                    <p><span class=\"greenText\"><b>Successful harvest!</b></span><br>Your pay has increased by $0.02. Your bonus pay is now $0.56.</p>\n            ","response":0,"trial_type":"html-button-response","trial_index":8,"time_elapsed":342464,"internal_node_id":"0.0-4.0-1.0","subject_id":"5ef5f63c7aa58727ac4f8588","study_id":"6197b3f67c2b5cd3b6d9596a","session_id":"619beef1c0aee2f9df46b1a1","condition":"contingent","relevant_dimensions":["antennae","legs"],"bee_group":{"antennae":"A","wings":"X","pattern":"X","legs":"M"},"bonus":1.5800000000000014},{"rt":2966.2000000476837,"stimulus":"bees-with-color/bee-A2SM.svg","response":0,"trial_type":"image-button-response","trial_index":9,"time_elapsed":345432,"internal_node_id":"0.0-4.0-0.1","subject_id":"5ef5f63c7aa58727ac4f8588","study_id":"6197b3f67c2b5cd3b6d9596a","session_id":"619beef1c0aee2f9df46b1a1","condition":"contingent","relevant_dimensions":["antennae","legs"],"bee_group":{"antennae":"A","wings":"X","pattern":"X","legs":"M"},"action":"harvest","summary":"bad-harvest","bonus":1.5800000000000014},{"rt":5734.700000047684,"stimulus":"\n                    <p><b>Action: <em>harvest</em></b></p>\n                    <p>This is the bee that you just saw.</p>\n                    <img src=\"bees-with-color/bee-A2SM.svg\" width=\"200\">\n                    <p><span class=\"redText\">Bad choice, the bee was angry.</span><br><b>You have been stung!</b><br>Your pay has been decreased by $0.10. Your bonus pay is now $0.46.</p>\n            ","response":0,"trial_type":"html-button-response","trial_index":10,"time_elapsed":351168,"internal_node_id":"0.0-4.0-1.1","subject_id":"5ef5f63c7aa58727ac4f8588","study_id":"6197b3f67c2b5cd3b6d9596a","session_id":"619beef1c0aee2f9df46b1a1","condition":"contingent","relevant_dimensions":["antennae","legs"],"bee_group":{"antennae":"A","wings":"X","pattern":"X","legs":"M"},"bonus":1.5800000000000014},{"rt":3733.899999976158,"stimulus":"bees-with-color/bee-B2SF.svg","response":0,"trial_type":"image-button-response","trial_index":11,"time_elapsed":354904,"internal_node_id":"0.0-4.0-0.2","subject_id":"5ef5f63c7aa58727ac4f8588","study_id":"6197b3f67c2b5cd3b6d9596a","session_id":"619beef1c0aee2f9df46b1a1","condition":"contingent","relevant_dimensions":["antennae","legs"],"bee_group":{"antennae":"A","wings":"X","pattern":"X","legs":"M"},"action":"harvest","summary":"good-harvest","bonus":1.5800000000000014},{"rt":2214.2999999523163,"stimulus":"\n                    <p><b>Action: <em>harvest</em></b></p>\n                    <p>This is the bee that you just saw.</p>\n                    <img src=\"bees-with-color/bee-B2SF.svg\" width=\"200\">\n                    <p><span class=\"greenText\"><b>Successful harvest!</b></span><br>Your pay has increased by $0.02. Your bonus pay is now $0.48.</p>\n            ","response":0,"trial_type":"html-button-response","trial_index":12,"time_elapsed":357120,"internal_node_id":"0.0-4.0-1.2","subject_id":"5ef5f63c7aa58727ac4f8588","study_id":"6197b3f67c2b5cd3b6d9596a","session_id":"619beef1c0aee2f9df46b1a1","condition":"contingent","relevant_dimensions":["antennae","legs"],"bee_group":{"antennae":"A","wings":"X","pattern":"X","legs":"M"},"bonus":1.5800000000000014},{"rt":2750.5,"stimulus":"bees-with-color/bee-A1DM.svg","response":0,"trial_type":"image-button-response","trial_index":13,"time_elapsed":359872,"internal_node_id":"0.0-4.0-0.3","subject_id":"5ef5f63c7aa58727ac4f8588","study_id":"6197b3f67c2b5cd3b6d9596a","session_id":"619beef1c0aee2f9df46b1a1","condition":"contingent","relevant_dimensions":["antennae","legs"],"bee_group":{"antennae":"A","wings":"X","pattern":"X","legs":"M"},"action":"harvest","summary":"bad-harvest","bonus":1.5800000000000014},{"rt":7967,"stimulus":"\n                    <p><b>Action: <em>harvest</em></b></p>\n                    <p>This is the bee that you just saw.</p>\n                    <img src=\"bees-with-color/bee-A1DM.svg\" width=\"200\">\n                    <p><span class=\"redText\">Bad choice, the bee was angry.</span><br><b>You have been stung!</b><br>Your pay has been decreased by $0.10. Your bonus pay is now $0.38.</p>\n            ","response":0,"trial_type":"html-button-response","trial_index":14,"time_elapsed":367840,"internal_node_id":"0.0-4.0-1.3","subject_id":"5ef5f63c7aa58727ac4f8588","study_id":"6197b3f67c2b5cd3b6d9596a","session_id":"619beef1c0aee2f9df46b1a1","condition":"contingent","relevant_dimensions":["antennae","legs"],"bee_group":{"antennae":"A","wings":"X","pattern":"X","legs":"M"},"bonus":1.5800000000000014},{"rt":1910.2000000476837,"stimulus":"bees-with-color/bee-A1DF.svg","response":0,"trial_type":"image-button-response","trial_index":15,"time_elapsed":369752,"internal_node_id":"0.0-4.0-0.4","subject_id":"5ef5f63c7aa58727ac4f8588","study_id":"6197b3f67c2b5cd3b6d9596a","session_id":"619beef1c0aee2f9df46b1a1","condition":"contingent","relevant_dimensions":["antennae","legs"],"bee_group":{"antennae":"A","wings":"X","pattern":"X","legs":"M"},"action":"harvest","summary":"good-harvest","bonus":1.5800000000000014},{"rt":1566.8999999761581,"stimulus":"\n                    <p><b>Action: <em>harvest</em></b></p>\n                    <p>This is the bee that you just saw.</p>\n                    <img src=\"bees-with-color/bee-A1DF.svg\" width=\"200\">\n                    <p><span class=\"greenText\"><b>Successful harvest!</b></span><br>Your pay has increased by $0.02. Your bonus pay is now $0.40.</p>\n            ","response":0,"trial_type":"html-button-response","trial_index":16,"time_elapsed":371320,"internal_node_id":"0.0-4.0-1.4","subject_id":"5ef5f63c7aa58727ac4f8588","study_id":"6197b3f67c2b5cd3b6d9596a","session_id":"619beef1c0aee2f9df46b1a1","condition":"contingent","relevant_dimensions":["antennae","legs"],"bee_group":{"antennae":"A","wings":"X","pattern":"X","legs":"M"},"bonus":1.5800000000000014},{"rt":1814.3999999761581,"stimulus":"bees-with-color/bee-A1SF.svg","response":0,"trial_type":"image-button-response","trial_index":17,"time_elapsed":373136,"internal_node_id":"0.0-4.0-0.5","subject_id":"5ef5f63c7aa58727ac4f8588","study_id":"6197b3f67c2b5cd3b6d9596a","session_id":"619beef1c0aee2f9df46b1a1","condition":"contingent","relevant_dimensions":["antennae","legs"],"bee_group":{"antennae":"A","wings":"X","pattern":"X","legs":"M"},"action":"harvest","summary":"good-harvest","bonus":1.5800000000000014},{"rt":974.6000000238419,"stimulus":"\n                    <p><b>Action: <em>harvest</em></b></p>\n                    <p>This is the bee that you just saw.</p>\n                    <img src=\"bees-with-color/bee-A1SF.svg\" width=\"200\">\n                    <p><span class=\"greenText\"><b>Successful harvest!</b></span><br>Your pay has increased by $0.02. Your bonus pay is now $0.42.</p>\n            ","response":0,"trial_type":"html-button-response","trial_index":18,"time_elapsed":374112,"internal_node_id":"0.0-4.0-1.5","subject_id":"5ef5f63c7aa58727ac4f8588","study_id":"6197b3f67c2b5cd3b6d9596a","session_id":"619beef1c0aee2f9df46b1a1","condition":"contingent","relevant_dimensions":["antennae","legs"],"bee_group":{"antennae":"A","wings":"X","pattern":"X","legs":"M"},"bonus":1.5800000000000014},{"rt":2014.5,"stimulus":"bees-with-color/bee-B1SM.svg","response":0,"trial_type":"image-button-response","trial_index":19,"time_elapsed":376128,"internal_node_id":"0.0-4.0-0.6","subject_id":"5ef5f63c7aa58727ac4f8588","study_id":"6197b3f67c2b5cd3b6d9596a","session_id":"619beef1c0aee2f9df46b1a1","condition":"contingent","relevant_dimensions":["antennae","legs"],"bee_group":{"antennae":"A","wings":"X","pattern":"X","legs":"M"},"action":"harvest","summary":"good-harvest","bonus":1.5800000000000014},{"rt":1158.1999999284744,"stimulus":"\n                    <p><b>Action: <em>harvest</em></b></p>\n                    <p>This is the bee that you just saw.</p>\n                    <img src=\"bees-with-color/bee-B1SM.svg\" width=\"200\">\n                    <p><span class=\"greenText\"><b>Successful harvest!</b></span><br>Your pay has increased by $0.02. Your bonus pay is now $0.44.</p>\n            ","response":0,"trial_type":"html-button-response","trial_index":20,"time_elapsed":377288,"internal_node_id":"0.0-4.0-1.6","subject_id":"5ef5f63c7aa58727ac4f8588","study_id":"6197b3f67c2b5cd3b6d9596a","session_id":"619beef1c0aee2f9df46b1a1","condition":"contingent","relevant_dimensions":["antennae","legs"],"bee_group":{"antennae":"A","wings":"X","pattern":"X","legs":"M"},"bonus":1.5800000000000014},{"rt":1183.0999999046326,"stimulus":"bees-with-color/bee-B1SF.svg","response":0,"trial_type":"image-button-response","trial_index":21,"time_elapsed":378472,"internal_node_id":"0.0-4.0-0.7","subject_id":"5ef5f63c7aa58727ac4f8588","study_id":"6197b3f67c2b5cd3b6d9596a","session_id":"619beef1c0aee2f9df46b1a1","condition":"contingent","relevant_dimensions":["antennae","legs"],"bee_group":{"antennae":"A","wings":"X","pattern":"X","legs":"M"},"action":"harvest","summary":"good-harvest","bonus":1.5800000000000014},{"rt":870.6999999284744,"stimulus":"\n                    <p><b>Action: <em>harvest</em></b></p>\n                    <p>This is the bee that you just saw.</p>\n                    <img src=\"bees-with-color/bee-B1SF.svg\" width=\"200\">\n                    <p><span class=\"greenText\"><b>Successful harvest!</b></span><br>Your pay has increased by $0.02. Your bonus pay is now $0.46.</p>\n            ","response":0,"trial_type":"html-button-response","trial_index":22,"time_elapsed":379344,"internal_node_id":"0.0-4.0-1.7","subject_id":"5ef5f63c7aa58727ac4f8588","study_id":"6197b3f67c2b5cd3b6d9596a","session_id":"619beef1c0aee2f9df46b1a1","condition":"contingent","relevant_dimensions":["antennae","legs"],"bee_group":{"antennae":"A","wings":"X","pattern":"X","legs":"M"},"bonus":1.5800000000000014},{"rt":1182.3000000715256,"stimulus":"bees-with-color/bee-B1DF.svg","response":0,"trial_type":"image-button-response","trial_index":23,"time_elapsed":380528,"internal_node_id":"0.0-4.0-0.8","subject_id":"5ef5f63c7aa58727ac4f8588","study_id":"6197b3f67c2b5cd3b6d9596a","session_id":"619beef1c0aee2f9df46b1a1","condition":"contingent","relevant_dimensions":["antennae","legs"],"bee_group":{"antennae":"A","wings":"X","pattern":"X","legs":"M"},"action":"harvest","summary":"good-harvest","bonus":1.5800000000000014},{"rt":958.6000000238419,"stimulus":"\n                    <p><b>Action: <em>harvest</em></b></p>\n                    <p>This is the bee that you just saw.</p>\n                    <img src=\"bees-with-color/bee-B1DF.svg\" width=\"200\">\n                    <p><span class=\"greenText\"><b>Successful harvest!</b></span><br>Your pay has increased by $0.02. Your bonus pay is now $0.48.</p>\n            ","response":0,"trial_type":"html-button-response","trial_index":24,"time_elapsed":381488,"internal_node_id":"0.0-4.0-1.8","subject_id":"5ef5f63c7aa58727ac4f8588","study_id":"6197b3f67c2b5cd3b6d9596a","session_id":"619beef1c0aee2f9df46b1a1","condition":"contingent","relevant_dimensions":["antennae","legs"],"bee_group":{"antennae":"A","wings":"X","pattern":"X","legs":"M"},"bonus":1.5800000000000014},{"rt":5694.800000071526,"stimulus":"bees-with-color/bee-A1SM.svg","response":0,"trial_type":"image-button-response","trial_index":25,"time_elapsed":387184,"internal_node_id":"0.0-4.0-0.9","subject_id":"5ef5f63c7aa58727ac4f8588","study_id":"6197b3f67c2b5cd3b6d9596a","session_id":"619beef1c0aee2f9df46b1a1","condition":"contingent","relevant_dimensions":["antennae","legs"],"bee_group":{"antennae":"A","wings":"X","pattern":"X","legs":"M"},"action":"harvest","summary":"bad-harvest","bonus":1.5800000000000014},{"rt":7542,"stimulus":"\n                    <p><b>Action: <em>harvest</em></b></p>\n                    <p>This is the bee that you just saw.</p>\n                    <img src=\"bees-with-color/bee-A1SM.svg\" width=\"200\">\n                    <p><span class=\"redText\">Bad choice, the bee was angry.</span><br><b>You have been stung!</b><br>Your pay has been decreased by $0.10. Your bonus pay is now $0.38.</p>\n            ","response":0,"trial_type":"html-button-response","trial_index":26,"time_elapsed":394728,"internal_node_id":"0.0-4.0-1.9","subject_id":"5ef5f63c7aa58727ac4f8588","study_id":"6197b3f67c2b5cd3b6d9596a","session_id":"619beef1c0aee2f9df46b1a1","condition":"contingent","relevant_dimensions":["antennae","legs"],"bee_group":{"antennae":"A","wings":"X","pattern":"X","legs":"M"},"bonus":1.5800000000000014},{"rt":1694.9000000953674,"stimulus":"bees-with-color/bee-A2SF.svg","response":0,"trial_type":"image-button-response","trial_index":27,"time_elapsed":396424,"internal_node_id":"0.0-4.0-0.10","subject_id":"5ef5f63c7aa58727ac4f8588","study_id":"6197b3f67c2b5cd3b6d9596a","session_id":"619beef1c0aee2f9df46b1a1","condition":"contingent","relevant_dimensions":["antennae","legs"],"bee_group":{"antennae":"A","wings":"X","pattern":"X","legs":"M"},"action":"harvest","summary":"good-harvest","bonus":1.5800000000000014},{"rt":1182.8999999761581,"stimulus":"\n                    <p><b>Action: <em>harvest</em></b></p>\n                    <p>This is the bee that you just saw.</p>\n                    <img src=\"bees-with-color/bee-A2SF.svg\" width=\"200\">\n                    <p><span class=\"greenText\"><b>Successful harvest!</b></span><br>Your pay has increased by $0.02. Your bonus pay is now $0.40.</p>\n            ","response":0,"trial_type":"html-button-response","trial_index":28,"time_elapsed":397608,"internal_node_id":"0.0-4.0-1.10","subject_id":"5ef5f63c7aa58727ac4f8588","study_id":"6197b3f67c2b5cd3b6d9596a","session_id":"619beef1c0aee2f9df46b1a1","condition":"contingent","relevant_dimensions":["antennae","legs"],"bee_group":{"antennae":"A","wings":"X","pattern":"X","legs":"M"},"bonus":1.5800000000000014},{"rt":950.6999999284744,"stimulus":"bees-with-color/bee-B2DF.svg","response":0,"trial_type":"image-button-response","trial_index":29,"time_elapsed":398560,"internal_node_id":"0.0-4.0-0.11","subject_id":"5ef5f63c7aa58727ac4f8588","study_id":"6197b3f67c2b5cd3b6d9596a","session_id":"619beef1c0aee2f9df46b1a1","condition":"contingent","relevant_dimensions":["antennae","legs"],"bee_group":{"antennae":"A","wings":"X","pattern":"X","legs":"M"},"action":"harvest","summary":"good-harvest","bonus":1.5800000000000014},{"rt":1015.0999999046326,"stimulus":"\n                    <p><b>Action: <em>harvest</em></b></p>\n                    <p>This is the bee that you just saw.</p>\n                    <img src=\"bees-with-color/bee-B2DF.svg\" width=\"200\">\n                    <p><span class=\"greenText\"><b>Successful harvest!</b></span><br>Your pay has increased by $0.02. Your bonus pay is now $0.42.</p>\n            ","response":0,"trial_type":"html-button-response","trial_index":30,"time_elapsed":399576,"internal_node_id":"0.0-4.0-1.11","subject_id":"5ef5f63c7aa58727ac4f8588","study_id":"6197b3f67c2b5cd3b6d9596a","session_id":"619beef1c0aee2f9df46b1a1","condition":"contingent","relevant_dimensions":["antennae","legs"],"bee_group":{"antennae":"A","wings":"X","pattern":"X","legs":"M"},"bonus":1.5800000000000014},{"rt":1398.9000000953674,"stimulus":"bees-with-color/bee-B1DM.svg","response":0,"trial_type":"image-button-response","trial_index":31,"time_elapsed":400976,"internal_node_id":"0.0-4.0-0.12","subject_id":"5ef5f63c7aa58727ac4f8588","study_id":"6197b3f67c2b5cd3b6d9596a","session_id":"619beef1c0aee2f9df46b1a1","condition":"contingent","relevant_dimensions":["antennae","legs"],"bee_group":{"antennae":"A","wings":"X","pattern":"X","legs":"M"},"action":"harvest","summary":"good-harvest","bonus":1.5800000000000014},{"rt":999.1000000238419,"stimulus":"\n                    <p><b>Action: <em>harvest</em></b></p>\n                    <p>This is the bee that you just saw.</p>\n                    <img src=\"bees-with-color/bee-B1DM.svg\" width=\"200\">\n                    <p><span class=\"greenText\"><b>Successful harvest!</b></span><br>Your pay has increased by $0.02. Your bonus pay is now $0.44.</p>\n            ","response":0,"trial_type":"html-button-response","trial_index":32,"time_elapsed":401975,"internal_node_id":"0.0-4.0-1.12","subject_id":"5ef5f63c7aa58727ac4f8588","study_id":"6197b3f67c2b5cd3b6d9596a","session_id":"619beef1c0aee2f9df46b1a1","condition":"contingent","relevant_dimensions":["antennae","legs"],"bee_group":{"antennae":"A","wings":"X","pattern":"X","legs":"M"},"bonus":1.5800000000000014},{"rt":6375.700000047684,"stimulus":"bees-with-color/bee-A2DM.svg","response":0,"trial_type":"image-button-response","trial_index":33,"time_elapsed":408352,"internal_node_id":"0.0-4.0-0.13","subject_id":"5ef5f63c7aa58727ac4f8588","study_id":"6197b3f67c2b5cd3b6d9596a","session_id":"619beef1c0aee2f9df46b1a1","condition":"contingent","relevant_dimensions":["antennae","legs"],"bee_group":{"antennae":"A","wings":"X","pattern":"X","legs":"M"},"action":"harvest","summary":"bad-harvest","bonus":1.5800000000000014},{"rt":5454.799999952316,"stimulus":"\n                    <p><b>Action: <em>harvest</em></b></p>\n                    <p>This is the bee that you just saw.</p>\n                    <img src=\"bees-with-color/bee-A2DM.svg\" width=\"200\">\n                    <p><span class=\"redText\">Bad choice, the bee was angry.</span><br><b>You have been stung!</b><br>Your pay has been decreased by $0.10. Your bonus pay is now $0.34.</p>\n            ","response":0,"trial_type":"html-button-response","trial_index":34,"time_elapsed":413808,"internal_node_id":"0.0-4.0-1.13","subject_id":"5ef5f63c7aa58727ac4f8588","study_id":"6197b3f67c2b5cd3b6d9596a","session_id":"619beef1c0aee2f9df46b1a1","condition":"contingent","relevant_dimensions":["antennae","legs"],"bee_group":{"antennae":"A","wings":"X","pattern":"X","legs":"M"},"bonus":1.5800000000000014},{"rt":2030.8000000715256,"stimulus":"bees-with-color/bee-A2DF.svg","response":0,"trial_type":"image-button-response","trial_index":35,"time_elapsed":415840,"internal_node_id":"0.0-4.0-0.14","subject_id":"5ef5f63c7aa58727ac4f8588","study_id":"6197b3f67c2b5cd3b6d9596a","session_id":"619beef1c0aee2f9df46b1a1","condition":"contingent","relevant_dimensions":["antennae","legs"],"bee_group":{"antennae":"A","wings":"X","pattern":"X","legs":"M"},"action":"harvest","summary":"good-harvest","bonus":1.5800000000000014},{"rt":1063,"stimulus":"\n                    <p><b>Action: <em>harvest</em></b></p>\n                    <p>This is the bee that you just saw.</p>\n                    <img src=\"bees-with-color/bee-A2DF.svg\" width=\"200\">\n                    <p><span class=\"greenText\"><b>Successful harvest!</b></span><br>Your pay has increased by $0.02. Your bonus pay is now $0.36.</p>\n            ","response":0,"trial_type":"html-button-response","trial_index":36,"time_elapsed":416904,"internal_node_id":"0.0-4.0-1.14","subject_id":"5ef5f63c7aa58727ac4f8588","study_id":"6197b3f67c2b5cd3b6d9596a","session_id":"619beef1c0aee2f9df46b1a1","condition":"contingent","relevant_dimensions":["antennae","legs"],"bee_group":{"antennae":"A","wings":"X","pattern":"X","legs":"M"},"bonus":1.5800000000000014},{"rt":1783,"stimulus":"bees-with-color/bee-B2SM.svg","response":0,"trial_type":"image-button-response","trial_index":37,"time_elapsed":418688,"internal_node_id":"0.0-4.0-0.15","subject_id":"5ef5f63c7aa58727ac4f8588","study_id":"6197b3f67c2b5cd3b6d9596a","session_id":"619beef1c0aee2f9df46b1a1","condition":"contingent","relevant_dimensions":["antennae","legs"],"bee_group":{"antennae":"A","wings":"X","pattern":"X","legs":"M"},"action":"harvest","summary":"good-harvest","bonus":1.5800000000000014},{"rt":815,"stimulus":"\n                    <p><b>Action: <em>harvest</em></b></p>\n                    <p>This is the bee that you just saw.</p>\n                    <img src=\"bees-with-color/bee-B2SM.svg\" width=\"200\">\n                    <p><span class=\"greenText\"><b>Successful harvest!</b></span><br>Your pay has increased by $0.02. Your bonus pay is now $0.38.</p>\n            ","response":0,"trial_type":"html-button-response","trial_index":38,"time_elapsed":419504,"internal_node_id":"0.0-4.0-1.15","subject_id":"5ef5f63c7aa58727ac4f8588","study_id":"6197b3f67c2b5cd3b6d9596a","session_id":"619beef1c0aee2f9df46b1a1","condition":"contingent","relevant_dimensions":["antennae","legs"],"bee_group":{"antennae":"A","wings":"X","pattern":"X","legs":"M"},"bonus":1.5800000000000014},{"rt":815,"stimulus":"bees-with-color/bee-B1SF.svg","response":0,"trial_type":"image-button-response","trial_index":39,"time_elapsed":420320,"internal_node_id":"0.0-4.0-0.16","subject_id":"5ef5f63c7aa58727ac4f8588","study_id":"6197b3f67c2b5cd3b6d9596a","session_id":"619beef1c0aee2f9df46b1a1","condition":"contingent","relevant_dimensions":["antennae","legs"],"bee_group":{"antennae":"A","wings":"X","pattern":"X","legs":"M"},"action":"harvest","summary":"good-harvest","bonus":1.5800000000000014},{"rt":766.5,"stimulus":"\n                    <p><b>Action: <em>harvest</em></b></p>\n                    <p>This is the bee that you just saw.</p>\n                    <img src=\"bees-with-color/bee-B1SF.svg\" width=\"200\">\n                    <p><span class=\"greenText\"><b>Successful harvest!</b></span><br>Your pay has increased by $0.02. Your bonus pay is now $0.40.</p>\n            ","response":0,"trial_type":"html-button-response","trial_index":40,"time_elapsed":421087,"internal_node_id":"0.0-4.0-1.16","subject_id":"5ef5f63c7aa58727ac4f8588","study_id":"6197b3f67c2b5cd3b6d9596a","session_id":"619beef1c0aee2f9df46b1a1","condition":"contingent","relevant_dimensions":["antennae","legs"],"bee_group":{"antennae":"A","wings":"X","pattern":"X","legs":"M"},"bonus":1.5800000000000014},{"rt":1839.5,"stimulus":"bees-with-color/bee-A1DM.svg","response":1,"trial_type":"image-button-response","trial_index":41,"time_elapsed":422928,"internal_node_id":"0.0-4.0-0.17","subject_id":"5ef5f63c7aa58727ac4f8588","study_id":"6197b3f67c2b5cd3b6d9596a","session_id":"619beef1c0aee2f9df46b1a1","condition":"contingent","relevant_dimensions":["antennae","legs"],"bee_group":{"antennae":"A","wings":"X","pattern":"X","legs":"M"},"action":"avoid","summary":"good-avoid","bonus":1.5800000000000014},{"rt":1750.6999999284744,"stimulus":"\n                    <p><b>Action: <em>avoid</em></b></p>\n                    <p>This is the bee that you just saw.</p>\n                    <img src=\"bees-with-color/bee-A1DM.svg\" width=\"200\">\n                    <p><br>Your bonus pay is unchanged, and remains at $0.40.</p>\n            ","response":0,"trial_type":"html-button-response","trial_index":42,"time_elapsed":424680,"internal_node_id":"0.0-4.0-1.17","subject_id":"5ef5f63c7aa58727ac4f8588","study_id":"6197b3f67c2b5cd3b6d9596a","session_id":"619beef1c0aee2f9df46b1a1","condition":"contingent","relevant_dimensions":["antennae","legs"],"bee_group":{"antennae":"A","wings":"X","pattern":"X","legs":"M"},"bonus":1.5800000000000014},{"rt":1855,"stimulus":"bees-with-color/bee-A2DM.svg","response":1,"trial_type":"image-button-response","trial_index":43,"time_elapsed":426536,"internal_node_id":"0.0-4.0-0.18","subject_id":"5ef5f63c7aa58727ac4f8588","study_id":"6197b3f67c2b5cd3b6d9596a","session_id":"619beef1c0aee2f9df46b1a1","condition":"contingent","relevant_dimensions":["antennae","legs"],"bee_group":{"antennae":"A","wings":"X","pattern":"X","legs":"M"},"action":"avoid","summary":"good-avoid","bonus":1.5800000000000014},{"rt":926.9000000953674,"stimulus":"\n                    <p><b>Action: <em>avoid</em></b></p>\n                    <p>This is the bee that you just saw.</p>\n                    <img src=\"bees-with-color/bee-A2DM.svg\" width=\"200\">\n                    <p><br>Your bonus pay is unchanged, and remains at $0.40.</p>\n            ","response":0,"trial_type":"html-button-response","trial_index":44,"time_elapsed":427464,"internal_node_id":"0.0-4.0-1.18","subject_id":"5ef5f63c7aa58727ac4f8588","study_id":"6197b3f67c2b5cd3b6d9596a","session_id":"619beef1c0aee2f9df46b1a1","condition":"contingent","relevant_dimensions":["antennae","legs"],"bee_group":{"antennae":"A","wings":"X","pattern":"X","legs":"M"},"bonus":1.5800000000000014},{"rt":1286.7999999523163,"stimulus":"bees-with-color/bee-B2SF.svg","response":0,"trial_type":"image-button-response","trial_index":45,"time_elapsed":428752,"internal_node_id":"0.0-4.0-0.19","subject_id":"5ef5f63c7aa58727ac4f8588","study_id":"6197b3f67c2b5cd3b6d9596a","session_id":"619beef1c0aee2f9df46b1a1","condition":"contingent","relevant_dimensions":["antennae","legs"],"bee_group":{"antennae":"A","wings":"X","pattern":"X","legs":"M"},"action":"harvest","summary":"good-harvest","bonus":1.5800000000000014},{"rt":927,"stimulus":"\n                    <p><b>Action: <em>harvest</em></b></p>\n                    <p>This is the bee that you just saw.</p>\n                    <img src=\"bees-with-color/bee-B2SF.svg\" width=\"200\">\n                    <p><span class=\"greenText\"><b>Successful harvest!</b></span><br>Your pay has increased by $0.02. Your bonus pay is now $0.42.</p>\n            ","response":0,"trial_type":"html-button-response","trial_index":46,"time_elapsed":429680,"internal_node_id":"0.0-4.0-1.19","subject_id":"5ef5f63c7aa58727ac4f8588","study_id":"6197b3f67c2b5cd3b6d9596a","session_id":"619beef1c0aee2f9df46b1a1","condition":"contingent","relevant_dimensions":["antennae","legs"],"bee_group":{"antennae":"A","wings":"X","pattern":"X","legs":"M"},"bonus":1.5800000000000014},{"rt":1887,"stimulus":"bees-with-color/bee-B2DM.svg","response":0,"trial_type":"image-button-response","trial_index":47,"time_elapsed":431568,"internal_node_id":"0.0-4.0-0.20","subject_id":"5ef5f63c7aa58727ac4f8588","study_id":"6197b3f67c2b5cd3b6d9596a","session_id":"619beef1c0aee2f9df46b1a1","condition":"contingent","relevant_dimensions":["antennae","legs"],"bee_group":{"antennae":"A","wings":"X","pattern":"X","legs":"M"},"action":"harvest","summary":"good-harvest","bonus":1.5800000000000014},{"rt":926.8000000715256,"stimulus":"\n                    <p><b>Action: <em>harvest</em></b></p>\n                    <p>This is the bee that you just saw.</p>\n                    <img src=\"bees-with-color/bee-B2DM.svg\" width=\"200\">\n                    <p><span class=\"greenText\"><b>Successful harvest!</b></span><br>Your pay has increased by $0.02. Your bonus pay is now $0.44.</p>\n            ","response":0,"trial_type":"html-button-response","trial_index":48,"time_elapsed":432496,"internal_node_id":"0.0-4.0-1.20","subject_id":"5ef5f63c7aa58727ac4f8588","study_id":"6197b3f67c2b5cd3b6d9596a","session_id":"619beef1c0aee2f9df46b1a1","condition":"contingent","relevant_dimensions":["antennae","legs"],"bee_group":{"antennae":"A","wings":"X","pattern":"X","legs":"M"},"bonus":1.5800000000000014},{"rt":1094.5,"stimulus":"bees-with-color/bee-B2DF.svg","response":0,"trial_type":"image-button-response","trial_index":49,"time_elapsed":433592,"internal_node_id":"0.0-4.0-0.21","subject_id":"5ef5f63c7aa58727ac4f8588","study_id":"6197b3f67c2b5cd3b6d9596a","session_id":"619beef1c0aee2f9df46b1a1","condition":"contingent","relevant_dimensions":["antennae","legs"],"bee_group":{"antennae":"A","wings":"X","pattern":"X","legs":"M"},"action":"harvest","summary":"good-harvest","bonus":1.5800000000000014},{"rt":935,"stimulus":"\n                    <p><b>Action: <em>harvest</em></b></p>\n                    <p>This is the bee that you just saw.</p>\n                    <img src=\"bees-with-color/bee-B2DF.svg\" width=\"200\">\n                    <p><span class=\"greenText\"><b>Successful harvest!</b></span><br>Your pay has increased by $0.02. Your bonus pay is now $0.46.</p>\n            ","response":0,"trial_type":"html-button-response","trial_index":50,"time_elapsed":434528,"internal_node_id":"0.0-4.0-1.21","subject_id":"5ef5f63c7aa58727ac4f8588","study_id":"6197b3f67c2b5cd3b6d9596a","session_id":"619beef1c0aee2f9df46b1a1","condition":"contingent","relevant_dimensions":["antennae","legs"],"bee_group":{"antennae":"A","wings":"X","pattern":"X","legs":"M"},"bonus":1.5800000000000014},{"rt":1086.8999999761581,"stimulus":"bees-with-color/bee-A1DF.svg","response":0,"trial_type":"image-button-response","trial_index":51,"time_elapsed":435616,"internal_node_id":"0.0-4.0-0.22","subject_id":"5ef5f63c7aa58727ac4f8588","study_id":"6197b3f67c2b5cd3b6d9596a","session_id":"619beef1c0aee2f9df46b1a1","condition":"contingent","relevant_dimensions":["antennae","legs"],"bee_group":{"antennae":"A","wings":"X","pattern":"X","legs":"M"},"action":"harvest","summary":"good-harvest","bonus":1.5800000000000014},{"rt":806.5,"stimulus":"\n                    <p><b>Action: <em>harvest</em></b></p>\n                    <p>This is the bee that you just saw.</p>\n                    <img src=\"bees-with-color/bee-A1DF.svg\" width=\"200\">\n                    <p><span class=\"greenText\"><b>Successful harvest!</b></span><br>Your pay has increased by $0.02. Your bonus pay is now $0.48.</p>\n            ","response":0,"trial_type":"html-button-response","trial_index":52,"time_elapsed":436424,"internal_node_id":"0.0-4.0-1.22","subject_id":"5ef5f63c7aa58727ac4f8588","study_id":"6197b3f67c2b5cd3b6d9596a","session_id":"619beef1c0aee2f9df46b1a1","condition":"contingent","relevant_dimensions":["antennae","legs"],"bee_group":{"antennae":"A","wings":"X","pattern":"X","legs":"M"},"bonus":1.5800000000000014},{"rt":870.7000000476837,"stimulus":"bees-with-color/bee-A2SF.svg","response":0,"trial_type":"image-button-response","trial_index":53,"time_elapsed":437295,"internal_node_id":"0.0-4.0-0.23","subject_id":"5ef5f63c7aa58727ac4f8588","study_id":"6197b3f67c2b5cd3b6d9596a","session_id":"619beef1c0aee2f9df46b1a1","condition":"contingent","relevant_dimensions":["antennae","legs"],"bee_group":{"antennae":"A","wings":"X","pattern":"X","legs":"M"},"action":"harvest","summary":"good-harvest","bonus":1.5800000000000014},{"rt":863.3000000715256,"stimulus":"\n                    <p><b>Action: <em>harvest</em></b></p>\n                    <p>This is the bee that you just saw.</p>\n                    <img src=\"bees-with-color/bee-A2SF.svg\" width=\"200\">\n                    <p><span class=\"greenText\"><b>Successful harvest!</b></span><br>Your pay has increased by $0.02. Your bonus pay is now $0.50.</p>\n            ","response":0,"trial_type":"html-button-response","trial_index":54,"time_elapsed":438160,"internal_node_id":"0.0-4.0-1.23","subject_id":"5ef5f63c7aa58727ac4f8588","study_id":"6197b3f67c2b5cd3b6d9596a","session_id":"619beef1c0aee2f9df46b1a1","condition":"contingent","relevant_dimensions":["antennae","legs"],"bee_group":{"antennae":"A","wings":"X","pattern":"X","legs":"M"},"bonus":1.5800000000000014},{"rt":822.7999999523163,"stimulus":"bees-with-color/bee-A2DF.svg","response":0,"trial_type":"image-button-response","trial_index":55,"time_elapsed":438984,"internal_node_id":"0.0-4.0-0.24","subject_id":"5ef5f63c7aa58727ac4f8588","study_id":"6197b3f67c2b5cd3b6d9596a","session_id":"619beef1c0aee2f9df46b1a1","condition":"contingent","relevant_dimensions":["antennae","legs"],"bee_group":{"antennae":"A","wings":"X","pattern":"X","legs":"M"},"action":"harvest","summary":"good-harvest","bonus":1.5800000000000014},{"rt":846.5,"stimulus":"\n                    <p><b>Action: <em>harvest</em></b></p>\n                    <p>This is the bee that you just saw.</p>\n                    <img src=\"bees-with-color/bee-A2DF.svg\" width=\"200\">\n                    <p><span class=\"greenText\"><b>Successful harvest!</b></span><br>Your pay has increased by $0.02. Your bonus pay is now $0.52.</p>\n            ","response":0,"trial_type":"html-button-response","trial_index":56,"time_elapsed":439831,"internal_node_id":"0.0-4.0-1.24","subject_id":"5ef5f63c7aa58727ac4f8588","study_id":"6197b3f67c2b5cd3b6d9596a","session_id":"619beef1c0aee2f9df46b1a1","condition":"contingent","relevant_dimensions":["antennae","legs"],"bee_group":{"antennae":"A","wings":"X","pattern":"X","legs":"M"},"bonus":1.5800000000000014},{"rt":911.3000000715256,"stimulus":"bees-with-color/bee-A1SF.svg","response":0,"trial_type":"image-button-response","trial_index":57,"time_elapsed":440744,"internal_node_id":"0.0-4.0-0.25","subject_id":"5ef5f63c7aa58727ac4f8588","study_id":"6197b3f67c2b5cd3b6d9596a","session_id":"619beef1c0aee2f9df46b1a1","condition":"contingent","relevant_dimensions":["antennae","legs"],"bee_group":{"antennae":"A","wings":"X","pattern":"X","legs":"M"},"action":"harvest","summary":"good-harvest","bonus":1.5800000000000014},{"rt":710.3999999761581,"stimulus":"\n                    <p><b>Action: <em>harvest</em></b></p>\n                    <p>This is the bee that you just saw.</p>\n                    <img src=\"bees-with-color/bee-A1SF.svg\" width=\"200\">\n                    <p><span class=\"greenText\"><b>Successful harvest!</b></span><br>Your pay has increased by $0.02. Your bonus pay is now $0.54.</p>\n            ","response":0,"trial_type":"html-button-response","trial_index":58,"time_elapsed":441456,"internal_node_id":"0.0-4.0-1.25","subject_id":"5ef5f63c7aa58727ac4f8588","study_id":"6197b3f67c2b5cd3b6d9596a","session_id":"619beef1c0aee2f9df46b1a1","condition":"contingent","relevant_dimensions":["antennae","legs"],"bee_group":{"antennae":"A","wings":"X","pattern":"X","legs":"M"},"bonus":1.5800000000000014},{"rt":1014.8999999761581,"stimulus":"bees-with-color/bee-B1DM.svg","response":0,"trial_type":"image-button-response","trial_index":59,"time_elapsed":442472,"internal_node_id":"0.0-4.0-0.26","subject_id":"5ef5f63c7aa58727ac4f8588","study_id":"6197b3f67c2b5cd3b6d9596a","session_id":"619beef1c0aee2f9df46b1a1","condition":"contingent","relevant_dimensions":["antennae","legs"],"bee_group":{"antennae":"A","wings":"X","pattern":"X","legs":"M"},"action":"harvest","summary":"good-harvest","bonus":1.5800000000000014},{"rt":1118.2999999523163,"stimulus":"\n                    <p><b>Action: <em>harvest</em></b></p>\n                    <p>This is the bee that you just saw.</p>\n                    <img src=\"bees-with-color/bee-B1DM.svg\" width=\"200\">\n                    <p><span class=\"greenText\"><b>Successful harvest!</b></span><br>Your pay has increased by $0.02. Your bonus pay is now $0.56.</p>\n            ","response":0,"trial_type":"html-button-response","trial_index":60,"time_elapsed":443591,"internal_node_id":"0.0-4.0-1.26","subject_id":"5ef5f63c7aa58727ac4f8588","study_id":"6197b3f67c2b5cd3b6d9596a","session_id":"619beef1c0aee2f9df46b1a1","condition":"contingent","relevant_dimensions":["antennae","legs"],"bee_group":{"antennae":"A","wings":"X","pattern":"X","legs":"M"},"bonus":1.5800000000000014},{"rt":1478.7999999523163,"stimulus":"bees-with-color/bee-A2SM.svg","response":1,"trial_type":"image-button-response","trial_index":61,"time_elapsed":445072,"internal_node_id":"0.0-4.0-0.27","subject_id":"5ef5f63c7aa58727ac4f8588","study_id":"6197b3f67c2b5cd3b6d9596a","session_id":"619beef1c0aee2f9df46b1a1","condition":"contingent","relevant_dimensions":["antennae","legs"],"bee_group":{"antennae":"A","wings":"X","pattern":"X","legs":"M"},"action":"avoid","summary":"good-avoid","bonus":1.5800000000000014},{"rt":822.6999999284744,"stimulus":"\n                    <p><b>Action: <em>avoid</em></b></p>\n                    <p>This is the bee that you just saw.</p>\n                    <img src=\"bees-with-color/bee-A2SM.svg\" width=\"200\">\n                    <p><br>Your bonus pay is unchanged, and remains at $0.56.</p>\n            ","response":0,"trial_type":"html-button-response","trial_index":62,"time_elapsed":445896,"internal_node_id":"0.0-4.0-1.27","subject_id":"5ef5f63c7aa58727ac4f8588","study_id":"6197b3f67c2b5cd3b6d9596a","session_id":"619beef1c0aee2f9df46b1a1","condition":"contingent","relevant_dimensions":["antennae","legs"],"bee_group":{"antennae":"A","wings":"X","pattern":"X","legs":"M"},"bonus":1.5800000000000014},{"rt":2662.8000000715256,"stimulus":"bees-with-color/bee-A1SM.svg","response":1,"trial_type":"image-button-response","trial_index":63,"time_elapsed":448560,"internal_node_id":"0.0-4.0-0.28","subject_id":"5ef5f63c7aa58727ac4f8588","study_id":"6197b3f67c2b5cd3b6d9596a","session_id":"619beef1c0aee2f9df46b1a1","condition":"contingent","relevant_dimensions":["antennae","legs"],"bee_group":{"antennae":"A","wings":"X","pattern":"X","legs":"M"},"action":"avoid","summary":"good-avoid","bonus":1.5800000000000014},{"rt":870.2999999523163,"stimulus":"\n                    <p><b>Action: <em>avoid</em></b></p>\n                    <p>This is the bee that you just saw.</p>\n                    <img src=\"bees-with-color/bee-A1SM.svg\" width=\"200\">\n                    <p><br>Your bonus pay is unchanged, and remains at $0.56.</p>\n            ","response":0,"trial_type":"html-button-response","trial_index":64,"time_elapsed":449431,"internal_node_id":"0.0-4.0-1.28","subject_id":"5ef5f63c7aa58727ac4f8588","study_id":"6197b3f67c2b5cd3b6d9596a","session_id":"619beef1c0aee2f9df46b1a1","condition":"contingent","relevant_dimensions":["antennae","legs"],"bee_group":{"antennae":"A","wings":"X","pattern":"X","legs":"M"},"bonus":1.5800000000000014},{"rt":1239.1999999284744,"stimulus":"bees-with-color/bee-B1SM.svg","response":0,"trial_type":"image-button-response","trial_index":65,"time_elapsed":450671,"internal_node_id":"0.0-4.0-0.29","subject_id":"5ef5f63c7aa58727ac4f8588","study_id":"6197b3f67c2b5cd3b6d9596a","session_id":"619beef1c0aee2f9df46b1a1","condition":"contingent","relevant_dimensions":["antennae","legs"],"bee_group":{"antennae":"A","wings":"X","pattern":"X","legs":"M"},"action":"harvest","summary":"good-harvest","bonus":1.5800000000000014},{"rt":750.6000000238419,"stimulus":"\n                    <p><b>Action: <em>harvest</em></b></p>\n                    <p>This is the bee that you just saw.</p>\n                    <img src=\"bees-with-color/bee-B1SM.svg\" width=\"200\">\n                    <p><span class=\"greenText\"><b>Successful harvest!</b></span><br>Your pay has increased by $0.02. Your bonus pay is now $0.58.</p>\n            ","response":0,"trial_type":"html-button-response","trial_index":66,"time_elapsed":451423,"internal_node_id":"0.0-4.0-1.29","subject_id":"5ef5f63c7aa58727ac4f8588","study_id":"6197b3f67c2b5cd3b6d9596a","session_id":"619beef1c0aee2f9df46b1a1","condition":"contingent","relevant_dimensions":["antennae","legs"],"bee_group":{"antennae":"A","wings":"X","pattern":"X","legs":"M"},"bonus":1.5800000000000014},{"rt":944.1000000238419,"stimulus":"bees-with-color/bee-B1DF.svg","response":0,"trial_type":"image-button-response","trial_index":67,"time_elapsed":452368,"internal_node_id":"0.0-4.0-0.30","subject_id":"5ef5f63c7aa58727ac4f8588","study_id":"6197b3f67c2b5cd3b6d9596a","session_id":"619beef1c0aee2f9df46b1a1","condition":"contingent","relevant_dimensions":["antennae","legs"],"bee_group":{"antennae":"A","wings":"X","pattern":"X","legs":"M"},"action":"harvest","summary":"good-harvest","bonus":1.5800000000000014},{"rt":758.6999999284744,"stimulus":"\n                    <p><b>Action: <em>harvest</em></b></p>\n                    <p>This is the bee that you just saw.</p>\n                    <img src=\"bees-with-color/bee-B1DF.svg\" width=\"200\">\n                    <p><span class=\"greenText\"><b>Successful harvest!</b></span><br>Your pay has increased by $0.02. Your bonus pay is now $0.60.</p>\n            ","response":0,"trial_type":"html-button-response","trial_index":68,"time_elapsed":453127,"internal_node_id":"0.0-4.0-1.30","subject_id":"5ef5f63c7aa58727ac4f8588","study_id":"6197b3f67c2b5cd3b6d9596a","session_id":"619beef1c0aee2f9df46b1a1","condition":"contingent","relevant_dimensions":["antennae","legs"],"bee_group":{"antennae":"A","wings":"X","pattern":"X","legs":"M"},"bonus":1.5800000000000014},{"rt":1415.3000000715256,"stimulus":"bees-with-color/bee-B2SM.svg","response":0,"trial_type":"image-button-response","trial_index":69,"time_elapsed":454544,"internal_node_id":"0.0-4.0-0.31","subject_id":"5ef5f63c7aa58727ac4f8588","study_id":"6197b3f67c2b5cd3b6d9596a","session_id":"619beef1c0aee2f9df46b1a1","condition":"contingent","relevant_dimensions":["antennae","legs"],"bee_group":{"antennae":"A","wings":"X","pattern":"X","legs":"M"},"action":"harvest","summary":"good-harvest","bonus":1.5800000000000014},{"rt":687,"stimulus":"\n                    <p><b>Action: <em>harvest</em></b></p>\n                    <p>This is the bee that you just saw.</p>\n                    <img src=\"bees-with-color/bee-B2SM.svg\" width=\"200\">\n                    <p><span class=\"greenText\"><b>Successful harvest!</b></span><br>Your pay has increased by $0.02. Your bonus pay is now $0.62.</p>\n            ","response":0,"trial_type":"html-button-response","trial_index":70,"time_elapsed":455232,"internal_node_id":"0.0-4.0-1.31","subject_id":"5ef5f63c7aa58727ac4f8588","study_id":"6197b3f67c2b5cd3b6d9596a","session_id":"619beef1c0aee2f9df46b1a1","condition":"contingent","relevant_dimensions":["antennae","legs"],"bee_group":{"antennae":"A","wings":"X","pattern":"X","legs":"M"},"bonus":1.5800000000000014},{"rt":847.1000000238419,"stimulus":"bees-with-color/bee-A1SF.svg","response":0,"trial_type":"image-button-response","trial_index":71,"time_elapsed":456080,"internal_node_id":"0.0-4.0-0.32","subject_id":"5ef5f63c7aa58727ac4f8588","study_id":"6197b3f67c2b5cd3b6d9596a","session_id":"619beef1c0aee2f9df46b1a1","condition":"contingent","relevant_dimensions":["antennae","legs"],"bee_group":{"antennae":"A","wings":"X","pattern":"X","legs":"M"},"action":"harvest","summary":"good-harvest","bonus":1.5800000000000014},{"rt":846.8999999761581,"stimulus":"\n                    <p><b>Action: <em>harvest</em></b></p>\n                    <p>This is the bee that you just saw.</p>\n                    <img src=\"bees-with-color/bee-A1SF.svg\" width=\"200\">\n                    <p><span class=\"greenText\"><b>Successful harvest!</b></span><br>Your pay has increased by $0.02. Your bonus pay is now $0.64.</p>\n            ","response":0,"trial_type":"html-button-response","trial_index":72,"time_elapsed":456928,"internal_node_id":"0.0-4.0-1.32","subject_id":"5ef5f63c7aa58727ac4f8588","study_id":"6197b3f67c2b5cd3b6d9596a","session_id":"619beef1c0aee2f9df46b1a1","condition":"contingent","relevant_dimensions":["antennae","legs"],"bee_group":{"antennae":"A","wings":"X","pattern":"X","legs":"M"},"bonus":1.5800000000000014},{"rt":702.8999999761581,"stimulus":"bees-with-color/bee-B1SF.svg","response":0,"trial_type":"image-button-response","trial_index":73,"time_elapsed":457631,"internal_node_id":"0.0-4.0-0.33","subject_id":"5ef5f63c7aa58727ac4f8588","study_id":"6197b3f67c2b5cd3b6d9596a","session_id":"619beef1c0aee2f9df46b1a1","condition":"contingent","relevant_dimensions":["antennae","legs"],"bee_group":{"antennae":"A","wings":"X","pattern":"X","legs":"M"},"action":"harvest","summary":"good-harvest","bonus":1.5800000000000014},{"rt":686.7999999523163,"stimulus":"\n                    <p><b>Action: <em>harvest</em></b></p>\n                    <p>This is the bee that you just saw.</p>\n                    <img src=\"bees-with-color/bee-B1SF.svg\" width=\"200\">\n                    <p><span class=\"greenText\"><b>Successful harvest!</b></span><br>Your pay has increased by $0.02. Your bonus pay is now $0.66.</p>\n            ","response":0,"trial_type":"html-button-response","trial_index":74,"time_elapsed":458319,"internal_node_id":"0.0-4.0-1.33","subject_id":"5ef5f63c7aa58727ac4f8588","study_id":"6197b3f67c2b5cd3b6d9596a","session_id":"619beef1c0aee2f9df46b1a1","condition":"contingent","relevant_dimensions":["antennae","legs"],"bee_group":{"antennae":"A","wings":"X","pattern":"X","legs":"M"},"bonus":1.5800000000000014},{"rt":1182.8000000715256,"stimulus":"bees-with-color/bee-B1SM.svg","response":0,"trial_type":"image-button-response","trial_index":75,"time_elapsed":459503,"internal_node_id":"0.0-4.0-0.34","subject_id":"5ef5f63c7aa58727ac4f8588","study_id":"6197b3f67c2b5cd3b6d9596a","session_id":"619beef1c0aee2f9df46b1a1","condition":"contingent","relevant_dimensions":["antennae","legs"],"bee_group":{"antennae":"A","wings":"X","pattern":"X","legs":"M"},"action":"harvest","summary":"good-harvest","bonus":1.5800000000000014},{"rt":591.1999999284744,"stimulus":"\n                    <p><b>Action: <em>harvest</em></b></p>\n                    <p>This is the bee that you just saw.</p>\n                    <img src=\"bees-with-color/bee-B1SM.svg\" width=\"200\">\n                    <p><span class=\"greenText\"><b>Successful harvest!</b></span><br>Your pay has increased by $0.02. Your bonus pay is now $0.68.</p>\n            ","response":0,"trial_type":"html-button-response","trial_index":76,"time_elapsed":460095,"internal_node_id":"0.0-4.0-1.34","subject_id":"5ef5f63c7aa58727ac4f8588","study_id":"6197b3f67c2b5cd3b6d9596a","session_id":"619beef1c0aee2f9df46b1a1","condition":"contingent","relevant_dimensions":["antennae","legs"],"bee_group":{"antennae":"A","wings":"X","pattern":"X","legs":"M"},"bonus":1.5800000000000014},{"rt":591.2000000476837,"stimulus":"bees-with-color/bee-B2SF.svg","response":0,"trial_type":"image-button-response","trial_index":77,"time_elapsed":460688,"internal_node_id":"0.0-4.0-0.35","subject_id":"5ef5f63c7aa58727ac4f8588","study_id":"6197b3f67c2b5cd3b6d9596a","session_id":"619beef1c0aee2f9df46b1a1","condition":"contingent","relevant_dimensions":["antennae","legs"],"bee_group":{"antennae":"A","wings":"X","pattern":"X","legs":"M"},"action":"harvest","summary":"good-harvest","bonus":1.5800000000000014},{"rt":710.7999999523163,"stimulus":"\n                    <p><b>Action: <em>harvest</em></b></p>\n                    <p>This is the bee that you just saw.</p>\n                    <img src=\"bees-with-color/bee-B2SF.svg\" width=\"200\">\n                    <p><span class=\"greenText\"><b>Successful harvest!</b></span><br>Your pay has increased by $0.02. Your bonus pay is now $0.70.</p>\n            ","response":0,"trial_type":"html-button-response","trial_index":78,"time_elapsed":461400,"internal_node_id":"0.0-4.0-1.35","subject_id":"5ef5f63c7aa58727ac4f8588","study_id":"6197b3f67c2b5cd3b6d9596a","session_id":"619beef1c0aee2f9df46b1a1","condition":"contingent","relevant_dimensions":["antennae","legs"],"bee_group":{"antennae":"A","wings":"X","pattern":"X","legs":"M"},"bonus":1.5800000000000014},{"rt":1110.8999999761581,"stimulus":"bees-with-color/bee-A1DM.svg","response":1,"trial_type":"image-button-response","trial_index":79,"time_elapsed":462512,"internal_node_id":"0.0-4.0-0.36","subject_id":"5ef5f63c7aa58727ac4f8588","study_id":"6197b3f67c2b5cd3b6d9596a","session_id":"619beef1c0aee2f9df46b1a1","condition":"contingent","relevant_dimensions":["antennae","legs"],"bee_group":{"antennae":"A","wings":"X","pattern":"X","legs":"M"},"action":"avoid","summary":"good-avoid","bonus":1.5800000000000014},{"rt":655,"stimulus":"\n                    <p><b>Action: <em>avoid</em></b></p>\n                    <p>This is the bee that you just saw.</p>\n                    <img src=\"bees-with-color/bee-A1DM.svg\" width=\"200\">\n                    <p><br>Your bonus pay is unchanged, and remains at $0.70.</p>\n            ","response":0,"trial_type":"html-button-response","trial_index":80,"time_elapsed":463168,"internal_node_id":"0.0-4.0-1.36","subject_id":"5ef5f63c7aa58727ac4f8588","study_id":"6197b3f67c2b5cd3b6d9596a","session_id":"619beef1c0aee2f9df46b1a1","condition":"contingent","relevant_dimensions":["antennae","legs"],"bee_group":{"antennae":"A","wings":"X","pattern":"X","legs":"M"},"bonus":1.5800000000000014},{"rt":886.8999999761581,"stimulus":"bees-with-color/bee-A2SM.svg","response":1,"trial_type":"image-button-response","trial_index":81,"time_elapsed":464056,"internal_node_id":"0.0-4.0-0.37","subject_id":"5ef5f63c7aa58727ac4f8588","study_id":"6197b3f67c2b5cd3b6d9596a","session_id":"619beef1c0aee2f9df46b1a1","condition":"contingent","relevant_dimensions":["antennae","legs"],"bee_group":{"antennae":"A","wings":"X","pattern":"X","legs":"M"},"action":"avoid","summary":"good-avoid","bonus":1.5800000000000014},{"rt":567.1000000238419,"stimulus":"\n                    <p><b>Action: <em>avoid</em></b></p>\n                    <p>This is the bee that you just saw.</p>\n                    <img src=\"bees-with-color/bee-A2SM.svg\" width=\"200\">\n                    <p><br>Your bonus pay is unchanged, and remains at $0.70.</p>\n            ","response":0,"trial_type":"html-button-response","trial_index":82,"time_elapsed":464624,"internal_node_id":"0.0-4.0-1.37","subject_id":"5ef5f63c7aa58727ac4f8588","study_id":"6197b3f67c2b5cd3b6d9596a","session_id":"619beef1c0aee2f9df46b1a1","condition":"contingent","relevant_dimensions":["antennae","legs"],"bee_group":{"antennae":"A","wings":"X","pattern":"X","legs":"M"},"bonus":1.5800000000000014},{"rt":862.6999999284744,"stimulus":"bees-with-color/bee-B2SM.svg","response":0,"trial_type":"image-button-response","trial_index":83,"time_elapsed":465488,"internal_node_id":"0.0-4.0-0.38","subject_id":"5ef5f63c7aa58727ac4f8588","study_id":"6197b3f67c2b5cd3b6d9596a","session_id":"619beef1c0aee2f9df46b1a1","condition":"contingent","relevant_dimensions":["antennae","legs"],"bee_group":{"antennae":"A","wings":"X","pattern":"X","legs":"M"},"action":"harvest","summary":"good-harvest","bonus":1.5800000000000014},{"rt":711,"stimulus":"\n                    <p><b>Action: <em>harvest</em></b></p>\n                    <p>This is the bee that you just saw.</p>\n                    <img src=\"bees-with-color/bee-B2SM.svg\" width=\"200\">\n                    <p><span class=\"greenText\"><b>Successful harvest!</b></span><br>Your pay has increased by $0.02. Your bonus pay is now $0.72.</p>\n            ","response":0,"trial_type":"html-button-response","trial_index":84,"time_elapsed":466200,"internal_node_id":"0.0-4.0-1.38","subject_id":"5ef5f63c7aa58727ac4f8588","study_id":"6197b3f67c2b5cd3b6d9596a","session_id":"619beef1c0aee2f9df46b1a1","condition":"contingent","relevant_dimensions":["antennae","legs"],"bee_group":{"antennae":"A","wings":"X","pattern":"X","legs":"M"},"bonus":1.5800000000000014},{"rt":630.6000000238419,"stimulus":"bees-with-color/bee-A2DF.svg","response":0,"trial_type":"image-button-response","trial_index":85,"time_elapsed":466832,"internal_node_id":"0.0-4.0-0.39","subject_id":"5ef5f63c7aa58727ac4f8588","study_id":"6197b3f67c2b5cd3b6d9596a","session_id":"619beef1c0aee2f9df46b1a1","condition":"contingent","relevant_dimensions":["antennae","legs"],"bee_group":{"antennae":"A","wings":"X","pattern":"X","legs":"M"},"action":"harvest","summary":"good-harvest","bonus":1.5800000000000014},{"rt":639.3000000715256,"stimulus":"\n                    <p><b>Action: <em>harvest</em></b></p>\n                    <p>This is the bee that you just saw.</p>\n                    <img src=\"bees-with-color/bee-A2DF.svg\" width=\"200\">\n                    <p><span class=\"greenText\"><b>Successful harvest!</b></span><br>Your pay has increased by $0.02. Your bonus pay is now $0.74.</p>\n            ","response":0,"trial_type":"html-button-response","trial_index":86,"time_elapsed":467472,"internal_node_id":"0.0-4.0-1.39","subject_id":"5ef5f63c7aa58727ac4f8588","study_id":"6197b3f67c2b5cd3b6d9596a","session_id":"619beef1c0aee2f9df46b1a1","condition":"contingent","relevant_dimensions":["antennae","legs"],"bee_group":{"antennae":"A","wings":"X","pattern":"X","legs":"M"},"bonus":1.5800000000000014},{"rt":766.8999999761581,"stimulus":"bees-with-color/bee-B2DM.svg","response":0,"trial_type":"image-button-response","trial_index":87,"time_elapsed":468240,"internal_node_id":"0.0-4.0-0.40","subject_id":"5ef5f63c7aa58727ac4f8588","study_id":"6197b3f67c2b5cd3b6d9596a","session_id":"619beef1c0aee2f9df46b1a1","condition":"contingent","relevant_dimensions":["antennae","legs"],"bee_group":{"antennae":"A","wings":"X","pattern":"X","legs":"M"},"action":"harvest","summary":"good-harvest","bonus":1.5800000000000014},{"rt":542.7000000476837,"stimulus":"\n                    <p><b>Action: <em>harvest</em></b></p>\n                    <p>This is the bee that you just saw.</p>\n                    <img src=\"bees-with-color/bee-B2DM.svg\" width=\"200\">\n                    <p><span class=\"greenText\"><b>Successful harvest!</b></span><br>Your pay has increased by $0.02. Your bonus pay is now $0.76.</p>\n            ","response":0,"trial_type":"html-button-response","trial_index":88,"time_elapsed":468784,"internal_node_id":"0.0-4.0-1.40","subject_id":"5ef5f63c7aa58727ac4f8588","study_id":"6197b3f67c2b5cd3b6d9596a","session_id":"619beef1c0aee2f9df46b1a1","condition":"contingent","relevant_dimensions":["antennae","legs"],"bee_group":{"antennae":"A","wings":"X","pattern":"X","legs":"M"},"bonus":1.5800000000000014},{"rt":598.6999999284744,"stimulus":"bees-with-color/bee-B1DM.svg","response":0,"trial_type":"image-button-response","trial_index":89,"time_elapsed":469384,"internal_node_id":"0.0-4.0-0.41","subject_id":"5ef5f63c7aa58727ac4f8588","study_id":"6197b3f67c2b5cd3b6d9596a","session_id":"619beef1c0aee2f9df46b1a1","condition":"contingent","relevant_dimensions":["antennae","legs"],"bee_group":{"antennae":"A","wings":"X","pattern":"X","legs":"M"},"action":"harvest","summary":"good-harvest","bonus":1.5800000000000014},{"rt":543,"stimulus":"\n                    <p><b>Action: <em>harvest</em></b></p>\n                    <p>This is the bee that you just saw.</p>\n                    <img src=\"bees-with-color/bee-B1DM.svg\" width=\"200\">\n                    <p><span class=\"greenText\"><b>Successful harvest!</b></span><br>Your pay has increased by $0.02. Your bonus pay is now $0.78.</p>\n            ","response":0,"trial_type":"html-button-response","trial_index":90,"time_elapsed":469928,"internal_node_id":"0.0-4.0-1.41","subject_id":"5ef5f63c7aa58727ac4f8588","study_id":"6197b3f67c2b5cd3b6d9596a","session_id":"619beef1c0aee2f9df46b1a1","condition":"contingent","relevant_dimensions":["antennae","legs"],"bee_group":{"antennae":"A","wings":"X","pattern":"X","legs":"M"},"bonus":1.5800000000000014},{"rt":718.7000000476837,"stimulus":"bees-with-color/bee-A1DF.svg","response":0,"trial_type":"image-button-response","trial_index":91,"time_elapsed":470648,"internal_node_id":"0.0-4.0-0.42","subject_id":"5ef5f63c7aa58727ac4f8588","study_id":"6197b3f67c2b5cd3b6d9596a","session_id":"619beef1c0aee2f9df46b1a1","condition":"contingent","relevant_dimensions":["antennae","legs"],"bee_group":{"antennae":"A","wings":"X","pattern":"X","legs":"M"},"action":"harvest","summary":"good-harvest","bonus":1.5800000000000014},{"rt":527.1000000238419,"stimulus":"\n                    <p><b>Action: <em>harvest</em></b></p>\n                    <p>This is the bee that you just saw.</p>\n                    <img src=\"bees-with-color/bee-A1DF.svg\" width=\"200\">\n                    <p><span class=\"greenText\"><b>Successful harvest!</b></span><br>Your pay has increased by $0.02. Your bonus pay is now $0.80.</p>\n            ","response":0,"trial_type":"html-button-response","trial_index":92,"time_elapsed":471176,"internal_node_id":"0.0-4.0-1.42","subject_id":"5ef5f63c7aa58727ac4f8588","study_id":"6197b3f67c2b5cd3b6d9596a","session_id":"619beef1c0aee2f9df46b1a1","condition":"contingent","relevant_dimensions":["antennae","legs"],"bee_group":{"antennae":"A","wings":"X","pattern":"X","legs":"M"},"bonus":1.5800000000000014},{"rt":870.6999999284744,"stimulus":"bees-with-color/bee-B1DF.svg","response":0,"trial_type":"image-button-response","trial_index":93,"time_elapsed":472048,"internal_node_id":"0.0-4.0-0.43","subject_id":"5ef5f63c7aa58727ac4f8588","study_id":"6197b3f67c2b5cd3b6d9596a","session_id":"619beef1c0aee2f9df46b1a1","condition":"contingent","relevant_dimensions":["antennae","legs"],"bee_group":{"antennae":"A","wings":"X","pattern":"X","legs":"M"},"action":"harvest","summary":"good-harvest","bonus":1.5800000000000014},{"rt":582.6000000238419,"stimulus":"\n                    <p><b>Action: <em>harvest</em></b></p>\n                    <p>This is the bee that you just saw.</p>\n                    <img src=\"bees-with-color/bee-B1DF.svg\" width=\"200\">\n                    <p><span class=\"greenText\"><b>Successful harvest!</b></span><br>Your pay has increased by $0.02. Your bonus pay is now $0.82.</p>\n            ","response":0,"trial_type":"html-button-response","trial_index":94,"time_elapsed":472632,"internal_node_id":"0.0-4.0-1.43","subject_id":"5ef5f63c7aa58727ac4f8588","study_id":"6197b3f67c2b5cd3b6d9596a","session_id":"619beef1c0aee2f9df46b1a1","condition":"contingent","relevant_dimensions":["antennae","legs"],"bee_group":{"antennae":"A","wings":"X","pattern":"X","legs":"M"},"bonus":1.5800000000000014},{"rt":855.2000000476837,"stimulus":"bees-with-color/bee-A2SF.svg","response":0,"trial_type":"image-button-response","trial_index":95,"time_elapsed":473488,"internal_node_id":"0.0-4.0-0.44","subject_id":"5ef5f63c7aa58727ac4f8588","study_id":"6197b3f67c2b5cd3b6d9596a","session_id":"619beef1c0aee2f9df46b1a1","condition":"contingent","relevant_dimensions":["antennae","legs"],"bee_group":{"antennae":"A","wings":"X","pattern":"X","legs":"M"},"action":"harvest","summary":"good-harvest","bonus":1.5800000000000014},{"rt":566.7000000476837,"stimulus":"\n                    <p><b>Action: <em>harvest</em></b></p>\n                    <p>This is the bee that you just saw.</p>\n                    <img src=\"bees-with-color/bee-A2SF.svg\" width=\"200\">\n                    <p><span class=\"greenText\"><b>Successful harvest!</b></span><br>Your pay has increased by $0.02. Your bonus pay is now $0.84.</p>\n            ","response":0,"trial_type":"html-button-response","trial_index":96,"time_elapsed":474056,"internal_node_id":"0.0-4.0-1.44","subject_id":"5ef5f63c7aa58727ac4f8588","study_id":"6197b3f67c2b5cd3b6d9596a","session_id":"619beef1c0aee2f9df46b1a1","condition":"contingent","relevant_dimensions":["antennae","legs"],"bee_group":{"antennae":"A","wings":"X","pattern":"X","legs":"M"},"bonus":1.5800000000000014},{"rt":1254.8999999761581,"stimulus":"bees-with-color/bee-A2DM.svg","response":1,"trial_type":"image-button-response","trial_index":97,"time_elapsed":475312,"internal_node_id":"0.0-4.0-0.45","subject_id":"5ef5f63c7aa58727ac4f8588","study_id":"6197b3f67c2b5cd3b6d9596a","session_id":"619beef1c0aee2f9df46b1a1","condition":"contingent","relevant_dimensions":["antennae","legs"],"bee_group":{"antennae":"A","wings":"X","pattern":"X","legs":"M"},"action":"avoid","summary":"good-avoid","bonus":1.5800000000000014},{"rt":998.3999999761581,"stimulus":"\n                    <p><b>Action: <em>avoid</em></b></p>\n                    <p>This is the bee that you just saw.</p>\n                    <img src=\"bees-with-color/bee-A2DM.svg\" width=\"200\">\n                    <p><br>Your bonus pay is unchanged, and remains at $0.84.</p>\n            ","response":0,"trial_type":"html-button-response","trial_index":98,"time_elapsed":476312,"internal_node_id":"0.0-4.0-1.45","subject_id":"5ef5f63c7aa58727ac4f8588","study_id":"6197b3f67c2b5cd3b6d9596a","session_id":"619beef1c0aee2f9df46b1a1","condition":"contingent","relevant_dimensions":["antennae","legs"],"bee_group":{"antennae":"A","wings":"X","pattern":"X","legs":"M"},"bonus":1.5800000000000014},{"rt":750.8999999761581,"stimulus":"bees-with-color/bee-B2DF.svg","response":0,"trial_type":"image-button-response","trial_index":99,"time_elapsed":477064,"internal_node_id":"0.0-4.0-0.46","subject_id":"5ef5f63c7aa58727ac4f8588","study_id":"6197b3f67c2b5cd3b6d9596a","session_id":"619beef1c0aee2f9df46b1a1","condition":"contingent","relevant_dimensions":["antennae","legs"],"bee_group":{"antennae":"A","wings":"X","pattern":"X","legs":"M"},"action":"harvest","summary":"good-harvest","bonus":1.5800000000000014},{"rt":710.7000000476837,"stimulus":"\n                    <p><b>Action: <em>harvest</em></b></p>\n                    <p>This is the bee that you just saw.</p>\n                    <img src=\"bees-with-color/bee-B2DF.svg\" width=\"200\">\n                    <p><span class=\"greenText\"><b>Successful harvest!</b></span><br>Your pay has increased by $0.02. Your bonus pay is now $0.86.</p>\n            ","response":0,"trial_type":"html-button-response","trial_index":100,"time_elapsed":477776,"internal_node_id":"0.0-4.0-1.46","subject_id":"5ef5f63c7aa58727ac4f8588","study_id":"6197b3f67c2b5cd3b6d9596a","session_id":"619beef1c0aee2f9df46b1a1","condition":"contingent","relevant_dimensions":["antennae","legs"],"bee_group":{"antennae":"A","wings":"X","pattern":"X","legs":"M"},"bonus":1.5800000000000014},{"rt":975.1000000238419,"stimulus":"bees-with-color/bee-A1SM.svg","response":1,"trial_type":"image-button-response","trial_index":101,"time_elapsed":478752,"internal_node_id":"0.0-4.0-0.47","subject_id":"5ef5f63c7aa58727ac4f8588","study_id":"6197b3f67c2b5cd3b6d9596a","session_id":"619beef1c0aee2f9df46b1a1","condition":"contingent","relevant_dimensions":["antennae","legs"],"bee_group":{"antennae":"A","wings":"X","pattern":"X","legs":"M"},"action":"avoid","summary":"good-avoid","bonus":1.5800000000000014},{"rt":678.5,"stimulus":"\n                    <p><b>Action: <em>avoid</em></b></p>\n                    <p>This is the bee that you just saw.</p>\n                    <img src=\"bees-with-color/bee-A1SM.svg\" width=\"200\">\n                    <p><br>Your bonus pay is unchanged, and remains at $0.86.</p>\n            ","response":0,"trial_type":"html-button-response","trial_index":102,"time_elapsed":479432,"internal_node_id":"0.0-4.0-1.47","subject_id":"5ef5f63c7aa58727ac4f8588","study_id":"6197b3f67c2b5cd3b6d9596a","session_id":"619beef1c0aee2f9df46b1a1","condition":"contingent","relevant_dimensions":["antennae","legs"],"bee_group":{"antennae":"A","wings":"X","pattern":"X","legs":"M"},"bonus":1.5800000000000014},{"rt":758.7999999523163,"stimulus":"bees-with-color/bee-B2DF.svg","response":0,"trial_type":"image-button-response","trial_index":103,"time_elapsed":480192,"internal_node_id":"0.0-4.0-0.48","subject_id":"5ef5f63c7aa58727ac4f8588","study_id":"6197b3f67c2b5cd3b6d9596a","session_id":"619beef1c0aee2f9df46b1a1","condition":"contingent","relevant_dimensions":["antennae","legs"],"bee_group":{"antennae":"A","wings":"X","pattern":"X","legs":"M"},"action":"harvest","summary":"good-harvest","bonus":1.5800000000000014},{"rt":911,"stimulus":"\n                    <p><b>Action: <em>harvest</em></b></p>\n                    <p>This is the bee that you just saw.</p>\n                    <img src=\"bees-with-color/bee-B2DF.svg\" width=\"200\">\n                    <p><span class=\"greenText\"><b>Successful harvest!</b></span><br>Your pay has increased by $0.02. Your bonus pay is now $0.88.</p>\n            ","response":0,"trial_type":"html-button-response","trial_index":104,"time_elapsed":481104,"internal_node_id":"0.0-4.0-1.48","subject_id":"5ef5f63c7aa58727ac4f8588","study_id":"6197b3f67c2b5cd3b6d9596a","session_id":"619beef1c0aee2f9df46b1a1","condition":"contingent","relevant_dimensions":["antennae","legs"],"bee_group":{"antennae":"A","wings":"X","pattern":"X","legs":"M"},"bonus":1.5800000000000014},{"rt":999.3999999761581,"stimulus":"bees-with-color/bee-A1SM.svg","response":1,"trial_type":"image-button-response","trial_index":105,"time_elapsed":482104,"internal_node_id":"0.0-4.0-0.49","subject_id":"5ef5f63c7aa58727ac4f8588","study_id":"6197b3f67c2b5cd3b6d9596a","session_id":"619beef1c0aee2f9df46b1a1","condition":"contingent","relevant_dimensions":["antennae","legs"],"bee_group":{"antennae":"A","wings":"X","pattern":"X","legs":"M"},"action":"avoid","summary":"good-avoid","bonus":1.5800000000000014},{"rt":646.7000000476837,"stimulus":"\n                    <p><b>Action: <em>avoid</em></b></p>\n                    <p>This is the bee that you just saw.</p>\n                    <img src=\"bees-with-color/bee-A1SM.svg\" width=\"200\">\n                    <p><br>Your bonus pay is unchanged, and remains at $0.88.</p>\n            ","response":0,"trial_type":"html-button-response","trial_index":106,"time_elapsed":482752,"internal_node_id":"0.0-4.0-1.49","subject_id":"5ef5f63c7aa58727ac4f8588","study_id":"6197b3f67c2b5cd3b6d9596a","session_id":"619beef1c0aee2f9df46b1a1","condition":"contingent","relevant_dimensions":["antennae","legs"],"bee_group":{"antennae":"A","wings":"X","pattern":"X","legs":"M"},"bonus":1.5800000000000014},{"rt":647.5,"stimulus":"bees-with-color/bee-A2DF.svg","response":0,"trial_type":"image-button-response","trial_index":107,"time_elapsed":483400,"internal_node_id":"0.0-4.0-0.50","subject_id":"5ef5f63c7aa58727ac4f8588","study_id":"6197b3f67c2b5cd3b6d9596a","session_id":"619beef1c0aee2f9df46b1a1","condition":"contingent","relevant_dimensions":["antennae","legs"],"bee_group":{"antennae":"A","wings":"X","pattern":"X","legs":"M"},"action":"harvest","summary":"good-harvest","bonus":1.5800000000000014},{"rt":655.1000000238419,"stimulus":"\n                    <p><b>Action: <em>harvest</em></b></p>\n                    <p>This is the bee that you just saw.</p>\n                    <img src=\"bees-with-color/bee-A2DF.svg\" width=\"200\">\n                    <p><span class=\"greenText\"><b>Successful harvest!</b></span><br>Your pay has increased by $0.02. Your bonus pay is now $0.90.</p>\n            ","response":0,"trial_type":"html-button-response","trial_index":108,"time_elapsed":484056,"internal_node_id":"0.0-4.0-1.50","subject_id":"5ef5f63c7aa58727ac4f8588","study_id":"6197b3f67c2b5cd3b6d9596a","session_id":"619beef1c0aee2f9df46b1a1","condition":"contingent","relevant_dimensions":["antennae","legs"],"bee_group":{"antennae":"A","wings":"X","pattern":"X","legs":"M"},"bonus":1.5800000000000014},{"rt":638.6000000238419,"stimulus":"bees-with-color/bee-A1SF.svg","response":0,"trial_type":"image-button-response","trial_index":109,"time_elapsed":484696,"internal_node_id":"0.0-4.0-0.51","subject_id":"5ef5f63c7aa58727ac4f8588","study_id":"6197b3f67c2b5cd3b6d9596a","session_id":"619beef1c0aee2f9df46b1a1","condition":"contingent","relevant_dimensions":["antennae","legs"],"bee_group":{"antennae":"A","wings":"X","pattern":"X","legs":"M"},"action":"harvest","summary":"good-harvest","bonus":1.5800000000000014},{"rt":631.6000000238419,"stimulus":"\n                    <p><b>Action: <em>harvest</em></b></p>\n                    <p>This is the bee that you just saw.</p>\n                    <img src=\"bees-with-color/bee-A1SF.svg\" width=\"200\">\n                    <p><span class=\"greenText\"><b>Successful harvest!</b></span><br>Your pay has increased by $0.02. Your bonus pay is now $0.92.</p>\n            ","response":0,"trial_type":"html-button-response","trial_index":110,"time_elapsed":485328,"internal_node_id":"0.0-4.0-1.51","subject_id":"5ef5f63c7aa58727ac4f8588","study_id":"6197b3f67c2b5cd3b6d9596a","session_id":"619beef1c0aee2f9df46b1a1","condition":"contingent","relevant_dimensions":["antennae","legs"],"bee_group":{"antennae":"A","wings":"X","pattern":"X","legs":"M"},"bonus":1.5800000000000014},{"rt":886.8999999761581,"stimulus":"bees-with-color/bee-B1DF.svg","response":0,"trial_type":"image-button-response","trial_index":111,"time_elapsed":486216,"internal_node_id":"0.0-4.0-0.52","subject_id":"5ef5f63c7aa58727ac4f8588","study_id":"6197b3f67c2b5cd3b6d9596a","session_id":"619beef1c0aee2f9df46b1a1","condition":"contingent","relevant_dimensions":["antennae","legs"],"bee_group":{"antennae":"A","wings":"X","pattern":"X","legs":"M"},"action":"harvest","summary":"good-harvest","bonus":1.5800000000000014},{"rt":2359.3000000715256,"stimulus":"\n                    <p><b>Action: <em>harvest</em></b></p>\n                    <p>This is the bee that you just saw.</p>\n                    <img src=\"bees-with-color/bee-B1DF.svg\" width=\"200\">\n                    <p><span class=\"greenText\"><b>Successful harvest!</b></span><br>Your pay has increased by $0.02. Your bonus pay is now $0.94.</p>\n            ","response":0,"trial_type":"html-button-response","trial_index":112,"time_elapsed":488576,"internal_node_id":"0.0-4.0-1.52","subject_id":"5ef5f63c7aa58727ac4f8588","study_id":"6197b3f67c2b5cd3b6d9596a","session_id":"619beef1c0aee2f9df46b1a1","condition":"contingent","relevant_dimensions":["antennae","legs"],"bee_group":{"antennae":"A","wings":"X","pattern":"X","legs":"M"},"bonus":1.5800000000000014},{"rt":743.1000000238419,"stimulus":"bees-with-color/bee-B1DM.svg","response":0,"trial_type":"image-button-response","trial_index":113,"time_elapsed":489321,"internal_node_id":"0.0-4.0-0.53","subject_id":"5ef5f63c7aa58727ac4f8588","study_id":"6197b3f67c2b5cd3b6d9596a","session_id":"619beef1c0aee2f9df46b1a1","condition":"contingent","relevant_dimensions":["antennae","legs"],"bee_group":{"antennae":"A","wings":"X","pattern":"X","legs":"M"},"action":"harvest","summary":"good-harvest","bonus":1.5800000000000014},{"rt":718.3999999761581,"stimulus":"\n                    <p><b>Action: <em>harvest</em></b></p>\n                    <p>This is the bee that you just saw.</p>\n                    <img src=\"bees-with-color/bee-B1DM.svg\" width=\"200\">\n                    <p><span class=\"greenText\"><b>Successful harvest!</b></span><br>Your pay has increased by $0.02. Your bonus pay is now $0.96.</p>\n            ","response":0,"trial_type":"html-button-response","trial_index":114,"time_elapsed":490040,"internal_node_id":"0.0-4.0-1.53","subject_id":"5ef5f63c7aa58727ac4f8588","study_id":"6197b3f67c2b5cd3b6d9596a","session_id":"619beef1c0aee2f9df46b1a1","condition":"contingent","relevant_dimensions":["antennae","legs"],"bee_group":{"antennae":"A","wings":"X","pattern":"X","legs":"M"},"bonus":1.5800000000000014},{"rt":726.8999999761581,"stimulus":"bees-with-color/bee-B1SM.svg","response":0,"trial_type":"image-button-response","trial_index":115,"time_elapsed":490768,"internal_node_id":"0.0-4.0-0.54","subject_id":"5ef5f63c7aa58727ac4f8588","study_id":"6197b3f67c2b5cd3b6d9596a","session_id":"619beef1c0aee2f9df46b1a1","condition":"contingent","relevant_dimensions":["antennae","legs"],"bee_group":{"antennae":"A","wings":"X","pattern":"X","legs":"M"},"action":"harvest","summary":"good-harvest","bonus":1.5800000000000014},{"rt":583.0999999046326,"stimulus":"\n                    <p><b>Action: <em>harvest</em></b></p>\n                    <p>This is the bee that you just saw.</p>\n                    <img src=\"bees-with-color/bee-B1SM.svg\" width=\"200\">\n                    <p><span class=\"greenText\"><b>Successful harvest!</b></span><br>Your pay has increased by $0.02. Your bonus pay is now $0.98.</p>\n            ","response":0,"trial_type":"html-button-response","trial_index":116,"time_elapsed":491352,"internal_node_id":"0.0-4.0-1.54","subject_id":"5ef5f63c7aa58727ac4f8588","study_id":"6197b3f67c2b5cd3b6d9596a","session_id":"619beef1c0aee2f9df46b1a1","condition":"contingent","relevant_dimensions":["antennae","legs"],"bee_group":{"antennae":"A","wings":"X","pattern":"X","legs":"M"},"bonus":1.5800000000000014},{"rt":863,"stimulus":"bees-with-color/bee-A2SM.svg","response":1,"trial_type":"image-button-response","trial_index":117,"time_elapsed":492216,"internal_node_id":"0.0-4.0-0.55","subject_id":"5ef5f63c7aa58727ac4f8588","study_id":"6197b3f67c2b5cd3b6d9596a","session_id":"619beef1c0aee2f9df46b1a1","condition":"contingent","relevant_dimensions":["antennae","legs"],"bee_group":{"antennae":"A","wings":"X","pattern":"X","legs":"M"},"action":"avoid","summary":"good-avoid","bonus":1.5800000000000014},{"rt":590.7999999523163,"stimulus":"\n                    <p><b>Action: <em>avoid</em></b></p>\n                    <p>This is the bee that you just saw.</p>\n                    <img src=\"bees-with-color/bee-A2SM.svg\" width=\"200\">\n                    <p><br>Your bonus pay is unchanged, and remains at $0.98.</p>\n            ","response":0,"trial_type":"html-button-response","trial_index":118,"time_elapsed":492808,"internal_node_id":"0.0-4.0-1.55","subject_id":"5ef5f63c7aa58727ac4f8588","study_id":"6197b3f67c2b5cd3b6d9596a","session_id":"619beef1c0aee2f9df46b1a1","condition":"contingent","relevant_dimensions":["antennae","legs"],"bee_group":{"antennae":"A","wings":"X","pattern":"X","legs":"M"},"bonus":1.5800000000000014},{"rt":767.2000000476837,"stimulus":"bees-with-color/bee-A1DF.svg","response":0,"trial_type":"image-button-response","trial_index":119,"time_elapsed":493576,"internal_node_id":"0.0-4.0-0.56","subject_id":"5ef5f63c7aa58727ac4f8588","study_id":"6197b3f67c2b5cd3b6d9596a","session_id":"619beef1c0aee2f9df46b1a1","condition":"contingent","relevant_dimensions":["antennae","legs"],"bee_group":{"antennae":"A","wings":"X","pattern":"X","legs":"M"},"action":"harvest","summary":"good-harvest","bonus":1.5800000000000014},{"rt":622.6999999284744,"stimulus":"\n                    <p><b>Action: <em>harvest</em></b></p>\n                    <p>This is the bee that you just saw.</p>\n                    <img src=\"bees-with-color/bee-A1DF.svg\" width=\"200\">\n                    <p><span class=\"greenText\"><b>Successful harvest!</b></span><br>Your pay has increased by $0.02. Your bonus pay is now $1.00.</p>\n            ","response":0,"trial_type":"html-button-response","trial_index":120,"time_elapsed":494200,"internal_node_id":"0.0-4.0-1.56","subject_id":"5ef5f63c7aa58727ac4f8588","study_id":"6197b3f67c2b5cd3b6d9596a","session_id":"619beef1c0aee2f9df46b1a1","condition":"contingent","relevant_dimensions":["antennae","legs"],"bee_group":{"antennae":"A","wings":"X","pattern":"X","legs":"M"},"bonus":1.5800000000000014},{"rt":1495.2000000476837,"stimulus":"bees-with-color/bee-A2SF.svg","response":0,"trial_type":"image-button-response","trial_index":121,"time_elapsed":495696,"internal_node_id":"0.0-4.0-0.57","subject_id":"5ef5f63c7aa58727ac4f8588","study_id":"6197b3f67c2b5cd3b6d9596a","session_id":"619beef1c0aee2f9df46b1a1","condition":"contingent","relevant_dimensions":["antennae","legs"],"bee_group":{"antennae":"A","wings":"X","pattern":"X","legs":"M"},"action":"harvest","summary":"good-harvest","bonus":1.5800000000000014},{"rt":934.7999999523163,"stimulus":"\n                    <p><b>Action: <em>harvest</em></b></p>\n                    <p>This is the bee that you just saw.</p>\n                    <img src=\"bees-with-color/bee-A2SF.svg\" width=\"200\">\n                    <p><span class=\"greenText\"><b>Successful harvest!</b></span><br>Your pay has increased by $0.02. Your bonus pay is now $1.02.</p>\n            ","response":0,"trial_type":"html-button-response","trial_index":122,"time_elapsed":496632,"internal_node_id":"0.0-4.0-1.57","subject_id":"5ef5f63c7aa58727ac4f8588","study_id":"6197b3f67c2b5cd3b6d9596a","session_id":"619beef1c0aee2f9df46b1a1","condition":"contingent","relevant_dimensions":["antennae","legs"],"bee_group":{"antennae":"A","wings":"X","pattern":"X","legs":"M"},"bonus":1.5800000000000014},{"rt":654.7000000476837,"stimulus":"bees-with-color/bee-B1SF.svg","response":0,"trial_type":"image-button-response","trial_index":123,"time_elapsed":497288,"internal_node_id":"0.0-4.0-0.58","subject_id":"5ef5f63c7aa58727ac4f8588","study_id":"6197b3f67c2b5cd3b6d9596a","session_id":"619beef1c0aee2f9df46b1a1","condition":"contingent","relevant_dimensions":["antennae","legs"],"bee_group":{"antennae":"A","wings":"X","pattern":"X","legs":"M"},"action":"harvest","summary":"good-harvest","bonus":1.5800000000000014},{"rt":662.8999999761581,"stimulus":"\n                    <p><b>Action: <em>harvest</em></b></p>\n                    <p>This is the bee that you just saw.</p>\n                    <img src=\"bees-with-color/bee-B1SF.svg\" width=\"200\">\n                    <p><span class=\"greenText\"><b>Successful harvest!</b></span><br>Your pay has increased by $0.02. Your bonus pay is now $1.04.</p>\n            ","response":0,"trial_type":"html-button-response","trial_index":124,"time_elapsed":497952,"internal_node_id":"0.0-4.0-1.58","subject_id":"5ef5f63c7aa58727ac4f8588","study_id":"6197b3f67c2b5cd3b6d9596a","session_id":"619beef1c0aee2f9df46b1a1","condition":"contingent","relevant_dimensions":["antennae","legs"],"bee_group":{"antennae":"A","wings":"X","pattern":"X","legs":"M"},"bonus":1.5800000000000014},{"rt":1118.7999999523163,"stimulus":"bees-with-color/bee-A1DM.svg","response":1,"trial_type":"image-button-response","trial_index":125,"time_elapsed":499072,"internal_node_id":"0.0-4.0-0.59","subject_id":"5ef5f63c7aa58727ac4f8588","study_id":"6197b3f67c2b5cd3b6d9596a","session_id":"619beef1c0aee2f9df46b1a1","condition":"contingent","relevant_dimensions":["antennae","legs"],"bee_group":{"antennae":"A","wings":"X","pattern":"X","legs":"M"},"action":"avoid","summary":"good-avoid","bonus":1.5800000000000014},{"rt":1390.8000000715256,"stimulus":"\n                    <p><b>Action: <em>avoid</em></b></p>\n                    <p>This is the bee that you just saw.</p>\n                    <img src=\"bees-with-color/bee-A1DM.svg\" width=\"200\">\n                    <p><br>Your bonus pay is unchanged, and remains at $1.04.</p>\n            ","response":0,"trial_type":"html-button-response","trial_index":126,"time_elapsed":500464,"internal_node_id":"0.0-4.0-1.59","subject_id":"5ef5f63c7aa58727ac4f8588","study_id":"6197b3f67c2b5cd3b6d9596a","session_id":"619beef1c0aee2f9df46b1a1","condition":"contingent","relevant_dimensions":["antennae","legs"],"bee_group":{"antennae":"A","wings":"X","pattern":"X","legs":"M"},"bonus":1.5800000000000014},{"rt":1222.7000000476837,"stimulus":"bees-with-color/bee-B2SM.svg","response":0,"trial_type":"image-button-response","trial_index":127,"time_elapsed":501688,"internal_node_id":"0.0-4.0-0.60","subject_id":"5ef5f63c7aa58727ac4f8588","study_id":"6197b3f67c2b5cd3b6d9596a","session_id":"619beef1c0aee2f9df46b1a1","condition":"contingent","relevant_dimensions":["antennae","legs"],"bee_group":{"antennae":"A","wings":"X","pattern":"X","legs":"M"},"action":"harvest","summary":"good-harvest","bonus":1.5800000000000014},{"rt":1062.8000000715256,"stimulus":"\n                    <p><b>Action: <em>harvest</em></b></p>\n                    <p>This is the bee that you just saw.</p>\n                    <img src=\"bees-with-color/bee-B2SM.svg\" width=\"200\">\n                    <p><span class=\"greenText\"><b>Successful harvest!</b></span><br>Your pay has increased by $0.02. Your bonus pay is now $1.06.</p>\n            ","response":0,"trial_type":"html-button-response","trial_index":128,"time_elapsed":502752,"internal_node_id":"0.0-4.0-1.60","subject_id":"5ef5f63c7aa58727ac4f8588","study_id":"6197b3f67c2b5cd3b6d9596a","session_id":"619beef1c0aee2f9df46b1a1","condition":"contingent","relevant_dimensions":["antennae","legs"],"bee_group":{"antennae":"A","wings":"X","pattern":"X","legs":"M"},"bonus":1.5800000000000014},{"rt":1055.5,"stimulus":"bees-with-color/bee-A2DM.svg","response":1,"trial_type":"image-button-response","trial_index":129,"time_elapsed":503808,"internal_node_id":"0.0-4.0-0.61","subject_id":"5ef5f63c7aa58727ac4f8588","study_id":"6197b3f67c2b5cd3b6d9596a","session_id":"619beef1c0aee2f9df46b1a1","condition":"contingent","relevant_dimensions":["antennae","legs"],"bee_group":{"antennae":"A","wings":"X","pattern":"X","legs":"M"},"action":"avoid","summary":"good-avoid","bonus":1.5800000000000014},{"rt":718.7999999523163,"stimulus":"\n                    <p><b>Action: <em>avoid</em></b></p>\n                    <p>This is the bee that you just saw.</p>\n                    <img src=\"bees-with-color/bee-A2DM.svg\" width=\"200\">\n                    <p><br>Your bonus pay is unchanged, and remains at $1.06.</p>\n            ","response":0,"trial_type":"html-button-response","trial_index":130,"time_elapsed":504528,"internal_node_id":"0.0-4.0-1.61","subject_id":"5ef5f63c7aa58727ac4f8588","study_id":"6197b3f67c2b5cd3b6d9596a","session_id":"619beef1c0aee2f9df46b1a1","condition":"contingent","relevant_dimensions":["antennae","legs"],"bee_group":{"antennae":"A","wings":"X","pattern":"X","legs":"M"},"bonus":1.5800000000000014},{"rt":878.7999999523163,"stimulus":"bees-with-color/bee-B2DM.svg","response":0,"trial_type":"image-button-response","trial_index":131,"time_elapsed":505408,"internal_node_id":"0.0-4.0-0.62","subject_id":"5ef5f63c7aa58727ac4f8588","study_id":"6197b3f67c2b5cd3b6d9596a","session_id":"619beef1c0aee2f9df46b1a1","condition":"contingent","relevant_dimensions":["antennae","legs"],"bee_group":{"antennae":"A","wings":"X","pattern":"X","legs":"M"},"action":"harvest","summary":"good-harvest","bonus":1.5800000000000014},{"rt":606.7000000476837,"stimulus":"\n                    <p><b>Action: <em>harvest</em></b></p>\n                    <p>This is the bee that you just saw.</p>\n                    <img src=\"bees-with-color/bee-B2DM.svg\" width=\"200\">\n                    <p><span class=\"greenText\"><b>Successful harvest!</b></span><br>Your pay has increased by $0.02. Your bonus pay is now $1.08.</p>\n            ","response":0,"trial_type":"html-button-response","trial_index":132,"time_elapsed":506016,"internal_node_id":"0.0-4.0-1.62","subject_id":"5ef5f63c7aa58727ac4f8588","study_id":"6197b3f67c2b5cd3b6d9596a","session_id":"619beef1c0aee2f9df46b1a1","condition":"contingent","relevant_dimensions":["antennae","legs"],"bee_group":{"antennae":"A","wings":"X","pattern":"X","legs":"M"},"bonus":1.5800000000000014},{"rt":815,"stimulus":"bees-with-color/bee-B2SF.svg","response":0,"trial_type":"image-button-response","trial_index":133,"time_elapsed":506832,"internal_node_id":"0.0-4.0-0.63","subject_id":"5ef5f63c7aa58727ac4f8588","study_id":"6197b3f67c2b5cd3b6d9596a","session_id":"619beef1c0aee2f9df46b1a1","condition":"contingent","relevant_dimensions":["antennae","legs"],"bee_group":{"antennae":"A","wings":"X","pattern":"X","legs":"M"},"action":"harvest","summary":"good-harvest","bonus":1.5800000000000014},{"rt":614.7999999523163,"stimulus":"\n                    <p><b>Action: <em>harvest</em></b></p>\n                    <p>This is the bee that you just saw.</p>\n                    <img src=\"bees-with-color/bee-B2SF.svg\" width=\"200\">\n                    <p><span class=\"greenText\"><b>Successful harvest!</b></span><br>Your pay has increased by $0.02. Your bonus pay is now $1.10.</p>\n            ","response":0,"trial_type":"html-button-response","trial_index":134,"time_elapsed":507448,"internal_node_id":"0.0-4.0-1.63","subject_id":"5ef5f63c7aa58727ac4f8588","study_id":"6197b3f67c2b5cd3b6d9596a","session_id":"619beef1c0aee2f9df46b1a1","condition":"contingent","relevant_dimensions":["antennae","legs"],"bee_group":{"antennae":"A","wings":"X","pattern":"X","legs":"M"},"bonus":1.5800000000000014},{"rt":8877.5,"stimulus":"You have completed the first part of this experiment.<br><br>You will now begin a shorter second part, in which you will receive no feedback.<br>The same rules regarding bonus pay apply.<br><br>Press any key to begin.","response":"j","trial_type":"html-keyboard-response","trial_index":135,"time_elapsed":516327,"internal_node_id":"0.0-5.0","subject_id":"5ef5f63c7aa58727ac4f8588","study_id":"6197b3f67c2b5cd3b6d9596a","session_id":"619beef1c0aee2f9df46b1a1","condition":"contingent","relevant_dimensions":["antennae","legs"],"bee_group":{"antennae":"A","wings":"X","pattern":"X","legs":"M"},"bonus":1.5800000000000014},{"rt":1472,"stimulus":"bees-with-color/bee-B2DF.svg","response":0,"trial_type":"image-button-response","trial_index":136,"time_elapsed":517817,"internal_node_id":"0.0-6.0-0.0","subject_id":"5ef5f63c7aa58727ac4f8588","study_id":"6197b3f67c2b5cd3b6d9596a","session_id":"619beef1c0aee2f9df46b1a1","condition":"contingent","relevant_dimensions":["antennae","legs"],"bee_group":{"antennae":"A","wings":"X","pattern":"X","legs":"M"},"bonus":1.5800000000000014},{"rt":1582,"stimulus":"bees-with-color/bee-B2SM.svg","response":0,"trial_type":"image-button-response","trial_index":137,"time_elapsed":519400,"internal_node_id":"0.0-6.0-0.1","subject_id":"5ef5f63c7aa58727ac4f8588","study_id":"6197b3f67c2b5cd3b6d9596a","session_id":"619beef1c0aee2f9df46b1a1","condition":"contingent","relevant_dimensions":["antennae","legs"],"bee_group":{"antennae":"A","wings":"X","pattern":"X","legs":"M"},"bonus":1.5800000000000014},{"rt":1422.2999999523163,"stimulus":"bees-with-color/bee-B2DM.svg","response":0,"trial_type":"image-button-response","trial_index":138,"time_elapsed":520824,"internal_node_id":"0.0-6.0-0.2","subject_id":"5ef5f63c7aa58727ac4f8588","study_id":"6197b3f67c2b5cd3b6d9596a","session_id":"619beef1c0aee2f9df46b1a1","condition":"contingent","relevant_dimensions":["antennae","legs"],"bee_group":{"antennae":"A","wings":"X","pattern":"X","legs":"M"},"bonus":1.5800000000000014},{"rt":1750.2000000476837,"stimulus":"bees-with-color/bee-A1DM.svg","response":1,"trial_type":"image-button-response","trial_index":139,"time_elapsed":522576,"internal_node_id":"0.0-6.0-0.3","subject_id":"5ef5f63c7aa58727ac4f8588","study_id":"6197b3f67c2b5cd3b6d9596a","session_id":"619beef1c0aee2f9df46b1a1","condition":"contingent","relevant_dimensions":["antennae","legs"],"bee_group":{"antennae":"A","wings":"X","pattern":"X","legs":"M"},"bonus":1.5800000000000014},{"rt":1102.1999999284744,"stimulus":"bees-with-color/bee-A2DF.svg","response":0,"trial_type":"image-button-response","trial_index":140,"time_elapsed":523680,"internal_node_id":"0.0-6.0-0.4","subject_id":"5ef5f63c7aa58727ac4f8588","study_id":"6197b3f67c2b5cd3b6d9596a","session_id":"619beef1c0aee2f9df46b1a1","condition":"contingent","relevant_dimensions":["antennae","legs"],"bee_group":{"antennae":"A","wings":"X","pattern":"X","legs":"M"},"bonus":1.5800000000000014},{"rt":1270.1999999284744,"stimulus":"bees-with-color/bee-A2SF.svg","response":0,"trial_type":"image-button-response","trial_index":141,"time_elapsed":524952,"internal_node_id":"0.0-6.0-0.5","subject_id":"5ef5f63c7aa58727ac4f8588","study_id":"6197b3f67c2b5cd3b6d9596a","session_id":"619beef1c0aee2f9df46b1a1","condition":"contingent","relevant_dimensions":["antennae","legs"],"bee_group":{"antennae":"A","wings":"X","pattern":"X","legs":"M"},"bonus":1.5800000000000014},{"rt":1229.8999999761581,"stimulus":"bees-with-color/bee-A2DM.svg","response":1,"trial_type":"image-button-response","trial_index":142,"time_elapsed":526183,"internal_node_id":"0.0-6.0-0.6","subject_id":"5ef5f63c7aa58727ac4f8588","study_id":"6197b3f67c2b5cd3b6d9596a","session_id":"619beef1c0aee2f9df46b1a1","condition":"contingent","relevant_dimensions":["antennae","legs"],"bee_group":{"antennae":"A","wings":"X","pattern":"X","legs":"M"},"bonus":1.5800000000000014},{"rt":1038.3999999761581,"stimulus":"bees-with-color/bee-B1SM.svg","response":0,"trial_type":"image-button-response","trial_index":143,"time_elapsed":527224,"internal_node_id":"0.0-6.0-0.7","subject_id":"5ef5f63c7aa58727ac4f8588","study_id":"6197b3f67c2b5cd3b6d9596a","session_id":"619beef1c0aee2f9df46b1a1","condition":"contingent","relevant_dimensions":["antennae","legs"],"bee_group":{"antennae":"A","wings":"X","pattern":"X","legs":"M"},"bonus":1.5800000000000014},{"rt":878.2999999523163,"stimulus":"bees-with-color/bee-A1SF.svg","response":0,"trial_type":"image-button-response","trial_index":144,"time_elapsed":528104,"internal_node_id":"0.0-6.0-0.8","subject_id":"5ef5f63c7aa58727ac4f8588","study_id":"6197b3f67c2b5cd3b6d9596a","session_id":"619beef1c0aee2f9df46b1a1","condition":"contingent","relevant_dimensions":["antennae","legs"],"bee_group":{"antennae":"A","wings":"X","pattern":"X","legs":"M"},"bonus":1.5800000000000014},{"rt":814.6000000238419,"stimulus":"bees-with-color/bee-B1DF.svg","response":0,"trial_type":"image-button-response","trial_index":145,"time_elapsed":528920,"internal_node_id":"0.0-6.0-0.9","subject_id":"5ef5f63c7aa58727ac4f8588","study_id":"6197b3f67c2b5cd3b6d9596a","session_id":"619beef1c0aee2f9df46b1a1","condition":"contingent","relevant_dimensions":["antennae","legs"],"bee_group":{"antennae":"A","wings":"X","pattern":"X","legs":"M"},"bonus":1.5800000000000014},{"rt":886.6000000238419,"stimulus":"bees-with-color/bee-A1DF.svg","response":0,"trial_type":"image-button-response","trial_index":146,"time_elapsed":529808,"internal_node_id":"0.0-6.0-0.10","subject_id":"5ef5f63c7aa58727ac4f8588","study_id":"6197b3f67c2b5cd3b6d9596a","session_id":"619beef1c0aee2f9df46b1a1","condition":"contingent","relevant_dimensions":["antennae","legs"],"bee_group":{"antennae":"A","wings":"X","pattern":"X","legs":"M"},"bonus":1.5800000000000014},{"rt":830.4000000953674,"stimulus":"bees-with-color/bee-B1SF.svg","response":0,"trial_type":"image-button-response","trial_index":147,"time_elapsed":530639,"internal_node_id":"0.0-6.0-0.11","subject_id":"5ef5f63c7aa58727ac4f8588","study_id":"6197b3f67c2b5cd3b6d9596a","session_id":"619beef1c0aee2f9df46b1a1","condition":"contingent","relevant_dimensions":["antennae","legs"],"bee_group":{"antennae":"A","wings":"X","pattern":"X","legs":"M"},"bonus":1.5800000000000014},{"rt":918.7999999523163,"stimulus":"bees-with-color/bee-B1DM.svg","response":0,"trial_type":"image-button-response","trial_index":148,"time_elapsed":531560,"internal_node_id":"0.0-6.0-0.12","subject_id":"5ef5f63c7aa58727ac4f8588","study_id":"6197b3f67c2b5cd3b6d9596a","session_id":"619beef1c0aee2f9df46b1a1","condition":"contingent","relevant_dimensions":["antennae","legs"],"bee_group":{"antennae":"A","wings":"X","pattern":"X","legs":"M"},"bonus":1.5800000000000014},{"rt":894.6000000238419,"stimulus":"bees-with-color/bee-A2SM.svg","response":1,"trial_type":"image-button-response","trial_index":149,"time_elapsed":532456,"internal_node_id":"0.0-6.0-0.13","subject_id":"5ef5f63c7aa58727ac4f8588","study_id":"6197b3f67c2b5cd3b6d9596a","session_id":"619beef1c0aee2f9df46b1a1","condition":"contingent","relevant_dimensions":["antennae","legs"],"bee_group":{"antennae":"A","wings":"X","pattern":"X","legs":"M"},"bonus":1.5800000000000014},{"rt":830.5,"stimulus":"bees-with-color/bee-B2SF.svg","response":0,"trial_type":"image-button-response","trial_index":150,"time_elapsed":533288,"internal_node_id":"0.0-6.0-0.14","subject_id":"5ef5f63c7aa58727ac4f8588","study_id":"6197b3f67c2b5cd3b6d9596a","session_id":"619beef1c0aee2f9df46b1a1","condition":"contingent","relevant_dimensions":["antennae","legs"],"bee_group":{"antennae":"A","wings":"X","pattern":"X","legs":"M"},"bonus":1.5800000000000014},{"rt":1214.3000000715256,"stimulus":"bees-with-color/bee-A1SM.svg","response":1,"trial_type":"image-button-response","trial_index":151,"time_elapsed":534503,"internal_node_id":"0.0-6.0-0.15","subject_id":"5ef5f63c7aa58727ac4f8588","study_id":"6197b3f67c2b5cd3b6d9596a","session_id":"619beef1c0aee2f9df46b1a1","condition":"contingent","relevant_dimensions":["antennae","legs"],"bee_group":{"antennae":"A","wings":"X","pattern":"X","legs":"M"},"bonus":1.5800000000000014},{"rt":782.7999999523163,"stimulus":"bees-with-color/bee-B2SF.svg","response":0,"trial_type":"image-button-response","trial_index":152,"time_elapsed":535287,"internal_node_id":"0.0-6.0-0.16","subject_id":"5ef5f63c7aa58727ac4f8588","study_id":"6197b3f67c2b5cd3b6d9596a","session_id":"619beef1c0aee2f9df46b1a1","condition":"contingent","relevant_dimensions":["antennae","legs"],"bee_group":{"antennae":"A","wings":"X","pattern":"X","legs":"M"},"bonus":1.5800000000000014},{"rt":855,"stimulus":"bees-with-color/bee-A1DF.svg","response":0,"trial_type":"image-button-response","trial_index":153,"time_elapsed":536144,"internal_node_id":"0.0-6.0-0.17","subject_id":"5ef5f63c7aa58727ac4f8588","study_id":"6197b3f67c2b5cd3b6d9596a","session_id":"619beef1c0aee2f9df46b1a1","condition":"contingent","relevant_dimensions":["antennae","legs"],"bee_group":{"antennae":"A","wings":"X","pattern":"X","legs":"M"},"bonus":1.5800000000000014},{"rt":774.7999999523163,"stimulus":"bees-with-color/bee-A1SF.svg","response":0,"trial_type":"image-button-response","trial_index":154,"time_elapsed":536919,"internal_node_id":"0.0-6.0-0.18","subject_id":"5ef5f63c7aa58727ac4f8588","study_id":"6197b3f67c2b5cd3b6d9596a","session_id":"619beef1c0aee2f9df46b1a1","condition":"contingent","relevant_dimensions":["antennae","legs"],"bee_group":{"antennae":"A","wings":"X","pattern":"X","legs":"M"},"bonus":1.5800000000000014},{"rt":686.8999999761581,"stimulus":"bees-with-color/bee-A2DF.svg","response":0,"trial_type":"image-button-response","trial_index":155,"time_elapsed":537608,"internal_node_id":"0.0-6.0-0.19","subject_id":"5ef5f63c7aa58727ac4f8588","study_id":"6197b3f67c2b5cd3b6d9596a","session_id":"619beef1c0aee2f9df46b1a1","condition":"contingent","relevant_dimensions":["antennae","legs"],"bee_group":{"antennae":"A","wings":"X","pattern":"X","legs":"M"},"bonus":1.5800000000000014},{"rt":654.3999999761581,"stimulus":"bees-with-color/bee-A2SF.svg","response":0,"trial_type":"image-button-response","trial_index":156,"time_elapsed":538263,"internal_node_id":"0.0-6.0-0.20","subject_id":"5ef5f63c7aa58727ac4f8588","study_id":"6197b3f67c2b5cd3b6d9596a","session_id":"619beef1c0aee2f9df46b1a1","condition":"contingent","relevant_dimensions":["antennae","legs"],"bee_group":{"antennae":"A","wings":"X","pattern":"X","legs":"M"},"bonus":1.5800000000000014},{"rt":966.3999999761581,"stimulus":"bees-with-color/bee-A2DM.svg","response":1,"trial_type":"image-button-response","trial_index":157,"time_elapsed":539231,"internal_node_id":"0.0-6.0-0.21","subject_id":"5ef5f63c7aa58727ac4f8588","study_id":"6197b3f67c2b5cd3b6d9596a","session_id":"619beef1c0aee2f9df46b1a1","condition":"contingent","relevant_dimensions":["antennae","legs"],"bee_group":{"antennae":"A","wings":"X","pattern":"X","legs":"M"},"bonus":1.5800000000000014},{"rt":775.3000000715256,"stimulus":"bees-with-color/bee-B1DM.svg","response":0,"trial_type":"image-button-response","trial_index":158,"time_elapsed":540007,"internal_node_id":"0.0-6.0-0.22","subject_id":"5ef5f63c7aa58727ac4f8588","study_id":"6197b3f67c2b5cd3b6d9596a","session_id":"619beef1c0aee2f9df46b1a1","condition":"contingent","relevant_dimensions":["antennae","legs"],"bee_group":{"antennae":"A","wings":"X","pattern":"X","legs":"M"},"bonus":1.5800000000000014},{"rt":1014.8999999761581,"stimulus":"bees-with-color/bee-A2SM.svg","response":1,"trial_type":"image-button-response","trial_index":159,"time_elapsed":541023,"internal_node_id":"0.0-6.0-0.23","subject_id":"5ef5f63c7aa58727ac4f8588","study_id":"6197b3f67c2b5cd3b6d9596a","session_id":"619beef1c0aee2f9df46b1a1","condition":"contingent","relevant_dimensions":["antennae","legs"],"bee_group":{"antennae":"A","wings":"X","pattern":"X","legs":"M"},"bonus":1.5800000000000014},{"rt":974.7000000476837,"stimulus":"bees-with-color/bee-B2SM.svg","response":0,"trial_type":"image-button-response","trial_index":160,"time_elapsed":541999,"internal_node_id":"0.0-6.0-0.24","subject_id":"5ef5f63c7aa58727ac4f8588","study_id":"6197b3f67c2b5cd3b6d9596a","session_id":"619beef1c0aee2f9df46b1a1","condition":"contingent","relevant_dimensions":["antennae","legs"],"bee_group":{"antennae":"A","wings":"X","pattern":"X","legs":"M"},"bonus":1.5800000000000014},{"rt":607,"stimulus":"bees-with-color/bee-B2DF.svg","response":0,"tri