[{"success":true,"trial_type":"fullscreen","trial_index":0,"time_elapsed":4974,"internal_node_id":"0.0-0.0","subject_id":"61415015fed00ef802e48e51","study_id":"6197b3f67c2b5cd3b6d9596a","session_id":"619be590ff58d980ad11bfc4","condition":"full-information","relevant_dimensions":["pattern","legs"],"bee_group":{"antennae":"X","wings":"X","pattern":"D","legs":"M"},"bonus":1.4200000000000008},{"success":true,"timeout":false,"failed_images":[],"failed_audio":[],"failed_video":[],"trial_type":"preload","trial_index":1,"time_elapsed":6344,"internal_node_id":"0.0-1.0","subject_id":"61415015fed00ef802e48e51","study_id":"6197b3f67c2b5cd3b6d9596a","session_id":"619be590ff58d980ad11bfc4","condition":"full-information","relevant_dimensions":["pattern","legs"],"bee_group":{"antennae":"X","wings":"X","pattern":"D","legs":"M"},"bonus":1.4200000000000008},{"rt":1662.8999999761581,"stimulus":"Welcome! Press any key to begin.","response":" ","trial_type":"html-keyboard-response","trial_index":2,"time_elapsed":8008,"internal_node_id":"0.0-2.0","subject_id":"61415015fed00ef802e48e51","study_id":"6197b3f67c2b5cd3b6d9596a","session_id":"619be590ff58d980ad11bfc4","condition":"full-information","relevant_dimensions":["pattern","legs"],"bee_group":{"antennae":"X","wings":"X","pattern":"D","legs":"M"},"bonus":1.4200000000000008},{"view_history":[{"page_index":0,"viewing_time":11615.600000023842},{"page_index":1,"viewing_time":16517.399999976158},{"page_index":2,"viewing_time":22607.100000023842},{"page_index":3,"viewing_time":21488},{"page_index":4,"viewing_time":16285.799999952316},{"page_index":5,"viewing_time":13878.600000023842},{"page_index":6,"viewing_time":14041.5},{"page_index":7,"viewing_time":5437},{"page_index":8,"viewing_time":3416.2000000476837},{"page_index":9,"viewing_time":2919.2999999523163},{"page_index":10,"viewing_time":2908.100000023842},{"page_index":11,"viewing_time":13078.700000047684},{"page_index":12,"viewing_time":11890.099999904633},{"page_index":13,"viewing_time":1479.3000000715256},{"page_index":14,"viewing_time":4617.799999952316}],"rt":162180.80000007153,"trial_type":"instructions","trial_index":3,"time_elapsed":170192,"internal_node_id":"0.0-3.0-0.0","subject_id":"61415015fed00ef802e48e51","study_id":"6197b3f67c2b5cd3b6d9596a","session_id":"619be590ff58d980ad11bfc4","condition":"full-information","relevant_dimensions":["pattern","legs"],"bee_group":{"antennae":"X","wings":"X","pattern":"D","legs":"M"},"bonus":1.4200000000000008},{"rt":14229.199999928474,"response":{"Q0":["Two or six legs","Stripes or spots on body","Single or double wings","Antennae or no antennae"]},"question_order":[0],"trial_type":"survey-multi-select","trial_index":4,"time_elapsed":184425,"internal_node_id":"0.0-3.0-1.0","subject_id":"61415015fed00ef802e48e51","study_id":"6197b3f67c2b5cd3b6d9596a","session_id":"619be590ff58d980ad11bfc4","condition":"full-information","relevant_dimensions":["pattern","legs"],"bee_group":{"antennae":"X","wings":"X","pattern":"D","legs":"M"},"correct":true,"bonus":1.4200000000000008},{"rt":26101.5,"response":{"Q1":"No.","Q2":"Based on the four features of the bee.","Q3":"You learn if it was friendly or dangerous, but do not alter your bonus."},"question_order":[0,1,2],"trial_type":"survey-multi-choice","trial_index":5,"time_elapsed":210529,"internal_node_id":"0.0-3.0-2.0","subject_id":"61415015fed00ef802e48e51","study_id":"6197b3f67c2b5cd3b6d9596a","session_id":"619be590ff58d980ad11bfc4","condition":"full-information","relevant_dimensions":["pattern","legs"],"bee_group":{"antennae":"X","wings":"X","pattern":"D","legs":"M"},"correct":true,"bonus":1.4200000000000008},{"rt":4467.700000047684,"stimulus":"<p>Congrats, you got everything right<br>When you're ready, click the button below to continue to the experiment.</p>","response":0,"trial_type":"html-button-response","trial_index":6,"time_elapsed":214998,"internal_node_id":"0.0-3.0-3.0","subject_id":"61415015fed00ef802e48e51","study_id":"6197b3f67c2b5cd3b6d9596a","session_id":"619be590ff58d980ad11bfc4","condition":"full-information","relevant_dimensions":["pattern","legs"],"bee_group":{"antennae":"X","wings":"X","pattern":"D","legs":"M"},"bonus":1.4200000000000008},{"rt":5715.399999976158,"stimulus":"bees-with-color/bee-A1DM.svg","response":1,"trial_type":"image-button-response","trial_index":7,"time_elapsed":220717,"internal_node_id":"0.0-4.0-0.0","subject_id":"61415015fed00ef802e48e51","study_id":"6197b3f67c2b5cd3b6d9596a","session_id":"619be590ff58d980ad11bfc4","condition":"full-information","relevant_dimensions":["pattern","legs"],"bee_group":{"antennae":"X","wings":"X","pattern":"D","legs":"M"},"action":"avoid","summary":"good-avoid","bonus":1.4200000000000008},{"rt":16983.600000023842,"stimulus":"\n                    <p><b>Action: <em>avoid</em></b></p>\n                    <p>This is the bee that you just saw.</p>\n                    <img src=\"bees-with-color/bee-A1DM.svg\" width=\"200\">\n                    <p><span class=\"greenText\">Good choice!</span>  This bee would have stung you.<br>Your bonus pay is unchanged, and remains at $0.54.</p>\n            ","response":0,"trial_type":"html-button-response","trial_index":8,"time_elapsed":237703,"internal_node_id":"0.0-4.0-1.0","subject_id":"61415015fed00ef802e48e51","study_id":"6197b3f67c2b5cd3b6d9596a","session_id":"619be590ff58d980ad11bfc4","condition":"full-information","relevant_dimensions":["pattern","legs"],"bee_group":{"antennae":"X","wings":"X","pattern":"D","legs":"M"},"bonus":1.4200000000000008},{"rt":2821.600000023842,"stimulus":"bees-with-color/bee-B1SF.svg","response":0,"trial_type":"image-button-response","trial_index":9,"time_elapsed":240527,"internal_node_id":"0.0-4.0-0.1","subject_id":"61415015fed00ef802e48e51","study_id":"6197b3f67c2b5cd3b6d9596a","session_id":"619be590ff58d980ad11bfc4","condition":"full-information","relevant_dimensions":["pattern","legs"],"bee_group":{"antennae":"X","wings":"X","pattern":"D","legs":"M"},"action":"harvest","summary":"good-harvest","bonus":1.4200000000000008},{"rt":5599.800000071526,"stimulus":"\n                    <p><b>Action: <em>harvest</em></b></p>\n                    <p>This is the bee that you just saw.</p>\n                    <img src=\"bees-with-color/bee-B1SF.svg\" width=\"200\">\n                    <p><span class=\"greenText\"><b>Successful harvest!</b></span><br>Your pay has increased by $0.02. Your bonus pay is now $0.56.</p>\n            ","response":0,"trial_type":"html-button-response","trial_index":10,"time_elapsed":246129,"internal_node_id":"0.0-4.0-1.1","subject_id":"61415015fed00ef802e48e51","study_id":"6197b3f67c2b5cd3b6d9596a","session_id":"619be590ff58d980ad11bfc4","condition":"full-information","relevant_dimensions":["pattern","legs"],"bee_group":{"antennae":"X","wings":"X","pattern":"D","legs":"M"},"bonus":1.4200000000000008},{"rt":1753.2999999523163,"stimulus":"bees-with-color/bee-B2SF.svg","response":1,"trial_type":"image-button-response","trial_index":11,"time_elapsed":247885,"internal_node_id":"0.0-4.0-0.2","subject_id":"61415015fed00ef802e48e51","study_id":"6197b3f67c2b5cd3b6d9596a","session_id":"619be590ff58d980ad11bfc4","condition":"full-information","relevant_dimensions":["pattern","legs"],"bee_group":{"antennae":"X","wings":"X","pattern":"D","legs":"M"},"action":"avoid","summary":"bad-avoid","bonus":1.4200000000000008},{"rt":4563.800000071526,"stimulus":"\n                    <p><b>Action: <em>avoid</em></b></p>\n                    <p>This is the bee that you just saw.</p>\n                    <img src=\"bees-with-color/bee-B2SF.svg\" width=\"200\">\n                    <p><span class=\"redText\">Bad choice,</span> the bee was friendly.<br>Your bonus pay is unchanged, and remains at $0.56.</p>\n            ","response":0,"trial_type":"html-button-response","trial_index":12,"time_elapsed":252451,"internal_node_id":"0.0-4.0-1.2","subject_id":"61415015fed00ef802e48e51","study_id":"6197b3f67c2b5cd3b6d9596a","session_id":"619be590ff58d980ad11bfc4","condition":"full-information","relevant_dimensions":["pattern","legs"],"bee_group":{"antennae":"X","wings":"X","pattern":"D","legs":"M"},"bonus":1.4200000000000008},{"rt":3706.899999976158,"stimulus":"bees-with-color/bee-A1SF.svg","response":0,"trial_type":"image-button-response","trial_index":13,"time_elapsed":256160,"internal_node_id":"0.0-4.0-0.3","subject_id":"61415015fed00ef802e48e51","study_id":"6197b3f67c2b5cd3b6d9596a","session_id":"619be590ff58d980ad11bfc4","condition":"full-information","relevant_dimensions":["pattern","legs"],"bee_group":{"antennae":"X","wings":"X","pattern":"D","legs":"M"},"action":"harvest","summary":"good-harvest","bonus":1.4200000000000008},{"rt":3620.600000023842,"stimulus":"\n                    <p><b>Action: <em>harvest</em></b></p>\n                    <p>This is the bee that you just saw.</p>\n                    <img src=\"bees-with-color/bee-A1SF.svg\" width=\"200\">\n                    <p><span class=\"greenText\"><b>Successful harvest!</b></span><br>Your pay has increased by $0.02. Your bonus pay is now $0.58.</p>\n            ","response":0,"trial_type":"html-button-response","trial_index":14,"time_elapsed":259782,"internal_node_id":"0.0-4.0-1.3","subject_id":"61415015fed00ef802e48e51","study_id":"6197b3f67c2b5cd3b6d9596a","session_id":"619be590ff58d980ad11bfc4","condition":"full-information","relevant_dimensions":["pattern","legs"],"bee_group":{"antennae":"X","wings":"X","pattern":"D","legs":"M"},"bonus":1.4200000000000008},{"rt":1955,"stimulus":"bees-with-color/bee-B1DF.svg","response":1,"trial_type":"image-button-response","trial_index":15,"time_elapsed":261738,"internal_node_id":"0.0-4.0-0.4","subject_id":"61415015fed00ef802e48e51","study_id":"6197b3f67c2b5cd3b6d9596a","session_id":"619be590ff58d980ad11bfc4","condition":"full-information","relevant_dimensions":["pattern","legs"],"bee_group":{"antennae":"X","wings":"X","pattern":"D","legs":"M"},"action":"avoid","summary":"bad-avoid","bonus":1.4200000000000008},{"rt":2616.2999999523163,"stimulus":"\n                    <p><b>Action: <em>avoid</em></b></p>\n                    <p>This is the bee that you just saw.</p>\n                    <img src=\"bees-with-color/bee-B1DF.svg\" width=\"200\">\n                    <p><span class=\"redText\">Bad choice,</span> the bee was friendly.<br>Your bonus pay is unchanged, and remains at $0.58.</p>\n            ","response":0,"trial_type":"html-button-response","trial_index":16,"time_elapsed":264357,"internal_node_id":"0.0-4.0-1.4","subject_id":"61415015fed00ef802e48e51","study_id":"6197b3f67c2b5cd3b6d9596a","session_id":"619be590ff58d980ad11bfc4","condition":"full-information","relevant_dimensions":["pattern","legs"],"bee_group":{"antennae":"X","wings":"X","pattern":"D","legs":"M"},"bonus":1.4200000000000008},{"rt":1349.6999999284744,"stimulus":"bees-with-color/bee-B1DM.svg","response":0,"trial_type":"image-button-response","trial_index":17,"time_elapsed":265708,"internal_node_id":"0.0-4.0-0.5","subject_id":"61415015fed00ef802e48e51","study_id":"6197b3f67c2b5cd3b6d9596a","session_id":"619be590ff58d980ad11bfc4","condition":"full-information","relevant_dimensions":["pattern","legs"],"bee_group":{"antennae":"X","wings":"X","pattern":"D","legs":"M"},"action":"harvest","summary":"bad-harvest","bonus":1.4200000000000008},{"rt":5168.799999952316,"stimulus":"\n                    <p><b>Action: <em>harvest</em></b></p>\n                    <p>This is the bee that you just saw.</p>\n                    <img src=\"bees-with-color/bee-B1DM.svg\" width=\"200\">\n                    <p><span class=\"redText\">Bad choice, the bee was angry.</span><br><b>You have been stung!</b><br>Your pay has been decreased by $0.10. Your bonus pay is now $0.48.</p>\n            ","response":0,"trial_type":"html-button-response","trial_index":18,"time_elapsed":270878,"internal_node_id":"0.0-4.0-1.5","subject_id":"61415015fed00ef802e48e51","study_id":"6197b3f67c2b5cd3b6d9596a","session_id":"619be590ff58d980ad11bfc4","condition":"full-information","relevant_dimensions":["pattern","legs"],"bee_group":{"antennae":"X","wings":"X","pattern":"D","legs":"M"},"bonus":1.4200000000000008},{"rt":3477.399999976158,"stimulus":"bees-with-color/bee-A2SM.svg","response":1,"trial_type":"image-button-response","trial_index":19,"time_elapsed":274358,"internal_node_id":"0.0-4.0-0.6","subject_id":"61415015fed00ef802e48e51","study_id":"6197b3f67c2b5cd3b6d9596a","session_id":"619be590ff58d980ad11bfc4","condition":"full-information","relevant_dimensions":["pattern","legs"],"bee_group":{"antennae":"X","wings":"X","pattern":"D","legs":"M"},"action":"avoid","summary":"bad-avoid","bonus":1.4200000000000008},{"rt":1301.1999999284744,"stimulus":"\n                    <p><b>Action: <em>avoid</em></b></p>\n                    <p>This is the bee that you just saw.</p>\n                    <img src=\"bees-with-color/bee-A2SM.svg\" width=\"200\">\n                    <p><span class=\"redText\">Bad choice,</span> the bee was friendly.<br>Your bonus pay is unchanged, and remains at $0.48.</p>\n            ","response":0,"trial_type":"html-button-response","trial_index":20,"time_elapsed":275661,"internal_node_id":"0.0-4.0-1.6","subject_id":"61415015fed00ef802e48e51","study_id":"6197b3f67c2b5cd3b6d9596a","session_id":"619be590ff58d980ad11bfc4","condition":"full-information","relevant_dimensions":["pattern","legs"],"bee_group":{"antennae":"X","wings":"X","pattern":"D","legs":"M"},"bonus":1.4200000000000008},{"rt":1781.7999999523163,"stimulus":"bees-with-color/bee-B1SM.svg","response":0,"trial_type":"image-button-response","trial_index":21,"time_elapsed":277445,"internal_node_id":"0.0-4.0-0.7","subject_id":"61415015fed00ef802e48e51","study_id":"6197b3f67c2b5cd3b6d9596a","session_id":"619be590ff58d980ad11bfc4","condition":"full-information","relevant_dimensions":["pattern","legs"],"bee_group":{"antennae":"X","wings":"X","pattern":"D","legs":"M"},"action":"harvest","summary":"good-harvest","bonus":1.4200000000000008},{"rt":1256.5,"stimulus":"\n                    <p><b>Action: <em>harvest</em></b></p>\n                    <p>This is the bee that you just saw.</p>\n                    <img src=\"bees-with-color/bee-B1SM.svg\" width=\"200\">\n                    <p><span class=\"greenText\"><b>Successful harvest!</b></span><br>Your pay has increased by $0.02. Your bonus pay is now $0.50.</p>\n            ","response":0,"trial_type":"html-button-response","trial_index":22,"time_elapsed":278703,"internal_node_id":"0.0-4.0-1.7","subject_id":"61415015fed00ef802e48e51","study_id":"6197b3f67c2b5cd3b6d9596a","session_id":"619be590ff58d980ad11bfc4","condition":"full-information","relevant_dimensions":["pattern","legs"],"bee_group":{"antennae":"X","wings":"X","pattern":"D","legs":"M"},"bonus":1.4200000000000008},{"rt":1020.4000000953674,"stimulus":"bees-with-color/bee-A2DF.svg","response":1,"trial_type":"image-button-response","trial_index":23,"time_elapsed":279725,"internal_node_id":"0.0-4.0-0.8","subject_id":"61415015fed00ef802e48e51","study_id":"6197b3f67c2b5cd3b6d9596a","session_id":"619be590ff58d980ad11bfc4","condition":"full-information","relevant_dimensions":["pattern","legs"],"bee_group":{"antennae":"X","wings":"X","pattern":"D","legs":"M"},"action":"avoid","summary":"bad-avoid","bonus":1.4200000000000008},{"rt":1868.1000000238419,"stimulus":"\n                    <p><b>Action: <em>avoid</em></b></p>\n                    <p>This is the bee that you just saw.</p>\n                    <img src=\"bees-with-color/bee-A2DF.svg\" width=\"200\">\n                    <p><span class=\"redText\">Bad choice,</span> the bee was friendly.<br>Your bonus pay is unchanged, and remains at $0.50.</p>\n            ","response":0,"trial_type":"html-button-response","trial_index":24,"time_elapsed":281595,"internal_node_id":"0.0-4.0-1.8","subject_id":"61415015fed00ef802e48e51","study_id":"6197b3f67c2b5cd3b6d9596a","session_id":"619be590ff58d980ad11bfc4","condition":"full-information","relevant_dimensions":["pattern","legs"],"bee_group":{"antennae":"X","wings":"X","pattern":"D","legs":"M"},"bonus":1.4200000000000008},{"rt":1340,"stimulus":"bees-with-color/bee-A2SF.svg","response":0,"trial_type":"image-button-response","trial_index":25,"time_elapsed":282936,"internal_node_id":"0.0-4.0-0.9","subject_id":"61415015fed00ef802e48e51","study_id":"6197b3f67c2b5cd3b6d9596a","session_id":"619be590ff58d980ad11bfc4","condition":"full-information","relevant_dimensions":["pattern","legs"],"bee_group":{"antennae":"X","wings":"X","pattern":"D","legs":"M"},"action":"harvest","summary":"good-harvest","bonus":1.4200000000000008},{"rt":1039.8999999761581,"stimulus":"\n                    <p><b>Action: <em>harvest</em></b></p>\n                    <p>This is the bee that you just saw.</p>\n                    <img src=\"bees-with-color/bee-A2SF.svg\" width=\"200\">\n                    <p><span class=\"greenText\"><b>Successful harvest!</b></span><br>Your pay has increased by $0.02. Your bonus pay is now $0.52.</p>\n            ","response":0,"trial_type":"html-button-response","trial_index":26,"time_elapsed":283978,"internal_node_id":"0.0-4.0-1.9","subject_id":"61415015fed00ef802e48e51","study_id":"6197b3f67c2b5cd3b6d9596a","session_id":"619be590ff58d980ad11bfc4","condition":"full-information","relevant_dimensions":["pattern","legs"],"bee_group":{"antennae":"X","wings":"X","pattern":"D","legs":"M"},"bonus":1.4200000000000008},{"rt":1211.1000000238419,"stimulus":"bees-with-color/bee-B2SM.svg","response":0,"trial_type":"image-button-response","trial_index":27,"time_elapsed":285191,"internal_node_id":"0.0-4.0-0.10","subject_id":"61415015fed00ef802e48e51","study_id":"6197b3f67c2b5cd3b6d9596a","session_id":"619be590ff58d980ad11bfc4","condition":"full-information","relevant_dimensions":["pattern","legs"],"bee_group":{"antennae":"X","wings":"X","pattern":"D","legs":"M"},"action":"harvest","summary":"good-harvest","bonus":1.4200000000000008},{"rt":1056.8999999761581,"stimulus":"\n                    <p><b>Action: <em>harvest</em></b></p>\n                    <p>This is the bee that you just saw.</p>\n                    <img src=\"bees-with-color/bee-B2SM.svg\" width=\"200\">\n                    <p><span class=\"greenText\"><b>Successful harvest!</b></span><br>Your pay has increased by $0.02. Your bonus pay is now $0.54.</p>\n            ","response":0,"trial_type":"html-button-response","trial_index":28,"time_elapsed":286249,"internal_node_id":"0.0-4.0-1.10","subject_id":"61415015fed00ef802e48e51","study_id":"6197b3f67c2b5cd3b6d9596a","session_id":"619be590ff58d980ad11bfc4","condition":"full-information","relevant_dimensions":["pattern","legs"],"bee_group":{"antennae":"X","wings":"X","pattern":"D","legs":"M"},"bonus":1.4200000000000008},{"rt":873.6999999284744,"stimulus":"bees-with-color/bee-B2DF.svg","response":1,"trial_type":"image-button-response","trial_index":29,"time_elapsed":287125,"internal_node_id":"0.0-4.0-0.11","subject_id":"61415015fed00ef802e48e51","study_id":"6197b3f67c2b5cd3b6d9596a","session_id":"619be590ff58d980ad11bfc4","condition":"full-information","relevant_dimensions":["pattern","legs"],"bee_group":{"antennae":"X","wings":"X","pattern":"D","legs":"M"},"action":"avoid","summary":"bad-avoid","bonus":1.4200000000000008},{"rt":1096.2999999523163,"stimulus":"\n                    <p><b>Action: <em>avoid</em></b></p>\n                    <p>This is the bee that you just saw.</p>\n                    <img src=\"bees-with-color/bee-B2DF.svg\" width=\"200\">\n                    <p><span class=\"redText\">Bad choice,</span> the bee was friendly.<br>Your bonus pay is unchanged, and remains at $0.54.</p>\n            ","response":0,"trial_type":"html-button-response","trial_index":30,"time_elapsed":288223,"internal_node_id":"0.0-4.0-1.11","subject_id":"61415015fed00ef802e48e51","study_id":"6197b3f67c2b5cd3b6d9596a","session_id":"619be590ff58d980ad11bfc4","condition":"full-information","relevant_dimensions":["pattern","legs"],"bee_group":{"antennae":"X","wings":"X","pattern":"D","legs":"M"},"bonus":1.4200000000000008},{"rt":1221.7999999523163,"stimulus":"bees-with-color/bee-A1DF.svg","response":1,"trial_type":"image-button-response","trial_index":31,"time_elapsed":289446,"internal_node_id":"0.0-4.0-0.12","subject_id":"61415015fed00ef802e48e51","study_id":"6197b3f67c2b5cd3b6d9596a","session_id":"619be590ff58d980ad11bfc4","condition":"full-information","relevant_dimensions":["pattern","legs"],"bee_group":{"antennae":"X","wings":"X","pattern":"D","legs":"M"},"action":"avoid","summary":"bad-avoid","bonus":1.4200000000000008},{"rt":3714.600000023842,"stimulus":"\n                    <p><b>Action: <em>avoid</em></b></p>\n                    <p>This is the bee that you just saw.</p>\n                    <img src=\"bees-with-color/bee-A1DF.svg\" width=\"200\">\n                    <p><span class=\"redText\">Bad choice,</span> the bee was friendly.<br>Your bonus pay is unchanged, and remains at $0.54.</p>\n            ","response":0,"trial_type":"html-button-response","trial_index":32,"time_elapsed":293163,"internal_node_id":"0.0-4.0-1.12","subject_id":"61415015fed00ef802e48e51","study_id":"6197b3f67c2b5cd3b6d9596a","session_id":"619be590ff58d980ad11bfc4","condition":"full-information","relevant_dimensions":["pattern","legs"],"bee_group":{"antennae":"X","wings":"X","pattern":"D","legs":"M"},"bonus":1.4200000000000008},{"rt":1369.3999999761581,"stimulus":"bees-with-color/bee-B2DM.svg","response":1,"trial_type":"image-button-response","trial_index":33,"time_elapsed":294534,"internal_node_id":"0.0-4.0-0.13","subject_id":"61415015fed00ef802e48e51","study_id":"6197b3f67c2b5cd3b6d9596a","session_id":"619be590ff58d980ad11bfc4","condition":"full-information","relevant_dimensions":["pattern","legs"],"bee_group":{"antennae":"X","wings":"X","pattern":"D","legs":"M"},"action":"avoid","summary":"good-avoid","bonus":1.4200000000000008},{"rt":1368.8000000715256,"stimulus":"\n                    <p><b>Action: <em>avoid</em></b></p>\n                    <p>This is the bee that you just saw.</p>\n                    <img src=\"bees-with-color/bee-B2DM.svg\" width=\"200\">\n                    <p><span class=\"greenText\">Good choice!</span>  This bee would have stung you.<br>Your bonus pay is unchanged, and remains at $0.54.</p>\n            ","response":0,"trial_type":"html-button-response","trial_index":34,"time_elapsed":295905,"internal_node_id":"0.0-4.0-1.13","subject_id":"61415015fed00ef802e48e51","study_id":"6197b3f67c2b5cd3b6d9596a","session_id":"619be590ff58d980ad11bfc4","condition":"full-information","relevant_dimensions":["pattern","legs"],"bee_group":{"antennae":"X","wings":"X","pattern":"D","legs":"M"},"bonus":1.4200000000000008},{"rt":834.1000000238419,"stimulus":"bees-with-color/bee-A1SM.svg","response":0,"trial_type":"image-button-response","trial_index":35,"time_elapsed":296741,"internal_node_id":"0.0-4.0-0.14","subject_id":"61415015fed00ef802e48e51","study_id":"6197b3f67c2b5cd3b6d9596a","session_id":"619be590ff58d980ad11bfc4","condition":"full-information","relevant_dimensions":["pattern","legs"],"bee_group":{"antennae":"X","wings":"X","pattern":"D","legs":"M"},"action":"harvest","summary":"good-harvest","bonus":1.4200000000000008},{"rt":810.3999999761581,"stimulus":"\n                    <p><b>Action: <em>harvest</em></b></p>\n                    <p>This is the bee that you just saw.</p>\n                    <img src=\"bees-with-color/bee-A1SM.svg\" width=\"200\">\n                    <p><span class=\"greenText\"><b>Successful harvest!</b></span><br>Your pay has increased by $0.02. Your bonus pay is now $0.56.</p>\n            ","response":0,"trial_type":"html-button-response","trial_index":36,"time_elapsed":297554,"internal_node_id":"0.0-4.0-1.14","subject_id":"61415015fed00ef802e48e51","study_id":"6197b3f67c2b5cd3b6d9596a","session_id":"619be590ff58d980ad11bfc4","condition":"full-information","relevant_dimensions":["pattern","legs"],"bee_group":{"antennae":"X","wings":"X","pattern":"D","legs":"M"},"bonus":1.4200000000000008},{"rt":1182.5,"stimulus":"bees-with-color/bee-A2DM.svg","response":1,"trial_type":"image-button-response","trial_index":37,"time_elapsed":298738,"internal_node_id":"0.0-4.0-0.15","subject_id":"61415015fed00ef802e48e51","study_id":"6197b3f67c2b5cd3b6d9596a","session_id":"619be590ff58d980ad11bfc4","condition":"full-information","relevant_dimensions":["pattern","legs"],"bee_group":{"antennae":"X","wings":"X","pattern":"D","legs":"M"},"action":"avoid","summary":"good-avoid","bonus":1.4200000000000008},{"rt":974.5,"stimulus":"\n                    <p><b>Action: <em>avoid</em></b></p>\n                    <p>This is the bee that you just saw.</p>\n                    <img src=\"bees-with-color/bee-A2DM.svg\" width=\"200\">\n                    <p><span class=\"greenText\">Good choice!</span>  This bee would have stung you.<br>Your bonus pay is unchanged, and remains at $0.56.</p>\n            ","response":0,"trial_type":"html-button-response","trial_index":38,"time_elapsed":299714,"internal_node_id":"0.0-4.0-1.15","subject_id":"61415015fed00ef802e48e51","study_id":"6197b3f67c2b5cd3b6d9596a","session_id":"619be590ff58d980ad11bfc4","condition":"full-information","relevant_dimensions":["pattern","legs"],"bee_group":{"antennae":"X","wings":"X","pattern":"D","legs":"M"},"bonus":1.4200000000000008},{"rt":1285.0999999046326,"stimulus":"bees-with-color/bee-A1DF.svg","response":1,"trial_type":"image-button-response","trial_index":39,"time_elapsed":301001,"internal_node_id":"0.0-4.0-0.16","subject_id":"61415015fed00ef802e48e51","study_id":"6197b3f67c2b5cd3b6d9596a","session_id":"619be590ff58d980ad11bfc4","condition":"full-information","relevant_dimensions":["pattern","legs"],"bee_group":{"antennae":"X","wings":"X","pattern":"D","legs":"M"},"action":"avoid","summary":"bad-avoid","bonus":1.4200000000000008},{"rt":2058.8000000715256,"stimulus":"\n                    <p><b>Action: <em>avoid</em></b></p>\n                    <p>This is the bee that you just saw.</p>\n                    <img src=\"bees-with-color/bee-A1DF.svg\" width=\"200\">\n                    <p><span class=\"redText\">Bad choice,</span> the bee was friendly.<br>Your bonus pay is unchanged, and remains at $0.56.</p>\n            ","response":0,"trial_type":"html-button-response","trial_index":40,"time_elapsed":303062,"internal_node_id":"0.0-4.0-1.16","subject_id":"61415015fed00ef802e48e51","study_id":"6197b3f67c2b5cd3b6d9596a","session_id":"619be590ff58d980ad11bfc4","condition":"full-information","relevant_dimensions":["pattern","legs"],"bee_group":{"antennae":"X","wings":"X","pattern":"D","legs":"M"},"bonus":1.4200000000000008},{"rt":2704.2000000476837,"stimulus":"bees-with-color/bee-A1SM.svg","response":0,"trial_type":"image-button-response","trial_index":41,"time_elapsed":305768,"internal_node_id":"0.0-4.0-0.17","subject_id":"61415015fed00ef802e48e51","study_id":"6197b3f67c2b5cd3b6d9596a","session_id":"619be590ff58d980ad11bfc4","condition":"full-information","relevant_dimensions":["pattern","legs"],"bee_group":{"antennae":"X","wings":"X","pattern":"D","legs":"M"},"action":"harvest","summary":"good-harvest","bonus":1.4200000000000008},{"rt":966.8000000715256,"stimulus":"\n                    <p><b>Action: <em>harvest</em></b></p>\n                    <p>This is the bee that you just saw.</p>\n                    <img src=\"bees-with-color/bee-A1SM.svg\" width=\"200\">\n                    <p><span class=\"greenText\"><b>Successful harvest!</b></span><br>Your pay has increased by $0.02. Your bonus pay is now $0.58.</p>\n            ","response":0,"trial_type":"html-button-response","trial_index":42,"time_elapsed":306737,"internal_node_id":"0.0-4.0-1.17","subject_id":"61415015fed00ef802e48e51","study_id":"6197b3f67c2b5cd3b6d9596a","session_id":"619be590ff58d980ad11bfc4","condition":"full-information","relevant_dimensions":["pattern","legs"],"bee_group":{"antennae":"X","wings":"X","pattern":"D","legs":"M"},"bonus":1.4200000000000008},{"rt":1248,"stimulus":"bees-with-color/bee-A2DM.svg","response":1,"trial_type":"image-button-response","trial_index":43,"time_elapsed":307987,"internal_node_id":"0.0-4.0-0.18","subject_id":"61415015fed00ef802e48e51","study_id":"6197b3f67c2b5cd3b6d9596a","session_id":"619be590ff58d980ad11bfc4","condition":"full-information","relevant_dimensions":["pattern","legs"],"bee_group":{"antennae":"X","wings":"X","pattern":"D","legs":"M"},"action":"avoid","summary":"good-avoid","bonus":1.4200000000000008},{"rt":995,"stimulus":"\n                    <p><b>Action: <em>avoid</em></b></p>\n                    <p>This is the bee that you just saw.</p>\n                    <img src=\"bees-with-color/bee-A2DM.svg\" width=\"200\">\n                    <p><span class=\"greenText\">Good choice!</span>  This bee would have stung you.<br>Your bonus pay is unchanged, and remains at $0.58.</p>\n            ","response":0,"trial_type":"html-button-response","trial_index":44,"time_elapsed":308983,"internal_node_id":"0.0-4.0-1.18","subject_id":"61415015fed00ef802e48e51","study_id":"6197b3f67c2b5cd3b6d9596a","session_id":"619be590ff58d980ad11bfc4","condition":"full-information","relevant_dimensions":["pattern","legs"],"bee_group":{"antennae":"X","wings":"X","pattern":"D","legs":"M"},"bonus":1.4200000000000008},{"rt":1235.8999999761581,"stimulus":"bees-with-color/bee-A1DM.svg","response":1,"trial_type":"image-button-response","trial_index":45,"time_elapsed":310220,"internal_node_id":"0.0-4.0-0.19","subject_id":"61415015fed00ef802e48e51","study_id":"6197b3f67c2b5cd3b6d9596a","session_id":"619be590ff58d980ad11bfc4","condition":"full-information","relevant_dimensions":["pattern","legs"],"bee_group":{"antennae":"X","wings":"X","pattern":"D","legs":"M"},"action":"avoid","summary":"good-avoid","bonus":1.4200000000000008},{"rt":1066.4000000953674,"stimulus":"\n                    <p><b>Action: <em>avoid</em></b></p>\n                    <p>This is the bee that you just saw.</p>\n                    <img src=\"bees-with-color/bee-A1DM.svg\" width=\"200\">\n                    <p><span class=\"greenText\">Good choice!</span>  This bee would have stung you.<br>Your bonus pay is unchanged, and remains at $0.58.</p>\n            ","response":0,"trial_type":"html-button-response","trial_index":46,"time_elapsed":311288,"internal_node_id":"0.0-4.0-1.19","subject_id":"61415015fed00ef802e48e51","study_id":"6197b3f67c2b5cd3b6d9596a","session_id":"619be590ff58d980ad11bfc4","condition":"full-information","relevant_dimensions":["pattern","legs"],"bee_group":{"antennae":"X","wings":"X","pattern":"D","legs":"M"},"bonus":1.4200000000000008},{"rt":2239.2999999523163,"stimulus":"bees-with-color/bee-B2DF.svg","response":1,"trial_type":"image-button-response","trial_index":47,"time_elapsed":313528,"internal_node_id":"0.0-4.0-0.20","subject_id":"61415015fed00ef802e48e51","study_id":"6197b3f67c2b5cd3b6d9596a","session_id":"619be590ff58d980ad11bfc4","condition":"full-information","relevant_dimensions":["pattern","legs"],"bee_group":{"antennae":"X","wings":"X","pattern":"D","legs":"M"},"action":"avoid","summary":"bad-avoid","bonus":1.4200000000000008},{"rt":1053.8000000715256,"stimulus":"\n                    <p><b>Action: <em>avoid</em></b></p>\n                    <p>This is the bee that you just saw.</p>\n                    <img src=\"bees-with-color/bee-B2DF.svg\" width=\"200\">\n                    <p><span class=\"redText\">Bad choice,</span> the bee was friendly.<br>Your bonus pay is unchanged, and remains at $0.58.</p>\n            ","response":0,"trial_type":"html-button-response","trial_index":48,"time_elapsed":314584,"internal_node_id":"0.0-4.0-1.20","subject_id":"61415015fed00ef802e48e51","study_id":"6197b3f67c2b5cd3b6d9596a","session_id":"619be590ff58d980ad11bfc4","condition":"full-information","relevant_dimensions":["pattern","legs"],"bee_group":{"antennae":"X","wings":"X","pattern":"D","legs":"M"},"bonus":1.4200000000000008},{"rt":1104.8999999761581,"stimulus":"bees-with-color/bee-A2DF.svg","response":1,"trial_type":"image-button-response","trial_index":49,"time_elapsed":315690,"internal_node_id":"0.0-4.0-0.21","subject_id":"61415015fed00ef802e48e51","study_id":"6197b3f67c2b5cd3b6d9596a","session_id":"619be590ff58d980ad11bfc4","condition":"full-information","relevant_dimensions":["pattern","legs"],"bee_group":{"antennae":"X","wings":"X","pattern":"D","legs":"M"},"action":"avoid","summary":"bad-avoid","bonus":1.4200000000000008},{"rt":779.3999999761581,"stimulus":"\n                    <p><b>Action: <em>avoid</em></b></p>\n                    <p>This is the bee that you just saw.</p>\n                    <img src=\"bees-with-color/bee-A2DF.svg\" width=\"200\">\n                    <p><span class=\"redText\">Bad choice,</span> the bee was friendly.<br>Your bonus pay is unchanged, and remains at $0.58.</p>\n            ","response":0,"trial_type":"html-button-response","trial_index":50,"time_elapsed":316471,"internal_node_id":"0.0-4.0-1.21","subject_id":"61415015fed00ef802e48e51","study_id":"6197b3f67c2b5cd3b6d9596a","session_id":"619be590ff58d980ad11bfc4","condition":"full-information","relevant_dimensions":["pattern","legs"],"bee_group":{"antennae":"X","wings":"X","pattern":"D","legs":"M"},"bonus":1.4200000000000008},{"rt":661.1999999284744,"stimulus":"bees-with-color/bee-B1DF.svg","response":0,"trial_type":"image-button-response","trial_index":51,"time_elapsed":317134,"internal_node_id":"0.0-4.0-0.22","subject_id":"61415015fed00ef802e48e51","study_id":"6197b3f67c2b5cd3b6d9596a","session_id":"619be590ff58d980ad11bfc4","condition":"full-information","relevant_dimensions":["pattern","legs"],"bee_group":{"antennae":"X","wings":"X","pattern":"D","legs":"M"},"action":"harvest","summary":"good-harvest","bonus":1.4200000000000008},{"rt":748.6000000238419,"stimulus":"\n                    <p><b>Action: <em>harvest</em></b></p>\n                    <p>This is the bee that you just saw.</p>\n                    <img src=\"bees-with-color/bee-B1DF.svg\" width=\"200\">\n                    <p><span class=\"greenText\"><b>Successful harvest!</b></span><br>Your pay has increased by $0.02. Your bonus pay is now $0.60.</p>\n            ","response":0,"trial_type":"html-button-response","trial_index":52,"time_elapsed":317884,"internal_node_id":"0.0-4.0-1.22","subject_id":"61415015fed00ef802e48e51","study_id":"6197b3f67c2b5cd3b6d9596a","session_id":"619be590ff58d980ad11bfc4","condition":"full-information","relevant_dimensions":["pattern","legs"],"bee_group":{"antennae":"X","wings":"X","pattern":"D","legs":"M"},"bonus":1.4200000000000008},{"rt":1016.5,"stimulus":"bees-with-color/bee-B1SM.svg","response":0,"trial_type":"image-button-response","trial_index":53,"time_elapsed":318902,"internal_node_id":"0.0-4.0-0.23","subject_id":"61415015fed00ef802e48e51","study_id":"6197b3f67c2b5cd3b6d9596a","session_id":"619be590ff58d980ad11bfc4","condition":"full-information","relevant_dimensions":["pattern","legs"],"bee_group":{"antennae":"X","wings":"X","pattern":"D","legs":"M"},"action":"harvest","summary":"good-harvest","bonus":1.4200000000000008},{"rt":992.3999999761581,"stimulus":"\n                    <p><b>Action: <em>harvest</em></b></p>\n                    <p>This is the bee that you just saw.</p>\n                    <img src=\"bees-with-color/bee-B1SM.svg\" width=\"200\">\n                    <p><span class=\"greenText\"><b>Successful harvest!</b></span><br>Your pay has increased by $0.02. Your bonus pay is now $0.62.</p>\n            ","response":0,"trial_type":"html-button-response","trial_index":54,"time_elapsed":319896,"internal_node_id":"0.0-4.0-1.23","subject_id":"61415015fed00ef802e48e51","study_id":"6197b3f67c2b5cd3b6d9596a","session_id":"619be590ff58d980ad11bfc4","condition":"full-information","relevant_dimensions":["pattern","legs"],"bee_group":{"antennae":"X","wings":"X","pattern":"D","legs":"M"},"bonus":1.4200000000000008},{"rt":1119,"stimulus":"bees-with-color/bee-B2SF.svg","response":0,"trial_type":"image-button-response","trial_index":55,"time_elapsed":321016,"internal_node_id":"0.0-4.0-0.24","subject_id":"61415015fed00ef802e48e51","study_id":"6197b3f67c2b5cd3b6d9596a","session_id":"619be590ff58d980ad11bfc4","condition":"full-information","relevant_dimensions":["pattern","legs"],"bee_group":{"antennae":"X","wings":"X","pattern":"D","legs":"M"},"action":"harvest","summary":"good-harvest","bonus":1.4200000000000008},{"rt":1189.9000000953674,"stimulus":"\n                    <p><b>Action: <em>harvest</em></b></p>\n                    <p>This is the bee that you just saw.</p>\n                    <img src=\"bees-with-color/bee-B2SF.svg\" width=\"200\">\n                    <p><span class=\"greenText\"><b>Successful harvest!</b></span><br>Your pay has increased by $0.02. Your bonus pay is now $0.64.</p>\n            ","response":0,"trial_type":"html-button-response","trial_index":56,"time_elapsed":322208,"internal_node_id":"0.0-4.0-1.24","subject_id":"61415015fed00ef802e48e51","study_id":"6197b3f67c2b5cd3b6d9596a","session_id":"619be590ff58d980ad11bfc4","condition":"full-information","relevant_dimensions":["pattern","legs"],"bee_group":{"antennae":"X","wings":"X","pattern":"D","legs":"M"},"bonus":1.4200000000000008},{"rt":3017,"stimulus":"bees-with-color/bee-A2SM.svg","response":1,"trial_type":"image-button-response","trial_index":57,"time_elapsed":325227,"internal_node_id":"0.0-4.0-0.25","subject_id":"61415015fed00ef802e48e51","study_id":"6197b3f67c2b5cd3b6d9596a","session_id":"619be590ff58d980ad11bfc4","condition":"full-information","relevant_dimensions":["pattern","legs"],"bee_group":{"antennae":"X","wings":"X","pattern":"D","legs":"M"},"action":"avoid","summary":"bad-avoid","bonus":1.4200000000000008},{"rt":1413.1000000238419,"stimulus":"\n                    <p><b>Action: <em>avoid</em></b></p>\n                    <p>This is the bee that you just saw.</p>\n                    <img src=\"bees-with-color/bee-A2SM.svg\" width=\"200\">\n                    <p><span class=\"redText\">Bad choice,</span> the bee was friendly.<br>Your bonus pay is unchanged, and remains at $0.64.</p>\n            ","response":0,"trial_type":"html-button-response","trial_index":58,"time_elapsed":326641,"internal_node_id":"0.0-4.0-1.25","subject_id":"61415015fed00ef802e48e51","study_id":"6197b3f67c2b5cd3b6d9596a","session_id":"619be590ff58d980ad11bfc4","condition":"full-information","relevant_dimensions":["pattern","legs"],"bee_group":{"antennae":"X","wings":"X","pattern":"D","legs":"M"},"bonus":1.4200000000000008},{"rt":1048.5,"stimulus":"bees-with-color/bee-B2SM.svg","response":0,"trial_type":"image-button-response","trial_index":59,"time_elapsed":327692,"internal_node_id":"0.0-4.0-0.26","subject_id":"61415015fed00ef802e48e51","study_id":"6197b3f67c2b5cd3b6d9596a","session_id":"619be590ff58d980ad11bfc4","condition":"full-information","relevant_dimensions":["pattern","legs"],"bee_group":{"antennae":"X","wings":"X","pattern":"D","legs":"M"},"action":"harvest","summary":"good-harvest","bonus":1.4200000000000008},{"rt":928.2999999523163,"stimulus":"\n                    <p><b>Action: <em>harvest</em></b></p>\n                    <p>This is the bee that you just saw.</p>\n                    <img src=\"bees-with-color/bee-B2SM.svg\" width=\"200\">\n                    <p><span class=\"greenText\"><b>Successful harvest!</b></span><br>Your pay has increased by $0.02. Your bonus pay is now $0.66.</p>\n            ","response":0,"trial_type":"html-button-response","trial_index":60,"time_elapsed":328623,"internal_node_id":"0.0-4.0-1.26","subject_id":"61415015fed00ef802e48e51","study_id":"6197b3f67c2b5cd3b6d9596a","session_id":"619be590ff58d980ad11bfc4","condition":"full-information","relevant_dimensions":["pattern","legs"],"bee_group":{"antennae":"X","wings":"X","pattern":"D","legs":"M"},"bonus":1.4200000000000008},{"rt":770,"stimulus":"bees-with-color/bee-B1DM.svg","response":1,"trial_type":"image-button-response","trial_index":61,"time_elapsed":329394,"internal_node_id":"0.0-4.0-0.27","subject_id":"61415015fed00ef802e48e51","study_id":"6197b3f67c2b5cd3b6d9596a","session_id":"619be590ff58d980ad11bfc4","condition":"full-information","relevant_dimensions":["pattern","legs"],"bee_group":{"antennae":"X","wings":"X","pattern":"D","legs":"M"},"action":"avoid","summary":"good-avoid","bonus":1.4200000000000008},{"rt":1074.5999999046326,"stimulus":"\n                    <p><b>Action: <em>avoid</em></b></p>\n                    <p>This is the bee that you just saw.</p>\n                    <img src=\"bees-with-color/bee-B1DM.svg\" width=\"200\">\n                    <p><span class=\"greenText\">Good choice!</span>  This bee would have stung you.<br>Your bonus pay is unchanged, and remains at $0.66.</p>\n            ","response":0,"trial_type":"html-button-response","trial_index":62,"time_elapsed":330471,"internal_node_id":"0.0-4.0-1.27","subject_id":"61415015fed00ef802e48e51","study_id":"6197b3f67c2b5cd3b6d9596a","session_id":"619be590ff58d980ad11bfc4","condition":"full-information","relevant_dimensions":["pattern","legs"],"bee_group":{"antennae":"X","wings":"X","pattern":"D","legs":"M"},"bonus":1.4200000000000008},{"rt":1251.5,"stimulus":"bees-with-color/bee-A2SF.svg","response":0,"trial_type":"image-button-response","trial_index":63,"time_elapsed":331724,"internal_node_id":"0.0-4.0-0.28","subject_id":"61415015fed00ef802e48e51","study_id":"6197b3f67c2b5cd3b6d9596a","session_id":"619be590ff58d980ad11bfc4","condition":"full-information","relevant_dimensions":["pattern","legs"],"bee_group":{"antennae":"X","wings":"X","pattern":"D","legs":"M"},"action":"harvest","summary":"good-harvest","bonus":1.4200000000000008},{"rt":716.6000000238419,"stimulus":"\n                    <p><b>Action: <em>harvest</em></b></p>\n                    <p>This is the bee that you just saw.</p>\n                    <img src=\"bees-with-color/bee-A2SF.svg\" width=\"200\">\n                    <p><span class=\"greenText\"><b>Successful harvest!</b></span><br>Your pay has increased by $0.02. Your bonus pay is now $0.68.</p>\n            ","response":0,"trial_type":"html-button-response","trial_index":64,"time_elapsed":332442,"internal_node_id":"0.0-4.0-1.28","subject_id":"61415015fed00ef802e48e51","study_id":"6197b3f67c2b5cd3b6d9596a","session_id":"619be590ff58d980ad11bfc4","condition":"full-information","relevant_dimensions":["pattern","legs"],"bee_group":{"antennae":"X","wings":"X","pattern":"D","legs":"M"},"bonus":1.4200000000000008},{"rt":1055.7000000476837,"stimulus":"bees-with-color/bee-A1SF.svg","response":0,"trial_type":"image-button-response","trial_index":65,"time_elapsed":333499,"internal_node_id":"0.0-4.0-0.29","subject_id":"61415015fed00ef802e48e51","study_id":"6197b3f67c2b5cd3b6d9596a","session_id":"619be590ff58d980ad11bfc4","condition":"full-information","relevant_dimensions":["pattern","legs"],"bee_group":{"antennae":"X","wings":"X","pattern":"D","legs":"M"},"action":"harvest","summary":"good-harvest","bonus":1.4200000000000008},{"rt":873.9000000953674,"stimulus":"\n                    <p><b>Action: <em>harvest</em></b></p>\n                    <p>This is the bee that you just saw.</p>\n                    <img src=\"bees-with-color/bee-A1SF.svg\" width=\"200\">\n                    <p><span class=\"greenText\"><b>Successful harvest!</b></span><br>Your pay has increased by $0.02. Your bonus pay is now $0.70.</p>\n            ","response":0,"trial_type":"html-button-response","trial_index":66,"time_elapsed":334375,"internal_node_id":"0.0-4.0-1.29","subject_id":"61415015fed00ef802e48e51","study_id":"6197b3f67c2b5cd3b6d9596a","session_id":"619be590ff58d980ad11bfc4","condition":"full-information","relevant_dimensions":["pattern","legs"],"bee_group":{"antennae":"X","wings":"X","pattern":"D","legs":"M"},"bonus":1.4200000000000008},{"rt":880.8000000715256,"stimulus":"bees-with-color/bee-B2DM.svg","response":1,"trial_type":"image-button-response","trial_index":67,"time_elapsed":335258,"internal_node_id":"0.0-4.0-0.30","subject_id":"61415015fed00ef802e48e51","study_id":"6197b3f67c2b5cd3b6d9596a","session_id":"619be590ff58d980ad11bfc4","condition":"full-information","relevant_dimensions":["pattern","legs"],"bee_group":{"antennae":"X","wings":"X","pattern":"D","legs":"M"},"action":"avoid","summary":"good-avoid","bonus":1.4200000000000008},{"rt":1955.6999999284744,"stimulus":"\n                    <p><b>Action: <em>avoid</em></b></p>\n                    <p>This is the bee that you just saw.</p>\n                    <img src=\"bees-with-color/bee-B2DM.svg\" width=\"200\">\n                    <p><span class=\"greenText\">Good choice!</span>  This bee would have stung you.<br>Your bonus pay is unchanged, and remains at $0.70.</p>\n            ","response":0,"trial_type":"html-button-response","trial_index":68,"time_elapsed":337215,"internal_node_id":"0.0-4.0-1.30","subject_id":"61415015fed00ef802e48e51","study_id":"6197b3f67c2b5cd3b6d9596a","session_id":"619be590ff58d980ad11bfc4","condition":"full-information","relevant_dimensions":["pattern","legs"],"bee_group":{"antennae":"X","wings":"X","pattern":"D","legs":"M"},"bonus":1.4200000000000008},{"rt":1259.3999999761581,"stimulus":"bees-with-color/bee-B1SF.svg","response":0,"trial_type":"image-button-response","trial_index":69,"time_elapsed":338476,"internal_node_id":"0.0-4.0-0.31","subject_id":"61415015fed00ef802e48e51","study_id":"6197b3f67c2b5cd3b6d9596a","session_id":"619be590ff58d980ad11bfc4","condition":"full-information","relevant_dimensions":["pattern","legs"],"bee_group":{"antennae":"X","wings":"X","pattern":"D","legs":"M"},"action":"harvest","summary":"good-harvest","bonus":1.4200000000000008},{"rt":907.8000000715256,"stimulus":"\n                    <p><b>Action: <em>harvest</em></b></p>\n                    <p>This is the bee that you just saw.</p>\n                    <img src=\"bees-with-color/bee-B1SF.svg\" width=\"200\">\n                    <p><span class=\"greenText\"><b>Successful harvest!</b></span><br>Your pay has increased by $0.02. Your bonus pay is now $0.72.</p>\n            ","response":0,"trial_type":"html-button-response","trial_index":70,"time_elapsed":339386,"internal_node_id":"0.0-4.0-1.31","subject_id":"61415015fed00ef802e48e51","study_id":"6197b3f67c2b5cd3b6d9596a","session_id":"619be590ff58d980ad11bfc4","condition":"full-information","relevant_dimensions":["pattern","legs"],"bee_group":{"antennae":"X","wings":"X","pattern":"D","legs":"M"},"bonus":1.4200000000000008},{"rt":856.5,"stimulus":"bees-with-color/bee-A2DM.svg","response":1,"trial_type":"image-button-response","trial_index":71,"time_elapsed":340244,"internal_node_id":"0.0-4.0-0.32","subject_id":"61415015fed00ef802e48e51","study_id":"6197b3f67c2b5cd3b6d9596a","session_id":"619be590ff58d980ad11bfc4","condition":"full-information","relevant_dimensions":["pattern","legs"],"bee_group":{"antennae":"X","wings":"X","pattern":"D","legs":"M"},"action":"avoid","summary":"good-avoid","bonus":1.4200000000000008},{"rt":1071.6000000238419,"stimulus":"\n                    <p><b>Action: <em>avoid</em></b></p>\n                    <p>This is the bee that you just saw.</p>\n                    <img src=\"bees-with-color/bee-A2DM.svg\" width=\"200\">\n                    <p><span class=\"greenText\">Good choice!</span>  This bee would have stung you.<br>Your bonus pay is unchanged, and remains at $0.72.</p>\n            ","response":0,"trial_type":"html-button-response","trial_index":72,"time_elapsed":341318,"internal_node_id":"0.0-4.0-1.32","subject_id":"61415015fed00ef802e48e51","study_id":"6197b3f67c2b5cd3b6d9596a","session_id":"619be590ff58d980ad11bfc4","condition":"full-information","relevant_dimensions":["pattern","legs"],"bee_group":{"antennae":"X","wings":"X","pattern":"D","legs":"M"},"bonus":1.4200000000000008},{"rt":1412.2999999523163,"stimulus":"bees-with-color/bee-A1SF.svg","response":0,"trial_type":"image-button-response","trial_index":73,"time_elapsed":342732,"internal_node_id":"0.0-4.0-0.33","subject_id":"61415015fed00ef802e48e51","study_id":"6197b3f67c2b5cd3b6d9596a","session_id":"619be590ff58d980ad11bfc4","condition":"full-information","relevant_dimensions":["pattern","legs"],"bee_group":{"antennae":"X","wings":"X","pattern":"D","legs":"M"},"action":"harvest","summary":"good-harvest","bonus":1.4200000000000008},{"rt":707.7000000476837,"stimulus":"\n                    <p><b>Action: <em>harvest</em></b></p>\n                    <p>This is the bee that you just saw.</p>\n                    <img src=\"bees-with-color/bee-A1SF.svg\" width=\"200\">\n                    <p><span class=\"greenText\"><b>Successful harvest!</b></span><br>Your pay has increased by $0.02. Your bonus pay is now $0.74.</p>\n            ","response":0,"trial_type":"html-button-response","trial_index":74,"time_elapsed":343441,"internal_node_id":"0.0-4.0-1.33","subject_id":"61415015fed00ef802e48e51","study_id":"6197b3f67c2b5cd3b6d9596a","session_id":"619be590ff58d980ad11bfc4","condition":"full-information","relevant_dimensions":["pattern","legs"],"bee_group":{"antennae":"X","wings":"X","pattern":"D","legs":"M"},"bonus":1.4200000000000008},{"rt":896.3000000715256,"stimulus":"bees-with-color/bee-A1DF.svg","response":1,"trial_type":"image-button-response","trial_index":75,"time_elapsed":344339,"internal_node_id":"0.0-4.0-0.34","subject_id":"61415015fed00ef802e48e51","study_id":"6197b3f67c2b5cd3b6d9596a","session_id":"619be590ff58d980ad11bfc4","condition":"full-information","relevant_dimensions":["pattern","legs"],"bee_group":{"antennae":"X","wings":"X","pattern":"D","legs":"M"},"action":"avoid","summary":"bad-avoid","bonus":1.4200000000000008},{"rt":868.1000000238419,"stimulus":"\n                    <p><b>Action: <em>avoid</em></b></p>\n                    <p>This is the bee that you just saw.</p>\n                    <img src=\"bees-with-color/bee-A1DF.svg\" width=\"200\">\n                    <p><span class=\"redText\">Bad choice,</span> the bee was friendly.<br>Your bonus pay is unchanged, and remains at $0.74.</p>\n            ","response":0,"trial_type":"html-button-response","trial_index":76,"time_elapsed":345209,"internal_node_id":"0.0-4.0-1.34","subject_id":"61415015fed00ef802e48e51","study_id":"6197b3f67c2b5cd3b6d9596a","session_id":"619be590ff58d980ad11bfc4","condition":"full-information","relevant_dimensions":["pattern","legs"],"bee_group":{"antennae":"X","wings":"X","pattern":"D","legs":"M"},"bonus":1.4200000000000008},{"rt":953.6000000238419,"stimulus":"bees-with-color/bee-B2SM.svg","response":0,"trial_type":"image-button-response","trial_index":77,"time_elapsed":346164,"internal_node_id":"0.0-4.0-0.35","subject_id":"61415015fed00ef802e48e51","study_id":"6197b3f67c2b5cd3b6d9596a","session_id":"619be590ff58d980ad11bfc4","condition":"full-information","relevant_dimensions":["pattern","legs"],"bee_group":{"antennae":"X","wings":"X","pattern":"D","legs":"M"},"action":"harvest","summary":"good-harvest","bonus":1.4200000000000008},{"rt":795.3999999761581,"stimulus":"\n                    <p><b>Action: <em>harvest</em></b></p>\n                    <p>This is the bee that you just saw.</p>\n                    <img src=\"bees-with-color/bee-B2SM.svg\" width=\"200\">\n                    <p><span class=\"greenText\"><b>Successful harvest!</b></span><br>Your pay has increased by $0.02. Your bonus pay is now $0.76.</p>\n            ","response":0,"trial_type":"html-button-response","trial_index":78,"time_elapsed":346960,"internal_node_id":"0.0-4.0-1.35","subject_id":"61415015fed00ef802e48e51","study_id":"6197b3f67c2b5cd3b6d9596a","session_id":"619be590ff58d980ad11bfc4","condition":"full-information","relevant_dimensions":["pattern","legs"],"bee_group":{"antennae":"X","wings":"X","pattern":"D","legs":"M"},"bonus":1.4200000000000008},{"rt":1497.5999999046326,"stimulus":"bees-with-color/bee-A2SM.svg","response":0,"trial_type":"image-button-response","trial_index":79,"time_elapsed":348460,"internal_node_id":"0.0-4.0-0.36","subject_id":"61415015fed00ef802e48e51","study_id":"6197b3f67c2b5cd3b6d9596a","session_id":"619be590ff58d980ad11bfc4","condition":"full-information","relevant_dimensions":["pattern","legs"],"bee_group":{"antennae":"X","wings":"X","pattern":"D","legs":"M"},"action":"harvest","summary":"good-harvest","bonus":1.4200000000000008},{"rt":748.7000000476837,"stimulus":"\n                    <p><b>Action: <em>harvest</em></b></p>\n                    <p>This is the bee that you just saw.</p>\n                    <img src=\"bees-with-color/bee-A2SM.svg\" width=\"200\">\n                    <p><span class=\"greenText\"><b>Successful harvest!</b></span><br>Your pay has increased by $0.02. Your bonus pay is now $0.78.</p>\n            ","response":0,"trial_type":"html-button-response","trial_index":80,"time_elapsed":349210,"internal_node_id":"0.0-4.0-1.36","subject_id":"61415015fed00ef802e48e51","study_id":"6197b3f67c2b5cd3b6d9596a","session_id":"619be590ff58d980ad11bfc4","condition":"full-information","relevant_dimensions":["pattern","legs"],"bee_group":{"antennae":"X","wings":"X","pattern":"D","legs":"M"},"bonus":1.4200000000000008},{"rt":881.5,"stimulus":"bees-with-color/bee-B2DF.svg","response":1,"trial_type":"image-button-response","trial_index":81,"time_elapsed":350093,"internal_node_id":"0.0-4.0-0.37","subject_id":"61415015fed00ef802e48e51","study_id":"6197b3f67c2b5cd3b6d9596a","session_id":"619be590ff58d980ad11bfc4","condition":"full-information","relevant_dimensions":["pattern","legs"],"bee_group":{"antennae":"X","wings":"X","pattern":"D","legs":"M"},"action":"avoid","summary":"bad-avoid","bonus":1.4200000000000008},{"rt":2689.899999976158,"stimulus":"\n                    <p><b>Action: <em>avoid</em></b></p>\n                    <p>This is the bee that you just saw.</p>\n                    <img src=\"bees-with-color/bee-B2DF.svg\" width=\"200\">\n                    <p><span class=\"redText\">Bad choice,</span> the bee was friendly.<br>Your bonus pay is unchanged, and remains at $0.78.</p>\n            ","response":0,"trial_type":"html-button-response","trial_index":82,"time_elapsed":352784,"internal_node_id":"0.0-4.0-1.37","subject_id":"61415015fed00ef802e48e51","study_id":"6197b3f67c2b5cd3b6d9596a","session_id":"619be590ff58d980ad11bfc4","condition":"full-information","relevant_dimensions":["pattern","legs"],"bee_group":{"antennae":"X","wings":"X","pattern":"D","legs":"M"},"bonus":1.4200000000000008},{"rt":1425.8999999761581,"stimulus":"bees-with-color/bee-A2DF.svg","response":0,"trial_type":"image-button-response","trial_index":83,"time_elapsed":354212,"internal_node_id":"0.0-4.0-0.38","subject_id":"61415015fed00ef802e48e51","study_id":"6197b3f67c2b5cd3b6d9596a","session_id":"619be590ff58d980ad11bfc4","condition":"full-information","relevant_dimensions":["pattern","legs"],"bee_group":{"antennae":"X","wings":"X","pattern":"D","legs":"M"},"action":"harvest","summary":"good-harvest","bonus":1.4200000000000008},{"rt":1560.8999999761581,"stimulus":"\n                    <p><b>Action: <em>harvest</em></b></p>\n                    <p>This is the bee that you just saw.</p>\n                    <img src=\"bees-with-color/bee-A2DF.svg\" width=\"200\">\n                    <p><span class=\"greenText\"><b>Successful harvest!</b></span><br>Your pay has increased by $0.02. Your bonus pay is now $0.80.</p>\n            ","response":0,"trial_type":"html-button-response","trial_index":84,"time_elapsed":355774,"internal_node_id":"0.0-4.0-1.38","subject_id":"61415015fed00ef802e48e51","study_id":"6197b3f67c2b5cd3b6d9596a","session_id":"619be590ff58d980ad11bfc4","condition":"full-information","relevant_dimensions":["pattern","legs"],"bee_group":{"antennae":"X","wings":"X","pattern":"D","legs":"M"},"bonus":1.4200000000000008},{"rt":4590.399999976158,"stimulus":"bees-with-color/bee-B1DM.svg","response":1,"trial_type":"image-button-response","trial_index":85,"time_elapsed":360366,"internal_node_id":"0.0-4.0-0.39","subject_id":"61415015fed00ef802e48e51","study_id":"6197b3f67c2b5cd3b6d9596a","session_id":"619be590ff58d980ad11bfc4","condition":"full-information","relevant_dimensions":["pattern","legs"],"bee_group":{"antennae":"X","wings":"X","pattern":"D","legs":"M"},"action":"avoid","summary":"good-avoid","bonus":1.4200000000000008},{"rt":2341.899999976158,"stimulus":"\n                    <p><b>Action: <em>avoid</em></b></p>\n                    <p>This is the bee that you just saw.</p>\n                    <img src=\"bees-with-color/bee-B1DM.svg\" width=\"200\">\n                    <p><span class=\"greenText\">Good choice!</span>  This bee would have stung you.<br>Your bonus pay is unchanged, and remains at $0.80.</p>\n            ","response":0,"trial_type":"html-button-response","trial_index":86,"time_elapsed":362710,"internal_node_id":"0.0-4.0-1.39","subject_id":"61415015fed00ef802e48e51","study_id":"6197b3f67c2b5cd3b6d9596a","session_id":"619be590ff58d980ad11bfc4","condition":"full-information","relevant_dimensions":["pattern","legs"],"bee_group":{"antennae":"X","wings":"X","pattern":"D","legs":"M"},"bonus":1.4200000000000008},{"rt":1346.4000000953674,"stimulus":"bees-with-color/bee-B2SF.svg","response":0,"trial_type":"image-button-response","trial_index":87,"time_elapsed":364058,"internal_node_id":"0.0-4.0-0.40","subject_id":"61415015fed00ef802e48e51","study_id":"6197b3f67c2b5cd3b6d9596a","session_id":"619be590ff58d980ad11bfc4","condition":"full-information","relevant_dimensions":["pattern","legs"],"bee_group":{"antennae":"X","wings":"X","pattern":"D","legs":"M"},"action":"harvest","summary":"good-harvest","bonus":1.4200000000000008},{"rt":875.2000000476837,"stimulus":"\n                    <p><b>Action: <em>harvest</em></b></p>\n                    <p>This is the bee that you just saw.</p>\n                    <img src=\"bees-with-color/bee-B2SF.svg\" width=\"200\">\n                    <p><span class=\"greenText\"><b>Successful harvest!</b></span><br>Your pay has increased by $0.02. Your bonus pay is now $0.82.</p>\n            ","response":0,"trial_type":"html-button-response","trial_index":88,"time_elapsed":364935,"internal_node_id":"0.0-4.0-1.40","subject_id":"61415015fed00ef802e48e51","study_id":"6197b3f67c2b5cd3b6d9596a","session_id":"619be590ff58d980ad11bfc4","condition":"full-information","relevant_dimensions":["pattern","legs"],"bee_group":{"antennae":"X","wings":"X","pattern":"D","legs":"M"},"bonus":1.4200000000000008},{"rt":973.6000000238419,"stimulus":"bees-with-color/bee-A2SF.svg","response":0,"trial_type":"image-button-response","trial_index":89,"time_elapsed":365910,"internal_node_id":"0.0-4.0-0.41","subject_id":"61415015fed00ef802e48e51","study_id":"6197b3f67c2b5cd3b6d9596a","session_id":"619be590ff58d980ad11bfc4","condition":"full-information","relevant_dimensions":["pattern","legs"],"bee_group":{"antennae":"X","wings":"X","pattern":"D","legs":"M"},"action":"harvest","summary":"good-harvest","bonus":1.4200000000000008},{"rt":995.3999999761581,"stimulus":"\n                    <p><b>Action: <em>harvest</em></b></p>\n                    <p>This is the bee that you just saw.</p>\n                    <img src=\"bees-with-color/bee-A2SF.svg\" width=\"200\">\n                    <p><span class=\"greenText\"><b>Successful harvest!</b></span><br>Your pay has increased by $0.02. Your bonus pay is now $0.84.</p>\n            ","response":0,"trial_type":"html-button-response","trial_index":90,"time_elapsed":366908,"internal_node_id":"0.0-4.0-1.41","subject_id":"61415015fed00ef802e48e51","study_id":"6197b3f67c2b5cd3b6d9596a","session_id":"619be590ff58d980ad11bfc4","condition":"full-information","relevant_dimensions":["pattern","legs"],"bee_group":{"antennae":"X","wings":"X","pattern":"D","legs":"M"},"bonus":1.4200000000000008},{"rt":967.2999999523163,"stimulus":"bees-with-color/bee-B1SM.svg","response":1,"trial_type":"image-button-response","trial_index":91,"time_elapsed":367877,"internal_node_id":"0.0-4.0-0.42","subject_id":"61415015fed00ef802e48e51","study_id":"6197b3f67c2b5cd3b6d9596a","session_id":"619be590ff58d980ad11bfc4","condition":"full-information","relevant_dimensions":["pattern","legs"],"bee_group":{"antennae":"X","wings":"X","pattern":"D","legs":"M"},"action":"avoid","summary":"bad-avoid","bonus":1.4200000000000008},{"rt":1001.5,"stimulus":"\n                    <p><b>Action: <em>avoid</em></b></p>\n                    <p>This is the bee that you just saw.</p>\n                    <img src=\"bees-with-color/bee-B1SM.svg\" width=\"200\">\n                    <p><span class=\"redText\">Bad choice,</span> the bee was friendly.<br>Your bonus pay is unchanged, and remains at $0.84.</p>\n            ","response":0,"trial_type":"html-button-response","trial_index":92,"time_elapsed":368880,"internal_node_id":"0.0-4.0-1.42","subject_id":"61415015fed00ef802e48e51","study_id":"6197b3f67c2b5cd3b6d9596a","session_id":"619be590ff58d980ad11bfc4","condition":"full-information","relevant_dimensions":["pattern","legs"],"bee_group":{"antennae":"X","wings":"X","pattern":"D","legs":"M"},"bonus":1.4200000000000008},{"rt":1205.3999999761581,"stimulus":"bees-with-color/bee-A1SM.svg","response":1,"trial_type":"image-button-response","trial_index":93,"time_elapsed":370087,"internal_node_id":"0.0-4.0-0.43","subject_id":"61415015fed00ef802e48e51","study_id":"6197b3f67c2b5cd3b6d9596a","session_id":"619be590ff58d980ad11bfc4","condition":"full-information","relevant_dimensions":["pattern","legs"],"bee_group":{"antennae":"X","wings":"X","pattern":"D","legs":"M"},"action":"avoid","summary":"bad-avoid","bonus":1.4200000000000008},{"rt":2111.5,"stimulus":"\n                    <p><b>Action: <em>avoid</em></b></p>\n                    <p>This is the bee that you just saw.</p>\n                    <img src=\"bees-with-color/bee-A1SM.svg\" width=\"200\">\n                    <p><span class=\"redText\">Bad choice,</span> the bee was friendly.<br>Your bonus pay is unchanged, and remains at $0.84.</p>\n            ","response":0,"trial_type":"html-button-response","trial_index":94,"time_elapsed":372200,"internal_node_id":"0.0-4.0-1.43","subject_id":"61415015fed00ef802e48e51","study_id":"6197b3f67c2b5cd3b6d9596a","session_id":"619be590ff58d980ad11bfc4","condition":"full-information","relevant_dimensions":["pattern","legs"],"bee_group":{"antennae":"X","wings":"X","pattern":"D","legs":"M"},"bonus":1.4200000000000008},{"rt":884,"stimulus":"bees-with-color/bee-A1DM.svg","response":1,"trial_type":"image-button-response","trial_index":95,"time_elapsed":373086,"internal_node_id":"0.0-4.0-0.44","subject_id":"61415015fed00ef802e48e51","study_id":"6197b3f67c2b5cd3b6d9596a","session_id":"619be590ff58d980ad11bfc4","condition":"full-information","relevant_dimensions":["pattern","legs"],"bee_group":{"antennae":"X","wings":"X","pattern":"D","legs":"M"},"action":"avoid","summary":"good-avoid","bonus":1.4200000000000008},{"rt":1283.8000000715256,"stimulus":"\n                    <p><b>Action: <em>avoid</em></b></p>\n                    <p>This is the bee that you just saw.</p>\n                    <img src=\"bees-with-color/bee-A1DM.svg\" width=\"200\">\n                    <p><span class=\"greenText\">Good choice!</span>  This bee would have stung you.<br>Your bonus pay is unchanged, and remains at $0.84.</p>\n            ","response":0,"trial_type":"html-button-response","trial_index":96,"time_elapsed":374372,"internal_node_id":"0.0-4.0-1.44","subject_id":"61415015fed00ef802e48e51","study_id":"6197b3f67c2b5cd3b6d9596a","session_id":"619be590ff58d980ad11bfc4","condition":"full-information","relevant_dimensions":["pattern","legs"],"bee_group":{"antennae":"X","wings":"X","pattern":"D","legs":"M"},"bonus":1.4200000000000008},{"rt":937.4000000953674,"stimulus":"bees-with-color/bee-B1SF.svg","response":0,"trial_type":"image-button-response","trial_index":97,"time_elapsed":375311,"internal_node_id":"0.0-4.0-0.45","subject_id":"61415015fed00ef802e48e51","study_id":"6197b3f67c2b5cd3b6d9596a","session_id":"619be590ff58d980ad11bfc4","condition":"full-information","relevant_dimensions":["pattern","legs"],"bee_group":{"antennae":"X","wings":"X","pattern":"D","legs":"M"},"action":"harvest","summary":"good-harvest","bonus":1.4200000000000008},{"rt":850.7999999523163,"stimulus":"\n                    <p><b>Action: <em>harvest</em></b></p>\n                    <p>This is the bee that you just saw.</p>\n                    <img src=\"bees-with-color/bee-B1SF.svg\" width=\"200\">\n                    <p><span class=\"greenText\"><b>Successful harvest!</b></span><br>Your pay has increased by $0.02. Your bonus pay is now $0.86.</p>\n            ","response":0,"trial_type":"html-button-response","trial_index":98,"time_elapsed":376164,"internal_node_id":"0.0-4.0-1.45","subject_id":"61415015fed00ef802e48e51","study_id":"6197b3f67c2b5cd3b6d9596a","session_id":"619be590ff58d980ad11bfc4","condition":"full-information","relevant_dimensions":["pattern","legs"],"bee_group":{"antennae":"X","wings":"X","pattern":"D","legs":"M"},"bonus":1.4200000000000008},{"rt":903,"stimulus":"bees-with-color/bee-B2DM.svg","response":1,"trial_type":"image-button-response","trial_index":99,"time_elapsed":377070,"internal_node_id":"0.0-4.0-0.46","subject_id":"61415015fed00ef802e48e51","study_id":"6197b3f67c2b5cd3b6d9596a","session_id":"619be590ff58d980ad11bfc4","condition":"full-information","relevant_dimensions":["pattern","legs"],"bee_group":{"antennae":"X","wings":"X","pattern":"D","legs":"M"},"action":"avoid","summary":"good-avoid","bonus":1.4200000000000008},{"rt":1016,"stimulus":"\n                    <p><b>Action: <em>avoid</em></b></p>\n                    <p>This is the bee that you just saw.</p>\n                    <img src=\"bees-with-color/bee-B2DM.svg\" width=\"200\">\n                    <p><span class=\"greenText\">Good choice!</span>  This bee would have stung you.<br>Your bonus pay is unchanged, and remains at $0.86.</p>\n            ","response":0,"trial_type":"html-button-response","trial_index":100,"time_elapsed":378088,"internal_node_id":"0.0-4.0-1.46","subject_id":"61415015fed00ef802e48e51","study_id":"6197b3f67c2b5cd3b6d9596a","session_id":"619be590ff58d980ad11bfc4","condition":"full-information","relevant_dimensions":["pattern","legs"],"bee_group":{"antennae":"X","wings":"X","pattern":"D","legs":"M"},"bonus":1.4200000000000008},{"rt":1585,"stimulus":"bees-with-color/bee-B1DF.svg","response":0,"trial_type":"image-button-response","trial_index":101,"time_elapsed":379674,"internal_node_id":"0.0-4.0-0.47","subject_id":"61415015fed00ef802e48e51","study_id":"6197b3f67c2b5cd3b6d9596a","session_id":"619be590ff58d980ad11bfc4","condition":"full-information","relevant_dimensions":["pattern","legs"],"bee_group":{"antennae":"X","wings":"X","pattern":"D","legs":"M"},"action":"harvest","summary":"good-harvest","bonus":1.4200000000000008},{"rt":1063.1999999284744,"stimulus":"\n                    <p><b>Action: <em>harvest</em></b></p>\n                    <p>This is the bee that you just saw.</p>\n                    <img src=\"bees-with-color/bee-B1DF.svg\" width=\"200\">\n                    <p><span class=\"greenText\"><b>Successful harvest!</b></span><br>Your pay has increased by $0.02. Your bonus pay is now $0.88.</p>\n            ","response":0,"trial_type":"html-button-response","trial_index":102,"time_elapsed":380740,"internal_node_id":"0.0-4.0-1.47","subject_id":"61415015fed00ef802e48e51","study_id":"6197b3f67c2b5cd3b6d9596a","session_id":"619be590ff58d980ad11bfc4","condition":"full-information","relevant_dimensions":["pattern","legs"],"bee_group":{"antennae":"X","wings":"X","pattern":"D","legs":"M"},"bonus":1.4200000000000008},{"rt":1031.8999999761581,"stimulus":"bees-with-color/bee-A1DM.svg","response":1,"trial_type":"image-button-response","trial_index":103,"time_elapsed":381774,"internal_node_id":"0.0-4.0-0.48","subject_id":"61415015fed00ef802e48e51","study_id":"6197b3f67c2b5cd3b6d9596a","session_id":"619be590ff58d980ad11bfc4","condition":"full-information","relevant_dimensions":["pattern","legs"],"bee_group":{"antennae":"X","wings":"X","pattern":"D","legs":"M"},"action":"avoid","summary":"good-avoid","bonus":1.4200000000000008},{"rt":1268.3999999761581,"stimulus":"\n                    <p><b>Action: <em>avoid</em></b></p>\n                    <p>This is the bee that you just saw.</p>\n                    <img src=\"bees-with-color/bee-A1DM.svg\" width=\"200\">\n                    <p><span class=\"greenText\">Good choice!</span>  This bee would have stung you.<br>Your bonus pay is unchanged, and remains at $0.88.</p>\n            ","response":0,"trial_type":"html-button-response","trial_index":104,"time_elapsed":383044,"internal_node_id":"0.0-4.0-1.48","subject_id":"61415015fed00ef802e48e51","study_id":"6197b3f67c2b5cd3b6d9596a","session_id":"619be590ff58d980ad11bfc4","condition":"full-information","relevant_dimensions":["pattern","legs"],"bee_group":{"antennae":"X","wings":"X","pattern":"D","legs":"M"},"bonus":1.4200000000000008},{"rt":1016,"stimulus":"bees-with-color/bee-A2SF.svg","response":0,"trial_type":"image-button-response","trial_index":105,"time_elapsed":384062,"internal_node_id":"0.0-4.0-0.49","subject_id":"61415015fed00ef802e48e51","study_id":"6197b3f67c2b5cd3b6d9596a","session_id":"619be590ff58d980ad11bfc4","condition":"full-information","relevant_dimensions":["pattern","legs"],"bee_group":{"antennae":"X","wings":"X","pattern":"D","legs":"M"},"action":"harvest","summary":"good-harvest","bonus":1.4200000000000008},{"rt":944.8999999761581,"stimulus":"\n                    <p><b>Action: <em>harvest</em></b></p>\n                    <p>This is the bee that you just saw.</p>\n                    <img src=\"bees-with-color/bee-A2SF.svg\" width=\"200\">\n                    <p><span class=\"greenText\"><b>Successful harvest!</b></span><br>Your pay has increased by $0.02. Your bonus pay is now $0.90.</p>\n            ","response":0,"trial_type":"html-button-response","trial_index":106,"time_elapsed":385009,"internal_node_id":"0.0-4.0-1.49","subject_id":"61415015fed00ef802e48e51","study_id":"6197b3f67c2b5cd3b6d9596a","session_id":"619be590ff58d980ad11bfc4","condition":"full-information","relevant_dimensions":["pattern","legs"],"bee_group":{"antennae":"X","wings":"X","pattern":"D","legs":"M"},"bonus":1.4200000000000008},{"rt":928.2000000476837,"stimulus":"bees-with-color/bee-A2DM.svg","response":1,"trial_type":"image-button-response","trial_index":107,"time_elapsed":385939,"internal_node_id":"0.0-4.0-0.50","subject_id":"61415015fed00ef802e48e51","study_id":"6197b3f67c2b5cd3b6d9596a","session_id":"619be590ff58d980ad11bfc4","condition":"full-information","relevant_dimensions":["pattern","legs"],"bee_group":{"antennae":"X","wings":"X","pattern":"D","legs":"M"},"action":"avoid","summary":"good-avoid","bonus":1.4200000000000008},{"rt":1009.5,"stimulus":"\n                    <p><b>Action: <em>avoid</em></b></p>\n                    <p>This is the bee that you just saw.</p>\n                    <img src=\"bees-with-color/bee-A2DM.svg\" width=\"200\">\n                    <p><span class=\"greenText\">Good choice!</span>  This bee would have stung you.<br>Your bonus pay is unchanged, and remains at $0.90.</p>\n            ","response":0,"trial_type":"html-button-response","trial_index":108,"time_elapsed":386949,"internal_node_id":"0.0-4.0-1.50","subject_id":"61415015fed00ef802e48e51","study_id":"6197b3f67c2b5cd3b6d9596a","session_id":"619be590ff58d980ad11bfc4","condition":"full-information","relevant_dimensions":["pattern","legs"],"bee_group":{"antennae":"X","wings":"X","pattern":"D","legs":"M"},"bonus":1.4200000000000008},{"rt":906.6000000238419,"stimulus":"bees-with-color/bee-A1SF.svg","response":0,"trial_type":"image-button-response","trial_index":109,"time_elapsed":387857,"internal_node_id":"0.0-4.0-0.51","subject_id":"61415015fed00ef802e48e51","study_id":"6197b3f67c2b5cd3b6d9596a","session_id":"619be590ff58d980ad11bfc4","condition":"full-information","relevant_dimensions":["pattern","legs"],"bee_group":{"antennae":"X","wings":"X","pattern":"D","legs":"M"},"action":"harvest","summary":"good-harvest","bonus":1.4200000000000008},{"rt":921.8999999761581,"stimulus":"\n                    <p><b>Action: <em>harvest</em></b></p>\n                    <p>This is the bee that you just saw.</p>\n                    <img src=\"bees-with-color/bee-A1SF.svg\" width=\"200\">\n                    <p><span class=\"greenText\"><b>Successful harvest!</b></span><br>Your pay has increased by $0.02. Your bonus pay is now $0.92.</p>\n            ","response":0,"trial_type":"html-button-response","trial_index":110,"time_elapsed":388780,"internal_node_id":"0.0-4.0-1.51","subject_id":"61415015fed00ef802e48e51","study_id":"6197b3f67c2b5cd3b6d9596a","session_id":"619be590ff58d980ad11bfc4","condition":"full-information","relevant_dimensions":["pattern","legs"],"bee_group":{"antennae":"X","wings":"X","pattern":"D","legs":"M"},"bonus":1.4200000000000008},{"rt":873.3999999761581,"stimulus":"bees-with-color/bee-A2SM.svg","response":1,"trial_type":"image-button-response","trial_index":111,"time_elapsed":389655,"internal_node_id":"0.0-4.0-0.52","subject_id":"61415015fed00ef802e48e51","study_id":"6197b3f67c2b5cd3b6d9596a","session_id":"619be590ff58d980ad11bfc4","condition":"full-information","relevant_dimensions":["pattern","legs"],"bee_group":{"antennae":"X","wings":"X","pattern":"D","legs":"M"},"action":"avoid","summary":"bad-avoid","bonus":1.4200000000000008},{"rt":811.3999999761581,"stimulus":"\n                    <p><b>Action: <em>avoid</em></b></p>\n                    <p>This is the bee that you just saw.</p>\n                    <img src=\"bees-with-color/bee-A2SM.svg\" width=\"200\">\n                    <p><span class=\"redText\">Bad choice,</span> the bee was friendly.<br>Your bonus pay is unchanged, and remains at $0.92.</p>\n            ","response":0,"trial_type":"html-button-response","trial_index":112,"time_elapsed":390468,"internal_node_id":"0.0-4.0-1.52","subject_id":"61415015fed00ef802e48e51","study_id":"6197b3f67c2b5cd3b6d9596a","session_id":"619be590ff58d980ad11bfc4","condition":"full-information","relevant_dimensions":["pattern","legs"],"bee_group":{"antennae":"X","wings":"X","pattern":"D","legs":"M"},"bonus":1.4200000000000008},{"rt":820.4000000953674,"stimulus":"bees-with-color/bee-B1SF.svg","response":0,"trial_type":"image-button-response","trial_index":113,"time_elapsed":391290,"internal_node_id":"0.0-4.0-0.53","subject_id":"61415015fed00ef802e48e51","study_id":"6197b3f67c2b5cd3b6d9596a","session_id":"619be590ff58d980ad11bfc4","condition":"full-information","relevant_dimensions":["pattern","legs"],"bee_group":{"antennae":"X","wings":"X","pattern":"D","legs":"M"},"action":"harvest","summary":"good-harvest","bonus":1.4200000000000008},{"rt":787.5,"stimulus":"\n                    <p><b>Action: <em>harvest</em></b></p>\n                    <p>This is the bee that you just saw.</p>\n                    <img src=\"bees-with-color/bee-B1SF.svg\" width=\"200\">\n                    <p><span class=\"greenText\"><b>Successful harvest!</b></span><br>Your pay has increased by $0.02. Your bonus pay is now $0.94.</p>\n            ","response":0,"trial_type":"html-button-response","trial_index":114,"time_elapsed":392079,"internal_node_id":"0.0-4.0-1.53","subject_id":"61415015fed00ef802e48e51","study_id":"6197b3f67c2b5cd3b6d9596a","session_id":"619be590ff58d980ad11bfc4","condition":"full-information","relevant_dimensions":["pattern","legs"],"bee_group":{"antennae":"X","wings":"X","pattern":"D","legs":"M"},"bonus":1.4200000000000008},{"rt":819,"stimulus":"bees-with-color/bee-A1SM.svg","response":0,"trial_type":"image-button-response","trial_index":115,"time_elapsed":392899,"internal_node_id":"0.0-4.0-0.54","subject_id":"61415015fed00ef802e48e51","study_id":"6197b3f67c2b5cd3b6d9596a","session_id":"619be590ff58d980ad11bfc4","condition":"full-information","relevant_dimensions":["pattern","legs"],"bee_group":{"antennae":"X","wings":"X","pattern":"D","legs":"M"},"action":"harvest","summary":"good-harvest","bonus":1.4200000000000008},{"rt":889.5,"stimulus":"\n                    <p><b>Action: <em>harvest</em></b></p>\n                    <p>This is the bee that you just saw.</p>\n                    <img src=\"bees-with-color/bee-A1SM.svg\" width=\"200\">\n                    <p><span class=\"greenText\"><b>Successful harvest!</b></span><br>Your pay has increased by $0.02. Your bonus pay is now $0.96.</p>\n            ","response":0,"trial_type":"html-button-response","trial_index":116,"time_elapsed":393790,"internal_node_id":"0.0-4.0-1.54","subject_id":"61415015fed00ef802e48e51","study_id":"6197b3f67c2b5cd3b6d9596a","session_id":"619be590ff58d980ad11bfc4","condition":"full-information","relevant_dimensions":["pattern","legs"],"bee_group":{"antennae":"X","wings":"X","pattern":"D","legs":"M"},"bonus":1.4200000000000008},{"rt":1143.7000000476837,"stimulus":"bees-with-color/bee-B2SF.svg","response":0,"trial_type":"image-button-response","trial_index":117,"time_elapsed":394935,"internal_node_id":"0.0-4.0-0.55","subject_id":"61415015fed00ef802e48e51","study_id":"6197b3f67c2b5cd3b6d9596a","session_id":"619be590ff58d980ad11bfc4","condition":"full-information","relevant_dimensions":["pattern","legs"],"bee_group":{"antennae":"X","wings":"X","pattern":"D","legs":"M"},"action":"harvest","summary":"good-harvest","bonus":1.4200000000000008},{"rt":985,"stimulus":"\n                    <p><b>Action: <em>harvest</em></b></p>\n                    <p>This is the bee that you just saw.</p>\n                    <img src=\"bees-with-color/bee-B2SF.svg\" width=\"200\">\n                    <p><span class=\"greenText\"><b>Successful harvest!</b></span><br>Your pay has increased by $0.02. Your bonus pay is now $0.98.</p>\n            ","response":0,"trial_type":"html-button-response","trial_index":118,"time_elapsed":395921,"internal_node_id":"0.0-4.0-1.55","subject_id":"61415015fed00ef802e48e51","study_id":"6197b3f67c2b5cd3b6d9596a","session_id":"619be590ff58d980ad11bfc4","condition":"full-information","relevant_dimensions":["pattern","legs"],"bee_group":{"antennae":"X","wings":"X","pattern":"D","legs":"M"},"bonus":1.4200000000000008},{"rt":937.8000000715256,"stimulus":"bees-with-color/bee-A1DF.svg","response":1,"trial_type":"image-button-response","trial_index":119,"time_elapsed":396861,"internal_node_id":"0.0-4.0-0.56","subject_id":"61415015fed00ef802e48e51","study_id":"6197b3f67c2b5cd3b6d9596a","session_id":"619be590ff58d980ad11bfc4","condition":"full-information","relevant_dimensions":["pattern","legs"],"bee_group":{"antennae":"X","wings":"X","pattern":"D","legs":"M"},"action":"avoid","summary":"bad-avoid","bonus":1.4200000000000008},{"rt":961,"stimulus":"\n                    <p><b>Action: <em>avoid</em></b></p>\n                    <p>This is the bee that you just saw.</p>\n                    <img src=\"bees-with-color/bee-A1DF.svg\" width=\"200\">\n                    <p><span class=\"redText\">Bad choice,</span> the bee was friendly.<br>Your bonus pay is unchanged, and remains at $0.98.</p>\n            ","response":0,"trial_type":"html-button-response","trial_index":120,"time_elapsed":397823,"internal_node_id":"0.0-4.0-1.56","subject_id":"61415015fed00ef802e48e51","study_id":"6197b3f67c2b5cd3b6d9596a","session_id":"619be590ff58d980ad11bfc4","condition":"full-information","relevant_dimensions":["pattern","legs"],"bee_group":{"antennae":"X","wings":"X","pattern":"D","legs":"M"},"bonus":1.4200000000000008},{"rt":1398,"stimulus":"bees-with-color/bee-B1SM.svg","response":0,"trial_type":"image-button-response","trial_index":121,"time_elapsed":399222,"internal_node_id":"0.0-4.0-0.57","subject_id":"61415015fed00ef802e48e51","study_id":"6197b3f67c2b5cd3b6d9596a","session_id":"619be590ff58d980ad11bfc4","condition":"full-information","relevant_dimensions":["pattern","legs"],"bee_group":{"antennae":"X","wings":"X","pattern":"D","legs":"M"},"action":"harvest","summary":"good-harvest","bonus":1.4200000000000008},{"rt":958.7999999523163,"stimulus":"\n                    <p><b>Action: <em>harvest</em></b></p>\n                    <p>This is the bee that you just saw.</p>\n                    <img src=\"bees-with-color/bee-B1SM.svg\" width=\"200\">\n                    <p><span class=\"greenText\"><b>Successful harvest!</b></span><br>Your pay has increased by $0.02. Your bonus pay is now $1.00.</p>\n            ","response":0,"trial_type":"html-button-response","trial_index":122,"time_elapsed":400182,"internal_node_id":"0.0-4.0-1.57","subject_id":"61415015fed00ef802e48e51","study_id":"6197b3f67c2b5cd3b6d9596a","session_id":"619be590ff58d980ad11bfc4","condition":"full-information","relevant_dimensions":["pattern","legs"],"bee_group":{"antennae":"X","wings":"X","pattern":"D","legs":"M"},"bonus":1.4200000000000008},{"rt":1734,"stimulus":"bees-with-color/bee-A2DF.svg","response":1,"trial_type":"image-button-response","trial_index":123,"time_elapsed":401918,"internal_node_id":"0.0-4.0-0.58","subject_id":"61415015fed00ef802e48e51","study_id":"6197b3f67c2b5cd3b6d9596a","session_id":"619be590ff58d980ad11bfc4","condition":"full-information","relevant_dimensions":["pattern","legs"],"bee_group":{"antennae":"X","wings":"X","pattern":"D","legs":"M"},"action":"avoid","summary":"bad-avoid","bonus":1.4200000000000008},{"rt":822.3999999761581,"stimulus":"\n                    <p><b>Action: <em>avoid</em></b></p>\n                    <p>This is the bee that you just saw.</p>\n                    <img src=\"bees-with-color/bee-A2DF.svg\" width=\"200\">\n                    <p><span class=\"redText\">Bad choice,</span> the bee was friendly.<br>Your bonus pay is unchanged, and remains at $1.00.</p>\n            ","response":0,"trial_type":"html-button-response","trial_index":124,"time_elapsed":402742,"internal_node_id":"0.0-4.0-1.58","subject_id":"61415015fed00ef802e48e51","study_id":"6197b3f67c2b5cd3b6d9596a","session_id":"619be590ff58d980ad11bfc4","condition":"full-information","relevant_dimensions":["pattern","legs"],"bee_group":{"antennae":"X","wings":"X","pattern":"D","legs":"M"},"bonus":1.4200000000000008},{"rt":1253.8999999761581,"stimulus":"bees-with-color/bee-B1DF.svg","response":0,"trial_type":"image-button-response","trial_index":125,"time_elapsed":403998,"internal_node_id":"0.0-4.0-0.59","subject_id":"61415015fed00ef802e48e51","study_id":"6197b3f67c2b5cd3b6d9596a","session_id":"619be590ff58d980ad11bfc4","condition":"full-information","relevant_dimensions":["pattern","legs"],"bee_group":{"antennae":"X","wings":"X","pattern":"D","legs":"M"},"action":"harvest","summary":"good-harvest","bonus":1.4200000000000008},{"rt":920,"stimulus":"\n                    <p><b>Action: <em>harvest</em></b></p>\n                    <p>This is the bee that you just saw.</p>\n                    <img src=\"bees-with-color/bee-B1DF.svg\" width=\"200\">\n                    <p><span class=\"greenText\"><b>Successful harvest!</b></span><br>Your pay has increased by $0.02. Your bonus pay is now $1.02.</p>\n            ","response":0,"trial_type":"html-button-response","trial_index":126,"time_elapsed":404919,"internal_node_id":"0.0-4.0-1.59","subject_id":"61415015fed00ef802e48e51","study_id":"6197b3f67c2b5cd3b6d9596a","session_id":"619be590ff58d980ad11bfc4","condition":"full-information","relevant_dimensions":["pattern","legs"],"bee_group":{"antennae":"X","wings":"X","pattern":"D","legs":"M"},"bonus":1.4200000000000008},{"rt":1286.2000000476837,"stimulus":"bees-with-color/bee-B1DM.svg","response":1,"trial_type":"image-button-response","trial_index":127,"time_elapsed":406207,"internal_node_id":"0.0-4.0-0.60","subject_id":"61415015fed00ef802e48e51","study_id":"6197b3f67c2b5cd3b6d9596a","session_id":"619be590ff58d980ad11bfc4","condition":"full-information","relevant_dimensions":["pattern","legs"],"bee_group":{"antennae":"X","wings":"X","pattern":"D","legs":"M"},"action":"avoid","summary":"good-avoid","bonus":1.4200000000000008},{"rt":881.5999999046326,"stimulus":"\n                    <p><b>Action: <em>avoid</em></b></p>\n                    <p>This is the bee that you just saw.</p>\n                    <img src=\"bees-with-color/bee-B1DM.svg\" width=\"200\">\n                    <p><span class=\"greenText\">Good choice!</span>  This bee would have stung you.<br>Your bonus pay is unchanged, and remains at $1.02.</p>\n            ","response":0,"trial_type":"html-button-response","trial_index":128,"time_elapsed":407090,"internal_node_id":"0.0-4.0-1.60","subject_id":"61415015fed00ef802e48e51","study_id":"6197b3f67c2b5cd3b6d9596a","session_id":"619be590ff58d980ad11bfc4","condition":"full-information","relevant_dimensions":["pattern","legs"],"bee_group":{"antennae":"X","wings":"X","pattern":"D","legs":"M"},"bonus":1.4200000000000008},{"rt":2011.1000000238419,"stimulus":"bees-with-color/bee-B2SM.svg","response":0,"trial_type":"image-button-response","trial_index":129,"time_elapsed":409103,"internal_node_id":"0.0-4.0-0.61","subject_id":"61415015fed00ef802e48e51","study_id":"6197b3f67c2b5cd3b6d9596a","session_id":"619be590ff58d980ad11bfc4","condition":"full-information","relevant_dimensions":["pattern","legs"],"bee_group":{"antennae":"X","wings":"X","pattern":"D","legs":"M"},"action":"harvest","summary":"good-harvest","bonus":1.4200000000000008},{"rt":760.1999999284744,"stimulus":"\n                    <p><b>Action: <em>harvest</em></b></p>\n                    <p>This is the bee that you just saw.</p>\n                    <img src=\"bees-with-color/bee-B2SM.svg\" width=\"200\">\n                    <p><span class=\"greenText\"><b>Successful harvest!</b></span><br>Your pay has increased by $0.02. Your bonus pay is now $1.04.</p>\n            ","response":0,"trial_type":"html-button-response","trial_index":130,"time_elapsed":409865,"internal_node_id":"0.0-4.0-1.61","subject_id":"61415015fed00ef802e48e51","study_id":"6197b3f67c2b5cd3b6d9596a","session_id":"619be590ff58d980ad11bfc4","condition":"full-information","relevant_dimensions":["pattern","legs"],"bee_group":{"antennae":"X","wings":"X","pattern":"D","legs":"M"},"bonus":1.4200000000000008},{"rt":1294.7000000476837,"stimulus":"bees-with-color/bee-B2DF.svg","response":0,"trial_type":"image-button-response","trial_index":131,"time_elapsed":411161,"internal_node_id":"0.0-4.0-0.62","subject_id":"61415015fed00ef802e48e51","study_id":"6197b3f67c2b5cd3b6d9596a","session_id":"619be590ff58d980ad11bfc4","condition":"full-information","relevant_dimensions":["pattern","legs"],"bee_group":{"antennae":"X","wings":"X","pattern":"D","legs":"M"},"action":"harvest","summary":"good-harvest","bonus":1.4200000000000008},{"rt":1206,"stimulus":"\n                    <p><b>Action: <em>harvest</em></b></p>\n                    <p>This is the bee that you just saw.</p>\n                    <img src=\"bees-with-color/bee-B2DF.svg\" width=\"200\">\n                    <p><span class=\"greenText\"><b>Successful harvest!</b></span><br>Your pay has increased by $0.02. Your bonus pay is now $1.06.</p>\n            ","response":0,"trial_type":"html-button-response","trial_index":132,"time_elapsed":412369,"internal_node_id":"0.0-4.0-1.62","subject_id":"61415015fed00ef802e48e51","study_id":"6197b3f67c2b5cd3b6d9596a","session_id":"619be590ff58d980ad11bfc4","condition":"full-information","relevant_dimensions":["pattern","legs"],"bee_group":{"antennae":"X","wings":"X","pattern":"D","legs":"M"},"bonus":1.4200000000000008},{"rt":1220.8999999761581,"stimulus":"bees-with-color/bee-B2DM.svg","response":1,"trial_type":"image-button-response","trial_index":133,"time_elapsed":413592,"internal_node_id":"0.0-4.0-0.63","subject_id":"61415015fed00ef802e48e51","study_id":"6197b3f67c2b5cd3b6d9596a","session_id":"619be590ff58d980ad11bfc4","condition":"full-information","relevant_dimensions":["pattern","legs"],"bee_group":{"antennae":"X","wings":"X","pattern":"D","legs":"M"},"action":"avoid","summary":"good-avoid","bonus":1.4200000000000008},{"rt":851.2999999523163,"stimulus":"\n                    <p><b>Action: <em>avoid</em></b></p>\n                    <p>This is the bee that you just saw.</p>\n                    <img src=\"bees-with-color/bee-B2DM.svg\" width=\"200\">\n                    <p><span class=\"greenText\">Good choice!</span>  This bee would have stung you.<br>Your bonus pay is unchanged, and remains at $1.06.</p>\n            ","response":0,"trial_type":"html-button-response","trial_index":134,"time_elapsed":414445,"internal_node_id":"0.0-4.0-1.63","subject_id":"61415015fed00ef802e48e51","study_id":"6197b3f67c2b5cd3b6d9596a","session_id":"619be590ff58d980ad11bfc4","condition":"full-information","relevant_dimensions":["pattern","legs"],"bee_group":{"antennae":"X","wings":"X","pattern":"D","legs":"M"},"bonus":1.4200000000000008},{"rt":34292.60000002384,"stimulus":"You have completed the first part of this experiment.<br><br>You will now begin a shorter second part, in which you will receive no feedback.<br>The same rules regarding bonus pay apply.<br><br>Press any key to begin.","response":" ","trial_type":"html-keyboard-response","trial_index":135,"time_elapsed":448739,"internal_node_id":"0.0-5.0","subject_id":"61415015fed00ef802e48e51","study_id":"6197b3f67c2b5cd3b6d9596a","session_id":"619be590ff58d980ad11bfc4","condition":"full-information","relevant_dimensions":["pattern","legs"],"bee_group":{"antennae":"X","wings":"X","pattern":"D","legs":"M"},"bonus":1.4200000000000008},{"rt":1835.2000000476837,"stimulus":"bees-with-color/bee-B2SM.svg","response":0,"trial_type":"image-button-response","trial_index":136,"time_elapsed":450581,"internal_node_id":"0.0-6.0-0.0","subject_id":"61415015fed00ef802e48e51","study_id":"6197b3f67c2b5cd3b6d9596a","session_id":"619be590ff58d980ad11bfc4","condition":"full-information","relevant_dimensions":["pattern","legs"],"bee_group":{"antennae":"X","wings":"X","pattern":"D","legs":"M"},"bonus":1.4200000000000008},{"rt":2136,"stimulus":"bees-with-color/bee-B1DF.svg","response":0,"trial_type":"image-button-response","trial_index":137,"time_elapsed":452719,"internal_node_id":"0.0-6.0-0.1","subject_id":"61415015fed00ef802e48e51","study_id":"6197b3f67c2b5cd3b6d9596a","session_id":"619be590ff58d980ad11bfc4","condition":"full-information","relevant_dimensions":["pattern","legs"],"bee_group":{"antennae":"X","wings":"X","pattern":"D","legs":"M"},"bonus":1.4200000000000008},{"rt":1333.2000000476837,"stimulus":"bees-with-color/bee-A2DF.svg","response":0,"trial_type":"image-button-response","trial_index":138,"time_elapsed":454055,"internal_node_id":"0.0-6.0-0.2","subject_id":"61415015fed00ef802e48e51","study_id":"6197b3f67c2b5cd3b6d9596a","session_id":"619be590ff58d980ad11bfc4","condition":"full-information","relevant_dimensions":["pattern","legs"],"bee_group":{"antennae":"X","wings":"X","pattern":"D","legs":"M"},"bonus":1.4200000000000008},{"rt":824.1999999284744,"stimulus":"bees-with-color/bee-B2SF.svg","response":0,"trial_type":"image-button-response","trial_index":139,"time_elapsed":454881,"internal_node_id":"0.0-6.0-0.3","subject_id":"61415015fed00ef802e48e51","study_id":"6197b3f67c2b5cd3b6d9596a","session_id":"619be590ff58d980ad11bfc4","condition":"full-information","relevant_dimensions":["pattern","legs"],"bee_group":{"antennae":"X","wings":"X","pattern":"D","legs":"M"},"bonus":1.4200000000000008},{"rt":1000.7000000476837,"stimulus":"bees-with-color/bee-A2SF.svg","response":0,"trial_type":"image-button-response","trial_index":140,"time_elapsed":455885,"internal_node_id":"0.0-6.0-0.4","subject_id":"61415015fed00ef802e48e51","study_id":"6197b3f67c2b5cd3b6d9596a","session_id":"619be590ff58d980ad11bfc4","condition":"full-information","relevant_dimensions":["pattern","legs"],"bee_group":{"antennae":"X","wings":"X","pattern":"D","legs":"M"},"bonus":1.4200000000000008},{"rt":865.5,"stimulus":"bees-with-color/bee-A1SM.svg","response":1,"trial_type":"image-button-response","trial_index":141,"time_elapsed":456752,"internal_node_id":"0.0-6.0-0.5","subject_id":"61415015fed00ef802e48e51","study_id":"6197b3f67c2b5cd3b6d9596a","session_id":"619be590ff58d980ad11bfc4","condition":"full-information","relevant_dimensions":["pattern","legs"],"bee_group":{"antennae":"X","wings":"X","pattern":"D","legs":"M"},"bonus":1.4200000000000008},{"rt":755.2000000476837,"stimulus":"bees-with-color/bee-A1DM.svg","response":1,"trial_type":"image-button-response","trial_index":142,"time_elapsed":457510,"internal_node_id":"0.0-6.0-0.6","subject_id":"61415015fed00ef802e48e51","study_id":"6197b3f67c2b5cd3b6d9596a","session_id":"619be590ff58d980ad11bfc4","condition":"full-information","relevant_dimensions":["pattern","legs"],"bee_group":{"antennae":"X","wings":"X","pattern":"D","legs":"M"},"bonus":1.4200000000000008},{"rt":573.2999999523163,"stimulus":"bees-with-color/bee-B1DM.svg","response":1,"trial_type":"image-button-response","trial_index":143,"time_elapsed":458086,"internal_node_id":"0.0-6.0-0.7","subject_id":"61415015fed00ef802e48e51","study_id":"6197b3f67c2b5cd3b6d9596a","session_id":"619be590ff58d980ad11bfc4","condition":"full-information","relevant_dimensions":["pattern","legs"],"bee_group":{"antennae":"X","wings":"X","pattern":"D","legs":"M"},"bonus":1.4200000000000008},{"rt":1245.5,"stimulus":"bees-with-color/bee-B2DF.svg","response":0,"trial_type":"image-button-response","trial_index":144,"time_elapsed":459334,"internal_node_id":"0.0-6.0-0.8","subject_id":"61415015fed00ef802e48e51","study_id":"6197b3f67c2b5cd3b6d9596a","session_id":"619be590ff58d980ad11bfc4","condition":"full-information","relevant_dimensions":["pattern","legs"],"bee_group":{"antennae":"X","wings":"X","pattern":"D","legs":"M"},"bonus":1.4200000000000008},{"rt":2323.100000023842,"stimulus":"bees-with-color/bee-A2SM.svg","response":1,"trial_type":"image-button-response","trial_index":145,"time_elapsed":461659,"internal_node_id":"0.0-6.0-0.9","subject_id":"61415015fed00ef802e48e51","study_id":"6197b3f67c2b5cd3b6d9596a","session_id":"619be590ff58d980ad11bfc4","condition":"full-information","relevant_dimensions":["pattern","legs"],"bee_group":{"antennae":"X","wings":"X","pattern":"D","legs":"M"},"bonus":1.4200000000000008},{"rt":765.8999999761581,"stimulus":"bees-with-color/bee-B2DM.svg","response":1,"trial_type":"image-button-response","trial_index":146,"time_elapsed":462427,"internal_node_id":"0.0-6.0-0.10","subject_id":"61415015fed00ef802e48e51","study_id":"6197b3f67c2b5cd3b6d9596a","session_id":"619be590ff58d980ad11bfc4","condition":"full-information","relevant_dimensions":["pattern","legs"],"bee_group":{"antennae":"X","wings":"X","pattern":"D","legs":"M"},"bonus":1.4200000000000008},{"rt":934.3000000715256,"stimulus":"bees-with-color/bee-A1SF.svg","response":0,"trial_type":"image-button-response","trial_index":147,"time_elapsed":463363,"internal_node_id":"0.0-6.0-0.11","subject_id":"61415015fed00ef802e48e51","study_id":"6197b3f67c2b5cd3b6d9596a","session_id":"619be590ff58d980ad11bfc4","condition":"full-information","relevant_dimensions":["pattern","legs"],"bee_group":{"antennae":"X","wings":"X","pattern":"D","legs":"M"},"bonus":1.4200000000000008},{"rt":535.9000000953674,"stimulus":"bees-with-color/bee-B1SF.svg","response":0,"trial_type":"image-button-response","trial_index":148,"time_elapsed":463901,"internal_node_id":"0.0-6.0-0.12","subject_id":"61415015fed00ef802e48e51","study_id":"6197b3f67c2b5cd3b6d9596a","session_id":"619be590ff58d980ad11bfc4","condition":"full-information","relevant_dimensions":["pattern","legs"],"bee_group":{"antennae":"X","wings":"X","pattern":"D","legs":"M"},"bonus":1.4200000000000008},{"rt":786.5,"stimulus":"bees-with-color/bee-A2DM.svg","response":1,"trial_type":"image-button-response","trial_index":149,"time_elapsed":464690,"internal_node_id":"0.0-6.0-0.13","subject_id":"61415015fed00ef802e48e51","study_id":"6197b3f67c2b5cd3b6d9596a","session_id":"619be590ff58d980ad11bfc4","condition":"full-information","relevant_dimensions":["pattern","legs"],"bee_group":{"antennae":"X","wings":"X","pattern":"D","legs":"M"},"bonus":1.4200000000000008},{"rt":1180.1000000238419,"stimulus":"bees-with-color/bee-B1SM.svg","response":0,"trial_type":"image-button-response","trial_index":150,"time_elapsed":465871,"internal_node_id":"0.0-6.0-0.14","subject_id":"61415015fed00ef802e48e51","study_id":"6197b3f67c2b5cd3b6d9596a","session_id":"619be590ff58d980ad11bfc4","condition":"full-information","relevant_dimensions":["pattern","legs"],"bee_group":{"antennae":"X","wings":"X","pattern":"D","legs":"M"},"bonus":1.4200000000000008},{"rt":844.6999999284744,"stimulus":"bees-with-color/bee-A1DF.svg","response":1,"trial_type":"image-button-response","trial_index":151,"time_elapsed":466718,"internal_node_id":"0.0-6.0-0.15","subject_id":"61415015fed00ef802e48e51","study_id":"6197b3f67c2b5cd3b6d9596a","session_id":"619be590ff58d980ad11bfc4","condition":"full-information","relevant_dimensions":["pattern","legs"],"bee_group":{"antennae":"X","wings":"X","pattern":"D","legs":"M"},"bonus":1.4200000000000008},{"rt":2965.899999976158,"stimulus":"bees-with-color/bee-A2SM.svg","response":1,"trial_type":"image-button-response","trial_index":152,"time_elapsed":469686,"internal_node_id":"0.0-6.0-0.16","subject_id":"61415015fed00ef802e48e51","study_id":"6197b3f67c2b5cd3b6d9596a","session_id":"619be590ff58d980ad11bfc4","condition":"full-information","relevant_dimensions":["pattern","legs"],"bee_group":{"antennae":"X","wings":"X","pattern":"D","legs":"M"},"bonus":1.4200000000000008},{"rt":1147.7999999523163,"stimulus":"bees-with-color/bee-A2DM.svg","response":1,"trial_type":"image-button-response","trial_index":153,"time_elapsed":470836,"internal_node_id":"0.0-6.0-0.17","subject_id":"61415015fed00ef802e48e51","study_id":"6197b3f67c2b5cd3b6d9596a","session_id":"619be590ff58d980ad11bfc4","condition":"full-information","relevant_dimensions":["pattern","legs"],"bee_group":{"antennae":"X","wings":"X","pattern":"D","legs":"M"},"bonus":1.4200000000000008},{"rt":1238.8999999761581,"stimulus":"bees-with-color/bee-A2DF.svg","response":0,"trial_type":"image-button-response","trial_index":154,"time_elapsed":472077,"internal_node_id":"0.0-6.0-0.18","subject_id":"61415015fed00ef802e48e51","study_id":"6197b3f67c2b5cd3b6d9596a","session_id":"619be590ff58d980ad11bfc4","condition":"full-information","relevant_dimensions":["pattern","legs"],"bee_group":{"antennae":"X","wings":"X","pattern":"D","legs":"M"},"bonus":1.4200000000000008},{"rt":1465.6999999284744,"stimulus":"bees-with-color/bee-A2SF.svg","response":0,"trial_type":"image-button-response","trial_index":155,"time_elapsed":473544,"internal_node_id":"0.0-6.0-0.19","subject_id":"61415015fed00ef802e48e51","study_id":"6197b3f67c2b5cd3b6d9596a","session_id":"619be590ff58d980ad11bfc4","condition":"full-information","relevant_dimensions":["pattern","legs"],"bee_group":{"antennae":"X","wings":"X","pattern":"D","legs":"M"},"bonus":1.4200000000000008},{"rt":926,"stimulus":"bees-with-color/bee-B2DM.svg","response":1,"trial_type":"image-button-response","trial_index":156,"time_elapsed":474472,"internal_node_id":"0.0-6.0-0.20","subject_id":"61415015fed00ef802e48e51","study_id":"6197b3f67c2b5cd3b6d9596a","session_id":"619be590ff58d980ad11bfc4","condition":"full-information","relevant_dimensions":["pattern","legs"],"bee_group":{"antennae":"X","wings":"X","pattern":"D","legs":"M"},"bonus":1.4200000000000008},{"rt":1130.2999999523163,"stimulus":"bees-with-color/bee-A1SM.svg","response":1,"trial_type":"image-button-response","trial_index":157,"time_elapsed":475604,"internal_node_id":"0.0-6.0-0.21","subject_id":"61415015fed00ef802e48e51","study_id":"6197b3f67c2b5cd3b6d9596a","session_id":"619be590ff58d980ad11bfc4","condition":"full-information","relevant_dimensions":["pattern","legs"],"bee_group":{"antennae":"X","wings":"X","pattern":"D","legs":"M"},"bonus":1.4200000000000008},{"rt":960.5,"stimulus":"bees-with-color/bee-A1DF.svg","response":0,"trial_type":"image-button-response","trial_index":158,"time_elapsed":476567,"internal_node_id":"0.0-6.0-0.22","subject_id":"61415015fed00ef802e48e51","study_id":"6197b