[{"success":true,"trial_type":"fullscreen","trial_index":0,"time_elapsed":3360,"internal_node_id":"0.0-0.0","subject_id":"612376826a580ca0368bb19f","study_id":"6197b3f67c2b5cd3b6d9596a","session_id":"619be31d67eddb75e12af908","condition":"full-information","relevant_dimensions":["wings","legs"],"bee_group":{"antennae":"X","wings":"1","pattern":"X","legs":"F"},"bonus":1.5800000000000014},{"success":true,"timeout":false,"failed_images":[],"failed_audio":[],"failed_video":[],"trial_type":"preload","trial_index":1,"time_elapsed":7126,"internal_node_id":"0.0-1.0","subject_id":"612376826a580ca0368bb19f","study_id":"6197b3f67c2b5cd3b6d9596a","session_id":"619be31d67eddb75e12af908","condition":"full-information","relevant_dimensions":["wings","legs"],"bee_group":{"antennae":"X","wings":"1","pattern":"X","legs":"F"},"bonus":1.5800000000000014},{"rt":1764.7999999523163,"stimulus":"Welcome! Press any key to begin.","response":" ","trial_type":"html-keyboard-response","trial_index":2,"time_elapsed":8894,"internal_node_id":"0.0-2.0","subject_id":"612376826a580ca0368bb19f","study_id":"6197b3f67c2b5cd3b6d9596a","session_id":"619be31d67eddb75e12af908","condition":"full-information","relevant_dimensions":["wings","legs"],"bee_group":{"antennae":"X","wings":"1","pattern":"X","legs":"F"},"bonus":1.5800000000000014},{"view_history":[{"page_index":0,"viewing_time":15022.799999952316},{"page_index":1,"viewing_time":26860.300000071526},{"page_index":2,"viewing_time":22665.599999904633},{"page_index":3,"viewing_time":29944.100000023842},{"page_index":4,"viewing_time":16519.899999976158},{"page_index":5,"viewing_time":10724},{"page_index":6,"viewing_time":20069.900000095367},{"page_index":7,"viewing_time":12694.299999952316},{"page_index":8,"viewing_time":7658.100000023842},{"page_index":9,"viewing_time":9176.699999928474},{"page_index":10,"viewing_time":4630.900000095367},{"page_index":11,"viewing_time":35137.5},{"page_index":12,"viewing_time":6858.299999952316},{"page_index":13,"viewing_time":1248.2999999523163},{"page_index":14,"viewing_time":3566}],"rt":222777.79999995232,"trial_type":"instructions","trial_index":3,"time_elapsed":231672,"internal_node_id":"0.0-3.0-0.0","subject_id":"612376826a580ca0368bb19f","study_id":"6197b3f67c2b5cd3b6d9596a","session_id":"619be31d67eddb75e12af908","condition":"full-information","relevant_dimensions":["wings","legs"],"bee_group":{"antennae":"X","wings":"1","pattern":"X","legs":"F"},"bonus":1.5800000000000014},{"rt":15035,"response":{"Q0":["Two or six legs","Stripes or spots on body","Single or double wings","Antennae or no antennae"]},"question_order":[0],"trial_type":"survey-multi-select","trial_index":4,"time_elapsed":246712,"internal_node_id":"0.0-3.0-1.0","subject_id":"612376826a580ca0368bb19f","study_id":"6197b3f67c2b5cd3b6d9596a","session_id":"619be31d67eddb75e12af908","condition":"full-information","relevant_dimensions":["wings","legs"],"bee_group":{"antennae":"X","wings":"1","pattern":"X","legs":"F"},"correct":true,"bonus":1.5800000000000014},{"rt":39594.800000071526,"response":{"Q1":"No.","Q2":"Based on the four features of the bee.","Q3":"You learn if it was friendly or dangerous, but do not alter your bonus."},"question_order":[0,1,2],"trial_type":"survey-multi-choice","trial_index":5,"time_elapsed":286309,"internal_node_id":"0.0-3.0-2.0","subject_id":"612376826a580ca0368bb19f","study_id":"6197b3f67c2b5cd3b6d9596a","session_id":"619be31d67eddb75e12af908","condition":"full-information","relevant_dimensions":["wings","legs"],"bee_group":{"antennae":"X","wings":"1","pattern":"X","legs":"F"},"correct":true,"bonus":1.5800000000000014},{"rt":4596.200000047684,"stimulus":"<p>Congrats, you got everything right<br>When you're ready, click the button below to continue to the experiment.</p>","response":0,"trial_type":"html-button-response","trial_index":6,"time_elapsed":290908,"internal_node_id":"0.0-3.0-3.0","subject_id":"612376826a580ca0368bb19f","study_id":"6197b3f67c2b5cd3b6d9596a","session_id":"619be31d67eddb75e12af908","condition":"full-information","relevant_dimensions":["wings","legs"],"bee_group":{"antennae":"X","wings":"1","pattern":"X","legs":"F"},"bonus":1.5800000000000014},{"rt":10142.899999976158,"stimulus":"bees-with-color/bee-B1SM.svg","response":0,"trial_type":"image-button-response","trial_index":7,"time_elapsed":301054,"internal_node_id":"0.0-4.0-0.0","subject_id":"612376826a580ca0368bb19f","study_id":"6197b3f67c2b5cd3b6d9596a","session_id":"619be31d67eddb75e12af908","condition":"full-information","relevant_dimensions":["wings","legs"],"bee_group":{"antennae":"X","wings":"1","pattern":"X","legs":"F"},"action":"harvest","summary":"good-harvest","bonus":1.5800000000000014},{"rt":18884.600000023842,"stimulus":"\n                    <p><b>Action: <em>harvest</em></b></p>\n                    <p>This is the bee that you just saw.</p>\n                    <img src=\"bees-with-color/bee-B1SM.svg\" width=\"200\">\n                    <p><span class=\"greenText\"><b>Successful harvest!</b></span><br>Your pay has increased by $0.02. Your bonus pay is now $0.56.</p>\n            ","response":0,"trial_type":"html-button-response","trial_index":8,"time_elapsed":319944,"internal_node_id":"0.0-4.0-1.0","subject_id":"612376826a580ca0368bb19f","study_id":"6197b3f67c2b5cd3b6d9596a","session_id":"619be31d67eddb75e12af908","condition":"full-information","relevant_dimensions":["wings","legs"],"bee_group":{"antennae":"X","wings":"1","pattern":"X","legs":"F"},"bonus":1.5800000000000014},{"rt":4428.800000071526,"stimulus":"bees-with-color/bee-B2DF.svg","response":0,"trial_type":"image-button-response","trial_index":9,"time_elapsed":324376,"internal_node_id":"0.0-4.0-0.1","subject_id":"612376826a580ca0368bb19f","study_id":"6197b3f67c2b5cd3b6d9596a","session_id":"619be31d67eddb75e12af908","condition":"full-information","relevant_dimensions":["wings","legs"],"bee_group":{"antennae":"X","wings":"1","pattern":"X","legs":"F"},"action":"harvest","summary":"good-harvest","bonus":1.5800000000000014},{"rt":8178.100000023842,"stimulus":"\n                    <p><b>Action: <em>harvest</em></b></p>\n                    <p>This is the bee that you just saw.</p>\n                    <img src=\"bees-with-color/bee-B2DF.svg\" width=\"200\">\n                    <p><span class=\"greenText\"><b>Successful harvest!</b></span><br>Your pay has increased by $0.02. Your bonus pay is now $0.58.</p>\n            ","response":0,"trial_type":"html-button-response","trial_index":10,"time_elapsed":332557,"internal_node_id":"0.0-4.0-1.1","subject_id":"612376826a580ca0368bb19f","study_id":"6197b3f67c2b5cd3b6d9596a","session_id":"619be31d67eddb75e12af908","condition":"full-information","relevant_dimensions":["wings","legs"],"bee_group":{"antennae":"X","wings":"1","pattern":"X","legs":"F"},"bonus":1.5800000000000014},{"rt":4362.700000047684,"stimulus":"bees-with-color/bee-A2DM.svg","response":0,"trial_type":"image-button-response","trial_index":11,"time_elapsed":336924,"internal_node_id":"0.0-4.0-0.2","subject_id":"612376826a580ca0368bb19f","study_id":"6197b3f67c2b5cd3b6d9596a","session_id":"619be31d67eddb75e12af908","condition":"full-information","relevant_dimensions":["wings","legs"],"bee_group":{"antennae":"X","wings":"1","pattern":"X","legs":"F"},"action":"harvest","summary":"good-harvest","bonus":1.5800000000000014},{"rt":4607.400000095367,"stimulus":"\n                    <p><b>Action: <em>harvest</em></b></p>\n                    <p>This is the bee that you just saw.</p>\n                    <img src=\"bees-with-color/bee-A2DM.svg\" width=\"200\">\n                    <p><span class=\"greenText\"><b>Successful harvest!</b></span><br>Your pay has increased by $0.02. Your bonus pay is now $0.60.</p>\n            ","response":0,"trial_type":"html-button-response","trial_index":12,"time_elapsed":341534,"internal_node_id":"0.0-4.0-1.2","subject_id":"612376826a580ca0368bb19f","study_id":"6197b3f67c2b5cd3b6d9596a","session_id":"619be31d67eddb75e12af908","condition":"full-information","relevant_dimensions":["wings","legs"],"bee_group":{"antennae":"X","wings":"1","pattern":"X","legs":"F"},"bonus":1.5800000000000014},{"rt":9279,"stimulus":"bees-with-color/bee-A1SF.svg","response":0,"trial_type":"image-button-response","trial_index":13,"time_elapsed":350816,"internal_node_id":"0.0-4.0-0.3","subject_id":"612376826a580ca0368bb19f","study_id":"6197b3f67c2b5cd3b6d9596a","session_id":"619be31d67eddb75e12af908","condition":"full-information","relevant_dimensions":["wings","legs"],"bee_group":{"antennae":"X","wings":"1","pattern":"X","legs":"F"},"action":"harvest","summary":"bad-harvest","bonus":1.5800000000000014},{"rt":19655.600000023842,"stimulus":"\n                    <p><b>Action: <em>harvest</em></b></p>\n                    <p>This is the bee that you just saw.</p>\n                    <img src=\"bees-with-color/bee-A1SF.svg\" width=\"200\">\n                    <p><span class=\"redText\">Bad choice, the bee was angry.</span><br><b>You have been stung!</b><br>Your pay has been decreased by $0.10. Your bonus pay is now $0.50.</p>\n            ","response":0,"trial_type":"html-button-response","trial_index":14,"time_elapsed":370474,"internal_node_id":"0.0-4.0-1.3","subject_id":"612376826a580ca0368bb19f","study_id":"6197b3f67c2b5cd3b6d9596a","session_id":"619be31d67eddb75e12af908","condition":"full-information","relevant_dimensions":["wings","legs"],"bee_group":{"antennae":"X","wings":"1","pattern":"X","legs":"F"},"bonus":1.5800000000000014},{"rt":4104.899999976158,"stimulus":"bees-with-color/bee-B2DM.svg","response":0,"trial_type":"image-button-response","trial_index":15,"time_elapsed":374581,"internal_node_id":"0.0-4.0-0.4","subject_id":"612376826a580ca0368bb19f","study_id":"6197b3f67c2b5cd3b6d9596a","session_id":"619be31d67eddb75e12af908","condition":"full-information","relevant_dimensions":["wings","legs"],"bee_group":{"antennae":"X","wings":"1","pattern":"X","legs":"F"},"action":"harvest","summary":"good-harvest","bonus":1.5800000000000014},{"rt":1572.1000000238419,"stimulus":"\n                    <p><b>Action: <em>harvest</em></b></p>\n                    <p>This is the bee that you just saw.</p>\n                    <img src=\"bees-with-color/bee-B2DM.svg\" width=\"200\">\n                    <p><span class=\"greenText\"><b>Successful harvest!</b></span><br>Your pay has increased by $0.02. Your bonus pay is now $0.52.</p>\n            ","response":0,"trial_type":"html-button-response","trial_index":16,"time_elapsed":376157,"internal_node_id":"0.0-4.0-1.4","subject_id":"612376826a580ca0368bb19f","study_id":"6197b3f67c2b5cd3b6d9596a","session_id":"619be31d67eddb75e12af908","condition":"full-information","relevant_dimensions":["wings","legs"],"bee_group":{"antennae":"X","wings":"1","pattern":"X","legs":"F"},"bonus":1.5800000000000014},{"rt":3572.7000000476837,"stimulus":"bees-with-color/bee-A2DF.svg","response":0,"trial_type":"image-button-response","trial_index":17,"time_elapsed":379732,"internal_node_id":"0.0-4.0-0.5","subject_id":"612376826a580ca0368bb19f","study_id":"6197b3f67c2b5cd3b6d9596a","session_id":"619be31d67eddb75e12af908","condition":"full-information","relevant_dimensions":["wings","legs"],"bee_group":{"antennae":"X","wings":"1","pattern":"X","legs":"F"},"action":"harvest","summary":"good-harvest","bonus":1.5800000000000014},{"rt":1273.8999999761581,"stimulus":"\n                    <p><b>Action: <em>harvest</em></b></p>\n                    <p>This is the bee that you just saw.</p>\n                    <img src=\"bees-with-color/bee-A2DF.svg\" width=\"200\">\n                    <p><span class=\"greenText\"><b>Successful harvest!</b></span><br>Your pay has increased by $0.02. Your bonus pay is now $0.54.</p>\n            ","response":0,"trial_type":"html-button-response","trial_index":18,"time_elapsed":381008,"internal_node_id":"0.0-4.0-1.5","subject_id":"612376826a580ca0368bb19f","study_id":"6197b3f67c2b5cd3b6d9596a","session_id":"619be31d67eddb75e12af908","condition":"full-information","relevant_dimensions":["wings","legs"],"bee_group":{"antennae":"X","wings":"1","pattern":"X","legs":"F"},"bonus":1.5800000000000014},{"rt":1753.5999999046326,"stimulus":"bees-with-color/bee-B2SF.svg","response":0,"trial_type":"image-button-response","trial_index":19,"time_elapsed":382764,"internal_node_id":"0.0-4.0-0.6","subject_id":"612376826a580ca0368bb19f","study_id":"6197b3f67c2b5cd3b6d9596a","session_id":"619be31d67eddb75e12af908","condition":"full-information","relevant_dimensions":["wings","legs"],"bee_group":{"antennae":"X","wings":"1","pattern":"X","legs":"F"},"action":"harvest","summary":"good-harvest","bonus":1.5800000000000014},{"rt":1177.7999999523163,"stimulus":"\n                    <p><b>Action: <em>harvest</em></b></p>\n                    <p>This is the bee that you just saw.</p>\n                    <img src=\"bees-with-color/bee-B2SF.svg\" width=\"200\">\n                    <p><span class=\"greenText\"><b>Successful harvest!</b></span><br>Your pay has increased by $0.02. Your bonus pay is now $0.56.</p>\n            ","response":0,"trial_type":"html-button-response","trial_index":20,"time_elapsed":383944,"internal_node_id":"0.0-4.0-1.6","subject_id":"612376826a580ca0368bb19f","study_id":"6197b3f67c2b5cd3b6d9596a","session_id":"619be31d67eddb75e12af908","condition":"full-information","relevant_dimensions":["wings","legs"],"bee_group":{"antennae":"X","wings":"1","pattern":"X","legs":"F"},"bonus":1.5800000000000014},{"rt":3304,"stimulus":"bees-with-color/bee-A1DF.svg","response":0,"trial_type":"image-button-response","trial_index":21,"time_elapsed":387249,"internal_node_id":"0.0-4.0-0.7","subject_id":"612376826a580ca0368bb19f","study_id":"6197b3f67c2b5cd3b6d9596a","session_id":"619be31d67eddb75e12af908","condition":"full-information","relevant_dimensions":["wings","legs"],"bee_group":{"antennae":"X","wings":"1","pattern":"X","legs":"F"},"action":"harvest","summary":"bad-harvest","bonus":1.5800000000000014},{"rt":24126.899999976158,"stimulus":"\n                    <p><b>Action: <em>harvest</em></b></p>\n                    <p>This is the bee that you just saw.</p>\n                    <img src=\"bees-with-color/bee-A1DF.svg\" width=\"200\">\n                    <p><span class=\"redText\">Bad choice, the bee was angry.</span><br><b>You have been stung!</b><br>Your pay has been decreased by $0.10. Your bonus pay is now $0.46.</p>\n            ","response":0,"trial_type":"html-button-response","trial_index":22,"time_elapsed":411379,"internal_node_id":"0.0-4.0-1.7","subject_id":"612376826a580ca0368bb19f","study_id":"6197b3f67c2b5cd3b6d9596a","session_id":"619be31d67eddb75e12af908","condition":"full-information","relevant_dimensions":["wings","legs"],"bee_group":{"antennae":"X","wings":"1","pattern":"X","legs":"F"},"bonus":1.5800000000000014},{"rt":4667.899999976158,"stimulus":"bees-with-color/bee-B1SF.svg","response":0,"trial_type":"image-button-response","trial_index":23,"time_elapsed":416050,"internal_node_id":"0.0-4.0-0.8","subject_id":"612376826a580ca0368bb19f","study_id":"6197b3f67c2b5cd3b6d9596a","session_id":"619be31d67eddb75e12af908","condition":"full-information","relevant_dimensions":["wings","legs"],"bee_group":{"antennae":"X","wings":"1","pattern":"X","legs":"F"},"action":"harvest","summary":"bad-harvest","bonus":1.5800000000000014},{"rt":26897.300000071526,"stimulus":"\n                    <p><b>Action: <em>harvest</em></b></p>\n                    <p>This is the bee that you just saw.</p>\n                    <img src=\"bees-with-color/bee-B1SF.svg\" width=\"200\">\n                    <p><span class=\"redText\">Bad choice, the bee was angry.</span><br><b>You have been stung!</b><br>Your pay has been decreased by $0.10. Your bonus pay is now $0.36.</p>\n            ","response":0,"trial_type":"html-button-response","trial_index":24,"time_elapsed":442949,"internal_node_id":"0.0-4.0-1.8","subject_id":"612376826a580ca0368bb19f","study_id":"6197b3f67c2b5cd3b6d9596a","session_id":"619be31d67eddb75e12af908","condition":"full-information","relevant_dimensions":["wings","legs"],"bee_group":{"antennae":"X","wings":"1","pattern":"X","legs":"F"},"bonus":1.5800000000000014},{"rt":8292.200000047684,"stimulus":"bees-with-color/bee-B1DF.svg","response":0,"trial_type":"image-button-response","trial_index":25,"time_elapsed":451243,"internal_node_id":"0.0-4.0-0.9","subject_id":"612376826a580ca0368bb19f","study_id":"6197b3f67c2b5cd3b6d9596a","session_id":"619be31d67eddb75e12af908","condition":"full-information","relevant_dimensions":["wings","legs"],"bee_group":{"antennae":"X","wings":"1","pattern":"X","legs":"F"},"action":"harvest","summary":"bad-harvest","bonus":1.5800000000000014},{"rt":22741.100000023842,"stimulus":"\n                    <p><b>Action: <em>harvest</em></b></p>\n                    <p>This is the bee that you just saw.</p>\n                    <img src=\"bees-with-color/bee-B1DF.svg\" width=\"200\">\n                    <p><span class=\"redText\">Bad choice, the bee was angry.</span><br><b>You have been stung!</b><br>Your pay has been decreased by $0.10. Your bonus pay is now $0.26.</p>\n            ","response":0,"trial_type":"html-button-response","trial_index":26,"time_elapsed":473986,"internal_node_id":"0.0-4.0-1.9","subject_id":"612376826a580ca0368bb19f","study_id":"6197b3f67c2b5cd3b6d9596a","session_id":"619be31d67eddb75e12af908","condition":"full-information","relevant_dimensions":["wings","legs"],"bee_group":{"antennae":"X","wings":"1","pattern":"X","legs":"F"},"bonus":1.5800000000000014},{"rt":4721.5,"stimulus":"bees-with-color/bee-A1SM.svg","response":0,"trial_type":"image-button-response","trial_index":27,"time_elapsed":478710,"internal_node_id":"0.0-4.0-0.10","subject_id":"612376826a580ca0368bb19f","study_id":"6197b3f67c2b5cd3b6d9596a","session_id":"619be31d67eddb75e12af908","condition":"full-information","relevant_dimensions":["wings","legs"],"bee_group":{"antennae":"X","wings":"1","pattern":"X","legs":"F"},"action":"harvest","summary":"good-harvest","bonus":1.5800000000000014},{"rt":1486.3000000715256,"stimulus":"\n                    <p><b>Action: <em>harvest</em></b></p>\n                    <p>This is the bee that you just saw.</p>\n                    <img src=\"bees-with-color/bee-A1SM.svg\" width=\"200\">\n                    <p><span class=\"greenText\"><b>Successful harvest!</b></span><br>Your pay has increased by $0.02. Your bonus pay is now $0.28.</p>\n            ","response":0,"trial_type":"html-button-response","trial_index":28,"time_elapsed":480200,"internal_node_id":"0.0-4.0-1.10","subject_id":"612376826a580ca0368bb19f","study_id":"6197b3f67c2b5cd3b6d9596a","session_id":"619be31d67eddb75e12af908","condition":"full-information","relevant_dimensions":["wings","legs"],"bee_group":{"antennae":"X","wings":"1","pattern":"X","legs":"F"},"bonus":1.5800000000000014},{"rt":1199,"stimulus":"bees-with-color/bee-B2SM.svg","response":0,"trial_type":"image-button-response","trial_index":29,"time_elapsed":481401,"internal_node_id":"0.0-4.0-0.11","subject_id":"612376826a580ca0368bb19f","study_id":"6197b3f67c2b5cd3b6d9596a","session_id":"619be31d67eddb75e12af908","condition":"full-information","relevant_dimensions":["wings","legs"],"bee_group":{"antennae":"X","wings":"1","pattern":"X","legs":"F"},"action":"harvest","summary":"good-harvest","bonus":1.5800000000000014},{"rt":983.5,"stimulus":"\n                    <p><b>Action: <em>harvest</em></b></p>\n                    <p>This is the bee that you just saw.</p>\n                    <img src=\"bees-with-color/bee-B2SM.svg\" width=\"200\">\n                    <p><span class=\"greenText\"><b>Successful harvest!</b></span><br>Your pay has increased by $0.02. Your bonus pay is now $0.30.</p>\n            ","response":0,"trial_type":"html-button-response","trial_index":30,"time_elapsed":482387,"internal_node_id":"0.0-4.0-1.11","subject_id":"612376826a580ca0368bb19f","study_id":"6197b3f67c2b5cd3b6d9596a","session_id":"619be31d67eddb75e12af908","condition":"full-information","relevant_dimensions":["wings","legs"],"bee_group":{"antennae":"X","wings":"1","pattern":"X","legs":"F"},"bonus":1.5800000000000014},{"rt":1170.2999999523163,"stimulus":"bees-with-color/bee-A2SF.svg","response":0,"trial_type":"image-button-response","trial_index":31,"time_elapsed":483559,"internal_node_id":"0.0-4.0-0.12","subject_id":"612376826a580ca0368bb19f","study_id":"6197b3f67c2b5cd3b6d9596a","session_id":"619be31d67eddb75e12af908","condition":"full-information","relevant_dimensions":["wings","legs"],"bee_group":{"antennae":"X","wings":"1","pattern":"X","legs":"F"},"action":"harvest","summary":"good-harvest","bonus":1.5800000000000014},{"rt":1138.7999999523163,"stimulus":"\n                    <p><b>Action: <em>harvest</em></b></p>\n                    <p>This is the bee that you just saw.</p>\n                    <img src=\"bees-with-color/bee-A2SF.svg\" width=\"200\">\n                    <p><span class=\"greenText\"><b>Successful harvest!</b></span><br>Your pay has increased by $0.02. Your bonus pay is now $0.32.</p>\n            ","response":0,"trial_type":"html-button-response","trial_index":32,"time_elapsed":484700,"internal_node_id":"0.0-4.0-1.12","subject_id":"612376826a580ca0368bb19f","study_id":"6197b3f67c2b5cd3b6d9596a","session_id":"619be31d67eddb75e12af908","condition":"full-information","relevant_dimensions":["wings","legs"],"bee_group":{"antennae":"X","wings":"1","pattern":"X","legs":"F"},"bonus":1.5800000000000014},{"rt":1549.8999999761581,"stimulus":"bees-with-color/bee-A1DM.svg","response":0,"trial_type":"image-button-response","trial_index":33,"time_elapsed":486251,"internal_node_id":"0.0-4.0-0.13","subject_id":"612376826a580ca0368bb19f","study_id":"6197b3f67c2b5cd3b6d9596a","session_id":"619be31d67eddb75e12af908","condition":"full-information","relevant_dimensions":["wings","legs"],"bee_group":{"antennae":"X","wings":"1","pattern":"X","legs":"F"},"action":"harvest","summary":"good-harvest","bonus":1.5800000000000014},{"rt":1122.1999999284744,"stimulus":"\n                    <p><b>Action: <em>harvest</em></b></p>\n                    <p>This is the bee that you just saw.</p>\n                    <img src=\"bees-with-color/bee-A1DM.svg\" width=\"200\">\n                    <p><span class=\"greenText\"><b>Successful harvest!</b></span><br>Your pay has increased by $0.02. Your bonus pay is now $0.34.</p>\n            ","response":0,"trial_type":"html-button-response","trial_index":34,"time_elapsed":487376,"internal_node_id":"0.0-4.0-1.13","subject_id":"612376826a580ca0368bb19f","study_id":"6197b3f67c2b5cd3b6d9596a","session_id":"619be31d67eddb75e12af908","condition":"full-information","relevant_dimensions":["wings","legs"],"bee_group":{"antennae":"X","wings":"1","pattern":"X","legs":"F"},"bonus":1.5800000000000014},{"rt":2104.2999999523163,"stimulus":"bees-with-color/bee-B1DM.svg","response":0,"trial_type":"image-button-response","trial_index":35,"time_elapsed":489482,"internal_node_id":"0.0-4.0-0.14","subject_id":"612376826a580ca0368bb19f","study_id":"6197b3f67c2b5cd3b6d9596a","session_id":"619be31d67eddb75e12af908","condition":"full-information","relevant_dimensions":["wings","legs"],"bee_group":{"antennae":"X","wings":"1","pattern":"X","legs":"F"},"action":"harvest","summary":"good-harvest","bonus":1.5800000000000014},{"rt":1100.8000000715256,"stimulus":"\n                    <p><b>Action: <em>harvest</em></b></p>\n                    <p>This is the bee that you just saw.</p>\n                    <img src=\"bees-with-color/bee-B1DM.svg\" width=\"200\">\n                    <p><span class=\"greenText\"><b>Successful harvest!</b></span><br>Your pay has increased by $0.02. Your bonus pay is now $0.36.</p>\n            ","response":0,"trial_type":"html-button-response","trial_index":36,"time_elapsed":490585,"internal_node_id":"0.0-4.0-1.14","subject_id":"612376826a580ca0368bb19f","study_id":"6197b3f67c2b5cd3b6d9596a","session_id":"619be31d67eddb75e12af908","condition":"full-information","relevant_dimensions":["wings","legs"],"bee_group":{"antennae":"X","wings":"1","pattern":"X","legs":"F"},"bonus":1.5800000000000014},{"rt":1006.6000000238419,"stimulus":"bees-with-color/bee-A2SM.svg","response":0,"trial_type":"image-button-response","trial_index":37,"time_elapsed":491594,"internal_node_id":"0.0-4.0-0.15","subject_id":"612376826a580ca0368bb19f","study_id":"6197b3f67c2b5cd3b6d9596a","session_id":"619be31d67eddb75e12af908","condition":"full-information","relevant_dimensions":["wings","legs"],"bee_group":{"antennae":"X","wings":"1","pattern":"X","legs":"F"},"action":"harvest","summary":"good-harvest","bonus":1.5800000000000014},{"rt":893.6999999284744,"stimulus":"\n                    <p><b>Action: <em>harvest</em></b></p>\n                    <p>This is the bee that you just saw.</p>\n                    <img src=\"bees-with-color/bee-A2SM.svg\" width=\"200\">\n                    <p><span class=\"greenText\"><b>Successful harvest!</b></span><br>Your pay has increased by $0.02. Your bonus pay is now $0.38.</p>\n            ","response":0,"trial_type":"html-button-response","trial_index":38,"time_elapsed":492489,"internal_node_id":"0.0-4.0-1.15","subject_id":"612376826a580ca0368bb19f","study_id":"6197b3f67c2b5cd3b6d9596a","session_id":"619be31d67eddb75e12af908","condition":"full-information","relevant_dimensions":["wings","legs"],"bee_group":{"antennae":"X","wings":"1","pattern":"X","legs":"F"},"bonus":1.5800000000000014},{"rt":1099.1000000238419,"stimulus":"bees-with-color/bee-B2SF.svg","response":0,"trial_type":"image-button-response","trial_index":39,"time_elapsed":493590,"internal_node_id":"0.0-4.0-0.16","subject_id":"612376826a580ca0368bb19f","study_id":"6197b3f67c2b5cd3b6d9596a","session_id":"619be31d67eddb75e12af908","condition":"full-information","relevant_dimensions":["wings","legs"],"bee_group":{"antennae":"X","wings":"1","pattern":"X","legs":"F"},"action":"harvest","summary":"good-harvest","bonus":1.5800000000000014},{"rt":939.7000000476837,"stimulus":"\n                    <p><b>Action: <em>harvest</em></b></p>\n                    <p>This is the bee that you just saw.</p>\n                    <img src=\"bees-with-color/bee-B2SF.svg\" width=\"200\">\n                    <p><span class=\"greenText\"><b>Successful harvest!</b></span><br>Your pay has increased by $0.02. Your bonus pay is now $0.40.</p>\n            ","response":0,"trial_type":"html-button-response","trial_index":40,"time_elapsed":494532,"internal_node_id":"0.0-4.0-1.16","subject_id":"612376826a580ca0368bb19f","study_id":"6197b3f67c2b5cd3b6d9596a","session_id":"619be31d67eddb75e12af908","condition":"full-information","relevant_dimensions":["wings","legs"],"bee_group":{"antennae":"X","wings":"1","pattern":"X","legs":"F"},"bonus":1.5800000000000014},{"rt":1058.5,"stimulus":"bees-with-color/bee-B2SM.svg","response":0,"trial_type":"image-button-response","trial_index":41,"time_elapsed":495592,"internal_node_id":"0.0-4.0-0.17","subject_id":"612376826a580ca0368bb19f","study_id":"6197b3f67c2b5cd3b6d9596a","session_id":"619be31d67eddb75e12af908","condition":"full-information","relevant_dimensions":["wings","legs"],"bee_group":{"antennae":"X","wings":"1","pattern":"X","legs":"F"},"action":"harvest","summary":"good-harvest","bonus":1.5800000000000014},{"rt":1026,"stimulus":"\n                    <p><b>Action: <em>harvest</em></b></p>\n                    <p>This is the bee that you just saw.</p>\n                    <img src=\"bees-with-color/bee-B2SM.svg\" width=\"200\">\n                    <p><span class=\"greenText\"><b>Successful harvest!</b></span><br>Your pay has increased by $0.02. Your bonus pay is now $0.42.</p>\n            ","response":0,"trial_type":"html-button-response","trial_index":42,"time_elapsed":496620,"internal_node_id":"0.0-4.0-1.17","subject_id":"612376826a580ca0368bb19f","study_id":"6197b3f67c2b5cd3b6d9596a","session_id":"619be31d67eddb75e12af908","condition":"full-information","relevant_dimensions":["wings","legs"],"bee_group":{"antennae":"X","wings":"1","pattern":"X","legs":"F"},"bonus":1.5800000000000014},{"rt":9432.200000047684,"stimulus":"bees-with-color/bee-A1DF.svg","response":1,"trial_type":"image-button-response","trial_index":43,"time_elapsed":506054,"internal_node_id":"0.0-4.0-0.18","subject_id":"612376826a580ca0368bb19f","study_id":"6197b3f67c2b5cd3b6d9596a","session_id":"619be31d67eddb75e12af908","condition":"full-information","relevant_dimensions":["wings","legs"],"bee_group":{"antennae":"X","wings":"1","pattern":"X","legs":"F"},"action":"avoid","summary":"good-avoid","bonus":1.5800000000000014},{"rt":3503.2000000476837,"stimulus":"\n                    <p><b>Action: <em>avoid</em></b></p>\n                    <p>This is the bee that you just saw.</p>\n                    <img src=\"bees-with-color/bee-A1DF.svg\" width=\"200\">\n                    <p><span class=\"greenText\">Good choice!</span>  This bee would have stung you.<br>Your bonus pay is unchanged, and remains at $0.42.</p>\n            ","response":0,"trial_type":"html-button-response","trial_index":44,"time_elapsed":509559,"internal_node_id":"0.0-4.0-1.18","subject_id":"612376826a580ca0368bb19f","study_id":"6197b3f67c2b5cd3b6d9596a","session_id":"619be31d67eddb75e12af908","condition":"full-information","relevant_dimensions":["wings","legs"],"bee_group":{"antennae":"X","wings":"1","pattern":"X","legs":"F"},"bonus":1.5800000000000014},{"rt":1502.5999999046326,"stimulus":"bees-with-color/bee-B2DM.svg","response":0,"trial_type":"image-button-response","trial_index":45,"time_elapsed":511064,"internal_node_id":"0.0-4.0-0.19","subject_id":"612376826a580ca0368bb19f","study_id":"6197b3f67c2b5cd3b6d9596a","session_id":"619be31d67eddb75e12af908","condition":"full-information","relevant_dimensions":["wings","legs"],"bee_group":{"antennae":"X","wings":"1","pattern":"X","legs":"F"},"action":"harvest","summary":"good-harvest","bonus":1.5800000000000014},{"rt":1391.7999999523163,"stimulus":"\n                    <p><b>Action: <em>harvest</em></b></p>\n                    <p>This is the bee that you just saw.</p>\n                    <img src=\"bees-with-color/bee-B2DM.svg\" width=\"200\">\n                    <p><span class=\"greenText\"><b>Successful harvest!</b></span><br>Your pay has increased by $0.02. Your bonus pay is now $0.44.</p>\n            ","response":0,"trial_type":"html-button-response","trial_index":46,"time_elapsed":512459,"internal_node_id":"0.0-4.0-1.19","subject_id":"612376826a580ca0368bb19f","study_id":"6197b3f67c2b5cd3b6d9596a","session_id":"619be31d67eddb75e12af908","condition":"full-information","relevant_dimensions":["wings","legs"],"bee_group":{"antennae":"X","wings":"1","pattern":"X","legs":"F"},"bonus":1.5800000000000014},{"rt":1123.1999999284744,"stimulus":"bees-with-color/bee-A2DM.svg","response":0,"trial_type":"image-button-response","trial_index":47,"time_elapsed":513584,"internal_node_id":"0.0-4.0-0.20","subject_id":"612376826a580ca0368bb19f","study_id":"6197b3f67c2b5cd3b6d9596a","session_id":"619be31d67eddb75e12af908","condition":"full-information","relevant_dimensions":["wings","legs"],"bee_group":{"antennae":"X","wings":"1","pattern":"X","legs":"F"},"action":"harvest","summary":"good-harvest","bonus":1.5800000000000014},{"rt":795.7999999523163,"stimulus":"\n                    <p><b>Action: <em>harvest</em></b></p>\n                    <p>This is the bee that you just saw.</p>\n                    <img src=\"bees-with-color/bee-A2DM.svg\" width=\"200\">\n                    <p><span class=\"greenText\"><b>Successful harvest!</b></span><br>Your pay has increased by $0.02. Your bonus pay is now $0.46.</p>\n            ","response":0,"trial_type":"html-button-response","trial_index":48,"time_elapsed":514382,"internal_node_id":"0.0-4.0-1.20","subject_id":"612376826a580ca0368bb19f","study_id":"6197b3f67c2b5cd3b6d9596a","session_id":"619be31d67eddb75e12af908","condition":"full-information","relevant_dimensions":["wings","legs"],"bee_group":{"antennae":"X","wings":"1","pattern":"X","legs":"F"},"bonus":1.5800000000000014},{"rt":5138.299999952316,"stimulus":"bees-with-color/bee-B1DF.svg","response":1,"trial_type":"image-button-response","trial_index":49,"time_elapsed":519522,"internal_node_id":"0.0-4.0-0.21","subject_id":"612376826a580ca0368bb19f","study_id":"6197b3f67c2b5cd3b6d9596a","session_id":"619be31d67eddb75e12af908","condition":"full-information","relevant_dimensions":["wings","legs"],"bee_group":{"antennae":"X","wings":"1","pattern":"X","legs":"F"},"action":"avoid","summary":"good-avoid","bonus":1.5800000000000014},{"rt":970.2999999523163,"stimulus":"\n                    <p><b>Action: <em>avoid</em></b></p>\n                    <p>This is the bee that you just saw.</p>\n                    <img src=\"bees-with-color/bee-B1DF.svg\" width=\"200\">\n                    <p><span class=\"greenText\">Good choice!</span>  This bee would have stung you.<br>Your bonus pay is unchanged, and remains at $0.46.</p>\n            ","response":0,"trial_type":"html-button-response","trial_index":50,"time_elapsed":520494,"internal_node_id":"0.0-4.0-1.21","subject_id":"612376826a580ca0368bb19f","study_id":"6197b3f67c2b5cd3b6d9596a","session_id":"619be31d67eddb75e12af908","condition":"full-information","relevant_dimensions":["wings","legs"],"bee_group":{"antennae":"X","wings":"1","pattern":"X","legs":"F"},"bonus":1.5800000000000014},{"rt":1613.7999999523163,"stimulus":"bees-with-color/bee-B1SM.svg","response":0,"trial_type":"image-button-response","trial_index":51,"time_elapsed":522110,"internal_node_id":"0.0-4.0-0.22","subject_id":"612376826a580ca0368bb19f","study_id":"6197b3f67c2b5cd3b6d9596a","session_id":"619be31d67eddb75e12af908","condition":"full-information","relevant_dimensions":["wings","legs"],"bee_group":{"antennae":"X","wings":"1","pattern":"X","legs":"F"},"action":"harvest","summary":"good-harvest","bonus":1.5800000000000014},{"rt":812.1000000238419,"stimulus":"\n                    <p><b>Action: <em>harvest</em></b></p>\n                    <p>This is the bee that you just saw.</p>\n                    <img src=\"bees-with-color/bee-B1SM.svg\" width=\"200\">\n                    <p><span class=\"greenText\"><b>Successful harvest!</b></span><br>Your pay has increased by $0.02. Your bonus pay is now $0.48.</p>\n            ","response":0,"trial_type":"html-button-response","trial_index":52,"time_elapsed":522924,"internal_node_id":"0.0-4.0-1.22","subject_id":"612376826a580ca0368bb19f","study_id":"6197b3f67c2b5cd3b6d9596a","session_id":"619be31d67eddb75e12af908","condition":"full-information","relevant_dimensions":["wings","legs"],"bee_group":{"antennae":"X","wings":"1","pattern":"X","legs":"F"},"bonus":1.5800000000000014},{"rt":1142.5,"stimulus":"bees-with-color/bee-A2DF.svg","response":0,"trial_type":"image-button-response","trial_index":53,"time_elapsed":524068,"internal_node_id":"0.0-4.0-0.23","subject_id":"612376826a580ca0368bb19f","study_id":"6197b3f67c2b5cd3b6d9596a","session_id":"619be31d67eddb75e12af908","condition":"full-information","relevant_dimensions":["wings","legs"],"bee_group":{"antennae":"X","wings":"1","pattern":"X","legs":"F"},"action":"harvest","summary":"good-harvest","bonus":1.5800000000000014},{"rt":826.7000000476837,"stimulus":"\n                    <p><b>Action: <em>harvest</em></b></p>\n                    <p>This is the bee that you just saw.</p>\n                    <img src=\"bees-with-color/bee-A2DF.svg\" width=\"200\">\n                    <p><span class=\"greenText\"><b>Successful harvest!</b></span><br>Your pay has increased by $0.02. Your bonus pay is now $0.50.</p>\n            ","response":0,"trial_type":"html-button-response","trial_index":54,"time_elapsed":524896,"internal_node_id":"0.0-4.0-1.23","subject_id":"612376826a580ca0368bb19f","study_id":"6197b3f67c2b5cd3b6d9596a","session_id":"619be31d67eddb75e12af908","condition":"full-information","relevant_dimensions":["wings","legs"],"bee_group":{"antennae":"X","wings":"1","pattern":"X","legs":"F"},"bonus":1.5800000000000014},{"rt":1218,"stimulus":"bees-with-color/bee-A1DM.svg","response":0,"trial_type":"image-button-response","trial_index":55,"time_elapsed":526116,"internal_node_id":"0.0-4.0-0.24","subject_id":"612376826a580ca0368bb19f","study_id":"6197b3f67c2b5cd3b6d9596a","session_id":"619be31d67eddb75e12af908","condition":"full-information","relevant_dimensions":["wings","legs"],"bee_group":{"antennae":"X","wings":"1","pattern":"X","legs":"F"},"action":"harvest","summary":"good-harvest","bonus":1.5800000000000014},{"rt":1689.8000000715256,"stimulus":"\n                    <p><b>Action: <em>harvest</em></b></p>\n                    <p>This is the bee that you just saw.</p>\n                    <img src=\"bees-with-color/bee-A1DM.svg\" width=\"200\">\n                    <p><span class=\"greenText\"><b>Successful harvest!</b></span><br>Your pay has increased by $0.02. Your bonus pay is now $0.52.</p>\n            ","response":0,"trial_type":"html-button-response","trial_index":56,"time_elapsed":527808,"internal_node_id":"0.0-4.0-1.24","subject_id":"612376826a580ca0368bb19f","study_id":"6197b3f67c2b5cd3b6d9596a","session_id":"619be31d67eddb75e12af908","condition":"full-information","relevant_dimensions":["wings","legs"],"bee_group":{"antennae":"X","wings":"1","pattern":"X","legs":"F"},"bonus":1.5800000000000014},{"rt":1792,"stimulus":"bees-with-color/bee-B2DF.svg","response":0,"trial_type":"image-button-response","trial_index":57,"time_elapsed":529602,"internal_node_id":"0.0-4.0-0.25","subject_id":"612376826a580ca0368bb19f","study_id":"6197b3f67c2b5cd3b6d9596a","session_id":"619be31d67eddb75e12af908","condition":"full-information","relevant_dimensions":["wings","legs"],"bee_group":{"antennae":"X","wings":"1","pattern":"X","legs":"F"},"action":"harvest","summary":"good-harvest","bonus":1.5800000000000014},{"rt":781.2000000476837,"stimulus":"\n                    <p><b>Action: <em>harvest</em></b></p>\n                    <p>This is the bee that you just saw.</p>\n                    <img src=\"bees-with-color/bee-B2DF.svg\" width=\"200\">\n                    <p><span class=\"greenText\"><b>Successful harvest!</b></span><br>Your pay has increased by $0.02. Your bonus pay is now $0.54.</p>\n            ","response":0,"trial_type":"html-button-response","trial_index":58,"time_elapsed":530386,"internal_node_id":"0.0-4.0-1.25","subject_id":"612376826a580ca0368bb19f","study_id":"6197b3f67c2b5cd3b6d9596a","session_id":"619be31d67eddb75e12af908","condition":"full-information","relevant_dimensions":["wings","legs"],"bee_group":{"antennae":"X","wings":"1","pattern":"X","legs":"F"},"bonus":1.5800000000000014},{"rt":1166.1999999284744,"stimulus":"bees-with-color/bee-A1SM.svg","response":0,"trial_type":"image-button-response","trial_index":59,"time_elapsed":531553,"internal_node_id":"0.0-4.0-0.26","subject_id":"612376826a580ca0368bb19f","study_id":"6197b3f67c2b5cd3b6d9596a","session_id":"619be31d67eddb75e12af908","condition":"full-information","relevant_dimensions":["wings","legs"],"bee_group":{"antennae":"X","wings":"1","pattern":"X","legs":"F"},"action":"harvest","summary":"good-harvest","bonus":1.5800000000000014},{"rt":881.6000000238419,"stimulus":"\n                    <p><b>Action: <em>harvest</em></b></p>\n                    <p>This is the bee that you just saw.</p>\n                    <img src=\"bees-with-color/bee-A1SM.svg\" width=\"200\">\n                    <p><span class=\"greenText\"><b>Successful harvest!</b></span><br>Your pay has increased by $0.02. Your bonus pay is now $0.56.</p>\n            ","response":0,"trial_type":"html-button-response","trial_index":60,"time_elapsed":532438,"internal_node_id":"0.0-4.0-1.26","subject_id":"612376826a580ca0368bb19f","study_id":"6197b3f67c2b5cd3b6d9596a","session_id":"619be31d67eddb75e12af908","condition":"full-information","relevant_dimensions":["wings","legs"],"bee_group":{"antennae":"X","wings":"1","pattern":"X","legs":"F"},"bonus":1.5800000000000014},{"rt":1026.1999999284744,"stimulus":"bees-with-color/bee-A2SM.svg","response":0,"trial_type":"image-button-response","trial_index":61,"time_elapsed":533465,"internal_node_id":"0.0-4.0-0.27","subject_id":"612376826a580ca0368bb19f","study_id":"6197b3f67c2b5cd3b6d9596a","session_id":"619be31d67eddb75e12af908","condition":"full-information","relevant_dimensions":["wings","legs"],"bee_group":{"antennae":"X","wings":"1","pattern":"X","legs":"F"},"action":"harvest","summary":"good-harvest","bonus":1.5800000000000014},{"rt":732.9000000953674,"stimulus":"\n                    <p><b>Action: <em>harvest</em></b></p>\n                    <p>This is the bee that you just saw.</p>\n                    <img src=\"bees-with-color/bee-A2SM.svg\" width=\"200\">\n                    <p><span class=\"greenText\"><b>Successful harvest!</b></span><br>Your pay has increased by $0.02. Your bonus pay is now $0.58.</p>\n            ","response":0,"trial_type":"html-button-response","trial_index":62,"time_elapsed":534201,"internal_node_id":"0.0-4.0-1.27","subject_id":"612376826a580ca0368bb19f","study_id":"6197b3f67c2b5cd3b6d9596a","session_id":"619be31d67eddb75e12af908","condition":"full-information","relevant_dimensions":["wings","legs"],"bee_group":{"antennae":"X","wings":"1","pattern":"X","legs":"F"},"bonus":1.5800000000000014},{"rt":6985,"stimulus":"bees-with-color/bee-A1SF.svg","response":1,"trial_type":"image-button-response","trial_index":63,"time_elapsed":541188,"internal_node_id":"0.0-4.0-0.28","subject_id":"612376826a580ca0368bb19f","study_id":"6197b3f67c2b5cd3b6d9596a","session_id":"619be31d67eddb75e12af908","condition":"full-information","relevant_dimensions":["wings","legs"],"bee_group":{"antennae":"X","wings":"1","pattern":"X","legs":"F"},"action":"avoid","summary":"good-avoid","bonus":1.5800000000000014},{"rt":697.9000000953674,"stimulus":"\n                    <p><b>Action: <em>avoid</em></b></p>\n                    <p>This is the bee that you just saw.</p>\n                    <img src=\"bees-with-color/bee-A1SF.svg\" width=\"200\">\n                    <p><span class=\"greenText\">Good choice!</span>  This bee would have stung you.<br>Your bonus pay is unchanged, and remains at $0.58.</p>\n            ","response":0,"trial_type":"html-button-response","trial_index":64,"time_elapsed":541888,"internal_node_id":"0.0-4.0-1.28","subject_id":"612376826a580ca0368bb19f","study_id":"6197b3f67c2b5cd3b6d9596a","session_id":"619be31d67eddb75e12af908","condition":"full-information","relevant_dimensions":["wings","legs"],"bee_group":{"antennae":"X","wings":"1","pattern":"X","legs":"F"},"bonus":1.5800000000000014},{"rt":5916.199999928474,"stimulus":"bees-with-color/bee-B1DM.svg","response":0,"trial_type":"image-button-response","trial_index":65,"time_elapsed":547806,"internal_node_id":"0.0-4.0-0.29","subject_id":"612376826a580ca0368bb19f","study_id":"6197b3f67c2b5cd3b6d9596a","session_id":"619be31d67eddb75e12af908","condition":"full-information","relevant_dimensions":["wings","legs"],"bee_group":{"antennae":"X","wings":"1","pattern":"X","legs":"F"},"action":"harvest","summary":"good-harvest","bonus":1.5800000000000014},{"rt":781.3000000715256,"stimulus":"\n                    <p><b>Action: <em>harvest</em></b></p>\n                    <p>This is the bee that you just saw.</p>\n                    <img src=\"bees-with-color/bee-B1DM.svg\" width=\"200\">\n                    <p><span class=\"greenText\"><b>Successful harvest!</b></span><br>Your pay has increased by $0.02. Your bonus pay is now $0.60.</p>\n            ","response":0,"trial_type":"html-button-response","trial_index":66,"time_elapsed":548590,"internal_node_id":"0.0-4.0-1.29","subject_id":"612376826a580ca0368bb19f","study_id":"6197b3f67c2b5cd3b6d9596a","session_id":"619be31d67eddb75e12af908","condition":"full-information","relevant_dimensions":["wings","legs"],"bee_group":{"antennae":"X","wings":"1","pattern":"X","legs":"F"},"bonus":1.5800000000000014},{"rt":1306.1000000238419,"stimulus":"bees-with-color/bee-A2SF.svg","response":0,"trial_type":"image-button-response","trial_index":67,"time_elapsed":549898,"internal_node_id":"0.0-4.0-0.30","subject_id":"612376826a580ca0368bb19f","study_id":"6197b3f67c2b5cd3b6d9596a","session_id":"619be31d67eddb75e12af908","condition":"full-information","relevant_dimensions":["wings","legs"],"bee_group":{"antennae":"X","wings":"1","pattern":"X","legs":"F"},"action":"harvest","summary":"good-harvest","bonus":1.5800000000000014},{"rt":1062.4000000953674,"stimulus":"\n                    <p><b>Action: <em>harvest</em></b></p>\n                    <p>This is the bee that you just saw.</p>\n                    <img src=\"bees-with-color/bee-A2SF.svg\" width=\"200\">\n                    <p><span class=\"greenText\"><b>Successful harvest!</b></span><br>Your pay has increased by $0.02. Your bonus pay is now $0.62.</p>\n            ","response":0,"trial_type":"html-button-response","trial_index":68,"time_elapsed":550963,"internal_node_id":"0.0-4.0-1.30","subject_id":"612376826a580ca0368bb19f","study_id":"6197b3f67c2b5cd3b6d9596a","session_id":"619be31d67eddb75e12af908","condition":"full-information","relevant_dimensions":["wings","legs"],"bee_group":{"antennae":"X","wings":"1","pattern":"X","legs":"F"},"bonus":1.5800000000000014},{"rt":3403.899999976158,"stimulus":"bees-with-color/bee-B1SF.svg","response":1,"trial_type":"image-button-response","trial_index":69,"time_elapsed":554368,"internal_node_id":"0.0-4.0-0.31","subject_id":"612376826a580ca0368bb19f","study_id":"6197b3f67c2b5cd3b6d9596a","session_id":"619be31d67eddb75e12af908","condition":"full-information","relevant_dimensions":["wings","legs"],"bee_group":{"antennae":"X","wings":"1","pattern":"X","legs":"F"},"action":"avoid","summary":"good-avoid","bonus":1.5800000000000014},{"rt":1037,"stimulus":"\n                    <p><b>Action: <em>avoid</em></b></p>\n                    <p>This is the bee that you just saw.</p>\n                    <img src=\"bees-with-color/bee-B1SF.svg\" width=\"200\">\n                    <p><span class=\"greenText\">Good choice!</span>  This bee would have stung you.<br>Your bonus pay is unchanged, and remains at $0.62.</p>\n            ","response":0,"trial_type":"html-button-response","trial_index":70,"time_elapsed":555409,"internal_node_id":"0.0-4.0-1.31","subject_id":"612376826a580ca0368bb19f","study_id":"6197b3f67c2b5cd3b6d9596a","session_id":"619be31d67eddb75e12af908","condition":"full-information","relevant_dimensions":["wings","legs"],"bee_group":{"antennae":"X","wings":"1","pattern":"X","legs":"F"},"bonus":1.5800000000000014},{"rt":1359.8999999761581,"stimulus":"bees-with-color/bee-A1SM.svg","response":0,"trial_type":"image-button-response","trial_index":71,"time_elapsed":556772,"internal_node_id":"0.0-4.0-0.32","subject_id":"612376826a580ca0368bb19f","study_id":"6197b3f67c2b5cd3b6d9596a","session_id":"619be31d67eddb75e12af908","condition":"full-information","relevant_dimensions":["wings","legs"],"bee_group":{"antennae":"X","wings":"1","pattern":"X","legs":"F"},"action":"harvest","summary":"good-harvest","bonus":1.5800000000000014},{"rt":849.3999999761581,"stimulus":"\n                    <p><b>Action: <em>harvest</em></b></p>\n                    <p>This is the bee that you just saw.</p>\n                    <img src=\"bees-with-color/bee-A1SM.svg\" width=\"200\">\n                    <p><span class=\"greenText\"><b>Successful harvest!</b></span><br>Your pay has increased by $0.02. Your bonus pay is now $0.64.</p>\n            ","response":0,"trial_type":"html-button-response","trial_index":72,"time_elapsed":557624,"internal_node_id":"0.0-4.0-1.32","subject_id":"612376826a580ca0368bb19f","study_id":"6197b3f67c2b5cd3b6d9596a","session_id":"619be31d67eddb75e12af908","condition":"full-information","relevant_dimensions":["wings","legs"],"bee_group":{"antennae":"X","wings":"1","pattern":"X","legs":"F"},"bonus":1.5800000000000014},{"rt":3284.3000000715256,"stimulus":"bees-with-color/bee-A2DM.svg","response":0,"trial_type":"image-button-response","trial_index":73,"time_elapsed":560910,"internal_node_id":"0.0-4.0-0.33","subject_id":"612376826a580ca0368bb19f","study_id":"6197b3f67c2b5cd3b6d9596a","session_id":"619be31d67eddb75e12af908","condition":"full-information","relevant_dimensions":["wings","legs"],"bee_group":{"antennae":"X","wings":"1","pattern":"X","legs":"F"},"action":"harvest","summary":"good-harvest","bonus":1.5800000000000014},{"rt":729.6000000238419,"stimulus":"\n                    <p><b>Action: <em>harvest</em></b></p>\n                    <p>This is the bee that you just saw.</p>\n                    <img src=\"bees-with-color/bee-A2DM.svg\" width=\"200\">\n                    <p><span class=\"greenText\"><b>Successful harvest!</b></span><br>Your pay has increased by $0.02. Your bonus pay is now $0.66.</p>\n            ","response":0,"trial_type":"html-button-response","trial_index":74,"time_elapsed":561642,"internal_node_id":"0.0-4.0-1.33","subject_id":"612376826a580ca0368bb19f","study_id":"6197b3f67c2b5cd3b6d9596a","session_id":"619be31d67eddb75e12af908","condition":"full-information","relevant_dimensions":["wings","legs"],"bee_group":{"antennae":"X","wings":"1","pattern":"X","legs":"F"},"bonus":1.5800000000000014},{"rt":929.5999999046326,"stimulus":"bees-with-color/bee-B2SM.svg","response":0,"trial_type":"image-button-response","trial_index":75,"time_elapsed":562574,"internal_node_id":"0.0-4.0-0.34","subject_id":"612376826a580ca0368bb19f","study_id":"6197b3f67c2b5cd3b6d9596a","session_id":"619be31d67eddb75e12af908","condition":"full-information","relevant_dimensions":["wings","legs"],"bee_group":{"antennae":"X","wings":"1","pattern":"X","legs":"F"},"action":"harvest","summary":"good-harvest","bonus":1.5800000000000014},{"rt":1072.2999999523163,"stimulus":"\n                    <p><b>Action: <em>harvest</em></b></p>\n                    <p>This is the bee that you just saw.</p>\n                    <img src=\"bees-with-color/bee-B2SM.svg\" width=\"200\">\n                    <p><span class=\"greenText\"><b>Successful harvest!</b></span><br>Your pay has increased by $0.02. Your bonus pay is now $0.68.</p>\n            ","response":0,"trial_type":"html-button-response","trial_index":76,"time_elapsed":563649,"internal_node_id":"0.0-4.0-1.34","subject_id":"612376826a580ca0368bb19f","study_id":"6197b3f67c2b5cd3b6d9596a","session_id":"619be31d67eddb75e12af908","condition":"full-information","relevant_dimensions":["wings","legs"],"bee_group":{"antennae":"X","wings":"1","pattern":"X","legs":"F"},"bonus":1.5800000000000014},{"rt":8204.399999976158,"stimulus":"bees-with-color/bee-A1SF.svg","response":1,"trial_type":"image-button-response","trial_index":77,"time_elapsed":571855,"internal_node_id":"0.0-4.0-0.35","subject_id":"612376826a580ca0368bb19f","study_id":"6197b3f67c2b5cd3b6d9596a","session_id":"619be31d67eddb75e12af908","condition":"full-information","relevant_dimensions":["wings","legs"],"bee_group":{"antennae":"X","wings":"1","pattern":"X","legs":"F"},"action":"avoid","summary":"good-avoid","bonus":1.5800000000000014},{"rt":753.5,"stimulus":"\n                    <p><b>Action: <em>avoid</em></b></p>\n                    <p>This is the bee that you just saw.</p>\n                    <img src=\"bees-with-color/bee-A1SF.svg\" width=\"200\">\n                    <p><span class=\"greenText\">Good choice!</span>  This bee would have stung you.<br>Your bonus pay is unchanged, and remains at $0.68.</p>\n            ","response":0,"trial_type":"html-button-response","trial_index":78,"time_elapsed":572612,"internal_node_id":"0.0-4.0-1.35","subject_id":"612376826a580ca0368bb19f","study_id":"6197b3f67c2b5cd3b6d9596a","session_id":"619be31d67eddb75e12af908","condition":"full-information","relevant_dimensions":["wings","legs"],"bee_group":{"antennae":"X","wings":"1","pattern":"X","legs":"F"},"bonus":1.5800000000000014},{"rt":3187.899999976158,"stimulus":"bees-with-color/bee-B2SF.svg","response":0,"trial_type":"image-button-response","trial_index":79,"time_elapsed":575802,"internal_node_id":"0.0-4.0-0.36","subject_id":"612376826a580ca0368bb19f","study_id":"6197b3f67c2b5cd3b6d9596a","session_id":"619be31d67eddb75e12af908","condition":"full-information","relevant_dimensions":["wings","legs"],"bee_group":{"antennae":"X","wings":"1","pattern":"X","legs":"F"},"action":"harvest","summary":"good-harvest","bonus":1.5800000000000014},{"rt":949.6000000238419,"stimulus":"\n                    <p><b>Action: <em>harvest</em></b></p>\n                    <p>This is the bee that you just saw.</p>\n                    <img src=\"bees-with-color/bee-B2SF.svg\" width=\"200\">\n                    <p><span class=\"greenText\"><b>Successful harvest!</b></span><br>Your pay has increased by $0.02. Your bonus pay is now $0.70.</p>\n            ","response":0,"trial_type":"html-button-response","trial_index":80,"time_elapsed":576754,"internal_node_id":"0.0-4.0-1.36","subject_id":"612376826a580ca0368bb19f","study_id":"6197b3f67c2b5cd3b6d9596a","session_id":"619be31d67eddb75e12af908","condition":"full-information","relevant_dimensions":["wings","legs"],"bee_group":{"antennae":"X","wings":"1","pattern":"X","legs":"F"},"bonus":1.5800000000000014},{"rt":1142,"stimulus":"bees-with-color/bee-A1DM.svg","response":0,"trial_type":"image-button-response","trial_index":81,"time_elapsed":577898,"internal_node_id":"0.0-4.0-0.37","subject_id":"612376826a580ca0368bb19f","study_id":"6197b3f67c2b5cd3b6d9596a","session_id":"619be31d67eddb75e12af908","condition":"full-information","relevant_dimensions":["wings","legs"],"bee_group":{"antennae":"X","wings":"1","pattern":"X","legs":"F"},"action":"harvest","summary":"good-harvest","bonus":1.5800000000000014},{"rt":842.2000000476837,"stimulus":"\n                    <p><b>Action: <em>harvest</em></b></p>\n                    <p>This is the bee that you just saw.</p>\n                    <img src=\"bees-with-color/bee-A1DM.svg\" width=\"200\">\n                    <p><span class=\"greenText\"><b>Successful harvest!</b></span><br>Your pay has increased by $0.02. Your bonus pay is now $0.72.</p>\n            ","response":0,"trial_type":"html-button-response","trial_index":82,"time_elapsed":578742,"internal_node_id":"0.0-4.0-1.37","subject_id":"612376826a580ca0368bb19f","study_id":"6197b3f67c2b5cd3b6d9596a","session_id":"619be31d67eddb75e12af908","condition":"full-information","relevant_dimensions":["wings","legs"],"bee_group":{"antennae":"X","wings":"1","pattern":"X","legs":"F"},"bonus":1.5800000000000014},{"rt":8212.300000071526,"stimulus":"bees-with-color/bee-A1DF.svg","response":1,"trial_type":"image-button-response","trial_index":83,"time_elapsed":586956,"internal_node_id":"0.0-4.0-0.38","subject_id":"612376826a580ca0368bb19f","study_id":"6197b3f67c2b5cd3b6d9596a","session_id":"619be31d67eddb75e12af908","condition":"full-information","relevant_dimensions":["wings","legs"],"bee_group":{"antennae":"X","wings":"1","pattern":"X","legs":"F"},"action":"avoid","summary":"good-avoid","bonus":1.5800000000000014},{"rt":5050.899999976158,"stimulus":"\n                    <p><b>Action: <em>avoid</em></b></p>\n                    <p>This is the bee that you just saw.</p>\n                    <img src=\"bees-with-color/bee-A1DF.svg\" width=\"200\">\n                    <p><span class=\"greenText\">Good choice!</span>  This bee would have stung you.<br>Your bonus pay is unchanged, and remains at $0.72.</p>\n            ","response":0,"trial_type":"html-button-response","trial_index":84,"time_elapsed":592010,"internal_node_id":"0.0-4.0-1.38","subject_id":"612376826a580ca0368bb19f","study_id":"6197b3f67c2b5cd3b6d9596a","session_id":"619be31d67eddb75e12af908","condition":"full-information","relevant_dimensions":["wings","legs"],"bee_group":{"antennae":"X","wings":"1","pattern":"X","legs":"F"},"bonus":1.5800000000000014},{"rt":1254.1999999284744,"stimulus":"bees-with-color/bee-B1SM.svg","response":0,"trial_type":"image-button-response","trial_index":85,"time_elapsed":593266,"internal_node_id":"0.0-4.0-0.39","subject_id":"612376826a580ca0368bb19f","study_id":"6197b3f67c2b5cd3b6d9596a","session_id":"619be31d67eddb75e12af908","condition":"full-information","relevant_dimensions":["wings","legs"],"bee_group":{"antennae":"X","wings":"1","pattern":"X","legs":"F"},"action":"harvest","summary":"good-harvest","bonus":1.5800000000000014},{"rt":702,"stimulus":"\n                    <p><b>Action: <em>harvest</em></b></p>\n                    <p>This is the bee that you just saw.</p>\n                    <img src=\"bees-with-color/bee-B1SM.svg\" width=\"200\">\n                    <p><span class=\"greenText\"><b>Successful harvest!</b></span><br>Your pay has increased by $0.02. Your bonus pay is now $0.74.</p>\n            ","response":0,"trial_type":"html-button-response","trial_index":86,"time_elapsed":593970,"internal_node_id":"0.0-4.0-1.39","subject_id":"612376826a580ca0368bb19f","study_id":"6197b3f67c2b5cd3b6d9596a","session_id":"619be31d67eddb75e12af908","condition":"full-information","relevant_dimensions":["wings","legs"],"bee_group":{"antennae":"X","wings":"1","pattern":"X","legs":"F"},"bonus":1.5800000000000014},{"rt":1314.5,"stimulus":"bees-with-color/bee-A2SF.svg","response":0,"trial_type":"image-button-response","trial_index":87,"time_elapsed":595286,"internal_node_id":"0.0-4.0-0.40","subject_id":"612376826a580ca0368bb19f","study_id":"6197b3f67c2b5cd3b6d9596a","session_id":"619be31d67eddb75e12af908","condition":"full-information","relevant_dimensions":["wings","legs"],"bee_group":{"antennae":"X","wings":"1","pattern":"X","legs":"F"},"action":"harvest","summary":"good-harvest","bonus":1.5800000000000014},{"rt":693.8999999761581,"stimulus":"\n                    <p><b>Action: <em>harvest</em></b></p>\n                    <p>This is the bee that you just saw.</p>\n                    <img src=\"bees-with-color/bee-A2SF.svg\" width=\"200\">\n                    <p><span class=\"greenText\"><b>Successful harvest!</b></span><br>Your pay has increased by $0.02. Your bonus pay is now $0.76.</p>\n            ","response":0,"trial_type":"html-button-response","trial_index":88,"time_elapsed":595982,"internal_node_id":"0.0-4.0-1.40","subject_id":"612376826a580ca0368bb19f","study_id":"6197b3f67c2b5cd3b6d9596a","session_id":"619be31d67eddb75e12af908","condition":"full-information","relevant_dimensions":["wings","legs"],"bee_group":{"antennae":"X","wings":"1","pattern":"X","legs":"F"},"bonus":1.5800000000000014},{"rt":1991.1000000238419,"stimulus":"bees-with-color/bee-B1SF.svg","response":1,"trial_type":"image-button-response","trial_index":89,"time_elapsed":597976,"internal_node_id":"0.0-4.0-0.41","subject_id":"612376826a580ca0368bb19f","study_id":"6197b3f67c2b5cd3b6d9596a","session_id":"619be31d67eddb75e12af908","condition":"full-information","relevant_dimensions":["wings","legs"],"bee_group":{"antennae":"X","wings":"1","pattern":"X","legs":"F"},"action":"avoid","summary":"good-avoid","bonus":1.5800000000000014},{"rt":653.3000000715256,"stimulus":"\n                    <p><b>Action: <em>avoid</em></b></p>\n                    <p>This is the bee that you just saw.</p>\n                    <img src=\"bees-with-color/bee-B1SF.svg\" width=\"200\">\n                    <p><span class=\"greenText\">Good choice!</span>  This bee would have stung you.<br>Your bonus pay is unchanged, and remains at $0.76.</p>\n            ","response":0,"trial_type":"html-button-response","trial_index":90,"time_elapsed":598632,"internal_node_id":"0.0-4.0-1.41","subject_id":"612376826a580ca0368bb19f","study_id":"6197b3f67c2b5cd3b6d9596a","session_id":"619be31d67eddb75e12af908","condition":"full-information","relevant_dimensions":["wings","legs"],"bee_group":{"antennae":"X","wings":"1","pattern":"X","legs":"F"},"bonus":1.5800000000000014},{"rt":1246.2000000476837,"stimulus":"bees-with-color/bee-A2DF.svg","response":0,"trial_type":"image-button-response","trial_index":91,"time_elapsed":599880,"internal_node_id":"0.0-4.0-0.42","subject_id":"612376826a580ca0368bb19f","study_id":"6197b3f67c2b5cd3b6d9596a","session_id":"619be31d67eddb75e12af908","condition":"full-information","relevant_dimensions":["wings","legs"],"bee_group":{"antennae":"X","wings":"1","pattern":"X","legs":"F"},"action":"harvest","summary":"good-harvest","bonus":1.5800000000000014},{"rt":837.6000000238419,"stimulus":"\n                    <p><b>Action: <em>harvest</em></b></p>\n                    <p>This is the bee that you just saw.</p>\n                    <img src=\"bees-with-color/bee-A2DF.svg\" width=\"200\">\n                    <p><span class=\"greenText\"><b>Successful harvest!</b></span><br>Your pay has increased by $0.02. Your bonus pay is now $0.78.</p>\n            ","response":0,"trial_type":"html-button-response","trial_index":92,"time_elapsed":600720,"internal_node_id":"0.0-4.0-1.42","subject_id":"612376826a580ca0368bb19f","study_id":"6197b3f67c2b5cd3b6d9596a","session_id":"619be31d67eddb75e12af908","condition":"full-information","relevant_dimensions":["wings","legs"],"bee_group":{"antennae":"X","wings":"1","pattern":"X","legs":"F"},"bonus":1.5800000000000014},{"rt":2780.3000000715256,"stimulus":"bees-with-color/bee-B2DF.svg","response":0,"trial_type":"image-button-response","trial_index":93,"time_elapsed":603501,"internal_node_id":"0.0-4.0-0.43","subject_id":"612376826a580ca0368bb19f","study_id":"6197b3f67c2b5cd3b6d9596a","session_id":"619be31d67eddb75e12af908","condition":"full-information","relevant_dimensions":["wings","legs"],"bee_group":{"antennae":"X","wings":"1","pattern":"X","legs":"F"},"action":"harvest","summary":"good-harvest","bonus":1.5800000000000014},{"rt":798.1000000238419,"stimulus":"\n                    <p><b>Action: <em>harvest</em></b></p>\n                    <p>This is the bee that you just saw.</p>\n                    <img src=\"bees-with-color/bee-B2DF.svg\" width=\"200\">\n                    <p><span class=\"greenText\"><b>Successful harvest!</b></span><br>Your pay has increased by $0.02. Your bonus pay is now $0.80.</p>\n            ","response":0,"trial_type":"html-button-response","trial_index":94,"time_elapsed":604302,"internal_node_id":"0.0-4.0-1.43","subject_id":"612376826a580ca0368bb19f","study_id":"6197b3f67c2b5cd3b6d9596a","session_id":"619be31d67eddb75e12af908","condition":"full-information","relevant_dimensions":["wings","legs"],"bee_group":{"antennae":"X","wings":"1","pattern":"X","legs":"F"},"bonus":1.5800000000000014},{"rt":1221.7000000476837,"stimulus":"bees-with-color/bee-A2SM.svg","response":0,"trial_type":"image-button-response","trial_index":95,"time_elapsed":605526,"internal_node_id":"0.0-4.0-0.44","subject_id":"612376826a580ca0368bb19f","study_id":"6197b3f67c2b5cd3b6d9596a","session_id":"619be31d67eddb75e12af908","condition":"full-information","relevant_dimensions":["wings","legs"],"bee_group":{"antennae":"X","wings":"1","pattern":"X","legs":"F"},"action":"harvest","summary":"good-harvest","bonus":1.5800000000000014},{"rt":588.6000000238419,"stimulus":"\n                    <p><b>Action: <em>harvest</em></b></p>\n                    <p>This is the bee that you just saw.</p>\n                    <img src=\"bees-with-color/bee-A2SM.svg\" width=\"200\">\n                    <p><span class=\"greenText\"><b>Successful harvest!</b></span><br>Your pay has increased by $0.02. Your bonus pay is now $0.82.</p>\n            ","response":0,"trial_type":"html-button-response","trial_index":96,"time_elapsed":606118,"internal_node_id":"0.0-4.0-1.44","subject_id":"612376826a580ca0368bb19f","study_id":"6197b3f67c2b5cd3b6d9596a","session_id":"619be31d67eddb75e12af908","condition":"full-information","relevant_dimensions":["wings","legs"],"bee_group":{"antennae":"X","wings":"1","pattern":"X","legs":"F"},"bonus":1.5800000000000014},{"rt":985.8999999761581,"stimulus":"bees-with-color/bee-B2DM.svg","response":0,"trial_type":"image-button-response","trial_index":97,"time_elapsed":607105,"internal_node_id":"0.0-4.0-0.45","subject_id":"612376826a580ca0368bb19f","study_id":"6197b3f67c2b5cd3b6d9596a","session_id":"619be31d67eddb75e12af908","condition":"full-information","relevant_dimensions":["wings","legs"],"bee_group":{"antennae":"X","wings":"1","pattern":"X","legs":"F"},"action":"harvest","summary":"good-harvest","bonus":1.5800000000000014},{"rt":669.7000000476837,"stimulus":"\n                    <p><b>Action: <em>harvest</em></b></p>\n                    <p>This is the bee that you just saw.</p>\n                    <img src=\"bees-with-color/bee-B2DM.svg\" width=\"200\">\n                    <p><span class=\"greenText\"><b>Successful harvest!</b></span><br>Your pay has increased by $0.02. Your bonus pay is now $0.84.</p>\n            ","response":0,"trial_type":"html-button-response","trial_index":98,"time_elapsed":607778,"internal_node_id":"0.0-4.0-1.45","subject_id":"612376826a580ca0368bb19f","study_id":"6197b3f67c2b5cd3b6d9596a","session_id":"619be31d67eddb75e12af908","condition":"full-information","relevant_dimensions":["wings","legs"],"bee_group":{"antennae":"X","wings":"1","pattern":"X","legs":"F"},"bonus":1.5800000000000014},{"rt":1846.7000000476837,"stimulus":"bees-with-color/bee-B1DF.svg","response":1,"trial_type":"image-button-response","trial_index":99,"time_elapsed":609626,"internal_node_id":"0.0-4.0-0.46","subject_id":"612376826a580ca0368bb19f","study_id":"6197b3f67c2b5cd3b6d9596a","session_id":"619be31d67eddb75e12af908","condition":"full-information","relevant_dimensions":["wings","legs"],"bee_group":{"antennae":"X","wings":"1","pattern":"X","legs":"F"},"action":"avoid","summary":"good-avoid","bonus":1.5800000000000014},{"rt":783.3000000715256,"stimulus":"\n                    <p><b>Action: <em>avoid</em></b></p>\n                    <p>This is the bee that you just saw.</p>\n                    <img src=\"bees-with-color/bee-B1DF.svg\" width=\"200\">\n                    <p><span class=\"greenText\">Good choice!</span>  This bee would have stung you.<br>Your bonus pay is unchanged, and remains at $0.84.</p>\n            ","response":0,"trial_type":"html-button-response","trial_index":100,"time_elapsed":610412,"internal_node_id":"0.0-4.0-1.46","subject_id":"612376826a580ca0368bb19f","study_id":"6197b3f67c2b5cd3b6d9596a","session_id":"619be31d67eddb75e12af908","condition":"full-information","relevant_dimensions":["wings","legs"],"bee_group":{"antennae":"X","wings":"1","pattern":"X","legs":"F"},"bonus":1.5800000000000014},{"rt":1966.2000000476837,"stimulus":"bees-with-color/bee-B1DM.svg","response":0,"trial_type":"image-button-response","trial_index":101,"time_elapsed":612380,"internal_node_id":"0.0-4.0-0.47","subject_id":"612376826a580ca0368bb19f","study_id":"6197b3f67c2b5cd3b6d9596a","session_id":"619be31d67eddb75e12af908","condition":"full-information","relevant_dimensions":["wings","legs"],"bee_group":{"antennae":"X","wings":"1","pattern":"X","legs":"F"},"action":"harvest","summary":"good-harvest","bonus":1.5800000000000014},{"rt":730.3999999761581,"stimulus":"\n                    <p><b>Action: <em>harvest</em></b></p>\n                    <p>This is the bee that you just saw.</p>\n                    <img src=\"bees-with-color/bee-B1DM.svg\" width=\"200\">\n                    <p><span class=\"greenText\"><b>Successful harvest!</b></span><br>Your pay has increased by $0.02. Your bonus pay is now $0.86.</p>\n            ","response":0,"trial_type":"html-button-response","trial_index":102,"time_elapsed":613112,"internal_node_id":"0.0-4.0-1.47","subject_id":"612376826a580ca0368bb19f","study_id":"6197b3f67c2b5cd3b6d9596a","session_id":"619be31d67eddb75e12af908","condition":"full-information","relevant_dimensions":["wings","legs"],"bee_group":{"antennae":"X","wings":"1","pattern":"X","legs":"F"},"bonus":1.5800000000000014},{"rt":1510.5999999046326,"stimulus":"bees-with-color/bee-A2DF.svg","response":0,"trial_type":"image-button-response","trial_index":103,"time_elapsed":614624,"internal_node_id":"0.0-4.0-0.48","subject_id":"612376826a580ca0368bb19f","study_id":"6197b3f67c2b5cd3b6d9596a","session_id":"619be31d67eddb75e12af908","condition":"full-information","relevant_dimensions":["wings","legs"],"bee_group":{"antennae":"X","wings":"1","pattern":"X","legs":"F"},"action":"harvest","summary":"good-harvest","bonus":1.5800000000000014},{"rt":1590.3999999761581,"stimulus":"\n                    <p><b>Action: <em>harvest</em></b></p>\n                    <p>This is the bee that you just saw.</p>\n                    <img src=\"bees-with-color/bee-A2DF.svg\" width=\"200\">\n                    <p><span class=\"greenText\"><b>Successful harvest!</b></span><br>Your pay has increased by $0.02. Your bonus pay is now $0.88.</p>\n            ","response":0,"trial_type":"html-button-response","trial_index":104,"time_elapsed":616216,"internal_node_id":"0.0-4.0-1.48","subject_id":"612376826a580ca0368bb19f","study_id":"6197b3f67c2b5cd3b6d9596a","session_id":"619be31d67eddb75e12af908","condition":"full-information","relevant_dimensions":["wings","legs"],"bee_group":{"antennae":"X","wings":"1","pattern":"X","legs":"F"},"bonus":1.5800000000000014},{"rt":2196.399999976158,"stimulus":"bees-with-color/bee-B2SF.svg","response":0,"trial_type":"image-button-response","trial_index":105,"time_elapsed":618414,"internal_node_id":"0.0-4.0-0.49","subject_id":"612376826a580ca0368bb19f","study_id":"6197b3f67c2b5cd3b6d9596a","session_id":"619be31d67eddb75e12af908","condition":"full-information","relevant_dimensions":["wings","legs"],"bee_group":{"antennae":"X","wings":"1","pattern":"X","legs":"F"},"action":"harvest","summary":"good-harvest","bonus":1.5800000000000014},{"rt":718,"stimulus":"\n                    <p><b>Action: <em>harvest</em></b></p>\n                    <p>This is the bee that you just saw.</p>\n                    <img src=\"bees-with-color/bee-B2SF.svg\" width=\"200\">\n                    <p><span class=\"greenText\"><b>Successful harvest!</b></span><br>Your pay has increased by $0.02. Your bonus pay is now $0.90.</p>\n            ","response":0,"trial_type":"html-button-response","trial_index":106,"time_elapsed":619134,"internal_node_id":"0.0-4.0-1.49","subject_id":"612376826a580ca0368bb19f","study_id":"6197b3f67c2b5cd3b6d9596a","session_id":"619be31d67eddb75e12af908","condition":"full-information","relevant_dimensions":["wings","legs"],"bee_group":{"antennae":"X","wings":"1","pattern":"X","legs":"F"},"bonus":1.5800000000000014},{"rt":1170.7999999523163,"stimulus":"bees-with-color/bee-A2SM.svg","response":0,"trial_type":"image-button-response","trial_index":107,"time_elapsed":620306,"internal_node_id":"0.0-4.0-0.50","subject_id":"612376826a580ca0368bb19f","study_id":"6197b3f67c2b5cd3b6d9596a","session_id":"619be31d67eddb75e12af908","condition":"full-information","relevant_dimensions":["wings","legs"],"bee_group":{"antennae":"X","wings":"1","pattern":"X","legs":"F"},"action":"harvest","summary":"good-harvest","bonus":1.5800000000000014},{"rt":596.8999999761581,"stimulus":"\n                    <p><b>Action: <em>harvest</em></b></p>\n                    <p>This is the bee that you just saw.</p>\n                    <img src=\"bees-with-color/bee-A2SM.svg\" width=\"200\">\n                    <p><span class=\"greenText\"><b>Successful harvest!</b></span><br>Your pay has increased by $0.02. Your bonus pay is now $0.92.</p>\n            ","response":0,"trial_type":"html-button-response","trial_index":108,"time_elapsed":620906,"internal_node_id":"0.0-4.0-1.50","subject_id":"612376826a580ca0368bb19f","study_id":"6197b3f67c2b5cd3b6d9596a","session_id":"619be31d67eddb75e12af908","condition":"full-information","relevant_dimensions":["wings","legs"],"bee_group":{"antennae":"X","wings":"1","pattern":"X","legs":"F"},"bonus":1.5800000000000014},{"rt":1490.3000000715256,"stimulus":"bees-with-color/bee-A1SM.svg","response":0,"trial_type":"image-button-response","trial_index":109,"time_elapsed":622398,"internal_node_id":"0.0-4.0-0.51","subject_id":"612376826a580ca0368bb19f","study_id":"6197b3f67c2b5cd3b6d9596a","session_id":"619be31d67eddb75e12af908","condition":"full-information","relevant_dimensions":["wings","legs"],"bee_group":{"antennae":"X","wings":"1","pattern":"X","legs":"F"},"action":"harvest","summary":"good-harvest","bonus":1.5800000000000014},{"rt":818,"stimulus":"\n                    <p><b>Action: <em>harvest</em></b></p>\n                    <p>This is the bee that you just saw.</p>\n                    <img src=\"bees-with-color/bee-A1SM.svg\" width=\"200\">\n                    <p><span class=\"greenText\"><b>Successful harvest!</b></span><br>Your pay has increased by $0.02. Your bonus pay is now $0.94.</p>\n            ","response":0,"trial_type":"html-button-response","trial_index":110,"time_elapsed":623218,"internal_node_id":"0.0-4.0-1.51","subject_id":"612376826a580ca0368bb19f","study_id":"6197b3f67c2b5cd3b6d9596a","session_id":"619be31d67eddb75e12af908","condition":"full-information","relevant_dimensions":["wings","legs"],"bee_group":{"antennae":"X","wings":"1","pattern":"X","legs":"F"},"bonus":1.5800000000000014},{"rt":1760,"stimulus":"bees-with-color/bee-A1DF.svg","response":1,"trial_type":"image-button-response","trial_index":111,"time_elapsed":624979,"internal_node_id":"0.0-4.0-0.52","subject_id":"612376826a580ca0368bb19f","study_id":"6197b3f67c2b5cd3b6d9596a","session_id":"619be31d67eddb75e12af908","condition":"full-information","relevant_dimensions":["wings","legs"],"bee_group":{"antennae":"X","wings":"1","pattern":"X","legs":"F"},"action":"avoid","summary":"good-avoid","bonus":1.5800000000000014},{"rt":760.6000000238419,"stimulus":"\n                    <p><b>Action: <em>avoid</em></b></p>\n                    <p>This is the bee that you just saw.</p>\n                    <img src=\"bees-with-color/bee-A1DF.svg\" width=\"200\">\n                    <p><span class=\"greenText\">Good choice!</span>  This bee would have stung you.<br>Your bonus pay is unchanged, and remains at $0.94.</p>\n            ","response":0,"trial_type":"html-button-response","trial_index":112,"time_elapsed":625743,"internal_node_id":"0.0-4.0-1.52","subject_id":"612376826a580ca0368bb19f","study_id":"6197b3f67c2b5cd3b6d9596a","session_id":"619be31d67eddb75e12af908","condition":"full-information","relevant_dimensions":["wings","legs"],"bee_group":{"antennae":"X","wings":"1","pattern":"X","legs":"F"},"bonus":1.5800000000000014},{"rt":1471,"stimulus":"bees-with-color/bee-B1SM.svg","response":0,"trial_type":"image-button-response","trial_index":113,"time_elapsed":627216,"internal_node_id":"0.0-4.0-0.53","subject_id":"612376826a580ca0368bb19f","study_id":"6197b3f67c2b5cd3b6d9596a","session_id":"619be31d67eddb75e12af908","condition":"full-information","relevant_dimensions":["wings","legs"],"bee_group":{"antennae":"X","wings":"1","pattern":"X","legs":"F"},"action":"harvest","summary":"good-harvest","bonus":1.5800000000000014},{"rt":1066,"stimulus":"\n                    <p><b>Action: <em>harvest</em></b></p>\n                    <p>This is the bee that you just saw.</p>\n                    <img src=\"bees-with-color/bee-B1SM.svg\" width=\"200\">\n                    <p><span class=\"greenText\"><b>Successful harvest!</b></span><br>Your pay has increased by $0.02. Your bonus pay is now $0.96.</p>\n            ","response":0,"trial_type":"html-button-response","trial_index":114,"time_elapsed":628284,"internal_node_id":"0.0-4.0-1.53","subject_id":"612376826a580ca0368bb19f","study_id":"6197b3f67c2b5cd3b6d9596a","session_id":"619be31d67eddb75e12af908","condition":"full-information","relevant_dimensions":["wings","legs"],"bee_group":{"antennae":"X","wings":"1","pattern":"X","legs":"F"},"bonus":1.5800000000000014},{"rt":2410.100000023842,"stimulus":"bees-with-color/bee-B2DF.svg","response":0,"trial_type":"image-button-response","trial_index":115,"time_elapsed":630696,"internal_node_id":"0.0-4.0-0.54","subject_id":"612376826a580ca0368bb19f","study_id":"6197b3f67c2b5cd3b6d9596a","session_id":"619be31d67eddb75e12af908","condition":"full-information","relevant_dimensions":["wings","legs"],"bee_group":{"antennae":"X","wings":"1","pattern":"X","legs":"F"},"action":"harvest","summary":"good-harvest","bonus":1.5800000000000014},{"rt":758.3999999761581,"stimulus":"\n                    <p><b>Action: <em>harvest</em></b></p>\n                    <p>This is the bee that you just saw.</p>\n                    <img src=\"bees-with-color/bee-B2DF.svg\" width=\"200\">\n                    <p><span class=\"greenText\"><b>Successful harvest!</b></span><br>Your pay has increased by $0.02. Your bonus pay is now $0.98.</p>\n            ","response":0,"trial_type":"html-button-response","trial_index":116,"time_elapsed":631456,"internal_node_id":"0.0-4.0-1.54","subject_id":"612376826a580ca0368bb19f","study_id":"6197b3f67c2b5cd3b6d9596a","session_id":"619be31d67eddb75e12af908","condition":"full-information","relevant_dimensions":["wings","legs"],"bee_group":{"antennae":"X","wings":"1","pattern":"X","legs":"F"},"bonus":1.5800000000000014},{"rt":1260.0999999046326,"stimulus":"bees-with-color/bee-B1SF.svg","response":1,"trial_type":"image-button-response","trial_index":117,"time_elapsed":632717,"internal_node_id":"0.0-4.0-0.55","subject_id":"612376826a580ca0368bb19f","study_id":"6197b3f67c2b5cd3b6d9596a","session_id":"619be31d67eddb75e12af908","condition":"full-information","relevant_dimensions":["wings","legs"],"bee_group":{"antennae":"X","wings":"1","pattern":"X","legs":"F"},"action":"avoid","summary":"good-avoid","bonus":1.5800000000000014},{"rt":794.1000000238419,"stimulus":"\n                    <p><b>Action: <em>avoid</em></b></p>\n                    <p>This is the bee that you just saw.</p>\n                    <img src=\"bees-with-color/bee-B1SF.svg\" width=\"200\">\n                    <p><span class=\"greenText\">Good choice!</span>  This bee would have stung you.<br>Your bonus pay is unchanged, and remains at $0.98.</p>\n            ","response":0,"trial_type":"html-button-response","trial_index":118,"time_elapsed":633513,"internal_node_id":"0.0-4.0-1.55","subject_id":"612376826a580ca0368bb19f","study_id":"6197b3f67c2b5cd3b6d9596a","session_id":"619be31d67eddb75e12af908","condition":"full-information","relevant_dimensions":["wings","legs"],"bee_group":{"antennae":"X","wings":"1","pattern":"X","legs":"F"},"bonus":1.5800000000000014},{"rt":2462.899999976158,"stimulus":"bees-with-color/bee-B1DF.svg","response":1,"trial_type":"image-button-response","trial_index":119,"time_elapsed":635978,"internal_node_id":"0.0-4.0-0.56","subject_id":"612376826a580ca0368bb19f","study_id":"6197b3f67c2b5cd3b6d9596a","session_id":"619be31d67eddb75e12af908","condition":"full-information","relevant_dimensions":["wings","legs"],"bee_group":{"antennae":"X","wings":"1","pattern":"X","legs":"F"},"action":"avoid","summary":"good-avoid","bonus":1.5800000000000014},{"rt":653.8999999761581,"stimulus":"\n                    <p><b>Action: <em>avoid</em></b></p>\n                    <p>This is the bee that you just saw.</p>\n                    <img src=\"bees-with-color/bee-B1DF.svg\" width=\"200\">\n                    <p><span class=\"greenText\">Good choice!</span>  This bee would have stung you.<br>Your bonus pay is unchanged, and remains at $0.98.</p>\n            ","response":0,"trial_type":"html-button-response","trial_index":120,"time_elapsed":636633,"internal_node_id":"0.0-4.0-1.56","subject_id":"612376826a580ca0368bb19f","study_id":"6197b3f67c2b5cd3b6d9596a","session_id":"619be31d67eddb75e12af908","condition":"full-information","relevant_dimensions":["wings","legs"],"bee_group":{"antennae":"X","wings":"1","pattern":"X","legs":"F"},"bonus":1.5800000000000014},{"rt":1125.7999999523163,"stimulus":"bees-with-color/bee-A2SF.svg","response":0,"trial_type":"image-button-response","trial_index":121,"time_elapsed":637761,"internal_node_id":"0.0-4.0-0.57","subject_id":"612376826a580ca0368bb19f","study_id":"6197b3f67c2b5cd3b6d9596a","session_id":"619be31d67eddb75e12af908","condition":"full-information","relevant_dimensions":["wings","legs"],"bee_group":{"antennae":"X","wings":"1","pattern":"X","legs":"F"},"action":"harvest","summary":"good-harvest","bonus":1.5800000000000014},{"rt":4381,"stimulus":"\n                    <p><b>Action: <em>harvest</em></b></p>\n                    <p>This is the bee that you just saw.</p>\n                    <img src=\"bees-with-color/bee-A2SF.svg\" width=\"200\">\n                    <p><span class=\"greenText\"><b>Successful harvest!</b></span><br>Your pay has increased by $0.02. Your bonus pay is now $1.00.</p>\n            ","response":0,"trial_type":"html-button-response","trial_index":122,"time_elapsed":642144,"internal_node_id":"0.0-4.0-1.57","subject_id":"612376826a580ca0368bb19f","study_id":"6197b3f67c2b5cd3b6d9596a","session_id":"619be31d67eddb75e12af908","condition":"full-information","relevant_dimensions":["wings","legs"],"bee_group":{"antennae":"X","wings":"1","pattern":"X","legs":"F"},"bonus":1.5800000000000014},{"rt":1093.5999999046326,"stimulus":"bees-with-color/bee-B2SM.svg","response":0,"trial_type":"image-button-response","trial_index":123,"time_elapsed":643240,"internal_node_id":"0.0-4.0-0.58","subject_id":"612376826a580ca0368bb19f","study_id":"6197b3f67c2b5cd3b6d9596a","session_id":"619be31d67eddb75e12af908","condition":"full-information","relevant_dimensions":["wings","legs"],"bee_group":{"antennae":"X","wings":"1","pattern":"X","legs":"F"},"action":"harvest","summary":"good-harvest","bonus":1.5800000000000014},{"rt":881.4000000953674,"stimulus":"\n                    <p><b>Action: <em>harvest</em></b></p>\n                    <p>This is the bee that you just saw.</p>\n                    <img src=\"bees-with-color/bee-B2SM.svg\" width=\"200\">\n                    <p><span class=\"greenText\"><b>Successful harvest!</b></span><br>Your pay has increased by $0.02. Your bonus pay is now $1.02.</p>\n            ","response":0,"trial_type":"html-button-response","trial_index":124,"time_elapsed":644123,"internal_node_id":"0.0-4.0-1.58","subject_id":"612376826a580ca0368bb19f","study_id":"6197b3f67c2b5cd3b6d9596a","session_id":"619be31d67eddb75e12af908","condition":"full-information","relevant_dimensions":["wings","legs"],"bee_group":{"antennae":"X","wings":"1","pattern":"X","legs":"F"},"bonus":1.5800000000000014},{"rt":1054.1000000238419,"stimulus":"bees-with-color/bee-A1DM.svg","response":0,"trial_type":"image-button-response","trial_index":125,"time_elapsed":645180,"internal_node_id":"0.0-4.0-0.59","subject_id":"612376826a580ca0368bb19f","study_id":"6197b3f67c2b5cd3b6d9596a","session_id":"619be31d67eddb75e12af908","condition":"full-information","relevant_dimensions":["wings","legs"],"bee_group":{"antennae":"X","wings":"1","pattern":"X","legs":"F"},"action":"harvest","summary":"good-harvest","bonus":1.5800000000000014},{"rt":517.7999999523163,"stimulus":"\n                    <p><b>Action: <em>harvest</em></b></p>\n                    <p>This is the bee that you just saw.</p>\n                    <img src=\"bees-with-color/bee-A1DM.svg\" width=\"200\">\n                    <p><span class=\"greenText\"><b>Successful harvest!</b></span><br>Your pay has increased by $0.02. Your bonus pay is now $1.04.</p>\n            ","response":0,"trial_type":"html-button-response","trial_index":126,"time_elapsed":645700,"internal_node_id":"0.0-4.0-1.59","subject_id":"612376826a580ca0368bb19f","study_id":"6197b3f67c2b5cd3b6d9596a","session_id":"619be31d67eddb75e12af908","condition":"full-information","relevant_dimensions":["wings","legs"],"bee_group":{"antennae":"X","wings":"1","pattern":"X","legs":"F"},"bonus":1.5800000000000014},{"rt":1316.1999999284744,"stimulus":"bees-with-color/bee-B1DM.svg","response":0,"trial_type":"image-button-response","trial_index":127,"time_elapsed":647018,"internal_node_id":"0.0-4.0-0.60","subject_id":"612376826a580ca0368bb19f","study_id":"6197b3f67c2b5cd3b6d9596a","session_id":"619be31d67eddb75e12af908","condition":"full-information","relevant_dimensions":["wings","legs"],"bee_group":{"antennae":"X","wings":"1","pattern":"X","legs":"F"},"action":"harvest","summary":"good-harvest","bonus":1.5800000000000014},{"rt":901.1000000238419,"stimulus":"\n                    <p><b>Action: <em>harvest</em></b></p>\n                    <p>This is the bee that you just saw.</p>\n                    <img src=\"bees-with-color/bee-B1DM.svg\" width=\"200\">\n                    <p><span class=\"greenText\"><b>Successful harvest!</b></span><br>Your pay has increased by $0.02. Your bonus pay is now $1.06.</p>\n            ","response":0,"trial_type":"html-button-response","trial_index":128,"time_elapsed":647921,"internal_node_id":"0.0-4.0-1.60","subject_id":"612376826a580ca0368bb19f","study_id":"6197b3f67c2b5cd3b6d9596a","session_id":"619be31d67eddb75e12af908","condition":"full-information","relevant_dimensions":["wings","legs"],"bee_group":{"antennae":"X","wings":"1","pattern":"X","legs":"F"},"bonus":1.5800000000000014},{"rt":1282.6000000238419,"stimulus":"bees-with-color/bee-B2DM.svg","response":0,"trial_type":"image-button-response","trial_index":129,"time_elapsed":649205,"internal_node_id":"0.0-4.0-0.61","subject_id":"612376826a580ca0368bb19f","study_id":"6197b3f67c2b5cd3b6d9596a","session_id":"619be31d67eddb75e12af908","condition":"full-information","relevant_dimensions":["wings","legs"],"bee_group":{"antennae":"X","wings":"1","pattern":"X","legs":"F"},"action":"harvest","summary":"good-harvest","bonus":1.5800000000000014},{"rt":614,"stimulus":"\n                    <p><b>Action: <em>harvest</em></b></p>\n                    <p>This is the bee that you just saw.</p>\n                    <img src=\"bees-with-color/bee-B2DM.svg\" width=\"200\">\n                    <p><span class=\"greenText\"><b>Successful harvest!</b></span><br>Your pay has increased by $0.02. Your bonus pay is now $1.08.</p>\n            ","response":0,"trial_type":"html-button-response","trial_index":130,"time_elapsed":649821,"internal_node_id":"0.0-4.0-1.61","subject_id":"612376826a580ca0368bb19f","study_id":"6197b3f67c2b5cd3b6d9596a","session_id":"619be31d67eddb75e12af908","condition":"full-information","relevant_dimensions":["wings","legs"],"bee_group":{"antennae":"X","wings":"1","pattern":"X","legs":"F"},"bonus":1.5800000000000014},{"rt":2998.5,"stimulus":"bees-with-color/bee-A1SF.svg","response":1,"trial_type":"image-button-response","trial_index":131,"time_elapsed":652821,"internal_node_id":"0.0-4.0-0.62","subject_id":"612376826a580ca0368bb19f","study_id":"6197b3f67c2b5cd3b6d9596a","session_id":"619be31d67eddb75e12af908","condition":"full-information","relevant_dimensions":["wings","legs"],"bee_group":{"antennae":"X","wings":"1","pattern":"X","legs":"F"},"action":"avoid","summary":"good-avoid","bonus":1.5800000000000014},{"rt":2028.3000000715256,"stimulus":"\n                    <p><b>Action: <em>avoid</em></b></p>\n                    <p>This is the bee that you just saw.</p>\n                    <img src=\"bees-with-color/bee-A1SF.svg\" width=\"200\">\n                    <p><span class=\"greenText\">Good choice!</span>  This bee would have stung you.<br>Your bonus pay is unchanged, and remains at $1.08.</p>\n            ","response":0,"trial_type":"html-button-response","trial_index":132,"time_elapsed":654852,"internal_node_id":"0.0-4.0-1.62","subject_id":"612376826a580ca0368bb19f","study_id":"6197b3f67c2b5cd3b6d9596a","session_id":"619be31d67eddb75e12af908","condition":"full-information","relevant_dimensions":["wings","legs"],"bee_group":{"antennae":"X","wings":"1","pattern":"X","legs":"F"},"bonus":1.5800000000000014},{"rt":1002,"stimulus":"bees-with-color/bee-A2DM.svg","response":0,"trial_type":"image-button-response","trial_index":133,"time_elapsed":655856,"internal_node_id":"0.0-4.0-0.63","subject_id":"612376826a580ca0368bb19f","study_id":"6197b3f67c2b5cd3b6d9596a","session_id":"619be31d67eddb75e12af908","condition":"full-information","relevant_dimensions":["wings","legs"],"bee_group":{"antennae":"X","wings":"1","pattern":"X","legs":"F"},"action":"harvest","summary":"good-harvest","bonus":1.5800000000000014},{"rt":1025.6000000238419,"stimulus":"\n                    <p><b>Action: <em>harvest</em></b></p>\n                    <p>This is the bee that you just saw.</p>\n                    <img src=\"bees-with-color/bee-A2DM.svg\" width=\"200\">\n                    <p><span class=\"greenText\"><b>Successful harvest!</b></span><br>Your pay has increased by $0.02. Your bonus pay is now $1.10.</p>\n            ","response":0,"trial_type":"html-button-response","trial_index":134,"time_elapsed":656884,"internal_node_id":"0.0-4.0-1.63","subject_id":"612376826a580ca0368bb19f","study_id":"6197b3f67c2b5cd3b6d9596a","session_id":"619be31d67eddb75e12af908","condition":"full-information","relevant_dimensions":["wings","legs"],"bee_group":{"antennae":"X","wings":"1","pattern":"X","legs":"F"},"bonus":1.5800000000000014},{"rt":2689.3000000715256,"stimulus":"You have completed the first part of this experiment.<br><br>You will now begin a shorter second part, in which you will receive no feedback.<br>The same rules regarding bonus pay apply.<br><br>Press any key to begin.","response":" ","trial_type":"html-keyboard-response","trial_index":135,"time_elapsed":659574,"internal_node_id":"0.0-5.0","subject_id":"612376826a580ca0368bb19f","study_id":"6197b3f67c2b5cd3b6d9596a","session_id":"619be31d67eddb75e12af908","condition":"full-information","relevant_dimensions":["wings","legs"],"bee_group":{"antennae":"X","wings":"1","pattern":"X","legs":"F"},"bonus":1.5800000000000014},{"rt":4148.799999952316,"stimulus":"bees-with-color/bee-A2DM.svg","response":0,"trial_type":"image-button-response","trial_index":136,"time_elapsed":663726,"internal_node_id":"0.0-6.0-0.0","subject_id":"612376826a580ca0368bb19f","study_id":"6197b3f67c2b5cd3b6d9596a","session_id":"619be31d67eddb75e12af908","condition":"full-information","relevant_dimensions":["wings","legs"],"bee_group":{"antennae":"X","wings":"1","pattern":"X","legs":"F"},"bonus":1.5800000000000014},{"rt":5651,"stimulus":"bees-with-color/bee-A2SM.svg","response":0,"trial_type":"image-button-response","trial_index":137,"time_elapsed":669379,"internal_node_id":"0.0-6.0-0.1","subject_id":"612376826a580ca0368bb19f","study_id":"6197b3f67c2b5cd3b6d9596a","session_id":"619be31d67eddb75e12af908","condition":"full-information","relevant_dimensions":["wings","legs"],"bee_group":{"antennae":"X","wings":"1","pattern":"X","legs":"F"},"bonus":1.5800000000000014},{"rt":1385.6000000238419,"stimulus":"bees-with-color/bee-A1DM.svg","response":0,"trial_type":"image-button-response","trial_index":138,"time_elapsed":670768,"internal_node_id":"0.0-6.0-0.2","subject_id":"612376826a580ca0368bb19f","study_id":"6197b3f67c2b5cd3b6d9596a","session_id":"619be31d67eddb75e12af908","condition":"full-information","relevant_dimensions":["wings","legs"],"bee_group":{"antennae":"X","wings":"1","pattern":"X","legs":"F"},"bonus":1.5800000000000014},{"rt":1229.5999999046326,"stimulus":"bees-with-color/bee-B1DM.svg","response":0,"trial_type":"image-button-response","trial_index":139,"time_elapsed":672000,"internal_node_id":"0.0-6.0-0.3","subject_id":"612376826a580ca0368bb19f","study_id":"6197b3f67c2b5cd3b6d9596a","session_id":"619be31d67eddb75e12af908","condition":"full-information","relevant_dimensions":["wings","legs"],"bee_group":{"antennae":"X","wings":"1","pattern":"X","legs":"F"},"bonus":1.5800000000000014},{"rt":2435.9000000953674,"stimulus":"bees-with-color/bee-A2SF.svg","response":0,"trial_type":"image-button-response","trial_index":140,"time_elapsed":674439,"internal_node_id":"0.0-6.0-0.4","subject_id":"612376826a580ca0368bb19f","study_id":"6197b3f67c2b5cd3b6d9596a","session_id":"619be31d67eddb75e12af908","condition":"full-information","relevant_dimensions":["wings","legs"],"bee_group":{"antennae":"X","wings":"1","pattern":"X","legs":"F"},"bonus":1.5800000000000014},{"rt":2231.1999999284744,"stimulus":"bees-with-color/bee-B1DF.svg","response":1,"trial_type":"image-button-response","trial_index":141,"time_elapsed":676673,"internal_node_id":"0.0-6.0-0.5","subject_id":"612376826a580ca0368bb19f","study_id":"6197b3f67c2b5cd3b6d9596a","session_id":"619be31d67eddb75e12af908","condition":"full-information","relevant_dimensions":["wings","legs"],"bee_group":{"antennae":"X","wings":"1","pattern":"X","legs":"F"},"bonus":1.5800000000000014},{"rt":3028.7000000476837,"stimulus":"bees-with-color/bee-A1SF.svg","response":1,"trial_type":"image-button-response","trial_index":142,"time_elapsed":679705,"internal_node_id":"0.0-6.0-0.6","subject_id":"612376826a580ca0368bb19f","study_id":"6197b3f67c2b5cd3b6d9596a","session_id":"619be31d67eddb75e12af908","condition":"full-information","relevant_dimensions":["wings","legs"],"bee_group":{"antennae":"X","wings":"1","pattern":"X","legs":"F"},"bonus":1.5800000000000014},{"rt":934.1000000238419,"stimulus":"bees-with-color/bee-A2DF.svg","response":0,"trial_type":"image-button-response","trial_index":143,"time_elapsed":680641,"internal_node_id":"0.0-6.0-0.7","subject_id":"612376826a580ca0368bb19f","study_id":"6197b3f67c2b5cd3b6d9596a","session_id":"619be31d67eddb75e12af908","condition":"full-information","relevant_dimensions":["wings","legs"],"bee_group":{"antennae":"X","wings":"1","pattern":"X","legs":"F"},"bonus":1.5800000000000014},{"rt":976.7000000476837,"stimulus":"bees-with-color/bee-B2SF.svg","response":0,"trial_type":"image-button-response","trial_index":144,"time_elapsed":681621,"internal_node_id":"0.0-6.0-0.8","subject_id":"612376826a580ca0368bb19f","study_id":"6197b3f67c2b5cd3b6d9596a","session_id":"619be31d67eddb75e12af908","condition":"full-information","relevant_dimensions":["wings","legs"],"bee_group":{"antennae":"X","wings":"1","pattern":"X","legs":"F"},"bonus":1.5800000000000014},{"rt":642,"stimulus":"bees-with-color/bee-B2SM.svg","response":0,"trial_type":"image-button-response","trial_index":145,"time_elapsed":682265,"internal_node_id":"0.0-6.0-0.9","subject_id":"612376826a580ca0368bb19f","study_id":"6197b3f67c2b5cd3b6d9596a","session_id":"619be31d67eddb75e12af908","condition":"full-information","relevant_dimensions":["wings","legs"],"bee_group":{"antennae":"X","wings":"1","pattern":"X","legs":"F"},"bonus":1.5800000000000014},{"rt":2870.7000000476837,"stimulus":"bees-with-color/bee-A1SM.svg","response":0,"trial_type":"image-button-response","trial_index":146,"time_elapsed":685139,"internal_node_id":"0.0-6.0-0.10","subject_id":"612376826a580ca0368bb19f","study_id":"6197b3f67c2b5cd3b6d9596a","session_id":"619be31d67eddb75e12af908","condition":"full-information","relevant_dimensions":["wings","legs"],"bee_group":{"antennae":"X","wings":"1","pattern":"X","legs":"F"},"bonus":1.5800000000000014},{"rt":1214.3000000715256,"stimulus":"bees-with-color/bee-B1SF.svg","response":1,"trial_type":"image-button-response","trial_index":147,"time_elapsed":686355,"internal_node_id":"0.0-6.0-0.11","subject_id":"612376826a580ca0368bb19f","study_id":"6197b3f67c2b5cd3b6d9596a","session_id":"619be31d67eddb75e12af908","condition":"full-information","relevant_dimensions":["wings","legs"],"bee_group":{"antennae":"X","wings":"1","pattern":"X","legs":"F"},"bonus":1.5800000000000014},{"rt":1085.8000000715256,"stimulus":"bees-with-color/bee-B1SM.svg","response":0,"trial_type":"image-button-response","trial_index":148,"time_elapsed":687443,"internal_node_id":"0.0-6.0-0.12","subject_id":"612376826a580ca0368bb19f","study_id":"6197b3f67c2b5cd3b6d9596a","session_id":"619be31d67eddb75e12af908","condition":"full-information","relevant_dimensions":["wings","legs"],"bee_group":{"antennae":"X","wings":"1","pattern":"X","legs":"F"},"bonus":1.5800000000000014},{"rt":1117.8000000715256,"stimulus":"bees-with-color/bee-A1DF.svg","response":1,"trial_type":"image-button-response","trial_index":149,"time_elapsed":688563,"internal_node_id":"0.0-6.0-0.13","subject_id":"612376826a580ca0368bb19f","study_id":"6197b3f67c2b5cd3b6d9596a","session_id":"619be31d67eddb75e12af908","condition":"full-information","relevant_dimensions":["wings","legs"],"bee_group":{"antennae":"X","wings":"1","pattern":"X","legs":"F"},"bonus":1.5800000000000014},{"rt":881.3999999761581,"stimulus":"bees-with-color/bee-B2DF.svg","response":0,"trial_type":"image-button-response","trial_index":150,"time_elapsed":689447,"internal_node_id":"0.0-6.0-0.14","subject_id":"612376826a580ca0368bb19f","study_id":"6197b3f67c2b5cd3b6d9596a","session_id":"619be31d67eddb75e12af908","condition":"full-information","relevant_dimensions":["wings","legs"],"bee_group":{"antennae":"X","wings":"1","pattern":"X","legs":"F"},"bonus":1.5800000000000014},{"rt":1451.3999999761581,"stimulus":"bees-with-color/bee-B2DM.svg","response":0,"trial_type":"image-button-response","trial_index":151,"time_elapsed":690901,"internal_node_id":"0.0-6.0-0.15","subject_id":"612376826a580ca0368bb19f","study_id":"6197b3f67c2b5cd3b6d9596a","session_id":"619be31d67eddb75e12af908","condition":"full-information","relevant_dimensions":["wings","legs"],"bee_group":{"antennae":"X","wings":"1","pattern":"X","legs":"F"},"bonus":1.5800000000000014},{"rt":958,"stimulus":"bees-with-color/bee-B1SM.svg","response":0,"trial_type":"image-button-response","trial_index":152,"time_elapsed":691861,"internal_node_id":"0.0-6.0-0.16","subject_id":"612376826a580ca0368bb19f","study_id":"6197b3f67c2b5cd3b6d9596a","session_id":"619be31d67eddb75e12af908","condition":"full-information","relevant_dimensions":["wings","legs"],"bee_group":{"antennae":"X","wings":"1","pattern":"X","legs":"F"},"bonus":1.5800000000000014},{"rt":622.3000000715256,"stimulus":"bees-with-color/bee-B2SM.svg","response":0,"trial_type":"image-button-response","trial_index":153,"time_elapsed":692485,"internal_node_id":"0.0-6.0-0.17","subject_id":"612376826a580ca0368bb19f","study_id":"6197b3f67c2b5cd3b6d9596a","session_id":"619be31d67eddb75e12af908","condition":"full-information","relevant_dimensions":["wings","legs"],"bee_group":{"antennae":"X","wings":"1","pattern":"X","legs":"F"},"bonus":1.5800000000000014},{"rt":774,"stimulus":"bees-with-color/bee-A2DM.svg","response":0,"trial_type":"image-button-response","trial_index":154,"time_elapsed":693261,"internal_node_id":"0.0-6.0-0.18","subject_id":"612376826a580ca0368bb19f","study_id":"6197b3f67c2b5cd3b6d9596a","session_id":"619be31d67eddb75e12af908","condition":"full-information","relevant_dimensions":["wings","legs"],"bee_group":{"antennae":"X","wings":"1","pattern":"X","legs":"F"},"bonus":1.5800000000000014},{"rt":1186,"stimulus":"bees-with-color/bee-A1SF.svg","response":1,"trial_type":"image-button-response","trial_index":155,"time_elapsed":694449,"internal_node_id":"0.0-6.0-0.19","subject_id":"612376826a580ca0368bb19f","study_id":"6197b3f67c2b5cd3b6d9596a","session_id":"619be31d67eddb75e12af908","condition":"full-information","relevant_dimensions":["wings","legs"],"bee_group":{"antennae":"X","wings":"1","pattern":"X","legs":"F"},"bonus":1.5800000000000014},{"rt":2217.600000023842,"stimulus":"bees-with-color/bee-B1DM.svg","response":0,"trial_type":"image-button-response","trial_index":156,"time_elapsed":696669,"internal_node_id":"0.0-6.0-0.20","subject_id":"612376826a580ca0368bb19f","study_id":"6197b3f67c2b5cd3b6d9596a","session_id":"619be31d67eddb75e12af908","condition":"full-information","relevant_dimensions":["wings","legs"],"bee_group":{"antennae":"X","wings":"1","pattern":"X","legs":"F"},"bonus":1.5800000000000014},{"rt":1444.2999999523163,"stimulus":"bees-with-color/bee-B1DF.svg","response":1,"trial_type":"image-button-response","trial_index":157,"time_elapsed":698115,"internal_node_id":"0.0-6.0-0.21","subject_id":"612376826a580ca0368bb19f","study_id":"6197b3f67c2b5cd3b6d9596a","session_id":"619be31d67eddb75e12af908","condition":"full-information","relevant_dimensions":["wings","legs"],"bee_group":{"antennae":"X","wings":"1","pattern":"X","legs":"F"},"bonus":1.5800000000000014},{"rt":849.3999999761581,"stimulus":"bees-with-color/bee-A2DF.svg","response":0,"trial_type":"image-button-response","trial_index":158,"t