[{"success":true,"trial_type":"fullscreen","trial_index":0,"time_elapsed":12521,"internal_node_id":"0.0-0.0","subject_id":"6098f0de1d7539ec648240d0","study_id":"60edd13110225f80f9f3709b","session_id":"6196c7098de15ab67c57edec","condition":"full-information","relevant_dimensions":["antennae","wings"],"bee_group":{"antennae":"A","wings":"2","pattern":"X","legs":"X"},"bonus":0.9200000000000005},{"success":true,"timeout":false,"failed_images":[],"failed_audio":[],"failed_video":[],"trial_type":"preload","trial_index":1,"time_elapsed":14244,"internal_node_id":"0.0-1.0","subject_id":"6098f0de1d7539ec648240d0","study_id":"60edd13110225f80f9f3709b","session_id":"6196c7098de15ab67c57edec","condition":"full-information","relevant_dimensions":["antennae","wings"],"bee_group":{"antennae":"A","wings":"2","pattern":"X","legs":"X"},"bonus":0.9200000000000005},{"rt":4020,"stimulus":"Welcome! Press any key to begin.","response":"m","trial_type":"html-keyboard-response","trial_index":2,"time_elapsed":18267,"internal_node_id":"0.0-2.0","subject_id":"6098f0de1d7539ec648240d0","study_id":"60edd13110225f80f9f3709b","session_id":"6196c7098de15ab67c57edec","condition":"full-information","relevant_dimensions":["antennae","wings"],"bee_group":{"antennae":"A","wings":"2","pattern":"X","legs":"X"},"bonus":0.9200000000000005},{"view_history":[{"page_index":0,"viewing_time":5315},{"page_index":1,"viewing_time":12437},{"page_index":2,"viewing_time":10596},{"page_index":3,"viewing_time":15785},{"page_index":4,"viewing_time":15862},{"page_index":5,"viewing_time":9695},{"page_index":6,"viewing_time":10837},{"page_index":7,"viewing_time":38027},{"page_index":8,"viewing_time":16777},{"page_index":9,"viewing_time":22798},{"page_index":10,"viewing_time":25281},{"page_index":11,"viewing_time":7579},{"page_index":12,"viewing_time":9350},{"page_index":13,"viewing_time":1246},{"page_index":14,"viewing_time":1388}],"rt":202973,"trial_type":"instructions","trial_index":3,"time_elapsed":221243,"internal_node_id":"0.0-3.0-0.0","subject_id":"6098f0de1d7539ec648240d0","study_id":"60edd13110225f80f9f3709b","session_id":"6196c7098de15ab67c57edec","condition":"full-information","relevant_dimensions":["antennae","wings"],"bee_group":{"antennae":"A","wings":"2","pattern":"X","legs":"X"},"bonus":0.9200000000000005},{"rt":12805,"response":{"Q0":["Two or six legs","Stripes or spots on body","Single or double wings","Antennae or no antennae"]},"question_order":[0],"trial_type":"survey-multi-select","trial_index":4,"time_elapsed":234062,"internal_node_id":"0.0-3.0-1.0","subject_id":"6098f0de1d7539ec648240d0","study_id":"60edd13110225f80f9f3709b","session_id":"6196c7098de15ab67c57edec","condition":"full-information","relevant_dimensions":["antennae","wings"],"bee_group":{"antennae":"A","wings":"2","pattern":"X","legs":"X"},"correct":true,"bonus":0.9200000000000005},{"rt":23014,"response":{"Q1":"No.","Q2":"Based on the four features of the bee.","Q3":"You learn if it was friendly or dangerous, but do not alter your bonus."},"question_order":[0,1,2],"trial_type":"survey-multi-choice","trial_index":5,"time_elapsed":257084,"internal_node_id":"0.0-3.0-2.0","subject_id":"6098f0de1d7539ec648240d0","study_id":"60edd13110225f80f9f3709b","session_id":"6196c7098de15ab67c57edec","condition":"full-information","relevant_dimensions":["antennae","wings"],"bee_group":{"antennae":"A","wings":"2","pattern":"X","legs":"X"},"correct":true,"bonus":0.9200000000000005},{"rt":3587,"stimulus":"<p>Congrats, you got everything right<br>When you're ready, click the button below to continue to the experiment.</p>","response":0,"trial_type":"html-button-response","trial_index":6,"time_elapsed":260673,"internal_node_id":"0.0-3.0-3.0","subject_id":"6098f0de1d7539ec648240d0","study_id":"60edd13110225f80f9f3709b","session_id":"6196c7098de15ab67c57edec","condition":"full-information","relevant_dimensions":["antennae","wings"],"bee_group":{"antennae":"A","wings":"2","pattern":"X","legs":"X"},"bonus":0.9200000000000005},{"rt":30080,"stimulus":"bees-with-color/bee-A1DM.svg","response":1,"trial_type":"image-button-response","trial_index":7,"time_elapsed":290758,"internal_node_id":"0.0-4.0-0.0","subject_id":"6098f0de1d7539ec648240d0","study_id":"60edd13110225f80f9f3709b","session_id":"6196c7098de15ab67c57edec","condition":"full-information","relevant_dimensions":["antennae","wings"],"bee_group":{"antennae":"A","wings":"2","pattern":"X","legs":"X"},"action":"avoid","summary":"bad-avoid","bonus":0.9200000000000005},{"rt":13323,"stimulus":"\n                    <p><b>Action: <em>avoid</em></b></p>\n                    <p>This is the bee that you just saw.</p>\n                    <img src=\"bees-with-color/bee-A1DM.svg\" width=\"200\">\n                    <p><span class=\"redText\">Bad choice,</span> the bee was friendly.<br>Your bonus pay is unchanged, and remains at $0.54.</p>\n            ","response":0,"trial_type":"html-button-response","trial_index":8,"time_elapsed":304092,"internal_node_id":"0.0-4.0-1.0","subject_id":"6098f0de1d7539ec648240d0","study_id":"60edd13110225f80f9f3709b","session_id":"6196c7098de15ab67c57edec","condition":"full-information","relevant_dimensions":["antennae","wings"],"bee_group":{"antennae":"A","wings":"2","pattern":"X","legs":"X"},"bonus":0.9200000000000005},{"rt":18478,"stimulus":"bees-with-color/bee-B1DM.svg","response":1,"trial_type":"image-button-response","trial_index":9,"time_elapsed":322573,"internal_node_id":"0.0-4.0-0.1","subject_id":"6098f0de1d7539ec648240d0","study_id":"60edd13110225f80f9f3709b","session_id":"6196c7098de15ab67c57edec","condition":"full-information","relevant_dimensions":["antennae","wings"],"bee_group":{"antennae":"A","wings":"2","pattern":"X","legs":"X"},"action":"avoid","summary":"bad-avoid","bonus":0.9200000000000005},{"rt":10236,"stimulus":"\n                    <p><b>Action: <em>avoid</em></b></p>\n                    <p>This is the bee that you just saw.</p>\n                    <img src=\"bees-with-color/bee-B1DM.svg\" width=\"200\">\n                    <p><span class=\"redText\">Bad choice,</span> the bee was friendly.<br>Your bonus pay is unchanged, and remains at $0.54.</p>\n            ","response":0,"trial_type":"html-button-response","trial_index":10,"time_elapsed":332811,"internal_node_id":"0.0-4.0-1.1","subject_id":"6098f0de1d7539ec648240d0","study_id":"60edd13110225f80f9f3709b","session_id":"6196c7098de15ab67c57edec","condition":"full-information","relevant_dimensions":["antennae","wings"],"bee_group":{"antennae":"A","wings":"2","pattern":"X","legs":"X"},"bonus":0.9200000000000005},{"rt":22993,"stimulus":"bees-with-color/bee-B2DM.svg","response":1,"trial_type":"image-button-response","trial_index":11,"time_elapsed":355806,"internal_node_id":"0.0-4.0-0.2","subject_id":"6098f0de1d7539ec648240d0","study_id":"60edd13110225f80f9f3709b","session_id":"6196c7098de15ab67c57edec","condition":"full-information","relevant_dimensions":["antennae","wings"],"bee_group":{"antennae":"A","wings":"2","pattern":"X","legs":"X"},"action":"avoid","summary":"bad-avoid","bonus":0.9200000000000005},{"rt":14710,"stimulus":"\n                    <p><b>Action: <em>avoid</em></b></p>\n                    <p>This is the bee that you just saw.</p>\n                    <img src=\"bees-with-color/bee-B2DM.svg\" width=\"200\">\n                    <p><span class=\"redText\">Bad choice,</span> the bee was friendly.<br>Your bonus pay is unchanged, and remains at $0.54.</p>\n            ","response":0,"trial_type":"html-button-response","trial_index":12,"time_elapsed":370523,"internal_node_id":"0.0-4.0-1.2","subject_id":"6098f0de1d7539ec648240d0","study_id":"60edd13110225f80f9f3709b","session_id":"6196c7098de15ab67c57edec","condition":"full-information","relevant_dimensions":["antennae","wings"],"bee_group":{"antennae":"A","wings":"2","pattern":"X","legs":"X"},"bonus":0.9200000000000005},{"rt":18684,"stimulus":"bees-with-color/bee-A2DM.svg","response":1,"trial_type":"image-button-response","trial_index":13,"time_elapsed":389208,"internal_node_id":"0.0-4.0-0.3","subject_id":"6098f0de1d7539ec648240d0","study_id":"60edd13110225f80f9f3709b","session_id":"6196c7098de15ab67c57edec","condition":"full-information","relevant_dimensions":["antennae","wings"],"bee_group":{"antennae":"A","wings":"2","pattern":"X","legs":"X"},"action":"avoid","summary":"good-avoid","bonus":0.9200000000000005},{"rt":11023,"stimulus":"\n                    <p><b>Action: <em>avoid</em></b></p>\n                    <p>This is the bee that you just saw.</p>\n                    <img src=\"bees-with-color/bee-A2DM.svg\" width=\"200\">\n                    <p><span class=\"greenText\">Good choice!</span>  This bee would have stung you.<br>Your bonus pay is unchanged, and remains at $0.54.</p>\n            ","response":0,"trial_type":"html-button-response","trial_index":14,"time_elapsed":400237,"internal_node_id":"0.0-4.0-1.3","subject_id":"6098f0de1d7539ec648240d0","study_id":"60edd13110225f80f9f3709b","session_id":"6196c7098de15ab67c57edec","condition":"full-information","relevant_dimensions":["antennae","wings"],"bee_group":{"antennae":"A","wings":"2","pattern":"X","legs":"X"},"bonus":0.9200000000000005},{"rt":18536,"stimulus":"bees-with-color/bee-A1DF.svg","response":1,"trial_type":"image-button-response","trial_index":15,"time_elapsed":418774,"internal_node_id":"0.0-4.0-0.4","subject_id":"6098f0de1d7539ec648240d0","study_id":"60edd13110225f80f9f3709b","session_id":"6196c7098de15ab67c57edec","condition":"full-information","relevant_dimensions":["antennae","wings"],"bee_group":{"antennae":"A","wings":"2","pattern":"X","legs":"X"},"action":"avoid","summary":"bad-avoid","bonus":0.9200000000000005},{"rt":7651,"stimulus":"\n                    <p><b>Action: <em>avoid</em></b></p>\n                    <p>This is the bee that you just saw.</p>\n                    <img src=\"bees-with-color/bee-A1DF.svg\" width=\"200\">\n                    <p><span class=\"redText\">Bad choice,</span> the bee was friendly.<br>Your bonus pay is unchanged, and remains at $0.54.</p>\n            ","response":0,"trial_type":"html-button-response","trial_index":16,"time_elapsed":426426,"internal_node_id":"0.0-4.0-1.4","subject_id":"6098f0de1d7539ec648240d0","study_id":"60edd13110225f80f9f3709b","session_id":"6196c7098de15ab67c57edec","condition":"full-information","relevant_dimensions":["antennae","wings"],"bee_group":{"antennae":"A","wings":"2","pattern":"X","legs":"X"},"bonus":0.9200000000000005},{"rt":15485,"stimulus":"bees-with-color/bee-A2SM.svg","response":1,"trial_type":"image-button-response","trial_index":17,"time_elapsed":441913,"internal_node_id":"0.0-4.0-0.5","subject_id":"6098f0de1d7539ec648240d0","study_id":"60edd13110225f80f9f3709b","session_id":"6196c7098de15ab67c57edec","condition":"full-information","relevant_dimensions":["antennae","wings"],"bee_group":{"antennae":"A","wings":"2","pattern":"X","legs":"X"},"action":"avoid","summary":"good-avoid","bonus":0.9200000000000005},{"rt":16089,"stimulus":"\n                    <p><b>Action: <em>avoid</em></b></p>\n                    <p>This is the bee that you just saw.</p>\n                    <img src=\"bees-with-color/bee-A2SM.svg\" width=\"200\">\n                    <p><span class=\"greenText\">Good choice!</span>  This bee would have stung you.<br>Your bonus pay is unchanged, and remains at $0.54.</p>\n            ","response":0,"trial_type":"html-button-response","trial_index":18,"time_elapsed":458006,"internal_node_id":"0.0-4.0-1.5","subject_id":"6098f0de1d7539ec648240d0","study_id":"60edd13110225f80f9f3709b","session_id":"6196c7098de15ab67c57edec","condition":"full-information","relevant_dimensions":["antennae","wings"],"bee_group":{"antennae":"A","wings":"2","pattern":"X","legs":"X"},"bonus":0.9200000000000005},{"rt":50647,"stimulus":"bees-with-color/bee-B1SM.svg","response":1,"trial_type":"image-button-response","trial_index":19,"time_elapsed":508655,"internal_node_id":"0.0-4.0-0.6","subject_id":"6098f0de1d7539ec648240d0","study_id":"60edd13110225f80f9f3709b","session_id":"6196c7098de15ab67c57edec","condition":"full-information","relevant_dimensions":["antennae","wings"],"bee_group":{"antennae":"A","wings":"2","pattern":"X","legs":"X"},"action":"avoid","summary":"bad-avoid","bonus":0.9200000000000005},{"rt":6715,"stimulus":"\n                    <p><b>Action: <em>avoid</em></b></p>\n                    <p>This is the bee that you just saw.</p>\n                    <img src=\"bees-with-color/bee-B1SM.svg\" width=\"200\">\n                    <p><span class=\"redText\">Bad choice,</span> the bee was friendly.<br>Your bonus pay is unchanged, and remains at $0.54.</p>\n            ","response":0,"trial_type":"html-button-response","trial_index":20,"time_elapsed":515372,"internal_node_id":"0.0-4.0-1.6","subject_id":"6098f0de1d7539ec648240d0","study_id":"60edd13110225f80f9f3709b","session_id":"6196c7098de15ab67c57edec","condition":"full-information","relevant_dimensions":["antennae","wings"],"bee_group":{"antennae":"A","wings":"2","pattern":"X","legs":"X"},"bonus":0.9200000000000005},{"rt":14325,"stimulus":"bees-with-color/bee-B1DF.svg","response":1,"trial_type":"image-button-response","trial_index":21,"time_elapsed":529698,"internal_node_id":"0.0-4.0-0.7","subject_id":"6098f0de1d7539ec648240d0","study_id":"60edd13110225f80f9f3709b","session_id":"6196c7098de15ab67c57edec","condition":"full-information","relevant_dimensions":["antennae","wings"],"bee_group":{"antennae":"A","wings":"2","pattern":"X","legs":"X"},"action":"avoid","summary":"bad-avoid","bonus":0.9200000000000005},{"rt":8272,"stimulus":"\n                    <p><b>Action: <em>avoid</em></b></p>\n                    <p>This is the bee that you just saw.</p>\n                    <img src=\"bees-with-color/bee-B1DF.svg\" width=\"200\">\n                    <p><span class=\"redText\">Bad choice,</span> the bee was friendly.<br>Your bonus pay is unchanged, and remains at $0.54.</p>\n            ","response":0,"trial_type":"html-button-response","trial_index":22,"time_elapsed":537974,"internal_node_id":"0.0-4.0-1.7","subject_id":"6098f0de1d7539ec648240d0","study_id":"60edd13110225f80f9f3709b","session_id":"6196c7098de15ab67c57edec","condition":"full-information","relevant_dimensions":["antennae","wings"],"bee_group":{"antennae":"A","wings":"2","pattern":"X","legs":"X"},"bonus":0.9200000000000005},{"rt":35165,"stimulus":"bees-with-color/bee-B2SF.svg","response":1,"trial_type":"image-button-response","trial_index":23,"time_elapsed":573142,"internal_node_id":"0.0-4.0-0.8","subject_id":"6098f0de1d7539ec648240d0","study_id":"60edd13110225f80f9f3709b","session_id":"6196c7098de15ab67c57edec","condition":"full-information","relevant_dimensions":["antennae","wings"],"bee_group":{"antennae":"A","wings":"2","pattern":"X","legs":"X"},"action":"avoid","summary":"bad-avoid","bonus":0.9200000000000005},{"rt":10449,"stimulus":"\n                    <p><b>Action: <em>avoid</em></b></p>\n                    <p>This is the bee that you just saw.</p>\n                    <img src=\"bees-with-color/bee-B2SF.svg\" width=\"200\">\n                    <p><span class=\"redText\">Bad choice,</span> the bee was friendly.<br>Your bonus pay is unchanged, and remains at $0.54.</p>\n            ","response":0,"trial_type":"html-button-response","trial_index":24,"time_elapsed":583596,"internal_node_id":"0.0-4.0-1.8","subject_id":"6098f0de1d7539ec648240d0","study_id":"60edd13110225f80f9f3709b","session_id":"6196c7098de15ab67c57edec","condition":"full-information","relevant_dimensions":["antennae","wings"],"bee_group":{"antennae":"A","wings":"2","pattern":"X","legs":"X"},"bonus":0.9200000000000005},{"rt":19068,"stimulus":"bees-with-color/bee-A1SF.svg","response":1,"trial_type":"image-button-response","trial_index":25,"time_elapsed":602663,"internal_node_id":"0.0-4.0-0.9","subject_id":"6098f0de1d7539ec648240d0","study_id":"60edd13110225f80f9f3709b","session_id":"6196c7098de15ab67c57edec","condition":"full-information","relevant_dimensions":["antennae","wings"],"bee_group":{"antennae":"A","wings":"2","pattern":"X","legs":"X"},"action":"avoid","summary":"bad-avoid","bonus":0.9200000000000005},{"rt":6575,"stimulus":"\n                    <p><b>Action: <em>avoid</em></b></p>\n                    <p>This is the bee that you just saw.</p>\n                    <img src=\"bees-with-color/bee-A1SF.svg\" width=\"200\">\n                    <p><span class=\"redText\">Bad choice,</span> the bee was friendly.<br>Your bonus pay is unchanged, and remains at $0.54.</p>\n            ","response":0,"trial_type":"html-button-response","trial_index":26,"time_elapsed":609241,"internal_node_id":"0.0-4.0-1.9","subject_id":"6098f0de1d7539ec648240d0","study_id":"60edd13110225f80f9f3709b","session_id":"6196c7098de15ab67c57edec","condition":"full-information","relevant_dimensions":["antennae","wings"],"bee_group":{"antennae":"A","wings":"2","pattern":"X","legs":"X"},"bonus":0.9200000000000005},{"rt":41120,"stimulus":"bees-with-color/bee-A1SM.svg","response":1,"trial_type":"image-button-response","trial_index":27,"time_elapsed":650367,"internal_node_id":"0.0-4.0-0.10","subject_id":"6098f0de1d7539ec648240d0","study_id":"60edd13110225f80f9f3709b","session_id":"6196c7098de15ab67c57edec","condition":"full-information","relevant_dimensions":["antennae","wings"],"bee_group":{"antennae":"A","wings":"2","pattern":"X","legs":"X"},"action":"avoid","summary":"bad-avoid","bonus":0.9200000000000005},{"rt":6587,"stimulus":"\n                    <p><b>Action: <em>avoid</em></b></p>\n                    <p>This is the bee that you just saw.</p>\n                    <img src=\"bees-with-color/bee-A1SM.svg\" width=\"200\">\n                    <p><span class=\"redText\">Bad choice,</span> the bee was friendly.<br>Your bonus pay is unchanged, and remains at $0.54.</p>\n            ","response":0,"trial_type":"html-button-response","trial_index":28,"time_elapsed":656958,"internal_node_id":"0.0-4.0-1.10","subject_id":"6098f0de1d7539ec648240d0","study_id":"60edd13110225f80f9f3709b","session_id":"6196c7098de15ab67c57edec","condition":"full-information","relevant_dimensions":["antennae","wings"],"bee_group":{"antennae":"A","wings":"2","pattern":"X","legs":"X"},"bonus":0.9200000000000005},{"rt":28697,"stimulus":"bees-with-color/bee-B1SF.svg","response":1,"trial_type":"image-button-response","trial_index":29,"time_elapsed":685659,"internal_node_id":"0.0-4.0-0.11","subject_id":"6098f0de1d7539ec648240d0","study_id":"60edd13110225f80f9f3709b","session_id":"6196c7098de15ab67c57edec","condition":"full-information","relevant_dimensions":["antennae","wings"],"bee_group":{"antennae":"A","wings":"2","pattern":"X","legs":"X"},"action":"avoid","summary":"bad-avoid","bonus":0.9200000000000005},{"rt":10127,"stimulus":"\n                    <p><b>Action: <em>avoid</em></b></p>\n                    <p>This is the bee that you just saw.</p>\n                    <img src=\"bees-with-color/bee-B1SF.svg\" width=\"200\">\n                    <p><span class=\"redText\">Bad choice,</span> the bee was friendly.<br>Your bonus pay is unchanged, and remains at $0.54.</p>\n            ","response":0,"trial_type":"html-button-response","trial_index":30,"time_elapsed":695788,"internal_node_id":"0.0-4.0-1.11","subject_id":"6098f0de1d7539ec648240d0","study_id":"60edd13110225f80f9f3709b","session_id":"6196c7098de15ab67c57edec","condition":"full-information","relevant_dimensions":["antennae","wings"],"bee_group":{"antennae":"A","wings":"2","pattern":"X","legs":"X"},"bonus":0.9200000000000005},{"rt":25610,"stimulus":"bees-with-color/bee-B2DF.svg","response":1,"trial_type":"image-button-response","trial_index":31,"time_elapsed":721401,"internal_node_id":"0.0-4.0-0.12","subject_id":"6098f0de1d7539ec648240d0","study_id":"60edd13110225f80f9f3709b","session_id":"6196c7098de15ab67c57edec","condition":"full-information","relevant_dimensions":["antennae","wings"],"bee_group":{"antennae":"A","wings":"2","pattern":"X","legs":"X"},"action":"avoid","summary":"bad-avoid","bonus":0.9200000000000005},{"rt":9914,"stimulus":"\n                    <p><b>Action: <em>avoid</em></b></p>\n                    <p>This is the bee that you just saw.</p>\n                    <img src=\"bees-with-color/bee-B2DF.svg\" width=\"200\">\n                    <p><span class=\"redText\">Bad choice,</span> the bee was friendly.<br>Your bonus pay is unchanged, and remains at $0.54.</p>\n            ","response":0,"trial_type":"html-button-response","trial_index":32,"time_elapsed":731318,"internal_node_id":"0.0-4.0-1.12","subject_id":"6098f0de1d7539ec648240d0","study_id":"60edd13110225f80f9f3709b","session_id":"6196c7098de15ab67c57edec","condition":"full-information","relevant_dimensions":["antennae","wings"],"bee_group":{"antennae":"A","wings":"2","pattern":"X","legs":"X"},"bonus":0.9200000000000005},{"rt":26446,"stimulus":"bees-with-color/bee-A2DF.svg","response":1,"trial_type":"image-button-response","trial_index":33,"time_elapsed":757766,"internal_node_id":"0.0-4.0-0.13","subject_id":"6098f0de1d7539ec648240d0","study_id":"60edd13110225f80f9f3709b","session_id":"6196c7098de15ab67c57edec","condition":"full-information","relevant_dimensions":["antennae","wings"],"bee_group":{"antennae":"A","wings":"2","pattern":"X","legs":"X"},"action":"avoid","summary":"good-avoid","bonus":0.9200000000000005},{"rt":12624,"stimulus":"\n                    <p><b>Action: <em>avoid</em></b></p>\n                    <p>This is the bee that you just saw.</p>\n                    <img src=\"bees-with-color/bee-A2DF.svg\" width=\"200\">\n                    <p><span class=\"greenText\">Good choice!</span>  This bee would have stung you.<br>Your bonus pay is unchanged, and remains at $0.54.</p>\n            ","response":0,"trial_type":"html-button-response","trial_index":34,"time_elapsed":770392,"internal_node_id":"0.0-4.0-1.13","subject_id":"6098f0de1d7539ec648240d0","study_id":"60edd13110225f80f9f3709b","session_id":"6196c7098de15ab67c57edec","condition":"full-information","relevant_dimensions":["antennae","wings"],"bee_group":{"antennae":"A","wings":"2","pattern":"X","legs":"X"},"bonus":0.9200000000000005},{"rt":31163,"stimulus":"bees-with-color/bee-A2SF.svg","response":1,"trial_type":"image-button-response","trial_index":35,"time_elapsed":801556,"internal_node_id":"0.0-4.0-0.14","subject_id":"6098f0de1d7539ec648240d0","study_id":"60edd13110225f80f9f3709b","session_id":"6196c7098de15ab67c57edec","condition":"full-information","relevant_dimensions":["antennae","wings"],"bee_group":{"antennae":"A","wings":"2","pattern":"X","legs":"X"},"action":"avoid","summary":"good-avoid","bonus":0.9200000000000005},{"rt":7251,"stimulus":"\n                    <p><b>Action: <em>avoid</em></b></p>\n                    <p>This is the bee that you just saw.</p>\n                    <img src=\"bees-with-color/bee-A2SF.svg\" width=\"200\">\n                    <p><span class=\"greenText\">Good choice!</span>  This bee would have stung you.<br>Your bonus pay is unchanged, and remains at $0.54.</p>\n            ","response":0,"trial_type":"html-button-response","trial_index":36,"time_elapsed":808808,"internal_node_id":"0.0-4.0-1.14","subject_id":"6098f0de1d7539ec648240d0","study_id":"60edd13110225f80f9f3709b","session_id":"6196c7098de15ab67c57edec","condition":"full-information","relevant_dimensions":["antennae","wings"],"bee_group":{"antennae":"A","wings":"2","pattern":"X","legs":"X"},"bonus":0.9200000000000005},{"rt":38712,"stimulus":"bees-with-color/bee-B2SM.svg","response":1,"trial_type":"image-button-response","trial_index":37,"time_elapsed":847524,"internal_node_id":"0.0-4.0-0.15","subject_id":"6098f0de1d7539ec648240d0","study_id":"60edd13110225f80f9f3709b","session_id":"6196c7098de15ab67c57edec","condition":"full-information","relevant_dimensions":["antennae","wings"],"bee_group":{"antennae":"A","wings":"2","pattern":"X","legs":"X"},"action":"avoid","summary":"bad-avoid","bonus":0.9200000000000005},{"rt":4286,"stimulus":"\n                    <p><b>Action: <em>avoid</em></b></p>\n                    <p>This is the bee that you just saw.</p>\n                    <img src=\"bees-with-color/bee-B2SM.svg\" width=\"200\">\n                    <p><span class=\"redText\">Bad choice,</span> the bee was friendly.<br>Your bonus pay is unchanged, and remains at $0.54.</p>\n            ","response":0,"trial_type":"html-button-response","trial_index":38,"time_elapsed":851811,"internal_node_id":"0.0-4.0-1.15","subject_id":"6098f0de1d7539ec648240d0","study_id":"60edd13110225f80f9f3709b","session_id":"6196c7098de15ab67c57edec","condition":"full-information","relevant_dimensions":["antennae","wings"],"bee_group":{"antennae":"A","wings":"2","pattern":"X","legs":"X"},"bonus":0.9200000000000005},{"rt":27524,"stimulus":"bees-with-color/bee-A2DF.svg","response":1,"trial_type":"image-button-response","trial_index":39,"time_elapsed":879337,"internal_node_id":"0.0-4.0-0.16","subject_id":"6098f0de1d7539ec648240d0","study_id":"60edd13110225f80f9f3709b","session_id":"6196c7098de15ab67c57edec","condition":"full-information","relevant_dimensions":["antennae","wings"],"bee_group":{"antennae":"A","wings":"2","pattern":"X","legs":"X"},"action":"avoid","summary":"good-avoid","bonus":0.9200000000000005},{"rt":1782,"stimulus":"\n                    <p><b>Action: <em>avoid</em></b></p>\n                    <p>This is the bee that you just saw.</p>\n                    <img src=\"bees-with-color/bee-A2DF.svg\" width=\"200\">\n                    <p><span class=\"greenText\">Good choice!</span>  This bee would have stung you.<br>Your bonus pay is unchanged, and remains at $0.54.</p>\n            ","response":0,"trial_type":"html-button-response","trial_index":40,"time_elapsed":881122,"internal_node_id":"0.0-4.0-1.16","subject_id":"6098f0de1d7539ec648240d0","study_id":"60edd13110225f80f9f3709b","session_id":"6196c7098de15ab67c57edec","condition":"full-information","relevant_dimensions":["antennae","wings"],"bee_group":{"antennae":"A","wings":"2","pattern":"X","legs":"X"},"bonus":0.9200000000000005},{"rt":10660,"stimulus":"bees-with-color/bee-B2DM.svg","response":0,"trial_type":"image-button-response","trial_index":41,"time_elapsed":891789,"internal_node_id":"0.0-4.0-0.17","subject_id":"6098f0de1d7539ec648240d0","study_id":"60edd13110225f80f9f3709b","session_id":"6196c7098de15ab67c57edec","condition":"full-information","relevant_dimensions":["antennae","wings"],"bee_group":{"antennae":"A","wings":"2","pattern":"X","legs":"X"},"action":"harvest","summary":"good-harvest","bonus":0.9200000000000005},{"rt":1318,"stimulus":"\n                    <p><b>Action: <em>harvest</em></b></p>\n                    <p>This is the bee that you just saw.</p>\n                    <img src=\"bees-with-color/bee-B2DM.svg\" width=\"200\">\n                    <p><span class=\"greenText\"><b>Successful harvest!</b></span><br>Your pay has increased by $0.02. Your bonus pay is now $0.56.</p>\n            ","response":0,"trial_type":"html-button-response","trial_index":42,"time_elapsed":893109,"internal_node_id":"0.0-4.0-1.17","subject_id":"6098f0de1d7539ec648240d0","study_id":"60edd13110225f80f9f3709b","session_id":"6196c7098de15ab67c57edec","condition":"full-information","relevant_dimensions":["antennae","wings"],"bee_group":{"antennae":"A","wings":"2","pattern":"X","legs":"X"},"bonus":0.9200000000000005},{"rt":30226,"stimulus":"bees-with-color/bee-A2SF.svg","response":1,"trial_type":"image-button-response","trial_index":43,"time_elapsed":923340,"internal_node_id":"0.0-4.0-0.18","subject_id":"6098f0de1d7539ec648240d0","study_id":"60edd13110225f80f9f3709b","session_id":"6196c7098de15ab67c57edec","condition":"full-information","relevant_dimensions":["antennae","wings"],"bee_group":{"antennae":"A","wings":"2","pattern":"X","legs":"X"},"action":"avoid","summary":"good-avoid","bonus":0.9200000000000005},{"rt":1026,"stimulus":"\n                    <p><b>Action: <em>avoid</em></b></p>\n                    <p>This is the bee that you just saw.</p>\n                    <img src=\"bees-with-color/bee-A2SF.svg\" width=\"200\">\n                    <p><span class=\"greenText\">Good choice!</span>  This bee would have stung you.<br>Your bonus pay is unchanged, and remains at $0.56.</p>\n            ","response":0,"trial_type":"html-button-response","trial_index":44,"time_elapsed":924370,"internal_node_id":"0.0-4.0-1.18","subject_id":"6098f0de1d7539ec648240d0","study_id":"60edd13110225f80f9f3709b","session_id":"6196c7098de15ab67c57edec","condition":"full-information","relevant_dimensions":["antennae","wings"],"bee_group":{"antennae":"A","wings":"2","pattern":"X","legs":"X"},"bonus":0.9200000000000005},{"rt":23896,"stimulus":"bees-with-color/bee-B2SM.svg","response":0,"trial_type":"image-button-response","trial_index":45,"time_elapsed":948268,"internal_node_id":"0.0-4.0-0.19","subject_id":"6098f0de1d7539ec648240d0","study_id":"60edd13110225f80f9f3709b","session_id":"6196c7098de15ab67c57edec","condition":"full-information","relevant_dimensions":["antennae","wings"],"bee_group":{"antennae":"A","wings":"2","pattern":"X","legs":"X"},"action":"harvest","summary":"good-harvest","bonus":0.9200000000000005},{"rt":1948,"stimulus":"\n                    <p><b>Action: <em>harvest</em></b></p>\n                    <p>This is the bee that you just saw.</p>\n                    <img src=\"bees-with-color/bee-B2SM.svg\" width=\"200\">\n                    <p><span class=\"greenText\"><b>Successful harvest!</b></span><br>Your pay has increased by $0.02. Your bonus pay is now $0.58.</p>\n            ","response":0,"trial_type":"html-button-response","trial_index":46,"time_elapsed":950217,"internal_node_id":"0.0-4.0-1.19","subject_id":"6098f0de1d7539ec648240d0","study_id":"60edd13110225f80f9f3709b","session_id":"6196c7098de15ab67c57edec","condition":"full-information","relevant_dimensions":["antennae","wings"],"bee_group":{"antennae":"A","wings":"2","pattern":"X","legs":"X"},"bonus":0.9200000000000005},{"rt":11407,"stimulus":"bees-with-color/bee-B1DM.svg","response":0,"trial_type":"image-button-response","trial_index":47,"time_elapsed":961627,"internal_node_id":"0.0-4.0-0.20","subject_id":"6098f0de1d7539ec648240d0","study_id":"60edd13110225f80f9f3709b","session_id":"6196c7098de15ab67c57edec","condition":"full-information","relevant_dimensions":["antennae","wings"],"bee_group":{"antennae":"A","wings":"2","pattern":"X","legs":"X"},"action":"harvest","summary":"good-harvest","bonus":0.9200000000000005},{"rt":977,"stimulus":"\n                    <p><b>Action: <em>harvest</em></b></p>\n                    <p>This is the bee that you just saw.</p>\n                    <img src=\"bees-with-color/bee-B1DM.svg\" width=\"200\">\n                    <p><span class=\"greenText\"><b>Successful harvest!</b></span><br>Your pay has increased by $0.02. Your bonus pay is now $0.60.</p>\n            ","response":0,"trial_type":"html-button-response","trial_index":48,"time_elapsed":962607,"internal_node_id":"0.0-4.0-1.20","subject_id":"6098f0de1d7539ec648240d0","study_id":"60edd13110225f80f9f3709b","session_id":"6196c7098de15ab67c57edec","condition":"full-information","relevant_dimensions":["antennae","wings"],"bee_group":{"antennae":"A","wings":"2","pattern":"X","legs":"X"},"bonus":0.9200000000000005},{"rt":13918,"stimulus":"bees-with-color/bee-B1SM.svg","response":0,"trial_type":"image-button-response","trial_index":49,"time_elapsed":976527,"internal_node_id":"0.0-4.0-0.21","subject_id":"6098f0de1d7539ec648240d0","study_id":"60edd13110225f80f9f3709b","session_id":"6196c7098de15ab67c57edec","condition":"full-information","relevant_dimensions":["antennae","wings"],"bee_group":{"antennae":"A","wings":"2","pattern":"X","legs":"X"},"action":"harvest","summary":"good-harvest","bonus":0.9200000000000005},{"rt":1181,"stimulus":"\n                    <p><b>Action: <em>harvest</em></b></p>\n                    <p>This is the bee that you just saw.</p>\n                    <img src=\"bees-with-color/bee-B1SM.svg\" width=\"200\">\n                    <p><span class=\"greenText\"><b>Successful harvest!</b></span><br>Your pay has increased by $0.02. Your bonus pay is now $0.62.</p>\n            ","response":0,"trial_type":"html-button-response","trial_index":50,"time_elapsed":977712,"internal_node_id":"0.0-4.0-1.21","subject_id":"6098f0de1d7539ec648240d0","study_id":"60edd13110225f80f9f3709b","session_id":"6196c7098de15ab67c57edec","condition":"full-information","relevant_dimensions":["antennae","wings"],"bee_group":{"antennae":"A","wings":"2","pattern":"X","legs":"X"},"bonus":0.9200000000000005},{"rt":9814,"stimulus":"bees-with-color/bee-B2SF.svg","response":0,"trial_type":"image-button-response","trial_index":51,"time_elapsed":987529,"internal_node_id":"0.0-4.0-0.22","subject_id":"6098f0de1d7539ec648240d0","study_id":"60edd13110225f80f9f3709b","session_id":"6196c7098de15ab67c57edec","condition":"full-information","relevant_dimensions":["antennae","wings"],"bee_group":{"antennae":"A","wings":"2","pattern":"X","legs":"X"},"action":"harvest","summary":"good-harvest","bonus":0.9200000000000005},{"rt":1091,"stimulus":"\n                    <p><b>Action: <em>harvest</em></b></p>\n                    <p>This is the bee that you just saw.</p>\n                    <img src=\"bees-with-color/bee-B2SF.svg\" width=\"200\">\n                    <p><span class=\"greenText\"><b>Successful harvest!</b></span><br>Your pay has increased by $0.02. Your bonus pay is now $0.64.</p>\n            ","response":0,"trial_type":"html-button-response","trial_index":52,"time_elapsed":988623,"internal_node_id":"0.0-4.0-1.22","subject_id":"6098f0de1d7539ec648240d0","study_id":"60edd13110225f80f9f3709b","session_id":"6196c7098de15ab67c57edec","condition":"full-information","relevant_dimensions":["antennae","wings"],"bee_group":{"antennae":"A","wings":"2","pattern":"X","legs":"X"},"bonus":0.9200000000000005},{"rt":8118,"stimulus":"bees-with-color/bee-A1DF.svg","response":0,"trial_type":"image-button-response","trial_index":53,"time_elapsed":996745,"internal_node_id":"0.0-4.0-0.23","subject_id":"6098f0de1d7539ec648240d0","study_id":"60edd13110225f80f9f3709b","session_id":"6196c7098de15ab67c57edec","condition":"full-information","relevant_dimensions":["antennae","wings"],"bee_group":{"antennae":"A","wings":"2","pattern":"X","legs":"X"},"action":"harvest","summary":"good-harvest","bonus":0.9200000000000005},{"rt":737,"stimulus":"\n                    <p><b>Action: <em>harvest</em></b></p>\n                    <p>This is the bee that you just saw.</p>\n                    <img src=\"bees-with-color/bee-A1DF.svg\" width=\"200\">\n                    <p><span class=\"greenText\"><b>Successful harvest!</b></span><br>Your pay has increased by $0.02. Your bonus pay is now $0.66.</p>\n            ","response":0,"trial_type":"html-button-response","trial_index":54,"time_elapsed":997483,"internal_node_id":"0.0-4.0-1.23","subject_id":"6098f0de1d7539ec648240d0","study_id":"60edd13110225f80f9f3709b","session_id":"6196c7098de15ab67c57edec","condition":"full-information","relevant_dimensions":["antennae","wings"],"bee_group":{"antennae":"A","wings":"2","pattern":"X","legs":"X"},"bonus":0.9200000000000005},{"rt":10516,"stimulus":"bees-with-color/bee-A1SM.svg","response":0,"trial_type":"image-button-response","trial_index":55,"time_elapsed":1008001,"internal_node_id":"0.0-4.0-0.24","subject_id":"6098f0de1d7539ec648240d0","study_id":"60edd13110225f80f9f3709b","session_id":"6196c7098de15ab67c57edec","condition":"full-information","relevant_dimensions":["antennae","wings"],"bee_group":{"antennae":"A","wings":"2","pattern":"X","legs":"X"},"action":"harvest","summary":"good-harvest","bonus":0.9200000000000005},{"rt":786,"stimulus":"\n                    <p><b>Action: <em>harvest</em></b></p>\n                    <p>This is the bee that you just saw.</p>\n                    <img src=\"bees-with-color/bee-A1SM.svg\" width=\"200\">\n                    <p><span class=\"greenText\"><b>Successful harvest!</b></span><br>Your pay has increased by $0.02. Your bonus pay is now $0.68.</p>\n            ","response":0,"trial_type":"html-button-response","trial_index":56,"time_elapsed":1008790,"internal_node_id":"0.0-4.0-1.24","subject_id":"6098f0de1d7539ec648240d0","study_id":"60edd13110225f80f9f3709b","session_id":"6196c7098de15ab67c57edec","condition":"full-information","relevant_dimensions":["antennae","wings"],"bee_group":{"antennae":"A","wings":"2","pattern":"X","legs":"X"},"bonus":0.9200000000000005},{"rt":13531,"stimulus":"bees-with-color/bee-A1SF.svg","response":0,"trial_type":"image-button-response","trial_index":57,"time_elapsed":1022323,"internal_node_id":"0.0-4.0-0.25","subject_id":"6098f0de1d7539ec648240d0","study_id":"60edd13110225f80f9f3709b","session_id":"6196c7098de15ab67c57edec","condition":"full-information","relevant_dimensions":["antennae","wings"],"bee_group":{"antennae":"A","wings":"2","pattern":"X","legs":"X"},"action":"harvest","summary":"good-harvest","bonus":0.9200000000000005},{"rt":1918,"stimulus":"\n                    <p><b>Action: <em>harvest</em></b></p>\n                    <p>This is the bee that you just saw.</p>\n                    <img src=\"bees-with-color/bee-A1SF.svg\" width=\"200\">\n                    <p><span class=\"greenText\"><b>Successful harvest!</b></span><br>Your pay has increased by $0.02. Your bonus pay is now $0.70.</p>\n            ","response":0,"trial_type":"html-button-response","trial_index":58,"time_elapsed":1024245,"internal_node_id":"0.0-4.0-1.25","subject_id":"6098f0de1d7539ec648240d0","study_id":"60edd13110225f80f9f3709b","session_id":"6196c7098de15ab67c57edec","condition":"full-information","relevant_dimensions":["antennae","wings"],"bee_group":{"antennae":"A","wings":"2","pattern":"X","legs":"X"},"bonus":0.9200000000000005},{"rt":26069,"stimulus":"bees-with-color/bee-A2DM.svg","response":1,"trial_type":"image-button-response","trial_index":59,"time_elapsed":1050316,"internal_node_id":"0.0-4.0-0.26","subject_id":"6098f0de1d7539ec648240d0","study_id":"60edd13110225f80f9f3709b","session_id":"6196c7098de15ab67c57edec","condition":"full-information","relevant_dimensions":["antennae","wings"],"bee_group":{"antennae":"A","wings":"2","pattern":"X","legs":"X"},"action":"avoid","summary":"good-avoid","bonus":0.9200000000000005},{"rt":2171,"stimulus":"\n                    <p><b>Action: <em>avoid</em></b></p>\n                    <p>This is the bee that you just saw.</p>\n                    <img src=\"bees-with-color/bee-A2DM.svg\" width=\"200\">\n                    <p><span class=\"greenText\">Good choice!</span>  This bee would have stung you.<br>Your bonus pay is unchanged, and remains at $0.70.</p>\n            ","response":0,"trial_type":"html-button-response","trial_index":60,"time_elapsed":1052490,"internal_node_id":"0.0-4.0-1.26","subject_id":"6098f0de1d7539ec648240d0","study_id":"60edd13110225f80f9f3709b","session_id":"6196c7098de15ab67c57edec","condition":"full-information","relevant_dimensions":["antennae","wings"],"bee_group":{"antennae":"A","wings":"2","pattern":"X","legs":"X"},"bonus":0.9200000000000005},{"rt":16251,"stimulus":"bees-with-color/bee-B1SF.svg","response":0,"trial_type":"image-button-response","trial_index":61,"time_elapsed":1068743,"internal_node_id":"0.0-4.0-0.27","subject_id":"6098f0de1d7539ec648240d0","study_id":"60edd13110225f80f9f3709b","session_id":"6196c7098de15ab67c57edec","condition":"full-information","relevant_dimensions":["antennae","wings"],"bee_group":{"antennae":"A","wings":"2","pattern":"X","legs":"X"},"action":"harvest","summary":"good-harvest","bonus":0.9200000000000005},{"rt":844,"stimulus":"\n                    <p><b>Action: <em>harvest</em></b></p>\n                    <p>This is the bee that you just saw.</p>\n                    <img src=\"bees-with-color/bee-B1SF.svg\" width=\"200\">\n                    <p><span class=\"greenText\"><b>Successful harvest!</b></span><br>Your pay has increased by $0.02. Your bonus pay is now $0.72.</p>\n            ","response":0,"trial_type":"html-button-response","trial_index":62,"time_elapsed":1069591,"internal_node_id":"0.0-4.0-1.27","subject_id":"6098f0de1d7539ec648240d0","study_id":"60edd13110225f80f9f3709b","session_id":"6196c7098de15ab67c57edec","condition":"full-information","relevant_dimensions":["antennae","wings"],"bee_group":{"antennae":"A","wings":"2","pattern":"X","legs":"X"},"bonus":0.9200000000000005},{"rt":12211,"stimulus":"bees-with-color/bee-B2DF.svg","response":0,"trial_type":"image-button-response","trial_index":63,"time_elapsed":1081804,"internal_node_id":"0.0-4.0-0.28","subject_id":"6098f0de1d7539ec648240d0","study_id":"60edd13110225f80f9f3709b","session_id":"6196c7098de15ab67c57edec","condition":"full-information","relevant_dimensions":["antennae","wings"],"bee_group":{"antennae":"A","wings":"2","pattern":"X","legs":"X"},"action":"harvest","summary":"good-harvest","bonus":0.9200000000000005},{"rt":981,"stimulus":"\n                    <p><b>Action: <em>harvest</em></b></p>\n                    <p>This is the bee that you just saw.</p>\n                    <img src=\"bees-with-color/bee-B2DF.svg\" width=\"200\">\n                    <p><span class=\"greenText\"><b>Successful harvest!</b></span><br>Your pay has increased by $0.02. Your bonus pay is now $0.74.</p>\n            ","response":0,"trial_type":"html-button-response","trial_index":64,"time_elapsed":1082787,"internal_node_id":"0.0-4.0-1.28","subject_id":"6098f0de1d7539ec648240d0","study_id":"60edd13110225f80f9f3709b","session_id":"6196c7098de15ab67c57edec","condition":"full-information","relevant_dimensions":["antennae","wings"],"bee_group":{"antennae":"A","wings":"2","pattern":"X","legs":"X"},"bonus":0.9200000000000005},{"rt":13537,"stimulus":"bees-with-color/bee-A1DM.svg","response":0,"trial_type":"image-button-response","trial_index":65,"time_elapsed":1096325,"internal_node_id":"0.0-4.0-0.29","subject_id":"6098f0de1d7539ec648240d0","study_id":"60edd13110225f80f9f3709b","session_id":"6196c7098de15ab67c57edec","condition":"full-information","relevant_dimensions":["antennae","wings"],"bee_group":{"antennae":"A","wings":"2","pattern":"X","legs":"X"},"action":"harvest","summary":"good-harvest","bonus":0.9200000000000005},{"rt":1169,"stimulus":"\n                    <p><b>Action: <em>harvest</em></b></p>\n                    <p>This is the bee that you just saw.</p>\n                    <img src=\"bees-with-color/bee-A1DM.svg\" width=\"200\">\n                    <p><span class=\"greenText\"><b>Successful harvest!</b></span><br>Your pay has increased by $0.02. Your bonus pay is now $0.76.</p>\n            ","response":0,"trial_type":"html-button-response","trial_index":66,"time_elapsed":1097497,"internal_node_id":"0.0-4.0-1.29","subject_id":"6098f0de1d7539ec648240d0","study_id":"60edd13110225f80f9f3709b","session_id":"6196c7098de15ab67c57edec","condition":"full-information","relevant_dimensions":["antennae","wings"],"bee_group":{"antennae":"A","wings":"2","pattern":"X","legs":"X"},"bonus":0.9200000000000005},{"rt":17337,"stimulus":"bees-with-color/bee-B1DF.svg","response":0,"trial_type":"image-button-response","trial_index":67,"time_elapsed":1114836,"internal_node_id":"0.0-4.0-0.30","subject_id":"6098f0de1d7539ec648240d0","study_id":"60edd13110225f80f9f3709b","session_id":"6196c7098de15ab67c57edec","condition":"full-information","relevant_dimensions":["antennae","wings"],"bee_group":{"antennae":"A","wings":"2","pattern":"X","legs":"X"},"action":"harvest","summary":"good-harvest","bonus":0.9200000000000005},{"rt":2071,"stimulus":"\n                    <p><b>Action: <em>harvest</em></b></p>\n                    <p>This is the bee that you just saw.</p>\n                    <img src=\"bees-with-color/bee-B1DF.svg\" width=\"200\">\n                    <p><span class=\"greenText\"><b>Successful harvest!</b></span><br>Your pay has increased by $0.02. Your bonus pay is now $0.78.</p>\n            ","response":0,"trial_type":"html-button-response","trial_index":68,"time_elapsed":1116908,"internal_node_id":"0.0-4.0-1.30","subject_id":"6098f0de1d7539ec648240d0","study_id":"60edd13110225f80f9f3709b","session_id":"6196c7098de15ab67c57edec","condition":"full-information","relevant_dimensions":["antennae","wings"],"bee_group":{"antennae":"A","wings":"2","pattern":"X","legs":"X"},"bonus":0.9200000000000005},{"rt":10762,"stimulus":"bees-with-color/bee-A2SM.svg","response":1,"trial_type":"image-button-response","trial_index":69,"time_elapsed":1127672,"internal_node_id":"0.0-4.0-0.31","subject_id":"6098f0de1d7539ec648240d0","study_id":"60edd13110225f80f9f3709b","session_id":"6196c7098de15ab67c57edec","condition":"full-information","relevant_dimensions":["antennae","wings"],"bee_group":{"antennae":"A","wings":"2","pattern":"X","legs":"X"},"action":"avoid","summary":"good-avoid","bonus":0.9200000000000005},{"rt":1381,"stimulus":"\n                    <p><b>Action: <em>avoid</em></b></p>\n                    <p>This is the bee that you just saw.</p>\n                    <img src=\"bees-with-color/bee-A2SM.svg\" width=\"200\">\n                    <p><span class=\"greenText\">Good choice!</span>  This bee would have stung you.<br>Your bonus pay is unchanged, and remains at $0.78.</p>\n            ","response":0,"trial_type":"html-button-response","trial_index":70,"time_elapsed":1129056,"internal_node_id":"0.0-4.0-1.31","subject_id":"6098f0de1d7539ec648240d0","study_id":"60edd13110225f80f9f3709b","session_id":"6196c7098de15ab67c57edec","condition":"full-information","relevant_dimensions":["antennae","wings"],"bee_group":{"antennae":"A","wings":"2","pattern":"X","legs":"X"},"bonus":0.9200000000000005},{"rt":10404,"stimulus":"bees-with-color/bee-B2DF.svg","response":0,"trial_type":"image-button-response","trial_index":71,"time_elapsed":1139462,"internal_node_id":"0.0-4.0-0.32","subject_id":"6098f0de1d7539ec648240d0","study_id":"60edd13110225f80f9f3709b","session_id":"6196c7098de15ab67c57edec","condition":"full-information","relevant_dimensions":["antennae","wings"],"bee_group":{"antennae":"A","wings":"2","pattern":"X","legs":"X"},"action":"harvest","summary":"good-harvest","bonus":0.9200000000000005},{"rt":697,"stimulus":"\n                    <p><b>Action: <em>harvest</em></b></p>\n                    <p>This is the bee that you just saw.</p>\n                    <img src=\"bees-with-color/bee-B2DF.svg\" width=\"200\">\n                    <p><span class=\"greenText\"><b>Successful harvest!</b></span><br>Your pay has increased by $0.02. Your bonus pay is now $0.80.</p>\n            ","response":0,"trial_type":"html-button-response","trial_index":72,"time_elapsed":1140161,"internal_node_id":"0.0-4.0-1.32","subject_id":"6098f0de1d7539ec648240d0","study_id":"60edd13110225f80f9f3709b","session_id":"6196c7098de15ab67c57edec","condition":"full-information","relevant_dimensions":["antennae","wings"],"bee_group":{"antennae":"A","wings":"2","pattern":"X","legs":"X"},"bonus":0.9200000000000005},{"rt":12022,"stimulus":"bees-with-color/bee-B1SF.svg","response":0,"trial_type":"image-button-response","trial_index":73,"time_elapsed":1152186,"internal_node_id":"0.0-4.0-0.33","subject_id":"6098f0de1d7539ec648240d0","study_id":"60edd13110225f80f9f3709b","session_id":"6196c7098de15ab67c57edec","condition":"full-information","relevant_dimensions":["antennae","wings"],"bee_group":{"antennae":"A","wings":"2","pattern":"X","legs":"X"},"action":"harvest","summary":"good-harvest","bonus":0.9200000000000005},{"rt":1523,"stimulus":"\n                    <p><b>Action: <em>harvest</em></b></p>\n                    <p>This is the bee that you just saw.</p>\n                    <img src=\"bees-with-color/bee-B1SF.svg\" width=\"200\">\n                    <p><span class=\"greenText\"><b>Successful harvest!</b></span><br>Your pay has increased by $0.02. Your bonus pay is now $0.82.</p>\n            ","response":0,"trial_type":"html-button-response","trial_index":74,"time_elapsed":1153709,"internal_node_id":"0.0-4.0-1.33","subject_id":"6098f0de1d7539ec648240d0","study_id":"60edd13110225f80f9f3709b","session_id":"6196c7098de15ab67c57edec","condition":"full-information","relevant_dimensions":["antennae","wings"],"bee_group":{"antennae":"A","wings":"2","pattern":"X","legs":"X"},"bonus":0.9200000000000005},{"rt":15814,"stimulus":"bees-with-color/bee-A2SM.svg","response":1,"trial_type":"image-button-response","trial_index":75,"time_elapsed":1169525,"internal_node_id":"0.0-4.0-0.34","subject_id":"6098f0de1d7539ec648240d0","study_id":"60edd13110225f80f9f3709b","session_id":"6196c7098de15ab67c57edec","condition":"full-information","relevant_dimensions":["antennae","wings"],"bee_group":{"antennae":"A","wings":"2","pattern":"X","legs":"X"},"action":"avoid","summary":"good-avoid","bonus":0.9200000000000005},{"rt":1283,"stimulus":"\n                    <p><b>Action: <em>avoid</em></b></p>\n                    <p>This is the bee that you just saw.</p>\n                    <img src=\"bees-with-color/bee-A2SM.svg\" width=\"200\">\n                    <p><span class=\"greenText\">Good choice!</span>  This bee would have stung you.<br>Your bonus pay is unchanged, and remains at $0.82.</p>\n            ","response":0,"trial_type":"html-button-response","trial_index":76,"time_elapsed":1170810,"internal_node_id":"0.0-4.0-1.34","subject_id":"6098f0de1d7539ec648240d0","study_id":"60edd13110225f80f9f3709b","session_id":"6196c7098de15ab67c57edec","condition":"full-information","relevant_dimensions":["antennae","wings"],"bee_group":{"antennae":"A","wings":"2","pattern":"X","legs":"X"},"bonus":0.9200000000000005},{"rt":11647,"stimulus":"bees-with-color/bee-A1DM.svg","response":0,"trial_type":"image-button-response","trial_index":77,"time_elapsed":1182457,"internal_node_id":"0.0-4.0-0.35","subject_id":"6098f0de1d7539ec648240d0","study_id":"60edd13110225f80f9f3709b","session_id":"6196c7098de15ab67c57edec","condition":"full-information","relevant_dimensions":["antennae","wings"],"bee_group":{"antennae":"A","wings":"2","pattern":"X","legs":"X"},"action":"harvest","summary":"good-harvest","bonus":0.9200000000000005},{"rt":795,"stimulus":"\n                    <p><b>Action: <em>harvest</em></b></p>\n                    <p>This is the bee that you just saw.</p>\n                    <img src=\"bees-with-color/bee-A1DM.svg\" width=\"200\">\n                    <p><span class=\"greenText\"><b>Successful harvest!</b></span><br>Your pay has increased by $0.02. Your bonus pay is now $0.84.</p>\n            ","response":0,"trial_type":"html-button-response","trial_index":78,"time_elapsed":1183255,"internal_node_id":"0.0-4.0-1.35","subject_id":"6098f0de1d7539ec648240d0","study_id":"60edd13110225f80f9f3709b","session_id":"6196c7098de15ab67c57edec","condition":"full-information","relevant_dimensions":["antennae","wings"],"bee_group":{"antennae":"A","wings":"2","pattern":"X","legs":"X"},"bonus":0.9200000000000005},{"rt":14380,"stimulus":"bees-with-color/bee-B2SM.svg","response":0,"trial_type":"image-button-response","trial_index":79,"time_elapsed":1197638,"internal_node_id":"0.0-4.0-0.36","subject_id":"6098f0de1d7539ec648240d0","study_id":"60edd13110225f80f9f3709b","session_id":"6196c7098de15ab67c57edec","condition":"full-information","relevant_dimensions":["antennae","wings"],"bee_group":{"antennae":"A","wings":"2","pattern":"X","legs":"X"},"action":"harvest","summary":"good-harvest","bonus":0.9200000000000005},{"rt":17924,"stimulus":"\n                    <p><b>Action: <em>harvest</em></b></p>\n                    <p>This is the bee that you just saw.</p>\n                    <img src=\"bees-with-color/bee-B2SM.svg\" width=\"200\">\n                    <p><span class=\"greenText\"><b>Successful harvest!</b></span><br>Your pay has increased by $0.02. Your bonus pay is now $0.86.</p>\n            ","response":0,"trial_type":"html-button-response","trial_index":80,"time_elapsed":1215563,"internal_node_id":"0.0-4.0-1.36","subject_id":"6098f0de1d7539ec648240d0","study_id":"60edd13110225f80f9f3709b","session_id":"6196c7098de15ab67c57edec","condition":"full-information","relevant_dimensions":["antennae","wings"],"bee_group":{"antennae":"A","wings":"2","pattern":"X","legs":"X"},"bonus":0.9200000000000005},{"rt":23769,"stimulus":"bees-with-color/bee-A2DM.svg","response":1,"trial_type":"image-button-response","trial_index":81,"time_elapsed":1239335,"internal_node_id":"0.0-4.0-0.37","subject_id":"6098f0de1d7539ec648240d0","study_id":"60edd13110225f80f9f3709b","session_id":"6196c7098de15ab67c57edec","condition":"full-information","relevant_dimensions":["antennae","wings"],"bee_group":{"antennae":"A","wings":"2","pattern":"X","legs":"X"},"action":"avoid","summary":"good-avoid","bonus":0.9200000000000005},{"rt":1238,"stimulus":"\n                    <p><b>Action: <em>avoid</em></b></p>\n                    <p>This is the bee that you just saw.</p>\n                    <img src=\"bees-with-color/bee-A2DM.svg\" width=\"200\">\n                    <p><span class=\"greenText\">Good choice!</span>  This bee would have stung you.<br>Your bonus pay is unchanged, and remains at $0.86.</p>\n            ","response":0,"trial_type":"html-button-response","trial_index":82,"time_elapsed":1240575,"internal_node_id":"0.0-4.0-1.37","subject_id":"6098f0de1d7539ec648240d0","study_id":"60edd13110225f80f9f3709b","session_id":"6196c7098de15ab67c57edec","condition":"full-information","relevant_dimensions":["antennae","wings"],"bee_group":{"antennae":"A","wings":"2","pattern":"X","legs":"X"},"bonus":0.9200000000000005},{"rt":5535,"stimulus":"bees-with-color/bee-B1DF.svg","response":0,"trial_type":"image-button-response","trial_index":83,"time_elapsed":1246113,"internal_node_id":"0.0-4.0-0.38","subject_id":"6098f0de1d7539ec648240d0","study_id":"60edd13110225f80f9f3709b","session_id":"6196c7098de15ab67c57edec","condition":"full-information","relevant_dimensions":["antennae","wings"],"bee_group":{"antennae":"A","wings":"2","pattern":"X","legs":"X"},"action":"harvest","summary":"good-harvest","bonus":0.9200000000000005},{"rt":701,"stimulus":"\n                    <p><b>Action: <em>harvest</em></b></p>\n                    <p>This is the bee that you just saw.</p>\n                    <img src=\"bees-with-color/bee-B1DF.svg\" width=\"200\">\n                    <p><span class=\"greenText\"><b>Successful harvest!</b></span><br>Your pay has increased by $0.02. Your bonus pay is now $0.88.</p>\n            ","response":0,"trial_type":"html-button-response","trial_index":84,"time_elapsed":1246817,"internal_node_id":"0.0-4.0-1.38","subject_id":"6098f0de1d7539ec648240d0","study_id":"60edd13110225f80f9f3709b","session_id":"6196c7098de15ab67c57edec","condition":"full-information","relevant_dimensions":["antennae","wings"],"bee_group":{"antennae":"A","wings":"2","pattern":"X","legs":"X"},"bonus":0.9200000000000005},{"rt":11170,"stimulus":"bees-with-color/bee-B1SM.svg","response":0,"trial_type":"image-button-response","trial_index":85,"time_elapsed":1257989,"internal_node_id":"0.0-4.0-0.39","subject_id":"6098f0de1d7539ec648240d0","study_id":"60edd13110225f80f9f3709b","session_id":"6196c7098de15ab67c57edec","condition":"full-information","relevant_dimensions":["antennae","wings"],"bee_group":{"antennae":"A","wings":"2","pattern":"X","legs":"X"},"action":"harvest","summary":"good-harvest","bonus":0.9200000000000005},{"rt":1050,"stimulus":"\n                    <p><b>Action: <em>harvest</em></b></p>\n                    <p>This is the bee that you just saw.</p>\n                    <img src=\"bees-with-color/bee-B1SM.svg\" width=\"200\">\n                    <p><span class=\"greenText\"><b>Successful harvest!</b></span><br>Your pay has increased by $0.02. Your bonus pay is now $0.90.</p>\n            ","response":0,"trial_type":"html-button-response","trial_index":86,"time_elapsed":1259043,"internal_node_id":"0.0-4.0-1.39","subject_id":"6098f0de1d7539ec648240d0","study_id":"60edd13110225f80f9f3709b","session_id":"6196c7098de15ab67c57edec","condition":"full-information","relevant_dimensions":["antennae","wings"],"bee_group":{"antennae":"A","wings":"2","pattern":"X","legs":"X"},"bonus":0.9200000000000005},{"rt":19096,"stimulus":"bees-with-color/bee-A1SM.svg","response":0,"trial_type":"image-button-response","trial_index":87,"time_elapsed":1278142,"internal_node_id":"0.0-4.0-0.40","subject_id":"6098f0de1d7539ec648240d0","study_id":"60edd13110225f80f9f3709b","session_id":"6196c7098de15ab67c57edec","condition":"full-information","relevant_dimensions":["antennae","wings"],"bee_group":{"antennae":"A","wings":"2","pattern":"X","legs":"X"},"action":"harvest","summary":"good-harvest","bonus":0.9200000000000005},{"rt":992,"stimulus":"\n                    <p><b>Action: <em>harvest</em></b></p>\n                    <p>This is the bee that you just saw.</p>\n                    <img src=\"bees-with-color/bee-A1SM.svg\" width=\"200\">\n                    <p><span class=\"greenText\"><b>Successful harvest!</b></span><br>Your pay has increased by $0.02. Your bonus pay is now $0.92.</p>\n            ","response":0,"trial_type":"html-button-response","trial_index":88,"time_elapsed":1279135,"internal_node_id":"0.0-4.0-1.40","subject_id":"6098f0de1d7539ec648240d0","study_id":"60edd13110225f80f9f3709b","session_id":"6196c7098de15ab67c57edec","condition":"full-information","relevant_dimensions":["antennae","wings"],"bee_group":{"antennae":"A","wings":"2","pattern":"X","legs":"X"},"bonus":0.9200000000000005},{"rt":11913,"stimulus":"bees-with-color/bee-B2SF.svg","response":0,"trial_type":"image-button-response","trial_index":89,"time_elapsed":1291049,"internal_node_id":"0.0-4.0-0.41","subject_id":"6098f0de1d7539ec648240d0","study_id":"60edd13110225f80f9f3709b","session_id":"6196c7098de15ab67c57edec","condition":"full-information","relevant_dimensions":["antennae","wings"],"bee_group":{"antennae":"A","wings":"2","pattern":"X","legs":"X"},"action":"harvest","summary":"good-harvest","bonus":0.9200000000000005},{"rt":1050,"stimulus":"\n                    <p><b>Action: <em>harvest</em></b></p>\n                    <p>This is the bee that you just saw.</p>\n                    <img src=\"bees-with-color/bee-B2SF.svg\" width=\"200\">\n                    <p><span class=\"greenText\"><b>Successful harvest!</b></span><br>Your pay has increased by $0.02. Your bonus pay is now $0.94.</p>\n            ","response":0,"trial_type":"html-button-response","trial_index":90,"time_elapsed":1292102,"internal_node_id":"0.0-4.0-1.41","subject_id":"6098f0de1d7539ec648240d0","study_id":"60edd13110225f80f9f3709b","session_id":"6196c7098de15ab67c57edec","condition":"full-information","relevant_dimensions":["antennae","wings"],"bee_group":{"antennae":"A","wings":"2","pattern":"X","legs":"X"},"bonus":0.9200000000000005},{"rt":3060,"stimulus":"bees-with-color/bee-B1DM.svg","response":0,"trial_type":"image-button-response","trial_index":91,"time_elapsed":1295164,"internal_node_id":"0.0-4.0-0.42","subject_id":"6098f0de1d7539ec648240d0","study_id":"60edd13110225f80f9f3709b","session_id":"6196c7098de15ab67c57edec","condition":"full-information","relevant_dimensions":["antennae","wings"],"bee_group":{"antennae":"A","wings":"2","pattern":"X","legs":"X"},"action":"harvest","summary":"good-harvest","bonus":0.9200000000000005},{"rt":812,"stimulus":"\n                    <p><b>Action: <em>harvest</em></b></p>\n                    <p>This is the bee that you just saw.</p>\n                    <img src=\"bees-with-color/bee-B1DM.svg\" width=\"200\">\n                    <p><span class=\"greenText\"><b>Successful harvest!</b></span><br>Your pay has increased by $0.02. Your bonus pay is now $0.96.</p>\n            ","response":0,"trial_type":"html-button-response","trial_index":92,"time_elapsed":1295979,"internal_node_id":"0.0-4.0-1.42","subject_id":"6098f0de1d7539ec648240d0","study_id":"60edd13110225f80f9f3709b","session_id":"6196c7098de15ab67c57edec","condition":"full-information","relevant_dimensions":["antennae","wings"],"bee_group":{"antennae":"A","wings":"2","pattern":"X","legs":"X"},"bonus":0.9200000000000005},{"rt":5381,"stimulus":"bees-with-color/bee-A1SF.svg","response":0,"trial_type":"image-button-response","trial_index":93,"time_elapsed":1301362,"internal_node_id":"0.0-4.0-0.43","subject_id":"6098f0de1d7539ec648240d0","study_id":"60edd13110225f80f9f3709b","session_id":"6196c7098de15ab67c57edec","condition":"full-information","relevant_dimensions":["antennae","wings"],"bee_group":{"antennae":"A","wings":"2","pattern":"X","legs":"X"},"action":"harvest","summary":"good-harvest","bonus":0.9200000000000005},{"rt":765,"stimulus":"\n                    <p><b>Action: <em>harvest</em></b></p>\n                    <p>This is the bee that you just saw.</p>\n                    <img src=\"bees-with-color/bee-A1SF.svg\" width=\"200\">\n                    <p><span class=\"greenText\"><b>Successful harvest!</b></span><br>Your pay has increased by $0.02. Your bonus pay is now $0.98.</p>\n            ","response":0,"trial_type":"html-button-response","trial_index":94,"time_elapsed":1302129,"internal_node_id":"0.0-4.0-1.43","subject_id":"6098f0de1d7539ec648240d0","study_id":"60edd13110225f80f9f3709b","session_id":"6196c7098de15ab67c57edec","condition":"full-information","relevant_dimensions":["antennae","wings"],"bee_group":{"antennae":"A","wings":"2","pattern":"X","legs":"X"},"bonus":0.9200000000000005},{"rt":1867,"stimulus":"bees-with-color/bee-A1DF.svg","response":0,"trial_type":"image-button-response","trial_index":95,"time_elapsed":1303998,"internal_node_id":"0.0-4.0-0.44","subject_id":"6098f0de1d7539ec648240d0","study_id":"60edd13110225f80f9f3709b","session_id":"6196c7098de15ab67c57edec","condition":"full-information","relevant_dimensions":["antennae","wings"],"bee_group":{"antennae":"A","wings":"2","pattern":"X","legs":"X"},"action":"harvest","summary":"good-harvest","bonus":0.9200000000000005},{"rt":759,"stimulus":"\n                    <p><b>Action: <em>harvest</em></b></p>\n                    <p>This is the bee that you just saw.</p>\n                    <img src=\"bees-with-color/bee-A1DF.svg\" width=\"200\">\n                    <p><span class=\"greenText\"><b>Successful harvest!</b></span><br>Your pay has increased by $0.02. Your bonus pay is now $1.00.</p>\n            ","response":0,"trial_type":"html-button-response","trial_index":96,"time_elapsed":1304761,"internal_node_id":"0.0-4.0-1.44","subject_id":"6098f0de1d7539ec648240d0","study_id":"60edd13110225f80f9f3709b","session_id":"6196c7098de15ab67c57edec","condition":"full-information","relevant_dimensions":["antennae","wings"],"bee_group":{"antennae":"A","wings":"2","pattern":"X","legs":"X"},"bonus":0.9200000000000005},{"rt":7044,"stimulus":"bees-with-color/bee-B2DM.svg","response":0,"trial_type":"image-button-response","trial_index":97,"time_elapsed":1311806,"internal_node_id":"0.0-4.0-0.45","subject_id":"6098f0de1d7539ec648240d0","study_id":"60edd13110225f80f9f3709b","session_id":"6196c7098de15ab67c57edec","condition":"full-information","relevant_dimensions":["antennae","wings"],"bee_group":{"antennae":"A","wings":"2","pattern":"X","legs":"X"},"action":"harvest","summary":"good-harvest","bonus":0.9200000000000005},{"rt":778,"stimulus":"\n                    <p><b>Action: <em>harvest</em></b></p>\n                    <p>This is the bee that you just saw.</p>\n                    <img src=\"bees-with-color/bee-B2DM.svg\" width=\"200\">\n                    <p><span class=\"greenText\"><b>Successful harvest!</b></span><br>Your pay has increased by $0.02. Your bonus pay is now $1.02.</p>\n            ","response":0,"trial_type":"html-button-response","trial_index":98,"time_elapsed":1312585,"internal_node_id":"0.0-4.0-1.45","subject_id":"6098f0de1d7539ec648240d0","study_id":"60edd13110225f80f9f3709b","session_id":"6196c7098de15ab67c57edec","condition":"full-information","relevant_dimensions":["antennae","wings"],"bee_group":{"antennae":"A","wings":"2","pattern":"X","legs":"X"},"bonus":0.9200000000000005},{"rt":6940,"stimulus":"bees-with-color/bee-A2SF.svg","response":1,"trial_type":"image-button-response","trial_index":99,"time_elapsed":1319527,"internal_node_id":"0.0-4.0-0.46","subject_id":"6098f0de1d7539ec648240d0","study_id":"60edd13110225f80f9f3709b","session_id":"6196c7098de15ab67c57edec","condition":"full-information","relevant_dimensions":["antennae","wings"],"bee_group":{"antennae":"A","wings":"2","pattern":"X","legs":"X"},"action":"avoid","summary":"good-avoid","bonus":0.9200000000000005},{"rt":842,"stimulus":"\n                    <p><b>Action: <em>avoid</em></b></p>\n                    <p>This is the bee that you just saw.</p>\n                    <img src=\"bees-with-color/bee-A2SF.svg\" width=\"200\">\n                    <p><span class=\"greenText\">Good choice!</span>  This bee would have stung you.<br>Your bonus pay is unchanged, and remains at $1.02.</p>\n            ","response":0,"trial_type":"html-button-response","trial_index":100,"time_elapsed":1320374,"internal_node_id":"0.0-4.0-1.46","subject_id":"6098f0de1d7539ec648240d0","study_id":"60edd13110225f80f9f3709b","session_id":"6196c7098de15ab67c57edec","condition":"full-information","relevant_dimensions":["antennae","wings"],"bee_group":{"antennae":"A","wings":"2","pattern":"X","legs":"X"},"bonus":0.9200000000000005},{"rt":4985,"stimulus":"bees-with-color/bee-A2DF.svg","response":1,"trial_type":"image-button-response","trial_index":101,"time_elapsed":1325367,"internal_node_id":"0.0-4.0-0.47","subject_id":"6098f0de1d7539ec648240d0","study_id":"60edd13110225f80f9f3709b","session_id":"6196c7098de15ab67c57edec","condition":"full-information","relevant_dimensions":["antennae","wings"],"bee_group":{"antennae":"A","wings":"2","pattern":"X","legs":"X"},"action":"avoid","summary":"good-avoid","bonus":0.9200000000000005},{"rt":783,"stimulus":"\n                    <p><b>Action: <em>avoid</em></b></p>\n                    <p>This is the bee that you just saw.</p>\n                    <img src=\"bees-with-color/bee-A2DF.svg\" width=\"200\">\n                    <p><span class=\"greenText\">Good choice!</span>  This bee would have stung you.<br>Your bonus pay is unchanged, and remains at $1.02.</p>\n            ","response":0,"trial_type":"html-button-response","trial_index":102,"time_elapsed":1326158,"internal_node_id":"0.0-4.0-1.47","subject_id":"6098f0de1d7539ec648240d0","study_id":"60edd13110225f80f9f3709b","session_id":"6196c7098de15ab67c57edec","condition":"full-information","relevant_dimensions":["antennae","wings"],"bee_group":{"antennae":"A","wings":"2","pattern":"X","legs":"X"},"bonus":0.9200000000000005},{"rt":14154,"stimulus":"bees-with-color/bee-B1DF.svg","response":0,"trial_type":"image-button-response","trial_index":103,"time_elapsed":1340318,"internal_node_id":"0.0-4.0-0.48","subject_id":"6098f0de1d7539ec648240d0","study_id":"60edd13110225f80f9f3709b","session_id":"6196c7098de15ab67c57edec","condition":"full-information","relevant_dimensions":["antennae","wings"],"bee_group":{"antennae":"A","wings":"2","pattern":"X","legs":"X"},"action":"harvest","summary":"good-harvest","bonus":0.9200000000000005},{"rt":688,"stimulus":"\n                    <p><b>Action: <em>harvest</em></b></p>\n                    <p>This is the bee that you just saw.</p>\n                    <img src=\"bees-with-color/bee-B1DF.svg\" width=\"200\">\n                    <p><span class=\"greenText\"><b>Successful harvest!</b></span><br>Your pay has increased by $0.02. Your bonus pay is now $1.04.</p>\n            ","response":0,"trial_type":"html-button-response","trial_index":104,"time_elapsed":1341007,"internal_node_id":"0.0-4.0-1.48","subject_id":"6098f0de1d7539ec648240d0","study_id":"60edd13110225f80f9f3709b","session_id":"6196c7098de15ab67c57edec","condition":"full-information","relevant_dimensions":["antennae","wings"],"bee_group":{"antennae":"A","wings":"2","pattern":"X","legs":"X"},"bonus":0.9200000000000005},{"rt":2499,"stimulus":"bees-with-color/bee-B1DM.svg","response":0,"trial_type":"image-button-response","trial_index":105,"time_elapsed":1343510,"internal_node_id":"0.0-4.0-0.49","subject_id":"6098f0de1d7539ec648240d0","study_id":"60edd13110225f80f9f3709b","session_id":"6196c7098de15ab67c57edec","condition":"full-information","relevant_dimensions":["antennae","wings"],"bee_group":{"antennae":"A","wings":"2","pattern":"X","legs":"X"},"action":"harvest","summary":"good-harvest","bonus":0.9200000000000005},{"rt":601,"stimulus":"\n                    <p><b>Action: <em>harvest</em></b></p>\n                    <p>This is the bee that you just saw.</p>\n                    <img src=\"bees-with-color/bee-B1DM.svg\" width=\"200\">\n                    <p><span class=\"greenText\"><b>Successful harvest!</b></span><br>Your pay has increased by $0.02. Your bonus pay is now $1.06.</p>\n            ","response":0,"trial_type":"html-button-response","trial_index":106,"time_elapsed":1344117,"internal_node_id":"0.0-4.0-1.49","subject_id":"6098f0de1d7539ec648240d0","study_id":"60edd13110225f80f9f3709b","session_id":"6196c7098de15ab67c57edec","condition":"full-information","relevant_dimensions":["antennae","wings"],"bee_group":{"antennae":"A","wings":"2","pattern":"X","legs":"X"},"bonus":0.9200000000000005},{"rt":5878,"stimulus":"bees-with-color/bee-A1SF.svg","response":0,"trial_type":"image-button-response","trial_index":107,"time_elapsed":1349997,"internal_node_id":"0.0-4.0-0.50","subject_id":"6098f0de1d7539ec648240d0","study_id":"60edd13110225f80f9f3709b","session_id":"6196c7098de15ab67c57edec","condition":"full-information","relevant_dimensions":["antennae","wings"],"bee_group":{"antennae":"A","wings":"2","pattern":"X","legs":"X"},"action":"harvest","summary":"good-harvest","bonus":0.9200000000000005},{"rt":653,"stimulus":"\n                    <p><b>Action: <em>harvest</em></b></p>\n                    <p>This is the bee that you just saw.</p>\n                    <img src=\"bees-with-color/bee-A1SF.svg\" width=\"200\">\n                    <p><span class=\"greenText\"><b>Successful harvest!</b></span><br>Your pay has increased by $0.02. Your bonus pay is now $1.08.</p>\n            ","response":0,"trial_type":"html-button-response","trial_index":108,"time_elapsed":1350652,"internal_node_id":"0.0-4.0-1.50","subject_id":"6098f0de1d7539ec648240d0","study_id":"60edd13110225f80f9f3709b","session_id":"6196c7098de15ab67c57edec","condition":"full-information","relevant_dimensions":["antennae","wings"],"bee_group":{"antennae":"A","wings":"2","pattern":"X","legs":"X"},"bonus":0.9200000000000005},{"rt":5515,"stimulus":"bees-with-color/bee-A2DM.svg","response":1,"trial_type":"image-button-response","trial_index":109,"time_elapsed":1356168,"internal_node_id":"0.0-4.0-0.51","subject_id":"6098f0de1d7539ec648240d0","study_id":"60edd13110225f80f9f3709b","session_id":"6196c7098de15ab67c57edec","condition":"full-information","relevant_dimensions":["antennae","wings"],"bee_group":{"antennae":"A","wings":"2","pattern":"X","legs":"X"},"action":"avoid","summary":"good-avoid","bonus":0.9200000000000005},{"rt":568,"stimulus":"\n                    <p><b>Action: <em>avoid</em></b></p>\n                    <p>This is the bee that you just saw.</p>\n                    <img src=\"bees-with-color/bee-A2DM.svg\" width=\"200\">\n                    <p><span class=\"greenText\">Good choice!</span>  This bee would have stung you.<br>Your bonus pay is unchanged, and remains at $1.08.</p>\n            ","response":0,"trial_type":"html-button-response","trial_index":110,"time_elapsed":1356737,"internal_node_id":"0.0-4.0-1.51","subject_id":"6098f0de1d7539ec648240d0","study_id":"60edd13110225f80f9f3709b","session_id":"6196c7098de15ab67c57edec","condition":"full-information","relevant_dimensions":["antennae","wings"],"bee_group":{"antennae":"A","wings":"2","pattern":"X","legs":"X"},"bonus":0.9200000000000005},{"rt":4942,"stimulus":"bees-with-color/bee-A1DF.svg","response":0,"trial_type":"image-button-response","trial_index":111,"time_elapsed":1361680,"internal_node_id":"0.0-4.0-0.52","subject_id":"6098f0de1d7539ec648240d0","study_id":"60edd13110225f80f9f3709b","session_id":"6196c7098de15ab67c57edec","condition":"full-information","relevant_dimensions":["antennae","wings"],"bee_group":{"antennae":"A","wings":"2","pattern":"X","legs":"X"},"action":"harvest","summary":"good-harvest","bonus":0.9200000000000005},{"rt":1165,"stimulus":"\n                    <p><b>Action: <em>harvest</em></b></p>\n                    <p>This is the bee that you just saw.</p>\n                    <img src=\"bees-with-color/bee-A1DF.svg\" width=\"200\">\n                    <p><span class=\"greenText\"><b>Successful harvest!</b></span><br>Your pay has increased by $0.02. Your bonus pay is now $1.10.</p>\n            ","response":0,"trial_type":"html-button-response","trial_index":112,"time_elapsed":1362845,"internal_node_id":"0.0-4.0-1.52","subject_id":"6098f0de1d7539ec648240d0","study_id":"60edd13110225f80f9f3709b","session_id":"6196c7098de15ab67c57edec","condition":"full-information","relevant_dimensions":["antennae","wings"],"bee_group":{"antennae":"A","wings":"2","pattern":"X","legs":"X"},"bonus":0.9200000000000005},{"rt":5067,"stimulus":"bees-with-color/bee-B2SM.svg","response":0,"trial_type":"image-button-response","trial_index":113,"time_elapsed":1367913,"internal_node_id":"0.0-4.0-0.53","subject_id":"6098f0de1d7539ec648240d0","study_id":"60edd13110225f80f9f3709b","session_id":"6196c7098de15ab67c57edec","condition":"full-information","relevant_dimensions":["antennae","wings"],"bee_group":{"antennae":"A","wings":"2","pattern":"X","legs":"X"},"action":"harvest","summary":"good-harvest","bonus":0.9200000000000005},{"rt":590,"stimulus":"\n                    <p><b>Action: <em>harvest</em></b></p>\n                    <p>This is the bee that you just saw.</p>\n                    <img src=\"bees-with-color/bee-B2SM.svg\" width=\"200\">\n                    <p><span class=\"greenText\"><b>Successful harvest!</b></span><br>Your pay has increased by $0.02. Your bonus pay is now $1.12.</p>\n            ","response":0,"trial_type":"html-button-response","trial_index":114,"time_elapsed":1368506,"internal_node_id":"0.0-4.0-1.53","subject_id":"6098f0de1d7539ec648240d0","study_id":"60edd13110225f80f9f3709b","session_id":"6196c7098de15ab67c57edec","condition":"full-information","relevant_dimensions":["antennae","wings"],"bee_group":{"antennae":"A","wings":"2","pattern":"X","legs":"X"},"bonus":0.9200000000000005},{"rt":4583,"stimulus":"bees-with-color/bee-B2SF.svg","response":0,"trial_type":"image-button-response","trial_index":115,"time_elapsed":1373090,"internal_node_id":"0.0-4.0-0.54","subject_id":"6098f0de1d7539ec648240d0","study_id":"60edd13110225f80f9f3709b","session_id":"6196c7098de15ab67c57edec","condition":"full-information","relevant_dimensions":["antennae","wings"],"bee_group":{"antennae":"A","wings":"2","pattern":"X","legs":"X"},"action":"harvest","summary":"good-harvest","bonus":0.9200000000000005},{"rt":656,"stimulus":"\n                    <p><b>Action: <em>harvest</em></b></p>\n                    <p>This is the bee that you just saw.</p>\n                    <img src=\"bees-with-color/bee-B2SF.svg\" width=\"200\">\n                    <p><span class=\"greenText\"><b>Successful harvest!</b></span><br>Your pay has increased by $0.02. Your bonus pay is now $1.14.</p>\n            ","response":0,"trial_type":"html-button-response","trial_index":116,"time_elapsed":1373748,"internal_node_id":"0.0-4.0-1.54","subject_id":"6098f0de1d7539ec648240d0","study_id":"60edd13110225f80f9f3709b","session_id":"6196c7098de15ab67c57edec","condition":"full-information","relevant_dimensions":["antennae","wings"],"bee_group":{"antennae":"A","wings":"2","pattern":"X","legs":"X"},"bonus":0.9200000000000005},{"rt":5851,"stimulus":"bees-with-color/bee-A2SM.svg","response":1,"trial_type":"image-button-response","trial_index":117,"time_elapsed":1379603,"internal_node_id":"0.0-4.0-0.55","subject_id":"6098f0de1d7539ec648240d0","study_id":"60edd13110225f80f9f3709b","session_id":"6196c7098de15ab67c57edec","condition":"full-information","relevant_dimensions":["antennae","wings"],"bee_group":{"antennae":"A","wings":"2","pattern":"X","legs":"X"},"action":"avoid","summary":"good-avoid","bonus":0.9200000000000005},{"rt":710,"stimulus":"\n                    <p><b>Action: <em>avoid</em></b></p>\n                    <p>This is the bee that you just saw.</p>\n                    <img src=\"bees-with-color/bee-A2SM.svg\" width=\"200\">\n                    <p><span class=\"greenText\">Good choice!</span>  This bee would have stung you.<br>Your bonus pay is unchanged, and remains at $1.14.</p>\n            ","response":0,"trial_type":"html-button-response","trial_index":118,"time_elapsed":1380315,"internal_node_id":"0.0-4.0-1.55","subject_id":"6098f0de1d7539ec648240d0","study_id":"60edd13110225f80f9f3709b","session_id":"6196c7098de15ab67c57edec","condition":"full-information","relevant_dimensions":["antennae","wings"],"bee_group":{"antennae":"A","wings":"2","pattern":"X","legs":"X"},"bonus":0.9200000000000005},{"rt":3665,"stimulus":"bees-with-color/bee-B2DM.svg","response":0,"trial_type":"image-button-response","trial_index":119,"time_elapsed":1383982,"internal_node_id":"0.0-4.0-0.56","subject_id":"6098f0de1d7539ec648240d0","study_id":"60edd13110225f80f9f3709b","session_id":"6196c7098de15ab67c57edec","condition":"full-information","relevant_dimensions":["antennae","wings"],"bee_group":{"antennae":"A","wings":"2","pattern":"X","legs":"X"},"action":"harvest","summary":"good-harvest","bonus":0.9200000000000005},{"rt":519,"stimulus":"\n                    <p><b>Action: <em>harvest</em></b></p>\n                    <p>This is the bee that you just saw.</p>\n                    <img src=\"bees-with-color/bee-B2DM.svg\" width=\"200\">\n                    <p><span class=\"greenText\"><b>Successful harvest!</b></span><br>Your pay has increased by $0.02. Your bonus pay is now $1.16.</p>\n            ","response":0,"trial_type":"html-button-response","trial_index":120,"time_elapsed":1384506,"internal_node_id":"0.0-4.0-1.56","subject_id":"6098f0de1d7539ec648240d0","study_id":"60edd13110225f80f9f3709b","session_id":"6196c7098de15ab67c57edec","condition":"full-information","relevant_dimensions":["antennae","wings"],"bee_group":{"antennae":"A","wings":"2","pattern":"X","legs":"X"},"bonus":0.9200000000000005},{"rt":1793,"stimulus":"bees-with-color/bee-A1SM.svg","response":0,"trial_type":"image-button-response","trial_index":121,"time_elapsed":1386305,"internal_node_id":"0.0-4.0-0.57","subject_id":"6098f0de1d7539ec648240d0","study_id":"60edd13110225f80f9f3709b","session_id":"6196c7098de15ab67c57edec","condition":"full-information","relevant_dimensions":["antennae","wings"],"bee_group":{"antennae":"A","wings":"2","pattern":"X","legs":"X"},"action":"harvest","summary":"good-harvest","bonus":0.9200000000000005},{"rt":595,"stimulus":"\n                    <p><b>Action: <em>harvest</em></b></p>\n                    <p>This is the bee that you just saw.</p>\n                    <img src=\"bees-with-color/bee-A1SM.svg\" width=\"200\">\n                    <p><span class=\"greenText\"><b>Successful harvest!</b></span><br>Your pay has increased by $0.02. Your bonus pay is now $1.18.</p>\n            ","response":0,"trial_type":"html-button-response","trial_index":122,"time_elapsed":1386902,"internal_node_id":"0.0-4.0-1.57","subject_id":"6098f0de1d7539ec648240d0","study_id":"60edd13110225f80f9f3709b","session_id":"6196c7098de15ab67c57edec","condition":"full-information","relevant_dimensions":["antennae","wings"],"bee_group":{"antennae":"A","wings":"2","pattern":"X","legs":"X"},"bonus":0.9200000000000005},{"rt":4738,"stimulus":"bees-with-color/bee-A2DF.svg","response":1,"trial_type":"image-button-response","trial_index":123,"time_elapsed":1391642,"internal_node_id":"0.0-4.0-0.58","subject_id":"6098f0de1d7539ec648240d0","study_id":"60edd13110225f80f9f3709b","session_id":"6196c7098de15ab67c57edec","condition":"full-information","relevant_dimensions":["antennae","wings"],"bee_group":{"antennae":"A","wings":"2","pattern":"X","legs":"X"},"action":"avoid","summary":"good-avoid","bonus":0.9200000000000005},{"rt":616,"stimulus":"\n                    <p><b>Action: <em>avoid</em></b></p>\n                    <p>This is the bee that you just saw.</p>\n                    <img src=\"bees-with-color/bee-A2DF.svg\" width=\"200\">\n                    <p><span class=\"greenText\">Good choice!</span>  This bee would have stung you.<br>Your bonus pay is unchanged, and remains at $1.18.</p>\n            ","response":0,"trial_type":"html-button-response","trial_index":124,"time_elapsed":1392260,"internal_node_id":"0.0-4.0-1.58","subject_id":"6098f0de1d7539ec648240d0","study_id":"60edd13110225f80f9f3709b","session_id":"6196c7098de15ab67c57edec","condition":"full-information","relevant_dimensions":["antennae","wings"],"bee_group":{"antennae":"A","wings":"2","pattern":"X","legs":"X"},"bonus":0.9200000000000005},{"rt":5610,"stimulus":"bees-with-color/bee-B1SM.svg","response":0,"trial_type":"image-button-response","trial_index":125,"time_elapsed":1397871,"internal_node_id":"0.0-4.0-0.59","subject_id":"6098f0de1d7539ec648240d0","study_id":"60edd13110225f80f9f3709b","session_id":"6196c7098de15ab67c57edec","condition":"full-information","relevant_dimensions":["antennae","wings"],"bee_group":{"antennae":"A","wings":"2","pattern":"X","legs":"X"},"action":"harvest","summary":"good-harvest","bonus":0.9200000000000005},{"rt":669,"stimulus":"\n                    <p><b>Action: <em>harvest</em></b></p>\n                    <p>This is the bee that you just saw.</p>\n                    <img src=\"bees-with-color/bee-B1SM.svg\" width=\"200\">\n                    <p><span class=\"greenText\"><b>Successful harvest!</b></span><br>Your pay has increased by $0.02. Your bonus pay is now $1.20.</p>\n            ","response":0,"trial_type":"html-button-response","trial_index":126,"time_elapsed":1398544,"internal_node_id":"0.0-4.0-1.59","subject_id":"6098f0de1d7539ec648240d0","study_id":"60edd13110225f80f9f3709b","session_id":"6196c7098de15ab67c57edec","condition":"full-information","relevant_dimensions":["antennae","wings"],"bee_group":{"antennae":"A","wings":"2","pattern":"X","legs":"X"},"bonus":0.9200000000000005},{"rt":1291,"stimulus":"bees-with-color/bee-A1DM.svg","response":0,"trial_type":"image-button-response","trial_index":127,"time_elapsed":1399838,"internal_node_id":"0.0-4.0-0.60","subject_id":"6098f0de1d7539ec648240d0","study_id":"60edd13110225f80f9f3709b","session_id":"6196c7098de15ab67c57edec","condition":"full-information","relevant_dimensions":["antennae","wings"],"bee_group":{"antennae":"A","wings":"2","pattern":"X","legs":"X"},"action":"harvest","summary":"good-harvest","bonus":0.9200000000000005},{"rt":775,"stimulus":"\n                    <p><b>Action: <em>harvest</em></b></p>\n                    <p>This is the bee that you just saw.</p>\n                    <img src=\"bees-with-color/bee-A1DM.svg\" width=\"200\">\n                    <p><span class=\"greenText\"><b>Successful harvest!</b></span><br>Your pay has increased by $0.02. Your bonus pay is now $1.22.</p>\n            ","response":0,"trial_type":"html-button-response","trial_index":128,"time_elapsed":1400617,"internal_node_id":"0.0-4.0-1.60","subject_id":"6098f0de1d7539ec648240d0","study_id":"60edd13110225f80f9f3709b","session_id":"6196c7098de15ab67c57edec","condition":"full-information","relevant_dimensions":["antennae","wings"],"bee_group":{"antennae":"A","wings":"2","pattern":"X","legs":"X"},"bonus":0.9200000000000005},{"rt":5842,"stimulus":"bees-with-color/bee-A2SF.svg","response":1,"trial_type":"image-button-response","trial_index":129,"time_elapsed":1406462,"internal_node_id":"0.0-4.0-0.61","subject_id":"6098f0de1d7539ec648240d0","study_id":"60edd13110225f80f9f3709b","session_id":"6196c7098de15ab67c57edec","condition":"full-information","relevant_dimensions":["antennae","wings"],"bee_group":{"antennae":"A","wings":"2","pattern":"X","legs":"X"},"action":"avoid","summary":"good-avoid","bonus":0.9200000000000005},{"rt":3222,"stimulus":"\n                    <p><b>Action: <em>avoid</em></b></p>\n                    <p>This is the bee that you just saw.</p>\n                    <img src=\"bees-with-color/bee-A2SF.svg\" width=\"200\">\n                    <p><span class=\"greenText\">Good choice!</span>  This bee would have stung you.<br>Your bonus pay is unchanged, and remains at $1.22.</p>\n            ","response":0,"trial_type":"html-button-response","trial_index":130,"time_elapsed":1409688,"internal_node_id":"0.0-4.0-1.61","subject_id":"6098f0de1d7539ec648240d0","study_id":"60edd13110225f80f9f3709b","session_id":"6196c7098de15ab67c57edec","condition":"full-information","relevant_dimensions":["antennae","wings"],"bee_group":{"antennae":"A","wings":"2","pattern":"X","legs":"X"},"bonus":0.9200000000000005},{"rt":6862,"stimulus":"bees-with-color/bee-B1SF.svg","response":0,"trial_type":"image-button-response","trial_index":131,"time_elapsed":1416553,"internal_node_id":"0.0-4.0-0.62","subject_id":"6098f0de1d7539ec648240d0","study_id":"60edd13110225f80f9f3709b","session_id":"6196c7098de15ab67c57edec","condition":"full-information","relevant_dimensions":["antennae","wings"],"bee_group":{"antennae":"A","wings":"2","pattern":"X","legs":"X"},"action":"harvest","summary":"good-harvest","bonus":0.9200000000000005},{"rt":3567,"stimulus":"\n                    <p><b>Action: <em>harvest</em></b></p>\n                    <p>This is the bee that you just saw.</p>\n                    <img src=\"bees-with-color/bee-B1SF.svg\" width=\"200\">\n                    <p><span class=\"greenText\"><b>Successful harvest!</b></span><br>Your pay has increased by $0.02. Your bonus pay is now $1.24.</p>\n            ","response":0,"trial_type":"html-button-response","trial_index":132,"time_elapsed":1420119,"internal_node_id":"0.0-4.0-1.62","subject_id":"6098f0de1d7539ec648240d0","study_id":"60edd13110225f80f9f3709b","session_id":"6196c7098de15ab67c57edec","condition":"full-information","relevant_dimensions":["antennae","wings"],"bee_group":{"antennae":"A","wings":"2","pattern":"X","legs":"X"},"bonus":0.9200000000000005},{"rt":4499,"stimulus":"bees-with-color/bee-B2DF.svg","response":0,"trial_type":"image-button-response","trial_index":133,"time_elapsed":1424621,"internal_node_id":"0.0-4.0-0.63","subject_id":"6098f0de1d7539ec648240d0","study_id":"60edd13110225f80f9f3709b","session_id":"6196c7098de15ab67c57edec","condition":"full-information","relevant_dimensions":["antennae","wings"],"bee_group":{"antennae":"A","wings":"2","pattern":"X","legs":"X"},"action":"harvest","summary":"good-harvest","bonus":0.9200000000000005},{"rt":2008,"stimulus":"\n                    <p><b>Action: <em>harvest</em></b></p>\n                    <p>This is the bee that you just saw.</p>\n                    <img src=\"bees-with-color/bee-B2DF.svg\" width=\"200\">\n                    <p><span class=\"greenText\"><b>Successful harvest!</b></span><br>Your pay has increased by $0.02. Your bonus pay is now $1.26.</p>\n            ","response":0,"trial_type":"html-button-response","trial_index":134,"time_elapsed":1426630,"internal_node_id":"0.0-4.0-1.63","subject_id":"6098f0de1d7539ec648240d0","study_id":"60edd13110225f80f9f3709b","session_id":"6196c7098de15ab67c57edec","condition":"full-information","relevant_dimensions":["antennae","wings"],"bee_group":{"antennae":"A","wings":"2","pattern":"X","legs":"X"},"bonus":0.9200000000000005},{"rt":7682,"stimulus":"You have completed the first part of this experiment.<br><br>You will now begin a shorter second part, in which you will receive no feedback.<br>The same rules regarding bonus pay apply.<br><br>Press any key to begin.","response":" ","trial_type":"html-keyboard-response","trial_index":135,"time_elapsed":1434313,"internal_node_id":"0.0-5.0","subject_id":"6098f0de1d7539ec648240d0","study_id":"60edd13110225f80f9f3709b","session_id":"6196c7098de15ab67c57edec","condition":"full-information","relevant_dimensions":["antennae","wings"],"bee_group":{"antennae":"A","wings":"2","pattern":"X","legs":"X"},"bonus":0.9200000000000005},{"rt":3707,"stimulus":"bees-with-color/bee-B2SF.svg","response":0,"trial_type":"image-button-response","trial_index":136,"time_elapsed":1438022,"internal_node_id":"0.0-6.0-0.0","subject_id":"6098f0de1d7539ec648240d0","study_id":"60edd13110225f80f9f3709b","session_id":"6196c7098de15ab67c57edec","condition":"full-information","relevant_dimensions":["antennae","wings"],"bee_group":{"antennae":"A","wings":"2","pattern":"X","legs":"X"},"bonus":0.9200000000000005},{"rt":4965,"stimulus":"bees-with-color/bee-B2DM.svg","response":0,"trial_type":"image-button-response","trial_index":137,"time_elapsed":1442988,"internal_node_id":"0.0-6.0-0.1","subject_id":"6098f0de1d7539ec648240d0","study_id":"60edd13110225f80f9f3709b","session_id":"6196c7098de15ab67c57edec","condition":"full-information","relevant_dimensions":["antennae","wings"],"bee_group":{"antennae":"A","wings":"2","pattern":"X","legs":"X"},"bonus":0.9200000000000005},{"rt":453,"stimulus":"bees-with-color/bee-B1DF.svg","response":0,"trial_type":"image-button-response","trial_index":138,"time_elapsed":1443443,"internal_node_id":"0.0-6.0-0.2","subject_id":"6098f0de1d7539ec648240d0","study_id":"60edd13110225f80f9f3709b","session_id":"6196c7098de15ab67c57edec","condition":"full-information","relevant_dimensions":["antennae","wings"],"bee_group":{"antennae":"A","wings":"2","pattern":"X","legs":"X"},"bonus":0.9200000000000005},{"rt":304,"stimulus":"bees-with-color/bee-A2SF.svg","response":0,"trial_type":"image-button-response","trial_index":139,"time_elapsed":1443752,"internal_node_id":"0.0-6.0-0.3","subject_id":"6098f0de1d7539ec648240d0","study_id":"60edd13110225f80f9f3709b","session_id":"6196c7098de15ab67c57edec","condition":"full-information","relevant_dimensions":["antennae","wings"],"bee_group":{"antennae":"A","wings":"2","pattern":"X","legs":"X"},"bonus":0.9200000000000005},{"rt":208,"stimulus":"bees-with-color/bee-A1DM.svg","response":0,"trial_type":"image-button-response","trial_index":140,"time_elapsed":1443961,"internal_node_id":"0.0-6.0-0.4","subject_id":"6098f0de1d7539ec648240d0","study_id":"60edd13110225f80f9f3709b","session_id":"6196c7098de15ab67c57edec","condition":"full-information","relevant_dimensions":["antennae","wings"],"bee_group":{"antennae":"A","wings":"2","pattern":"X","legs":"X"},"bonus":0.9200000000000005},{"rt":149,"stimulus":"bees-with-color/bee-A1DF.svg","response":0,"trial_type":"image-button-response","trial_index":141,"time_elapsed":1444118,"internal_node_id":"0.0-6.0-0.5","subject_id":"6098f0de1d7539ec648240d0","study_id":"60edd13110225f80f9f3709b","session_id":"6196c7098de15ab67c57edec","condition":"full-information","relevant_dimensions":["antennae","wings"],"bee_group":{"antennae":"A","wings":"2","pattern":"X","legs":"X"},"bonus":0.9200000000000005},{"rt":174,"stimulus":"bees-with-color/bee-A2DM.svg","response":0,"trial_type":"image-button-response","trial_index":142,"time_elapsed":1444296,"internal_node_id":"0.0-6.0-0.6","subject_id":"6098f0de1d7539ec648240d0","study_id":"60edd13110225f80f9f3709b","session_id":"6196c7098de15ab67c57edec","condition":"full-information","relevant_dimensions":["antennae","wings"],"bee_group":{"antennae":"A","wings":"2","pattern":"X","legs":"X"},"bonus":0.9200000000000005},{"rt":165,"stimulus":"bees-with-color/bee-B1SF.svg","response":0,"trial_type":"image-button-response","trial_index":143,"time_elapsed":1444463,"internal_node_id":"0.0-6.0-0.7","subject_id":"6098f0de1d7539ec648240d0","study_id":"60edd13110225f80f9f3709b","session_id":"6196c7098de15ab67c57edec","condition":"full-information","relevant_dimensions":["antennae","wings"],"bee_group":{"antennae":"A","wings":"2","pattern":"X","legs":"X"},"bonus":0.9200000000000005},{"rt":193,"stimulus":"bees-with-color/bee-B1SM.svg","response":0,"trial_type":"image-button-response","trial_index":144,"time_elapsed":1444659,"internal_node_id":"0.0-6.0-0.8","subject_id":"6098f0de1d7539ec648240d0","study_id":"60edd13110225f80f9f3709b","session_id":"6196c7098de15ab67c57edec","condition":"full-information","relevant_dimensions":["antennae","wings"],"bee_group":{"antennae":"A","wings":"2","pattern":"X","legs":"X"},"bonus":0.9200000000000005},{"rt":174,"stimulus":"bees-with-color/bee-A2SM.svg","response":0,"trial_type":"image-button-response","trial_index":145,"time_elapsed":1444835,"internal_node_id":"0.0-6.0-0.9","subject_id":"6098f0de1d7539ec648240d0","study_id":"60edd13110225f80f9f3709b","session_id":"6196c7098de15ab67c57edec","condition":"full-information","relevant_dimensions":["antennae","wings"],"bee_group":{"antennae":"A","wings":"2","pattern":"X","legs":"X"},"bonus":0.9200000000000005},{"rt":181,"stimulus":"bees-with-color/bee-A2DF.svg","response":0,"trial_type":"image-button-response","trial_index":146,"time_elapsed":1445018,"internal_node_id":"0.0-6.0-0.10","subject_id":"6098f0de1d7539ec648240d0","study_id":"60edd13110225f80f9f3709b","session_id":"6196c7098de15ab67c57edec","condition":"full-information","relevant_dimensions":["antennae","wings"],"bee_group":{"antennae":"A","wings":"2","pattern":"X","legs":"X"},"bonus":0.9200000000000005},{"rt":177,"stimulus":"bees-with-color/bee-B1DM.svg","response":0,"trial_type":"image-button-response","trial_index":147,"time_elapsed":1445200,"internal_node_id":"0.0-6.0-0.11","subject_id":"6098f0de1d7539ec648240d0","study_id":"60edd13110225f80f9f3709b","session_id":"6196c7098de15ab67c57edec","condition":"full-information","relevant_dimensions":["antennae","wings"],"bee_group":{"antennae":"A","wings":"2","pattern":"X","legs":"X"},"bonus":0.9200000000000005},{"rt":171,"stimulus":"bees-with-color/bee-B2DF.svg","response":0,"trial_type":"image-button-response","trial_index":148,"time_elapsed":1445376,"internal_node_id":"0.0-6.0-0.12","subject_id":"6098f0de1d7539ec648240d0","study_id":"60edd13110225f80f9f3709b","session_id":"6196c7098de15ab67c57edec","condition":"full-information","relevant_dimensions":["antennae","wings"],"bee_group":{"antennae":"A","wings":"2","pattern":"X","legs":"X"},"bonus":0.9200000000000005},{"rt":184,"stimulus":"bees-with-color/bee-A1SM.svg","response":0,"trial_type":"image-button-response","trial_index":149,"time_elapsed":1445562,"internal_node_id":"0.0-6.0-0.13","subject_id":"6098f0de1d7539ec648240d0","study_id":"60edd13110225f80f9f3709b","session_id":"6196c7098de15ab67c57edec","condition":"full-information","relevant_dimensions":["antennae","wings"],"bee_group":{"antennae":"A","wings":"2","pattern":"X","legs":"X"},"bonus":0.9200000000000005},{"rt":165,"stimulus":"bees-with-color/bee-A1SF.svg","response":0,"trial_type":"image-button-response","trial_index":150,"time_elapsed":1445729,"internal_node_id":"0.0-6.0-0.14","subject_id":"6098f0de1d7539ec648240d0","study_id":"60edd13110225f80f9f3709b","session_id":"6196c7098de15ab67c57edec","condition":"full-information","relevant_dimensions":["antennae","wings"],"bee_group":{"antennae":"A","wings":"2","pattern":"X","legs":"X"},"bonus":0.9200000000000005},{"rt":193,"stimulus":"bees-with-color/bee-B2SM.svg","response":0,"trial_type":"image-button-response","trial_index":151,"time_elapsed":1445925,"internal_node_id":"0.0-6.0-0.15","subject_id":"6098f0de1d7539ec648240d0","study_id":"60edd13110225f80f9f3709b","session_id":"6196c7098de15ab67c57edec","condition":"full-information","relevant_dimensions":["antennae","wings"],"bee_group":{"antennae":"A","wings":"2","pattern":"X","legs":"X"},"bonus":0.9200000000000005},{"rt":188,"stimulus":"bees-with-color/bee-B1SF.svg","response":0,"trial_type":"image-button-response","trial_index":152,"time_elapsed":1446115,"internal_node_id":"0.0-6.0-0.16","subject_id":"6098f0de1d7539ec648240d0","study_id":"60edd13110225f80f9f3709b","session_id":"6196c7098de15ab67c57edec","condition":"full-information","relevant_dimensions":["antennae","wings"],"bee_group":{"antennae":"A","wings":"2","pattern":"X","legs":"X"},"bonus":0.9200000000000005},{"rt":187,"stimulus":"bees-with-color/bee-A1SF.svg","response":0,"trial_type":"image-button-response","trial_index":153,"time_elapsed":1446306,"internal_node_id":"0.0-6.0-0.17","subject_id":"6098f0de1d7539ec648240d0","study_id":"60edd13110225f80f9f3709b","session_id":"6196c7098de15ab67c57edec","condition":"full-information","relevant_dimensions":["antennae","wings"],"bee_group":{"antennae":"A","wings":"2","pattern":"X","legs":"X"},"bonus":0.9200000000000005},{"rt":182,"stimulus":"bees-with-color/bee-A2SM.svg","response":0,"trial_type":"image-button-response","trial_index":154,"time_elapsed":1446490,"internal_node_id":"0.0-6.0-0.18","subject_id":"6098f0de1d7539ec648240d0","study_id":"60edd13110225f80f9f3709b","session_id":"6196c7098de15ab67c57edec","condition":"full-information","relevant_dimensions":["antennae","wings"],"bee_group":{"antennae":"A","wings":"2","pattern":"X","legs":"X"},"bonus":0.9200000000000005},{"rt":190,"stimulus":"bees-with-color/bee-B1DM.svg","response":0,"trial_type":"image-button-response","trial_index":155,"time_elapsed":1446682,"internal_node_id":"0.0-6.0-0.19","subject_id":"6098f0de1d7539ec648240d0","study_id":"60edd13110225f80f9f3709b","session_id":"6196c7098de15ab67c57edec","condition":"full-information","relevant_dimensions":["antennae","wings"],"bee_group":{"antennae":"A","wings":"2","pattern":"X","legs":"X"},"bonus":0.9200000000000005},{"rt":158,"stimulus":"bees-with-color/bee-A1SM.svg","response":0,"trial_type":"image-button-response","trial_index":156,"time_elapsed":1446844,"internal_node_id":"0.0-6.0-0.20","subject_id":"6098f0de1d7539ec648240d0","study_id":"60edd13110225f80f9f3709b","session_id":"6196c7098de15ab67c57edec","condition":"full-information","relevant_dimensions":["antennae","wings"],"bee_group":{"antennae":"A","wings":"2","pattern":"X","legs":"X"},"bonus":0.9200000000000005},{"rt":171,"stimulus":"bees-with-color/bee-A2DF.svg","response":0,"trial_type":"image-button-response","trial_index":157,"time_elapsed":1447017,"internal_node_id":"0.0-6.0-0.21","subject_id":"6098f0de1d7539ec648240d0","study_id":"60edd13110225f80f9f3709b","session_id":"6196c7098de15ab67c57edec","condition":"full-information","relevant_dimensions":["antennae","wings"],"bee_group":{"antennae":"A","wings":"2","pattern":"X","legs":"X"},"bonus":0.9200000000000005},{"rt":189,"stimulus":"bees-with-color/bee-B1DF.svg","response":0,"trial_type":"image-button-response","trial_index":158,"time_elapsed":1447209,"internal_node_id":"0.0-6.0-0.22","subject_id":"6098f0de1d7539ec648240d0","study_id":"60edd13110225f80f9f3709b","session_id":"6196c7098de15ab67c57edec","condition":"full-information","relevant_dimensions":["antennae","wings"],"bee_group":{"antennae":"A","wings":"2","pattern":"X","legs":"X"},"bonus":0.9200000000000005},{"rt":186,"stimulus":"bees-with-color/bee-B2SF.svg","response":0,"trial_type":"image-button-response","trial_index":159,"time_elapsed":1447399,"internal_node_id":"0.0-6.0-0.23","subject_id":"6098f0de1d7539ec648240d0","study_id":"60edd13110225f80f9f3709b","session_id":"6196c7098de15ab67c57edec","condition":"full-information","relevant_dimensions":["antennae","wings"],"bee_group":{"antennae":"A","wings":"2","pattern":"X","legs":"X"},"bonus":0.9200000000000005},{"rt":356,"stimulus":"bees-with-color/bee-A1DM.svg","response":1,"trial_type":"image-button-response","trial_index":160,"time_elapsed":1447760,"internal_node_id":"0.0-6.0-0.24","subject_id":"6098f0de1d7539ec648240d0","study_id":"60edd13110225f80f9f3709b","session_id":"6196c7098de15ab67c57edec","condition":"full-information","relevant_dimensions":["antennae","wings"],"bee_group":{"antennae":"A","wings":"2","pattern":"X","legs":"X"},"bonus":0.9200000000000005},{"rt":324,"stimulus":"bees-with-color/bee-A1DF.svg","response":0,"trial_type":"image-button-response","trial_index":161,"time_elapsed":1448087,"internal_node_id