[{"success":true,"trial_type":"fullscreen","trial_index":0,"time_elapsed":28710,"internal_node_id":"0.0-0.0","subject_id":"60d1008fc26892a1f0ed7ed5","study_id":"60edd13110225f80f9f3709b","session_id":"6196c706a471b511303ec0ba","condition":"full-information","relevant_dimensions":["wings","pattern"],"bee_group":{"antennae":"X","wings":"2","pattern":"D","legs":"X"},"bonus":1.9000000000000012},{"success":true,"timeout":false,"failed_images":[],"failed_audio":[],"failed_video":[],"trial_type":"preload","trial_index":1,"time_elapsed":30257,"internal_node_id":"0.0-1.0","subject_id":"60d1008fc26892a1f0ed7ed5","study_id":"60edd13110225f80f9f3709b","session_id":"6196c706a471b511303ec0ba","condition":"full-information","relevant_dimensions":["wings","pattern"],"bee_group":{"antennae":"X","wings":"2","pattern":"D","legs":"X"},"bonus":1.9000000000000012},{"rt":2287.800000011921,"stimulus":"Welcome! Press any key to begin.","response":" ","trial_type":"html-keyboard-response","trial_index":2,"time_elapsed":32545,"internal_node_id":"0.0-2.0","subject_id":"60d1008fc26892a1f0ed7ed5","study_id":"60edd13110225f80f9f3709b","session_id":"6196c706a471b511303ec0ba","condition":"full-information","relevant_dimensions":["wings","pattern"],"bee_group":{"antennae":"X","wings":"2","pattern":"D","legs":"X"},"bonus":1.9000000000000012},{"view_history":[{"page_index":0,"viewing_time":7570.100000023842},{"page_index":1,"viewing_time":15999.800000011921},{"page_index":2,"viewing_time":14448},{"page_index":3,"viewing_time":18920},{"page_index":4,"viewing_time":7952.099999964237},{"page_index":5,"viewing_time":10087.800000011921},{"page_index":6,"viewing_time":13568},{"page_index":7,"viewing_time":5208},{"page_index":8,"viewing_time":5607.899999976158},{"page_index":9,"viewing_time":3200.2000000476837},{"page_index":10,"viewing_time":3800},{"page_index":11,"viewing_time":9735.799999952316},{"page_index":12,"viewing_time":13032.200000047684},{"page_index":13,"viewing_time":1080.0999999642372},{"page_index":14,"viewing_time":2120.699999988079}],"rt":132331.40000003576,"trial_type":"instructions","trial_index":3,"time_elapsed":164878,"internal_node_id":"0.0-3.0-0.0","subject_id":"60d1008fc26892a1f0ed7ed5","study_id":"60edd13110225f80f9f3709b","session_id":"6196c706a471b511303ec0ba","condition":"full-information","relevant_dimensions":["wings","pattern"],"bee_group":{"antennae":"X","wings":"2","pattern":"D","legs":"X"},"bonus":1.9000000000000012},{"rt":11458.600000023842,"response":{"Q0":["Two or six legs","Stripes or spots on body","Single or double wings","Antennae or no antennae"]},"question_order":[0],"trial_type":"survey-multi-select","trial_index":4,"time_elapsed":176341,"internal_node_id":"0.0-3.0-1.0","subject_id":"60d1008fc26892a1f0ed7ed5","study_id":"60edd13110225f80f9f3709b","session_id":"6196c706a471b511303ec0ba","condition":"full-information","relevant_dimensions":["wings","pattern"],"bee_group":{"antennae":"X","wings":"2","pattern":"D","legs":"X"},"correct":true,"bonus":1.9000000000000012},{"rt":26365.5,"response":{"Q1":"No.","Q2":"Based on the four features of the bee.","Q3":"You learn if it was friendly or dangerous, but do not alter your bonus."},"question_order":[0,1,2],"trial_type":"survey-multi-choice","trial_index":5,"time_elapsed":202709,"internal_node_id":"0.0-3.0-2.0","subject_id":"60d1008fc26892a1f0ed7ed5","study_id":"60edd13110225f80f9f3709b","session_id":"6196c706a471b511303ec0ba","condition":"full-information","relevant_dimensions":["wings","pattern"],"bee_group":{"antennae":"X","wings":"2","pattern":"D","legs":"X"},"correct":true,"bonus":1.9000000000000012},{"rt":4166.100000023842,"stimulus":"<p>Congrats, you got everything right<br>When you're ready, click the button below to continue to the experiment.</p>","response":0,"trial_type":"html-button-response","trial_index":6,"time_elapsed":206877,"internal_node_id":"0.0-3.0-3.0","subject_id":"60d1008fc26892a1f0ed7ed5","study_id":"60edd13110225f80f9f3709b","session_id":"6196c706a471b511303ec0ba","condition":"full-information","relevant_dimensions":["wings","pattern"],"bee_group":{"antennae":"X","wings":"2","pattern":"D","legs":"X"},"bonus":1.9000000000000012},{"rt":3500.600000023842,"stimulus":"bees-with-color/bee-B2DM.svg","response":1,"trial_type":"image-button-response","trial_index":7,"time_elapsed":210381,"internal_node_id":"0.0-4.0-0.0","subject_id":"60d1008fc26892a1f0ed7ed5","study_id":"60edd13110225f80f9f3709b","session_id":"6196c706a471b511303ec0ba","condition":"full-information","relevant_dimensions":["wings","pattern"],"bee_group":{"antennae":"X","wings":"2","pattern":"D","legs":"X"},"action":"avoid","summary":"good-avoid","bonus":1.9000000000000012},{"rt":24645.600000023842,"stimulus":"\n                    <p><b>Action: <em>avoid</em></b></p>\n                    <p>This is the bee that you just saw.</p>\n                    <img src=\"bees-with-color/bee-B2DM.svg\" width=\"200\">\n                    <p><span class=\"greenText\">Good choice!</span>  This bee would have stung you.<br>Your bonus pay is unchanged, and remains at $0.54.</p>\n            ","response":0,"trial_type":"html-button-response","trial_index":8,"time_elapsed":235029,"internal_node_id":"0.0-4.0-1.0","subject_id":"60d1008fc26892a1f0ed7ed5","study_id":"60edd13110225f80f9f3709b","session_id":"6196c706a471b511303ec0ba","condition":"full-information","relevant_dimensions":["wings","pattern"],"bee_group":{"antennae":"X","wings":"2","pattern":"D","legs":"X"},"bonus":1.9000000000000012},{"rt":4253.400000035763,"stimulus":"bees-with-color/bee-A1DF.svg","response":0,"trial_type":"image-button-response","trial_index":9,"time_elapsed":239284,"internal_node_id":"0.0-4.0-0.1","subject_id":"60d1008fc26892a1f0ed7ed5","study_id":"60edd13110225f80f9f3709b","session_id":"6196c706a471b511303ec0ba","condition":"full-information","relevant_dimensions":["wings","pattern"],"bee_group":{"antennae":"X","wings":"2","pattern":"D","legs":"X"},"action":"harvest","summary":"good-harvest","bonus":1.9000000000000012},{"rt":5142,"stimulus":"\n                    <p><b>Action: <em>harvest</em></b></p>\n                    <p>This is the bee that you just saw.</p>\n                    <img src=\"bees-with-color/bee-A1DF.svg\" width=\"200\">\n                    <p><span class=\"greenText\"><b>Successful harvest!</b></span><br>Your pay has increased by $0.02. Your bonus pay is now $0.56.</p>\n            ","response":0,"trial_type":"html-button-response","trial_index":10,"time_elapsed":244428,"internal_node_id":"0.0-4.0-1.1","subject_id":"60d1008fc26892a1f0ed7ed5","study_id":"60edd13110225f80f9f3709b","session_id":"6196c706a471b511303ec0ba","condition":"full-information","relevant_dimensions":["wings","pattern"],"bee_group":{"antennae":"X","wings":"2","pattern":"D","legs":"X"},"bonus":1.9000000000000012},{"rt":2917.800000011921,"stimulus":"bees-with-color/bee-B1SF.svg","response":0,"trial_type":"image-button-response","trial_index":11,"time_elapsed":247348,"internal_node_id":"0.0-4.0-0.2","subject_id":"60d1008fc26892a1f0ed7ed5","study_id":"60edd13110225f80f9f3709b","session_id":"6196c706a471b511303ec0ba","condition":"full-information","relevant_dimensions":["wings","pattern"],"bee_group":{"antennae":"X","wings":"2","pattern":"D","legs":"X"},"action":"harvest","summary":"good-harvest","bonus":1.9000000000000012},{"rt":2349.600000023842,"stimulus":"\n                    <p><b>Action: <em>harvest</em></b></p>\n                    <p>This is the bee that you just saw.</p>\n                    <img src=\"bees-with-color/bee-B1SF.svg\" width=\"200\">\n                    <p><span class=\"greenText\"><b>Successful harvest!</b></span><br>Your pay has increased by $0.02. Your bonus pay is now $0.58.</p>\n            ","response":0,"trial_type":"html-button-response","trial_index":12,"time_elapsed":249700,"internal_node_id":"0.0-4.0-1.2","subject_id":"60d1008fc26892a1f0ed7ed5","study_id":"60edd13110225f80f9f3709b","session_id":"6196c706a471b511303ec0ba","condition":"full-information","relevant_dimensions":["wings","pattern"],"bee_group":{"antennae":"X","wings":"2","pattern":"D","legs":"X"},"bonus":1.9000000000000012},{"rt":3846.399999976158,"stimulus":"bees-with-color/bee-B1DM.svg","response":1,"trial_type":"image-button-response","trial_index":13,"time_elapsed":253548,"internal_node_id":"0.0-4.0-0.3","subject_id":"60d1008fc26892a1f0ed7ed5","study_id":"60edd13110225f80f9f3709b","session_id":"6196c706a471b511303ec0ba","condition":"full-information","relevant_dimensions":["wings","pattern"],"bee_group":{"antennae":"X","wings":"2","pattern":"D","legs":"X"},"action":"avoid","summary":"bad-avoid","bonus":1.9000000000000012},{"rt":4526.800000011921,"stimulus":"\n                    <p><b>Action: <em>avoid</em></b></p>\n                    <p>This is the bee that you just saw.</p>\n                    <img src=\"bees-with-color/bee-B1DM.svg\" width=\"200\">\n                    <p><span class=\"redText\">Bad choice,</span> the bee was friendly.<br>Your bonus pay is unchanged, and remains at $0.58.</p>\n            ","response":0,"trial_type":"html-button-response","trial_index":14,"time_elapsed":258076,"internal_node_id":"0.0-4.0-1.3","subject_id":"60d1008fc26892a1f0ed7ed5","study_id":"60edd13110225f80f9f3709b","session_id":"6196c706a471b511303ec0ba","condition":"full-information","relevant_dimensions":["wings","pattern"],"bee_group":{"antennae":"X","wings":"2","pattern":"D","legs":"X"},"bonus":1.9000000000000012},{"rt":3614.399999976158,"stimulus":"bees-with-color/bee-A1SM.svg","response":1,"trial_type":"image-button-response","trial_index":15,"time_elapsed":261692,"internal_node_id":"0.0-4.0-0.4","subject_id":"60d1008fc26892a1f0ed7ed5","study_id":"60edd13110225f80f9f3709b","session_id":"6196c706a471b511303ec0ba","condition":"full-information","relevant_dimensions":["wings","pattern"],"bee_group":{"antennae":"X","wings":"2","pattern":"D","legs":"X"},"action":"avoid","summary":"bad-avoid","bonus":1.9000000000000012},{"rt":1054.5,"stimulus":"\n                    <p><b>Action: <em>avoid</em></b></p>\n                    <p>This is the bee that you just saw.</p>\n                    <img src=\"bees-with-color/bee-A1SM.svg\" width=\"200\">\n                    <p><span class=\"redText\">Bad choice,</span> the bee was friendly.<br>Your bonus pay is unchanged, and remains at $0.58.</p>\n            ","response":0,"trial_type":"html-button-response","trial_index":16,"time_elapsed":262748,"internal_node_id":"0.0-4.0-1.4","subject_id":"60d1008fc26892a1f0ed7ed5","study_id":"60edd13110225f80f9f3709b","session_id":"6196c706a471b511303ec0ba","condition":"full-information","relevant_dimensions":["wings","pattern"],"bee_group":{"antennae":"X","wings":"2","pattern":"D","legs":"X"},"bonus":1.9000000000000012},{"rt":4654.5,"stimulus":"bees-with-color/bee-A2DF.svg","response":1,"trial_type":"image-button-response","trial_index":17,"time_elapsed":267404,"internal_node_id":"0.0-4.0-0.5","subject_id":"60d1008fc26892a1f0ed7ed5","study_id":"60edd13110225f80f9f3709b","session_id":"6196c706a471b511303ec0ba","condition":"full-information","relevant_dimensions":["wings","pattern"],"bee_group":{"antennae":"X","wings":"2","pattern":"D","legs":"X"},"action":"avoid","summary":"good-avoid","bonus":1.9000000000000012},{"rt":8407.100000023842,"stimulus":"\n                    <p><b>Action: <em>avoid</em></b></p>\n                    <p>This is the bee that you just saw.</p>\n                    <img src=\"bees-with-color/bee-A2DF.svg\" width=\"200\">\n                    <p><span class=\"greenText\">Good choice!</span>  This bee would have stung you.<br>Your bonus pay is unchanged, and remains at $0.58.</p>\n            ","response":0,"trial_type":"html-button-response","trial_index":18,"time_elapsed":275813,"internal_node_id":"0.0-4.0-1.5","subject_id":"60d1008fc26892a1f0ed7ed5","study_id":"60edd13110225f80f9f3709b","session_id":"6196c706a471b511303ec0ba","condition":"full-information","relevant_dimensions":["wings","pattern"],"bee_group":{"antennae":"X","wings":"2","pattern":"D","legs":"X"},"bonus":1.9000000000000012},{"rt":4029.800000011921,"stimulus":"bees-with-color/bee-B2SF.svg","response":1,"trial_type":"image-button-response","trial_index":19,"time_elapsed":279844,"internal_node_id":"0.0-4.0-0.6","subject_id":"60d1008fc26892a1f0ed7ed5","study_id":"60edd13110225f80f9f3709b","session_id":"6196c706a471b511303ec0ba","condition":"full-information","relevant_dimensions":["wings","pattern"],"bee_group":{"antennae":"X","wings":"2","pattern":"D","legs":"X"},"action":"avoid","summary":"bad-avoid","bonus":1.9000000000000012},{"rt":1134.4000000357628,"stimulus":"\n                    <p><b>Action: <em>avoid</em></b></p>\n                    <p>This is the bee that you just saw.</p>\n                    <img src=\"bees-with-color/bee-B2SF.svg\" width=\"200\">\n                    <p><span class=\"redText\">Bad choice,</span> the bee was friendly.<br>Your bonus pay is unchanged, and remains at $0.58.</p>\n            ","response":0,"trial_type":"html-button-response","trial_index":20,"time_elapsed":280980,"internal_node_id":"0.0-4.0-1.6","subject_id":"60d1008fc26892a1f0ed7ed5","study_id":"60edd13110225f80f9f3709b","session_id":"6196c706a471b511303ec0ba","condition":"full-information","relevant_dimensions":["wings","pattern"],"bee_group":{"antennae":"X","wings":"2","pattern":"D","legs":"X"},"bonus":1.9000000000000012},{"rt":1735.5,"stimulus":"bees-with-color/bee-B2SM.svg","response":0,"trial_type":"image-button-response","trial_index":21,"time_elapsed":282717,"internal_node_id":"0.0-4.0-0.7","subject_id":"60d1008fc26892a1f0ed7ed5","study_id":"60edd13110225f80f9f3709b","session_id":"6196c706a471b511303ec0ba","condition":"full-information","relevant_dimensions":["wings","pattern"],"bee_group":{"antennae":"X","wings":"2","pattern":"D","legs":"X"},"action":"harvest","summary":"good-harvest","bonus":1.9000000000000012},{"rt":1205.5,"stimulus":"\n                    <p><b>Action: <em>harvest</em></b></p>\n                    <p>This is the bee that you just saw.</p>\n                    <img src=\"bees-with-color/bee-B2SM.svg\" width=\"200\">\n                    <p><span class=\"greenText\"><b>Successful harvest!</b></span><br>Your pay has increased by $0.02. Your bonus pay is now $0.60.</p>\n            ","response":0,"trial_type":"html-button-response","trial_index":22,"time_elapsed":283924,"internal_node_id":"0.0-4.0-1.7","subject_id":"60d1008fc26892a1f0ed7ed5","study_id":"60edd13110225f80f9f3709b","session_id":"6196c706a471b511303ec0ba","condition":"full-information","relevant_dimensions":["wings","pattern"],"bee_group":{"antennae":"X","wings":"2","pattern":"D","legs":"X"},"bonus":1.9000000000000012},{"rt":2102.300000011921,"stimulus":"bees-with-color/bee-B1DF.svg","response":0,"trial_type":"image-button-response","trial_index":23,"time_elapsed":286029,"internal_node_id":"0.0-4.0-0.8","subject_id":"60d1008fc26892a1f0ed7ed5","study_id":"60edd13110225f80f9f3709b","session_id":"6196c706a471b511303ec0ba","condition":"full-information","relevant_dimensions":["wings","pattern"],"bee_group":{"antennae":"X","wings":"2","pattern":"D","legs":"X"},"action":"harvest","summary":"good-harvest","bonus":1.9000000000000012},{"rt":1126,"stimulus":"\n                    <p><b>Action: <em>harvest</em></b></p>\n                    <p>This is the bee that you just saw.</p>\n                    <img src=\"bees-with-color/bee-B1DF.svg\" width=\"200\">\n                    <p><span class=\"greenText\"><b>Successful harvest!</b></span><br>Your pay has increased by $0.02. Your bonus pay is now $0.62.</p>\n            ","response":0,"trial_type":"html-button-response","trial_index":24,"time_elapsed":287156,"internal_node_id":"0.0-4.0-1.8","subject_id":"60d1008fc26892a1f0ed7ed5","study_id":"60edd13110225f80f9f3709b","session_id":"6196c706a471b511303ec0ba","condition":"full-information","relevant_dimensions":["wings","pattern"],"bee_group":{"antennae":"X","wings":"2","pattern":"D","legs":"X"},"bonus":1.9000000000000012},{"rt":2334.800000011921,"stimulus":"bees-with-color/bee-A2DM.svg","response":1,"trial_type":"image-button-response","trial_index":25,"time_elapsed":289492,"internal_node_id":"0.0-4.0-0.9","subject_id":"60d1008fc26892a1f0ed7ed5","study_id":"60edd13110225f80f9f3709b","session_id":"6196c706a471b511303ec0ba","condition":"full-information","relevant_dimensions":["wings","pattern"],"bee_group":{"antennae":"X","wings":"2","pattern":"D","legs":"X"},"action":"avoid","summary":"good-avoid","bonus":1.9000000000000012},{"rt":5742.5,"stimulus":"\n                    <p><b>Action: <em>avoid</em></b></p>\n                    <p>This is the bee that you just saw.</p>\n                    <img src=\"bees-with-color/bee-A2DM.svg\" width=\"200\">\n                    <p><span class=\"greenText\">Good choice!</span>  This bee would have stung you.<br>Your bonus pay is unchanged, and remains at $0.62.</p>\n            ","response":0,"trial_type":"html-button-response","trial_index":26,"time_elapsed":295236,"internal_node_id":"0.0-4.0-1.9","subject_id":"60d1008fc26892a1f0ed7ed5","study_id":"60edd13110225f80f9f3709b","session_id":"6196c706a471b511303ec0ba","condition":"full-information","relevant_dimensions":["wings","pattern"],"bee_group":{"antennae":"X","wings":"2","pattern":"D","legs":"X"},"bonus":1.9000000000000012},{"rt":1366.300000011921,"stimulus":"bees-with-color/bee-A2SF.svg","response":0,"trial_type":"image-button-response","trial_index":27,"time_elapsed":296604,"internal_node_id":"0.0-4.0-0.10","subject_id":"60d1008fc26892a1f0ed7ed5","study_id":"60edd13110225f80f9f3709b","session_id":"6196c706a471b511303ec0ba","condition":"full-information","relevant_dimensions":["wings","pattern"],"bee_group":{"antennae":"X","wings":"2","pattern":"D","legs":"X"},"action":"harvest","summary":"good-harvest","bonus":1.9000000000000012},{"rt":991.6000000238419,"stimulus":"\n                    <p><b>Action: <em>harvest</em></b></p>\n                    <p>This is the bee that you just saw.</p>\n                    <img src=\"bees-with-color/bee-A2SF.svg\" width=\"200\">\n                    <p><span class=\"greenText\"><b>Successful harvest!</b></span><br>Your pay has increased by $0.02. Your bonus pay is now $0.64.</p>\n            ","response":0,"trial_type":"html-button-response","trial_index":28,"time_elapsed":297597,"internal_node_id":"0.0-4.0-1.10","subject_id":"60d1008fc26892a1f0ed7ed5","study_id":"60edd13110225f80f9f3709b","session_id":"6196c706a471b511303ec0ba","condition":"full-information","relevant_dimensions":["wings","pattern"],"bee_group":{"antennae":"X","wings":"2","pattern":"D","legs":"X"},"bonus":1.9000000000000012},{"rt":2014,"stimulus":"bees-with-color/bee-A1DM.svg","response":1,"trial_type":"image-button-response","trial_index":29,"time_elapsed":299612,"internal_node_id":"0.0-4.0-0.11","subject_id":"60d1008fc26892a1f0ed7ed5","study_id":"60edd13110225f80f9f3709b","session_id":"6196c706a471b511303ec0ba","condition":"full-information","relevant_dimensions":["wings","pattern"],"bee_group":{"antennae":"X","wings":"2","pattern":"D","legs":"X"},"action":"avoid","summary":"bad-avoid","bonus":1.9000000000000012},{"rt":1126.3999999761581,"stimulus":"\n                    <p><b>Action: <em>avoid</em></b></p>\n                    <p>This is the bee that you just saw.</p>\n                    <img src=\"bees-with-color/bee-A1DM.svg\" width=\"200\">\n                    <p><span class=\"redText\">Bad choice,</span> the bee was friendly.<br>Your bonus pay is unchanged, and remains at $0.64.</p>\n            ","response":0,"trial_type":"html-button-response","trial_index":30,"time_elapsed":300740,"internal_node_id":"0.0-4.0-1.11","subject_id":"60d1008fc26892a1f0ed7ed5","study_id":"60edd13110225f80f9f3709b","session_id":"6196c706a471b511303ec0ba","condition":"full-information","relevant_dimensions":["wings","pattern"],"bee_group":{"antennae":"X","wings":"2","pattern":"D","legs":"X"},"bonus":1.9000000000000012},{"rt":2238.600000023842,"stimulus":"bees-with-color/bee-A1SF.svg","response":0,"trial_type":"image-button-response","trial_index":31,"time_elapsed":302980,"internal_node_id":"0.0-4.0-0.12","subject_id":"60d1008fc26892a1f0ed7ed5","study_id":"60edd13110225f80f9f3709b","session_id":"6196c706a471b511303ec0ba","condition":"full-information","relevant_dimensions":["wings","pattern"],"bee_group":{"antennae":"X","wings":"2","pattern":"D","legs":"X"},"action":"harvest","summary":"good-harvest","bonus":1.9000000000000012},{"rt":902.1999999880791,"stimulus":"\n                    <p><b>Action: <em>harvest</em></b></p>\n                    <p>This is the bee that you just saw.</p>\n                    <img src=\"bees-with-color/bee-A1SF.svg\" width=\"200\">\n                    <p><span class=\"greenText\"><b>Successful harvest!</b></span><br>Your pay has increased by $0.02. Your bonus pay is now $0.66.</p>\n            ","response":0,"trial_type":"html-button-response","trial_index":32,"time_elapsed":303884,"internal_node_id":"0.0-4.0-1.12","subject_id":"60d1008fc26892a1f0ed7ed5","study_id":"60edd13110225f80f9f3709b","session_id":"6196c706a471b511303ec0ba","condition":"full-information","relevant_dimensions":["wings","pattern"],"bee_group":{"antennae":"X","wings":"2","pattern":"D","legs":"X"},"bonus":1.9000000000000012},{"rt":2175.199999988079,"stimulus":"bees-with-color/bee-B2DF.svg","response":1,"trial_type":"image-button-response","trial_index":33,"time_elapsed":306061,"internal_node_id":"0.0-4.0-0.13","subject_id":"60d1008fc26892a1f0ed7ed5","study_id":"60edd13110225f80f9f3709b","session_id":"6196c706a471b511303ec0ba","condition":"full-information","relevant_dimensions":["wings","pattern"],"bee_group":{"antennae":"X","wings":"2","pattern":"D","legs":"X"},"action":"avoid","summary":"good-avoid","bonus":1.9000000000000012},{"rt":2070,"stimulus":"\n                    <p><b>Action: <em>avoid</em></b></p>\n                    <p>This is the bee that you just saw.</p>\n                    <img src=\"bees-with-color/bee-B2DF.svg\" width=\"200\">\n                    <p><span class=\"greenText\">Good choice!</span>  This bee would have stung you.<br>Your bonus pay is unchanged, and remains at $0.66.</p>\n            ","response":0,"trial_type":"html-button-response","trial_index":34,"time_elapsed":308132,"internal_node_id":"0.0-4.0-1.13","subject_id":"60d1008fc26892a1f0ed7ed5","study_id":"60edd13110225f80f9f3709b","session_id":"6196c706a471b511303ec0ba","condition":"full-information","relevant_dimensions":["wings","pattern"],"bee_group":{"antennae":"X","wings":"2","pattern":"D","legs":"X"},"bonus":1.9000000000000012},{"rt":2022.1000000238419,"stimulus":"bees-with-color/bee-A2SM.svg","response":0,"trial_type":"image-button-response","trial_index":35,"time_elapsed":310156,"internal_node_id":"0.0-4.0-0.14","subject_id":"60d1008fc26892a1f0ed7ed5","study_id":"60edd13110225f80f9f3709b","session_id":"6196c706a471b511303ec0ba","condition":"full-information","relevant_dimensions":["wings","pattern"],"bee_group":{"antennae":"X","wings":"2","pattern":"D","legs":"X"},"action":"harvest","summary":"good-harvest","bonus":1.9000000000000012},{"rt":1406.5,"stimulus":"\n                    <p><b>Action: <em>harvest</em></b></p>\n                    <p>This is the bee that you just saw.</p>\n                    <img src=\"bees-with-color/bee-A2SM.svg\" width=\"200\">\n                    <p><span class=\"greenText\"><b>Successful harvest!</b></span><br>Your pay has increased by $0.02. Your bonus pay is now $0.68.</p>\n            ","response":0,"trial_type":"html-button-response","trial_index":36,"time_elapsed":311564,"internal_node_id":"0.0-4.0-1.14","subject_id":"60d1008fc26892a1f0ed7ed5","study_id":"60edd13110225f80f9f3709b","session_id":"6196c706a471b511303ec0ba","condition":"full-information","relevant_dimensions":["wings","pattern"],"bee_group":{"antennae":"X","wings":"2","pattern":"D","legs":"X"},"bonus":1.9000000000000012},{"rt":2774.599999964237,"stimulus":"bees-with-color/bee-B1SM.svg","response":0,"trial_type":"image-button-response","trial_index":37,"time_elapsed":314340,"internal_node_id":"0.0-4.0-0.15","subject_id":"60d1008fc26892a1f0ed7ed5","study_id":"60edd13110225f80f9f3709b","session_id":"6196c706a471b511303ec0ba","condition":"full-information","relevant_dimensions":["wings","pattern"],"bee_group":{"antennae":"X","wings":"2","pattern":"D","legs":"X"},"action":"harvest","summary":"good-harvest","bonus":1.9000000000000012},{"rt":926.3999999761581,"stimulus":"\n                    <p><b>Action: <em>harvest</em></b></p>\n                    <p>This is the bee that you just saw.</p>\n                    <img src=\"bees-with-color/bee-B1SM.svg\" width=\"200\">\n                    <p><span class=\"greenText\"><b>Successful harvest!</b></span><br>Your pay has increased by $0.02. Your bonus pay is now $0.70.</p>\n            ","response":0,"trial_type":"html-button-response","trial_index":38,"time_elapsed":315268,"internal_node_id":"0.0-4.0-1.15","subject_id":"60d1008fc26892a1f0ed7ed5","study_id":"60edd13110225f80f9f3709b","session_id":"6196c706a471b511303ec0ba","condition":"full-information","relevant_dimensions":["wings","pattern"],"bee_group":{"antennae":"X","wings":"2","pattern":"D","legs":"X"},"bonus":1.9000000000000012},{"rt":1630.6000000238419,"stimulus":"bees-with-color/bee-A2SF.svg","response":0,"trial_type":"image-button-response","trial_index":39,"time_elapsed":316900,"internal_node_id":"0.0-4.0-0.16","subject_id":"60d1008fc26892a1f0ed7ed5","study_id":"60edd13110225f80f9f3709b","session_id":"6196c706a471b511303ec0ba","condition":"full-information","relevant_dimensions":["wings","pattern"],"bee_group":{"antennae":"X","wings":"2","pattern":"D","legs":"X"},"action":"harvest","summary":"good-harvest","bonus":1.9000000000000012},{"rt":1197.8999999761581,"stimulus":"\n                    <p><b>Action: <em>harvest</em></b></p>\n                    <p>This is the bee that you just saw.</p>\n                    <img src=\"bees-with-color/bee-A2SF.svg\" width=\"200\">\n                    <p><span class=\"greenText\"><b>Successful harvest!</b></span><br>Your pay has increased by $0.02. Your bonus pay is now $0.72.</p>\n            ","response":0,"trial_type":"html-button-response","trial_index":40,"time_elapsed":318100,"internal_node_id":"0.0-4.0-1.16","subject_id":"60d1008fc26892a1f0ed7ed5","study_id":"60edd13110225f80f9f3709b","session_id":"6196c706a471b511303ec0ba","condition":"full-information","relevant_dimensions":["wings","pattern"],"bee_group":{"antennae":"X","wings":"2","pattern":"D","legs":"X"},"bonus":1.9000000000000012},{"rt":2686.7999999523163,"stimulus":"bees-with-color/bee-B1DM.svg","response":0,"trial_type":"image-button-response","trial_index":41,"time_elapsed":320788,"internal_node_id":"0.0-4.0-0.17","subject_id":"60d1008fc26892a1f0ed7ed5","study_id":"60edd13110225f80f9f3709b","session_id":"6196c706a471b511303ec0ba","condition":"full-information","relevant_dimensions":["wings","pattern"],"bee_group":{"antennae":"X","wings":"2","pattern":"D","legs":"X"},"action":"harvest","summary":"good-harvest","bonus":1.9000000000000012},{"rt":878.6999999880791,"stimulus":"\n                    <p><b>Action: <em>harvest</em></b></p>\n                    <p>This is the bee that you just saw.</p>\n                    <img src=\"bees-with-color/bee-B1DM.svg\" width=\"200\">\n                    <p><span class=\"greenText\"><b>Successful harvest!</b></span><br>Your pay has increased by $0.02. Your bonus pay is now $0.74.</p>\n            ","response":0,"trial_type":"html-button-response","trial_index":42,"time_elapsed":321668,"internal_node_id":"0.0-4.0-1.17","subject_id":"60d1008fc26892a1f0ed7ed5","study_id":"60edd13110225f80f9f3709b","session_id":"6196c706a471b511303ec0ba","condition":"full-information","relevant_dimensions":["wings","pattern"],"bee_group":{"antennae":"X","wings":"2","pattern":"D","legs":"X"},"bonus":1.9000000000000012},{"rt":1279,"stimulus":"bees-with-color/bee-B2SF.svg","response":0,"trial_type":"image-button-response","trial_index":43,"time_elapsed":322948,"internal_node_id":"0.0-4.0-0.18","subject_id":"60d1008fc26892a1f0ed7ed5","study_id":"60edd13110225f80f9f3709b","session_id":"6196c706a471b511303ec0ba","condition":"full-information","relevant_dimensions":["wings","pattern"],"bee_group":{"antennae":"X","wings":"2","pattern":"D","legs":"X"},"action":"harvest","summary":"good-harvest","bonus":1.9000000000000012},{"rt":943.9000000357628,"stimulus":"\n                    <p><b>Action: <em>harvest</em></b></p>\n                    <p>This is the bee that you just saw.</p>\n                    <img src=\"bees-with-color/bee-B2SF.svg\" width=\"200\">\n                    <p><span class=\"greenText\"><b>Successful harvest!</b></span><br>Your pay has increased by $0.02. Your bonus pay is now $0.76.</p>\n            ","response":0,"trial_type":"html-button-response","trial_index":44,"time_elapsed":323893,"internal_node_id":"0.0-4.0-1.18","subject_id":"60d1008fc26892a1f0ed7ed5","study_id":"60edd13110225f80f9f3709b","session_id":"6196c706a471b511303ec0ba","condition":"full-information","relevant_dimensions":["wings","pattern"],"bee_group":{"antennae":"X","wings":"2","pattern":"D","legs":"X"},"bonus":1.9000000000000012},{"rt":1541.3999999761581,"stimulus":"bees-with-color/bee-A2DF.svg","response":1,"trial_type":"image-button-response","trial_index":45,"time_elapsed":325436,"internal_node_id":"0.0-4.0-0.19","subject_id":"60d1008fc26892a1f0ed7ed5","study_id":"60edd13110225f80f9f3709b","session_id":"6196c706a471b511303ec0ba","condition":"full-information","relevant_dimensions":["wings","pattern"],"bee_group":{"antennae":"X","wings":"2","pattern":"D","legs":"X"},"action":"avoid","summary":"good-avoid","bonus":1.9000000000000012},{"rt":854.7000000476837,"stimulus":"\n                    <p><b>Action: <em>avoid</em></b></p>\n                    <p>This is the bee that you just saw.</p>\n                    <img src=\"bees-with-color/bee-A2DF.svg\" width=\"200\">\n                    <p><span class=\"greenText\">Good choice!</span>  This bee would have stung you.<br>Your bonus pay is unchanged, and remains at $0.76.</p>\n            ","response":0,"trial_type":"html-button-response","trial_index":46,"time_elapsed":326292,"internal_node_id":"0.0-4.0-1.19","subject_id":"60d1008fc26892a1f0ed7ed5","study_id":"60edd13110225f80f9f3709b","session_id":"6196c706a471b511303ec0ba","condition":"full-information","relevant_dimensions":["wings","pattern"],"bee_group":{"antennae":"X","wings":"2","pattern":"D","legs":"X"},"bonus":1.9000000000000012},{"rt":1655.300000011921,"stimulus":"bees-with-color/bee-A1SM.svg","response":0,"trial_type":"image-button-response","trial_index":47,"time_elapsed":327948,"internal_node_id":"0.0-4.0-0.20","subject_id":"60d1008fc26892a1f0ed7ed5","study_id":"60edd13110225f80f9f3709b","session_id":"6196c706a471b511303ec0ba","condition":"full-information","relevant_dimensions":["wings","pattern"],"bee_group":{"antennae":"X","wings":"2","pattern":"D","legs":"X"},"action":"harvest","summary":"good-harvest","bonus":1.9000000000000012},{"rt":742,"stimulus":"\n                    <p><b>Action: <em>harvest</em></b></p>\n                    <p>This is the bee that you just saw.</p>\n                    <img src=\"bees-with-color/bee-A1SM.svg\" width=\"200\">\n                    <p><span class=\"greenText\"><b>Successful harvest!</b></span><br>Your pay has increased by $0.02. Your bonus pay is now $0.78.</p>\n            ","response":0,"trial_type":"html-button-response","trial_index":48,"time_elapsed":328692,"internal_node_id":"0.0-4.0-1.20","subject_id":"60d1008fc26892a1f0ed7ed5","study_id":"60edd13110225f80f9f3709b","session_id":"6196c706a471b511303ec0ba","condition":"full-information","relevant_dimensions":["wings","pattern"],"bee_group":{"antennae":"X","wings":"2","pattern":"D","legs":"X"},"bonus":1.9000000000000012},{"rt":1335.300000011921,"stimulus":"bees-with-color/bee-A1SF.svg","response":0,"trial_type":"image-button-response","trial_index":49,"time_elapsed":330028,"internal_node_id":"0.0-4.0-0.21","subject_id":"60d1008fc26892a1f0ed7ed5","study_id":"60edd13110225f80f9f3709b","session_id":"6196c706a471b511303ec0ba","condition":"full-information","relevant_dimensions":["wings","pattern"],"bee_group":{"antennae":"X","wings":"2","pattern":"D","legs":"X"},"action":"harvest","summary":"good-harvest","bonus":1.9000000000000012},{"rt":830.3000000119209,"stimulus":"\n                    <p><b>Action: <em>harvest</em></b></p>\n                    <p>This is the bee that you just saw.</p>\n                    <img src=\"bees-with-color/bee-A1SF.svg\" width=\"200\">\n                    <p><span class=\"greenText\"><b>Successful harvest!</b></span><br>Your pay has increased by $0.02. Your bonus pay is now $0.80.</p>\n            ","response":0,"trial_type":"html-button-response","trial_index":50,"time_elapsed":330860,"internal_node_id":"0.0-4.0-1.21","subject_id":"60d1008fc26892a1f0ed7ed5","study_id":"60edd13110225f80f9f3709b","session_id":"6196c706a471b511303ec0ba","condition":"full-information","relevant_dimensions":["wings","pattern"],"bee_group":{"antennae":"X","wings":"2","pattern":"D","legs":"X"},"bonus":1.9000000000000012},{"rt":990.7000000476837,"stimulus":"bees-with-color/bee-B1SF.svg","response":0,"trial_type":"image-button-response","trial_index":51,"time_elapsed":331852,"internal_node_id":"0.0-4.0-0.22","subject_id":"60d1008fc26892a1f0ed7ed5","study_id":"60edd13110225f80f9f3709b","session_id":"6196c706a471b511303ec0ba","condition":"full-information","relevant_dimensions":["wings","pattern"],"bee_group":{"antennae":"X","wings":"2","pattern":"D","legs":"X"},"action":"harvest","summary":"good-harvest","bonus":1.9000000000000012},{"rt":830.8000000119209,"stimulus":"\n                    <p><b>Action: <em>harvest</em></b></p>\n                    <p>This is the bee that you just saw.</p>\n                    <img src=\"bees-with-color/bee-B1SF.svg\" width=\"200\">\n                    <p><span class=\"greenText\"><b>Successful harvest!</b></span><br>Your pay has increased by $0.02. Your bonus pay is now $0.82.</p>\n            ","response":0,"trial_type":"html-button-response","trial_index":52,"time_elapsed":332684,"internal_node_id":"0.0-4.0-1.22","subject_id":"60d1008fc26892a1f0ed7ed5","study_id":"60edd13110225f80f9f3709b","session_id":"6196c706a471b511303ec0ba","condition":"full-information","relevant_dimensions":["wings","pattern"],"bee_group":{"antennae":"X","wings":"2","pattern":"D","legs":"X"},"bonus":1.9000000000000012},{"rt":1422.9000000357628,"stimulus":"bees-with-color/bee-B2DF.svg","response":1,"trial_type":"image-button-response","trial_index":53,"time_elapsed":334108,"internal_node_id":"0.0-4.0-0.23","subject_id":"60d1008fc26892a1f0ed7ed5","study_id":"60edd13110225f80f9f3709b","session_id":"6196c706a471b511303ec0ba","condition":"full-information","relevant_dimensions":["wings","pattern"],"bee_group":{"antennae":"X","wings":"2","pattern":"D","legs":"X"},"action":"avoid","summary":"good-avoid","bonus":1.9000000000000012},{"rt":878.6000000238419,"stimulus":"\n                    <p><b>Action: <em>avoid</em></b></p>\n                    <p>This is the bee that you just saw.</p>\n                    <img src=\"bees-with-color/bee-B2DF.svg\" width=\"200\">\n                    <p><span class=\"greenText\">Good choice!</span>  This bee would have stung you.<br>Your bonus pay is unchanged, and remains at $0.82.</p>\n            ","response":0,"trial_type":"html-button-response","trial_index":54,"time_elapsed":334988,"internal_node_id":"0.0-4.0-1.23","subject_id":"60d1008fc26892a1f0ed7ed5","study_id":"60edd13110225f80f9f3709b","session_id":"6196c706a471b511303ec0ba","condition":"full-information","relevant_dimensions":["wings","pattern"],"bee_group":{"antennae":"X","wings":"2","pattern":"D","legs":"X"},"bonus":1.9000000000000012},{"rt":1342.8999999761581,"stimulus":"bees-with-color/bee-B1SM.svg","response":0,"trial_type":"image-button-response","trial_index":55,"time_elapsed":336332,"internal_node_id":"0.0-4.0-0.24","subject_id":"60d1008fc26892a1f0ed7ed5","study_id":"60edd13110225f80f9f3709b","session_id":"6196c706a471b511303ec0ba","condition":"full-information","relevant_dimensions":["wings","pattern"],"bee_group":{"antennae":"X","wings":"2","pattern":"D","legs":"X"},"action":"harvest","summary":"good-harvest","bonus":1.9000000000000012},{"rt":926.6000000238419,"stimulus":"\n                    <p><b>Action: <em>harvest</em></b></p>\n                    <p>This is the bee that you just saw.</p>\n                    <img src=\"bees-with-color/bee-B1SM.svg\" width=\"200\">\n                    <p><span class=\"greenText\"><b>Successful harvest!</b></span><br>Your pay has increased by $0.02. Your bonus pay is now $0.84.</p>\n            ","response":0,"trial_type":"html-button-response","trial_index":56,"time_elapsed":337260,"internal_node_id":"0.0-4.0-1.24","subject_id":"60d1008fc26892a1f0ed7ed5","study_id":"60edd13110225f80f9f3709b","session_id":"6196c706a471b511303ec0ba","condition":"full-information","relevant_dimensions":["wings","pattern"],"bee_group":{"antennae":"X","wings":"2","pattern":"D","legs":"X"},"bonus":1.9000000000000012},{"rt":1966.699999988079,"stimulus":"bees-with-color/bee-A2SM.svg","response":0,"trial_type":"image-button-response","trial_index":57,"time_elapsed":339228,"internal_node_id":"0.0-4.0-0.25","subject_id":"60d1008fc26892a1f0ed7ed5","study_id":"60edd13110225f80f9f3709b","session_id":"6196c706a471b511303ec0ba","condition":"full-information","relevant_dimensions":["wings","pattern"],"bee_group":{"antennae":"X","wings":"2","pattern":"D","legs":"X"},"action":"harvest","summary":"good-harvest","bonus":1.9000000000000012},{"rt":806.6999999880791,"stimulus":"\n                    <p><b>Action: <em>harvest</em></b></p>\n                    <p>This is the bee that you just saw.</p>\n                    <img src=\"bees-with-color/bee-A2SM.svg\" width=\"200\">\n                    <p><span class=\"greenText\"><b>Successful harvest!</b></span><br>Your pay has increased by $0.02. Your bonus pay is now $0.86.</p>\n            ","response":0,"trial_type":"html-button-response","trial_index":58,"time_elapsed":340036,"internal_node_id":"0.0-4.0-1.25","subject_id":"60d1008fc26892a1f0ed7ed5","study_id":"60edd13110225f80f9f3709b","session_id":"6196c706a471b511303ec0ba","condition":"full-information","relevant_dimensions":["wings","pattern"],"bee_group":{"antennae":"X","wings":"2","pattern":"D","legs":"X"},"bonus":1.9000000000000012},{"rt":1494.300000011921,"stimulus":"bees-with-color/bee-A1DF.svg","response":0,"trial_type":"image-button-response","trial_index":59,"time_elapsed":341532,"internal_node_id":"0.0-4.0-0.26","subject_id":"60d1008fc26892a1f0ed7ed5","study_id":"60edd13110225f80f9f3709b","session_id":"6196c706a471b511303ec0ba","condition":"full-information","relevant_dimensions":["wings","pattern"],"bee_group":{"antennae":"X","wings":"2","pattern":"D","legs":"X"},"action":"harvest","summary":"good-harvest","bonus":1.9000000000000012},{"rt":758.5,"stimulus":"\n                    <p><b>Action: <em>harvest</em></b></p>\n                    <p>This is the bee that you just saw.</p>\n                    <img src=\"bees-with-color/bee-A1DF.svg\" width=\"200\">\n                    <p><span class=\"greenText\"><b>Successful harvest!</b></span><br>Your pay has increased by $0.02. Your bonus pay is now $0.88.</p>\n            ","response":0,"trial_type":"html-button-response","trial_index":60,"time_elapsed":342292,"internal_node_id":"0.0-4.0-1.26","subject_id":"60d1008fc26892a1f0ed7ed5","study_id":"60edd13110225f80f9f3709b","session_id":"6196c706a471b511303ec0ba","condition":"full-information","relevant_dimensions":["wings","pattern"],"bee_group":{"antennae":"X","wings":"2","pattern":"D","legs":"X"},"bonus":1.9000000000000012},{"rt":1134.5,"stimulus":"bees-with-color/bee-B2DM.svg","response":1,"trial_type":"image-button-response","trial_index":61,"time_elapsed":343428,"internal_node_id":"0.0-4.0-0.27","subject_id":"60d1008fc26892a1f0ed7ed5","study_id":"60edd13110225f80f9f3709b","session_id":"6196c706a471b511303ec0ba","condition":"full-information","relevant_dimensions":["wings","pattern"],"bee_group":{"antennae":"X","wings":"2","pattern":"D","legs":"X"},"action":"avoid","summary":"good-avoid","bonus":1.9000000000000012},{"rt":1190.5,"stimulus":"\n                    <p><b>Action: <em>avoid</em></b></p>\n                    <p>This is the bee that you just saw.</p>\n                    <img src=\"bees-with-color/bee-B2DM.svg\" width=\"200\">\n                    <p><span class=\"greenText\">Good choice!</span>  This bee would have stung you.<br>Your bonus pay is unchanged, and remains at $0.88.</p>\n            ","response":0,"trial_type":"html-button-response","trial_index":62,"time_elapsed":344620,"internal_node_id":"0.0-4.0-1.27","subject_id":"60d1008fc26892a1f0ed7ed5","study_id":"60edd13110225f80f9f3709b","session_id":"6196c706a471b511303ec0ba","condition":"full-information","relevant_dimensions":["wings","pattern"],"bee_group":{"antennae":"X","wings":"2","pattern":"D","legs":"X"},"bonus":1.9000000000000012},{"rt":1295,"stimulus":"bees-with-color/bee-B2SM.svg","response":0,"trial_type":"image-button-response","trial_index":63,"time_elapsed":345916,"internal_node_id":"0.0-4.0-0.28","subject_id":"60d1008fc26892a1f0ed7ed5","study_id":"60edd13110225f80f9f3709b","session_id":"6196c706a471b511303ec0ba","condition":"full-information","relevant_dimensions":["wings","pattern"],"bee_group":{"antennae":"X","wings":"2","pattern":"D","legs":"X"},"action":"harvest","summary":"good-harvest","bonus":1.9000000000000012},{"rt":598.3999999761581,"stimulus":"\n                    <p><b>Action: <em>harvest</em></b></p>\n                    <p>This is the bee that you just saw.</p>\n                    <img src=\"bees-with-color/bee-B2SM.svg\" width=\"200\">\n                    <p><span class=\"greenText\"><b>Successful harvest!</b></span><br>Your pay has increased by $0.02. Your bonus pay is now $0.90.</p>\n            ","response":0,"trial_type":"html-button-response","trial_index":64,"time_elapsed":346516,"internal_node_id":"0.0-4.0-1.28","subject_id":"60d1008fc26892a1f0ed7ed5","study_id":"60edd13110225f80f9f3709b","session_id":"6196c706a471b511303ec0ba","condition":"full-information","relevant_dimensions":["wings","pattern"],"bee_group":{"antennae":"X","wings":"2","pattern":"D","legs":"X"},"bonus":1.9000000000000012},{"rt":1286.699999988079,"stimulus":"bees-with-color/bee-A1DM.svg","response":0,"trial_type":"image-button-response","trial_index":65,"time_elapsed":347804,"internal_node_id":"0.0-4.0-0.29","subject_id":"60d1008fc26892a1f0ed7ed5","study_id":"60edd13110225f80f9f3709b","session_id":"6196c706a471b511303ec0ba","condition":"full-information","relevant_dimensions":["wings","pattern"],"bee_group":{"antennae":"X","wings":"2","pattern":"D","legs":"X"},"action":"harvest","summary":"good-harvest","bonus":1.9000000000000012},{"rt":702.3000000119209,"stimulus":"\n                    <p><b>Action: <em>harvest</em></b></p>\n                    <p>This is the bee that you just saw.</p>\n                    <img src=\"bees-with-color/bee-A1DM.svg\" width=\"200\">\n                    <p><span class=\"greenText\"><b>Successful harvest!</b></span><br>Your pay has increased by $0.02. Your bonus pay is now $0.92.</p>\n            ","response":0,"trial_type":"html-button-response","trial_index":66,"time_elapsed":348508,"internal_node_id":"0.0-4.0-1.29","subject_id":"60d1008fc26892a1f0ed7ed5","study_id":"60edd13110225f80f9f3709b","session_id":"6196c706a471b511303ec0ba","condition":"full-information","relevant_dimensions":["wings","pattern"],"bee_group":{"antennae":"X","wings":"2","pattern":"D","legs":"X"},"bonus":1.9000000000000012},{"rt":1422.7000000476837,"stimulus":"bees-with-color/bee-B1DF.svg","response":0,"trial_type":"image-button-response","trial_index":67,"time_elapsed":349932,"internal_node_id":"0.0-4.0-0.30","subject_id":"60d1008fc26892a1f0ed7ed5","study_id":"60edd13110225f80f9f3709b","session_id":"6196c706a471b511303ec0ba","condition":"full-information","relevant_dimensions":["wings","pattern"],"bee_group":{"antennae":"X","wings":"2","pattern":"D","legs":"X"},"action":"harvest","summary":"good-harvest","bonus":1.9000000000000012},{"rt":743,"stimulus":"\n                    <p><b>Action: <em>harvest</em></b></p>\n                    <p>This is the bee that you just saw.</p>\n                    <img src=\"bees-with-color/bee-B1DF.svg\" width=\"200\">\n                    <p><span class=\"greenText\"><b>Successful harvest!</b></span><br>Your pay has increased by $0.02. Your bonus pay is now $0.94.</p>\n            ","response":0,"trial_type":"html-button-response","trial_index":68,"time_elapsed":350676,"internal_node_id":"0.0-4.0-1.30","subject_id":"60d1008fc26892a1f0ed7ed5","study_id":"60edd13110225f80f9f3709b","session_id":"6196c706a471b511303ec0ba","condition":"full-information","relevant_dimensions":["wings","pattern"],"bee_group":{"antennae":"X","wings":"2","pattern":"D","legs":"X"},"bonus":1.9000000000000012},{"rt":870.8999999761581,"stimulus":"bees-with-color/bee-A2DM.svg","response":1,"trial_type":"image-button-response","trial_index":69,"time_elapsed":351548,"internal_node_id":"0.0-4.0-0.31","subject_id":"60d1008fc26892a1f0ed7ed5","study_id":"60edd13110225f80f9f3709b","session_id":"6196c706a471b511303ec0ba","condition":"full-information","relevant_dimensions":["wings","pattern"],"bee_group":{"antennae":"X","wings":"2","pattern":"D","legs":"X"},"action":"avoid","summary":"good-avoid","bonus":1.9000000000000012},{"rt":726,"stimulus":"\n                    <p><b>Action: <em>avoid</em></b></p>\n                    <p>This is the bee that you just saw.</p>\n                    <img src=\"bees-with-color/bee-A2DM.svg\" width=\"200\">\n                    <p><span class=\"greenText\">Good choice!</span>  This bee would have stung you.<br>Your bonus pay is unchanged, and remains at $0.94.</p>\n            ","response":0,"trial_type":"html-button-response","trial_index":70,"time_elapsed":352276,"internal_node_id":"0.0-4.0-1.31","subject_id":"60d1008fc26892a1f0ed7ed5","study_id":"60edd13110225f80f9f3709b","session_id":"6196c706a471b511303ec0ba","condition":"full-information","relevant_dimensions":["wings","pattern"],"bee_group":{"antennae":"X","wings":"2","pattern":"D","legs":"X"},"bonus":1.9000000000000012},{"rt":1222.5999999642372,"stimulus":"bees-with-color/bee-A2DF.svg","response":1,"trial_type":"image-button-response","trial_index":71,"time_elapsed":353500,"internal_node_id":"0.0-4.0-0.32","subject_id":"60d1008fc26892a1f0ed7ed5","study_id":"60edd13110225f80f9f3709b","session_id":"6196c706a471b511303ec0ba","condition":"full-information","relevant_dimensions":["wings","pattern"],"bee_group":{"antennae":"X","wings":"2","pattern":"D","legs":"X"},"action":"avoid","summary":"good-avoid","bonus":1.9000000000000012},{"rt":606.8000000119209,"stimulus":"\n                    <p><b>Action: <em>avoid</em></b></p>\n                    <p>This is the bee that you just saw.</p>\n                    <img src=\"bees-with-color/bee-A2DF.svg\" width=\"200\">\n                    <p><span class=\"greenText\">Good choice!</span>  This bee would have stung you.<br>Your bonus pay is unchanged, and remains at $0.94.</p>\n            ","response":0,"trial_type":"html-button-response","trial_index":72,"time_elapsed":354108,"internal_node_id":"0.0-4.0-1.32","subject_id":"60d1008fc26892a1f0ed7ed5","study_id":"60edd13110225f80f9f3709b","session_id":"6196c706a471b511303ec0ba","condition":"full-information","relevant_dimensions":["wings","pattern"],"bee_group":{"antennae":"X","wings":"2","pattern":"D","legs":"X"},"bonus":1.9000000000000012},{"rt":925.8999999761581,"stimulus":"bees-with-color/bee-A1SM.svg","response":0,"trial_type":"image-button-response","trial_index":73,"time_elapsed":355036,"internal_node_id":"0.0-4.0-0.33","subject_id":"60d1008fc26892a1f0ed7ed5","study_id":"60edd13110225f80f9f3709b","session_id":"6196c706a471b511303ec0ba","condition":"full-information","relevant_dimensions":["wings","pattern"],"bee_group":{"antennae":"X","wings":"2","pattern":"D","legs":"X"},"action":"harvest","summary":"good-harvest","bonus":1.9000000000000012},{"rt":606.8000000119209,"stimulus":"\n                    <p><b>Action: <em>harvest</em></b></p>\n                    <p>This is the bee that you just saw.</p>\n                    <img src=\"bees-with-color/bee-A1SM.svg\" width=\"200\">\n                    <p><span class=\"greenText\"><b>Successful harvest!</b></span><br>Your pay has increased by $0.02. Your bonus pay is now $0.96.</p>\n            ","response":0,"trial_type":"html-button-response","trial_index":74,"time_elapsed":355644,"internal_node_id":"0.0-4.0-1.33","subject_id":"60d1008fc26892a1f0ed7ed5","study_id":"60edd13110225f80f9f3709b","session_id":"6196c706a471b511303ec0ba","condition":"full-information","relevant_dimensions":["wings","pattern"],"bee_group":{"antennae":"X","wings":"2","pattern":"D","legs":"X"},"bonus":1.9000000000000012},{"rt":1079,"stimulus":"bees-with-color/bee-B1DM.svg","response":0,"trial_type":"image-button-response","trial_index":75,"time_elapsed":356724,"internal_node_id":"0.0-4.0-0.34","subject_id":"60d1008fc26892a1f0ed7ed5","study_id":"60edd13110225f80f9f3709b","session_id":"6196c706a471b511303ec0ba","condition":"full-information","relevant_dimensions":["wings","pattern"],"bee_group":{"antennae":"X","wings":"2","pattern":"D","legs":"X"},"action":"harvest","summary":"good-harvest","bonus":1.9000000000000012},{"rt":598.7000000476837,"stimulus":"\n                    <p><b>Action: <em>harvest</em></b></p>\n                    <p>This is the bee that you just saw.</p>\n                    <img src=\"bees-with-color/bee-B1DM.svg\" width=\"200\">\n                    <p><span class=\"greenText\"><b>Successful harvest!</b></span><br>Your pay has increased by $0.02. Your bonus pay is now $0.98.</p>\n            ","response":0,"trial_type":"html-button-response","trial_index":76,"time_elapsed":357324,"internal_node_id":"0.0-4.0-1.34","subject_id":"60d1008fc26892a1f0ed7ed5","study_id":"60edd13110225f80f9f3709b","session_id":"6196c706a471b511303ec0ba","condition":"full-information","relevant_dimensions":["wings","pattern"],"bee_group":{"antennae":"X","wings":"2","pattern":"D","legs":"X"},"bonus":1.9000000000000012},{"rt":1239,"stimulus":"bees-with-color/bee-A1DF.svg","response":0,"trial_type":"image-button-response","trial_index":77,"time_elapsed":358564,"internal_node_id":"0.0-4.0-0.35","subject_id":"60d1008fc26892a1f0ed7ed5","study_id":"60edd13110225f80f9f3709b","session_id":"6196c706a471b511303ec0ba","condition":"full-information","relevant_dimensions":["wings","pattern"],"bee_group":{"antennae":"X","wings":"2","pattern":"D","legs":"X"},"action":"harvest","summary":"good-harvest","bonus":1.9000000000000012},{"rt":542.7000000476837,"stimulus":"\n                    <p><b>Action: <em>harvest</em></b></p>\n                    <p>This is the bee that you just saw.</p>\n                    <img src=\"bees-with-color/bee-A1DF.svg\" width=\"200\">\n                    <p><span class=\"greenText\"><b>Successful harvest!</b></span><br>Your pay has increased by $0.02. Your bonus pay is now $1.00.</p>\n            ","response":0,"trial_type":"html-button-response","trial_index":78,"time_elapsed":359108,"internal_node_id":"0.0-4.0-1.35","subject_id":"60d1008fc26892a1f0ed7ed5","study_id":"60edd13110225f80f9f3709b","session_id":"6196c706a471b511303ec0ba","condition":"full-information","relevant_dimensions":["wings","pattern"],"bee_group":{"antennae":"X","wings":"2","pattern":"D","legs":"X"},"bonus":1.9000000000000012},{"rt":1447.1000000238419,"stimulus":"bees-with-color/bee-B2SM.svg","response":0,"trial_type":"image-button-response","trial_index":79,"time_elapsed":360556,"internal_node_id":"0.0-4.0-0.36","subject_id":"60d1008fc26892a1f0ed7ed5","study_id":"60edd13110225f80f9f3709b","session_id":"6196c706a471b511303ec0ba","condition":"full-information","relevant_dimensions":["wings","pattern"],"bee_group":{"antennae":"X","wings":"2","pattern":"D","legs":"X"},"action":"harvest","summary":"good-harvest","bonus":1.9000000000000012},{"rt":550.7000000476837,"stimulus":"\n                    <p><b>Action: <em>harvest</em></b></p>\n                    <p>This is the bee that you just saw.</p>\n                    <img src=\"bees-with-color/bee-B2SM.svg\" width=\"200\">\n                    <p><span class=\"greenText\"><b>Successful harvest!</b></span><br>Your pay has increased by $0.02. Your bonus pay is now $1.02.</p>\n            ","response":0,"trial_type":"html-button-response","trial_index":80,"time_elapsed":361108,"internal_node_id":"0.0-4.0-1.36","subject_id":"60d1008fc26892a1f0ed7ed5","study_id":"60edd13110225f80f9f3709b","session_id":"6196c706a471b511303ec0ba","condition":"full-information","relevant_dimensions":["wings","pattern"],"bee_group":{"antennae":"X","wings":"2","pattern":"D","legs":"X"},"bonus":1.9000000000000012},{"rt":1055,"stimulus":"bees-with-color/bee-B1DF.svg","response":0,"trial_type":"image-button-response","trial_index":81,"time_elapsed":362164,"internal_node_id":"0.0-4.0-0.37","subject_id":"60d1008fc26892a1f0ed7ed5","study_id":"60edd13110225f80f9f3709b","session_id":"6196c706a471b511303ec0ba","condition":"full-information","relevant_dimensions":["wings","pattern"],"bee_group":{"antennae":"X","wings":"2","pattern":"D","legs":"X"},"action":"harvest","summary":"good-harvest","bonus":1.9000000000000012},{"rt":470.60000002384186,"stimulus":"\n                    <p><b>Action: <em>harvest</em></b></p>\n                    <p>This is the bee that you just saw.</p>\n                    <img src=\"bees-with-color/bee-B1DF.svg\" width=\"200\">\n                    <p><span class=\"greenText\"><b>Successful harvest!</b></span><br>Your pay has increased by $0.02. Your bonus pay is now $1.04.</p>\n            ","response":0,"trial_type":"html-button-response","trial_index":82,"time_elapsed":362636,"internal_node_id":"0.0-4.0-1.37","subject_id":"60d1008fc26892a1f0ed7ed5","study_id":"60edd13110225f80f9f3709b","session_id":"6196c706a471b511303ec0ba","condition":"full-information","relevant_dimensions":["wings","pattern"],"bee_group":{"antennae":"X","wings":"2","pattern":"D","legs":"X"},"bonus":1.9000000000000012},{"rt":894.8000000119209,"stimulus":"bees-with-color/bee-B1SM.svg","response":0,"trial_type":"image-button-response","trial_index":83,"time_elapsed":363532,"internal_node_id":"0.0-4.0-0.38","subject_id":"60d1008fc26892a1f0ed7ed5","study_id":"60edd13110225f80f9f3709b","session_id":"6196c706a471b511303ec0ba","condition":"full-information","relevant_dimensions":["wings","pattern"],"bee_group":{"antennae":"X","wings":"2","pattern":"D","legs":"X"},"action":"harvest","summary":"good-harvest","bonus":1.9000000000000012},{"rt":526.8000000119209,"stimulus":"\n                    <p><b>Action: <em>harvest</em></b></p>\n                    <p>This is the bee that you just saw.</p>\n                    <img src=\"bees-with-color/bee-B1SM.svg\" width=\"200\">\n                    <p><span class=\"greenText\"><b>Successful harvest!</b></span><br>Your pay has increased by $0.02. Your bonus pay is now $1.06.</p>\n            ","response":0,"trial_type":"html-button-response","trial_index":84,"time_elapsed":364060,"internal_node_id":"0.0-4.0-1.38","subject_id":"60d1008fc26892a1f0ed7ed5","study_id":"60edd13110225f80f9f3709b","session_id":"6196c706a471b511303ec0ba","condition":"full-information","relevant_dimensions":["wings","pattern"],"bee_group":{"antennae":"X","wings":"2","pattern":"D","legs":"X"},"bonus":1.9000000000000012},{"rt":990.8000000119209,"stimulus":"bees-with-color/bee-B2DM.svg","response":1,"trial_type":"image-button-response","trial_index":85,"time_elapsed":365052,"internal_node_id":"0.0-4.0-0.39","subject_id":"60d1008fc26892a1f0ed7ed5","study_id":"60edd13110225f80f9f3709b","session_id":"6196c706a471b511303ec0ba","condition":"full-information","relevant_dimensions":["wings","pattern"],"bee_group":{"antennae":"X","wings":"2","pattern":"D","legs":"X"},"action":"avoid","summary":"good-avoid","bonus":1.9000000000000012},{"rt":526.6000000238419,"stimulus":"\n                    <p><b>Action: <em>avoid</em></b></p>\n                    <p>This is the bee that you just saw.</p>\n                    <img src=\"bees-with-color/bee-B2DM.svg\" width=\"200\">\n                    <p><span class=\"greenText\">Good choice!</span>  This bee would have stung you.<br>Your bonus pay is unchanged, and remains at $1.06.</p>\n            ","response":0,"trial_type":"html-button-response","trial_index":86,"time_elapsed":365580,"internal_node_id":"0.0-4.0-1.39","subject_id":"60d1008fc26892a1f0ed7ed5","study_id":"60edd13110225f80f9f3709b","session_id":"6196c706a471b511303ec0ba","condition":"full-information","relevant_dimensions":["wings","pattern"],"bee_group":{"antennae":"X","wings":"2","pattern":"D","legs":"X"},"bonus":1.9000000000000012},{"rt":854.6999999880791,"stimulus":"bees-with-color/bee-B1SF.svg","response":0,"trial_type":"image-button-response","trial_index":87,"time_elapsed":366436,"internal_node_id":"0.0-4.0-0.40","subject_id":"60d1008fc26892a1f0ed7ed5","study_id":"60edd13110225f80f9f3709b","session_id":"6196c706a471b511303ec0ba","condition":"full-information","relevant_dimensions":["wings","pattern"],"bee_group":{"antennae":"X","wings":"2","pattern":"D","legs":"X"},"action":"harvest","summary":"good-harvest","bonus":1.9000000000000012},{"rt":518.9000000357628,"stimulus":"\n                    <p><b>Action: <em>harvest</em></b></p>\n                    <p>This is the bee that you just saw.</p>\n                    <img src=\"bees-with-color/bee-B1SF.svg\" width=\"200\">\n                    <p><span class=\"greenText\"><b>Successful harvest!</b></span><br>Your pay has increased by $0.02. Your bonus pay is now $1.08.</p>\n            ","response":0,"trial_type":"html-button-response","trial_index":88,"time_elapsed":366956,"internal_node_id":"0.0-4.0-1.40","subject_id":"60d1008fc26892a1f0ed7ed5","study_id":"60edd13110225f80f9f3709b","session_id":"6196c706a471b511303ec0ba","condition":"full-information","relevant_dimensions":["wings","pattern"],"bee_group":{"antennae":"X","wings":"2","pattern":"D","legs":"X"},"bonus":1.9000000000000012},{"rt":990.6999999880791,"stimulus":"bees-with-color/bee-A2DM.svg","response":1,"trial_type":"image-button-response","trial_index":89,"time_elapsed":367948,"internal_node_id":"0.0-4.0-0.41","subject_id":"60d1008fc26892a1f0ed7ed5","study_id":"60edd13110225f80f9f3709b","session_id":"6196c706a471b511303ec0ba","condition":"full-information","relevant_dimensions":["wings","pattern"],"bee_group":{"antennae":"X","wings":"2","pattern":"D","legs":"X"},"action":"avoid","summary":"good-avoid","bonus":1.9000000000000012},{"rt":542.6000000238419,"stimulus":"\n                    <p><b>Action: <em>avoid</em></b></p>\n                    <p>This is the bee that you just saw.</p>\n                    <img src=\"bees-with-color/bee-A2DM.svg\" width=\"200\">\n                    <p><span class=\"greenText\">Good choice!</span>  This bee would have stung you.<br>Your bonus pay is unchanged, and remains at $1.08.</p>\n            ","response":0,"trial_type":"html-button-response","trial_index":90,"time_elapsed":368492,"internal_node_id":"0.0-4.0-1.41","subject_id":"60d1008fc26892a1f0ed7ed5","study_id":"60edd13110225f80f9f3709b","session_id":"6196c706a471b511303ec0ba","condition":"full-information","relevant_dimensions":["wings","pattern"],"bee_group":{"antennae":"X","wings":"2","pattern":"D","legs":"X"},"bonus":1.9000000000000012},{"rt":1127.4000000357628,"stimulus":"bees-with-color/bee-B2SF.svg","response":0,"trial_type":"image-button-response","trial_index":91,"time_elapsed":369621,"internal_node_id":"0.0-4.0-0.42","subject_id":"60d1008fc26892a1f0ed7ed5","study_id":"60edd13110225f80f9f3709b","session_id":"6196c706a471b511303ec0ba","condition":"full-information","relevant_dimensions":["wings","pattern"],"bee_group":{"antennae":"X","wings":"2","pattern":"D","legs":"X"},"action":"harvest","summary":"good-harvest","bonus":1.9000000000000012},{"rt":558.1000000238419,"stimulus":"\n                    <p><b>Action: <em>harvest</em></b></p>\n                    <p>This is the bee that you just saw.</p>\n                    <img src=\"bees-with-color/bee-B2SF.svg\" width=\"200\">\n                    <p><span class=\"greenText\"><b>Successful harvest!</b></span><br>Your pay has increased by $0.02. Your bonus pay is now $1.10.</p>\n            ","response":0,"trial_type":"html-button-response","trial_index":92,"time_elapsed":370180,"internal_node_id":"0.0-4.0-1.42","subject_id":"60d1008fc26892a1f0ed7ed5","study_id":"60edd13110225f80f9f3709b","session_id":"6196c706a471b511303ec0ba","condition":"full-information","relevant_dimensions":["wings","pattern"],"bee_group":{"antennae":"X","wings":"2","pattern":"D","legs":"X"},"bonus":1.9000000000000012},{"rt":1374.7000000476837,"stimulus":"bees-with-color/bee-A1SF.svg","response":0,"trial_type":"image-button-response","trial_index":93,"time_elapsed":371556,"internal_node_id":"0.0-4.0-0.43","subject_id":"60d1008fc26892a1f0ed7ed5","study_id":"60edd13110225f80f9f3709b","session_id":"6196c706a471b511303ec0ba","condition":"full-information","relevant_dimensions":["wings","pattern"],"bee_group":{"antennae":"X","wings":"2","pattern":"D","legs":"X"},"action":"harvest","summary":"good-harvest","bonus":1.9000000000000012},{"rt":502.5,"stimulus":"\n                    <p><b>Action: <em>harvest</em></b></p>\n                    <p>This is the bee that you just saw.</p>\n                    <img src=\"bees-with-color/bee-A1SF.svg\" width=\"200\">\n                    <p><span class=\"greenText\"><b>Successful harvest!</b></span><br>Your pay has increased by $0.02. Your bonus pay is now $1.12.</p>\n            ","response":0,"trial_type":"html-button-response","trial_index":94,"time_elapsed":372060,"internal_node_id":"0.0-4.0-1.43","subject_id":"60d1008fc26892a1f0ed7ed5","study_id":"60edd13110225f80f9f3709b","session_id":"6196c706a471b511303ec0ba","condition":"full-information","relevant_dimensions":["wings","pattern"],"bee_group":{"antennae":"X","wings":"2","pattern":"D","legs":"X"},"bonus":1.9000000000000012},{"rt":2430.5,"stimulus":"bees-with-color/bee-A1DM.svg","response":0,"trial_type":"image-button-response","trial_index":95,"time_elapsed":374492,"internal_node_id":"0.0-4.0-0.44","subject_id":"60d1008fc26892a1f0ed7ed5","study_id":"60edd13110225f80f9f3709b","session_id":"6196c706a471b511303ec0ba","condition":"full-information","relevant_dimensions":["wings","pattern"],"bee_group":{"antennae":"X","wings":"2","pattern":"D","legs":"X"},"action":"harvest","summary":"good-harvest","bonus":1.9000000000000012},{"rt":582.6000000238419,"stimulus":"\n                    <p><b>Action: <em>harvest</em></b></p>\n                    <p>This is the bee that you just saw.</p>\n                    <img src=\"bees-with-color/bee-A1DM.svg\" width=\"200\">\n                    <p><span class=\"greenText\"><b>Successful harvest!</b></span><br>Your pay has increased by $0.02. Your bonus pay is now $1.14.</p>\n            ","response":0,"trial_type":"html-button-response","trial_index":96,"time_elapsed":375076,"internal_node_id":"0.0-4.0-1.44","subject_id":"60d1008fc26892a1f0ed7ed5","study_id":"60edd13110225f80f9f3709b","session_id":"6196c706a471b511303ec0ba","condition":"full-information","relevant_dimensions":["wings","pattern"],"bee_group":{"antennae":"X","wings":"2","pattern":"D","legs":"X"},"bonus":1.9000000000000012},{"rt":918.6000000238419,"stimulus":"bees-with-color/bee-B2DF.svg","response":1,"trial_type":"image-button-response","trial_index":97,"time_elapsed":375996,"internal_node_id":"0.0-4.0-0.45","subject_id":"60d1008fc26892a1f0ed7ed5","study_id":"60edd13110225f80f9f3709b","session_id":"6196c706a471b511303ec0ba","condition":"full-information","relevant_dimensions":["wings","pattern"],"bee_group":{"antennae":"X","wings":"2","pattern":"D","legs":"X"},"action":"avoid","summary":"good-avoid","bonus":1.9000000000000012},{"rt":614.6000000238419,"stimulus":"\n                    <p><b>Action: <em>avoid</em></b></p>\n                    <p>This is the bee that you just saw.</p>\n                    <img src=\"bees-with-color/bee-B2DF.svg\" width=\"200\">\n                    <p><span class=\"greenText\">Good choice!</span>  This bee would have stung you.<br>Your bonus pay is unchanged, and remains at $1.14.</p>\n            ","response":0,"trial_type":"html-button-response","trial_index":98,"time_elapsed":376612,"internal_node_id":"0.0-4.0-1.45","subject_id":"60d1008fc26892a1f0ed7ed5","study_id":"60edd13110225f80f9f3709b","session_id":"6196c706a471b511303ec0ba","condition":"full-information","relevant_dimensions":["wings","pattern"],"bee_group":{"antennae":"X","wings":"2","pattern":"D","legs":"X"},"bonus":1.9000000000000012},{"rt":1334.6000000238419,"stimulus":"bees-with-color/bee-A2SM.svg","response":0,"trial_type":"image-button-response","trial_index":99,"time_elapsed":377948,"internal_node_id":"0.0-4.0-0.46","subject_id":"60d1008fc26892a1f0ed7ed5","study_id":"60edd13110225f80f9f3709b","session_id":"6196c706a471b511303ec0ba","condition":"full-information","relevant_dimensions":["wings","pattern"],"bee_group":{"antennae":"X","wings":"2","pattern":"D","legs":"X"},"action":"harvest","summary":"good-harvest","bonus":1.9000000000000012},{"rt":454.5,"stimulus":"\n                    <p><b>Action: <em>harvest</em></b></p>\n                    <p>This is the bee that you just saw.</p>\n                    <img src=\"bees-with-color/bee-A2SM.svg\" width=\"200\">\n                    <p><span class=\"greenText\"><b>Successful harvest!</b></span><br>Your pay has increased by $0.02. Your bonus pay is now $1.16.</p>\n            ","response":0,"trial_type":"html-button-response","trial_index":100,"time_elapsed":378404,"internal_node_id":"0.0-4.0-1.46","subject_id":"60d1008fc26892a1f0ed7ed5","study_id":"60edd13110225f80f9f3709b","session_id":"6196c706a471b511303ec0ba","condition":"full-information","relevant_dimensions":["wings","pattern"],"bee_group":{"antennae":"X","wings":"2","pattern":"D","legs":"X"},"bonus":1.9000000000000012},{"rt":902.6000000238419,"stimulus":"bees-with-color/bee-A2SF.svg","response":0,"trial_type":"image-button-response","trial_index":101,"time_elapsed":379308,"internal_node_id":"0.0-4.0-0.47","subject_id":"60d1008fc26892a1f0ed7ed5","study_id":"60edd13110225f80f9f3709b","session_id":"6196c706a471b511303ec0ba","condition":"full-information","relevant_dimensions":["wings","pattern"],"bee_group":{"antennae":"X","wings":"2","pattern":"D","legs":"X"},"action":"harvest","summary":"good-harvest","bonus":1.9000000000000012},{"rt":470.60000002384186,"stimulus":"\n                    <p><b>Action: <em>harvest</em></b></p>\n                    <p>This is the bee that you just saw.</p>\n                    <img src=\"bees-with-color/bee-A2SF.svg\" width=\"200\">\n                    <p><span class=\"greenText\"><b>Successful harvest!</b></span><br>Your pay has increased by $0.02. Your bonus pay is now $1.18.</p>\n            ","response":0,"trial_type":"html-button-response","trial_index":102,"time_elapsed":379780,"internal_node_id":"0.0-4.0-1.47","subject_id":"60d1008fc26892a1f0ed7ed5","study_id":"60edd13110225f80f9f3709b","session_id":"6196c706a471b511303ec0ba","condition":"full-information","relevant_dimensions":["wings","pattern"],"bee_group":{"antennae":"X","wings":"2","pattern":"D","legs":"X"},"bonus":1.9000000000000012},{"rt":1159.300000011921,"stimulus":"bees-with-color/bee-A1DM.svg","response":0,"trial_type":"image-button-response","trial_index":103,"time_elapsed":380941,"internal_node_id":"0.0-4.0-0.48","subject_id":"60d1008fc26892a1f0ed7ed5","study_id":"60edd13110225f80f9f3709b","session_id":"6196c706a471b511303ec0ba","condition":"full-information","relevant_dimensions":["wings","pattern"],"bee_group":{"antennae":"X","wings":"2","pattern":"D","legs":"X"},"action":"harvest","summary":"good-harvest","bonus":1.9000000000000012},{"rt":372.69999998807907,"stimulus":"\n                    <p><b>Action: <em>harvest</em></b></p>\n                    <p>This is the bee that you just saw.</p>\n                    <img src=\"bees-with-color/bee-A1DM.svg\" width=\"200\">\n                    <p><span class=\"greenText\"><b>Successful harvest!</b></span><br>Your pay has increased by $0.02. Your bonus pay is now $1.20.</p>\n            ","response":0,"trial_type":"html-button-response","trial_index":104,"time_elapsed":381316,"internal_node_id":"0.0-4.0-1.48","subject_id":"60d1008fc26892a1f0ed7ed5","study_id":"60edd13110225f80f9f3709b","session_id":"6196c706a471b511303ec0ba","condition":"full-information","relevant_dimensions":["wings","pattern"],"bee_group":{"antennae":"X","wings":"2","pattern":"D","legs":"X"},"bonus":1.9000000000000012},{"rt":1062.300000011921,"stimulus":"bees-with-color/bee-A2DM.svg","response":1,"trial_type":"image-button-response","trial_index":105,"time_elapsed":382380,"internal_node_id":"0.0-4.0-0.49","subject_id":"60d1008fc26892a1f0ed7ed5","study_id":"60edd13110225f80f9f3709b","session_id":"6196c706a471b511303ec0ba","condition":"full-information","relevant_dimensions":["wings","pattern"],"bee_group":{"antennae":"X","wings":"2","pattern":"D","legs":"X"},"action":"avoid","summary":"good-avoid","bonus":1.9000000000000012},{"rt":502.4000000357628,"stimulus":"\n                    <p><b>Action: <em>avoid</em></b></p>\n                    <p>This is the bee that you just saw.</p>\n                    <img src=\"bees-with-color/bee-A2DM.svg\" width=\"200\">\n                    <p><span class=\"greenText\">Good choice!</span>  This bee would have stung you.<br>Your bonus pay is unchanged, and remains at $1.20.</p>\n            ","response":0,"trial_type":"html-button-response","trial_index":106,"time_elapsed":382884,"internal_node_id":"0.0-4.0-1.49","subject_id":"60d1008fc26892a1f0ed7ed5","study_id":"60edd13110225f80f9f3709b","session_id":"6196c706a471b511303ec0ba","condition":"full-information","relevant_dimensions":["wings","pattern"],"bee_group":{"antennae":"X","wings":"2","pattern":"D","legs":"X"},"bonus":1.9000000000000012},{"rt":1223.1000000238419,"stimulus":"bees-with-color/bee-A2DF.svg","response":1,"trial_type":"image-button-response","trial_index":107,"time_elapsed":384109,"internal_node_id":"0.0-4.0-0.50","subject_id":"60d1008fc26892a1f0ed7ed5","study_id":"60edd13110225f80f9f3709b","session_id":"6196c706a471b511303ec0ba","condition":"full-information","relevant_dimensions":["wings","pattern"],"bee_group":{"antennae":"X","wings":"2","pattern":"D","legs":"X"},"action":"avoid","summary":"good-avoid","bonus":1.9000000000000012},{"rt":485.89999997615814,"stimulus":"\n                    <p><b>Action: <em>avoid</em></b></p>\n                    <p>This is the bee that you just saw.</p>\n                    <img src=\"bees-with-color/bee-A2DF.svg\" width=\"200\">\n                    <p><span class=\"greenText\">Good choice!</span>  This bee would have stung you.<br>Your bonus pay is unchanged, and remains at $1.20.</p>\n            ","response":0,"trial_type":"html-button-response","trial_index":108,"time_elapsed":384596,"internal_node_id":"0.0-4.0-1.50","subject_id":"60d1008fc26892a1f0ed7ed5","study_id":"60edd13110225f80f9f3709b","session_id":"6196c706a471b511303ec0ba","condition":"full-information","relevant_dimensions":["wings","pattern"],"bee_group":{"antennae":"X","wings":"2","pattern":"D","legs":"X"},"bonus":1.9000000000000012},{"rt":1127.2000000476837,"stimulus":"bees-with-color/bee-B2SF.svg","response":0,"trial_type":"image-button-response","trial_index":109,"time_elapsed":385724,"internal_node_id":"0.0-4.0-0.51","subject_id":"60d1008fc26892a1f0ed7ed5","study_id":"60edd13110225f80f9f3709b","session_id":"6196c706a471b511303ec0ba","condition":"full-information","relevant_dimensions":["wings","pattern"],"bee_group":{"antennae":"X","wings":"2","pattern":"D","legs":"X"},"action":"harvest","summary":"good-harvest","bonus":1.9000000000000012},{"rt":438.89999997615814,"stimulus":"\n                    <p><b>Action: <em>harvest</em></b></p>\n                    <p>This is the bee that you just saw.</p>\n                    <img src=\"bees-with-color/bee-B2SF.svg\" width=\"200\">\n                    <p><span class=\"greenText\"><b>Successful harvest!</b></span><br>Your pay has increased by $0.02. Your bonus pay is now $1.22.</p>\n            ","response":0,"trial_type":"html-button-response","trial_index":110,"time_elapsed":386164,"internal_node_id":"0.0-4.0-1.51","subject_id":"60d1008fc26892a1f0ed7ed5","study_id":"60edd13110225f80f9f3709b","session_id":"6196c706a471b511303ec0ba","condition":"full-information","relevant_dimensions":["wings","pattern"],"bee_group":{"antennae":"X","wings":"2","pattern":"D","legs":"X"},"bonus":1.9000000000000012},{"rt":862.6999999880791,"stimulus":"bees-with-color/bee-B1SF.svg","response":0,"trial_type":"image-button-response","trial_index":111,"time_elapsed":387028,"internal_node_id":"0.0-4.0-0.52","subject_id":"60d1008fc26892a1f0ed7ed5","study_id":"60edd13110225f80f9f3709b","session_id":"6196c706a471b511303ec0ba","condition":"full-information","relevant_dimensions":["wings","pattern"],"bee_group":{"antennae":"X","wings":"2","pattern":"D","legs":"X"},"action":"harvest","summary":"good-harvest","bonus":1.9000000000000012},{"rt":583.8000000119209,"stimulus":"\n                    <p><b>Action: <em>harvest</em></b></p>\n                    <p>This is the bee that you just saw.</p>\n                    <img src=\"bees-with-color/bee-B1SF.svg\" width=\"200\">\n                    <p><span class=\"greenText\"><b>Successful harvest!</b></span><br>Your pay has increased by $0.02. Your bonus pay is now $1.24.</p>\n            ","response":0,"trial_type":"html-button-response","trial_index":112,"time_elapsed":387613,"internal_node_id":"0.0-4.0-1.52","subject_id":"60d1008fc26892a1f0ed7ed5","study_id":"60edd13110225f80f9f3709b","session_id":"6196c706a471b511303ec0ba","condition":"full-information","relevant_dimensions":["wings","pattern"],"bee_group":{"antennae":"X","wings":"2","pattern":"D","legs":"X"},"bonus":1.9000000000000012},{"rt":1070,"stimulus":"bees-with-color/bee-B2SM.svg","response":0,"trial_type":"image-button-response","trial_index":113,"time_elapsed":388684,"internal_node_id":"0.0-4.0-0.53","subject_id":"60d1008fc26892a1f0ed7ed5","study_id":"60edd13110225f80f9f3709b","session_id":"6196c706a471b511303ec0ba","condition":"full-information","relevant_dimensions":["wings","pattern"],"bee_group":{"antennae":"X","wings":"2","pattern":"D","legs":"X"},"action":"harvest","summary":"good-harvest","bonus":1.9000000000000012},{"rt":462.80000001192093,"stimulus":"\n                    <p><b>Action: <em>harvest</em></b></p>\n                    <p>This is the bee that you just saw.</p>\n                    <img src=\"bees-with-color/bee-B2SM.svg\" width=\"200\">\n                    <p><span class=\"greenText\"><b>Successful harvest!</b></span><br>Your pay has increased by $0.02. Your bonus pay is now $1.26.</p>\n            ","response":0,"trial_type":"html-button-response","trial_index":114,"time_elapsed":389148,"internal_node_id":"0.0-4.0-1.53","subject_id":"60d1008fc26892a1f0ed7ed5","study_id":"60edd13110225f80f9f3709b","session_id":"6196c706a471b511303ec0ba","condition":"full-information","relevant_dimensions":["wings","pattern"],"bee_group":{"antennae":"X","wings":"2","pattern":"D","legs":"X"},"bonus":1.9000000000000012},{"rt":974.7000000476837,"stimulus":"bees-with-color/bee-B1DF.svg","response":0,"trial_type":"image-button-response","trial_index":115,"time_elapsed":390124,"internal_node_id":"0.0-4.0-0.54","subject_id":"60d1008fc26892a1f0ed7ed5","study_id":"60edd13110225f80f9f3709b","session_id":"6196c706a471b511303ec0ba","condition":"full-information","relevant_dimensions":["wings","pattern"],"bee_group":{"antennae":"X","wings":"2","pattern":"D","legs":"X"},"action":"harvest","summary":"good-harvest","bonus":1.9000000000000012},{"rt":422.69999998807907,"stimulus":"\n                    <p><b>Action: <em>harvest</em></b></p>\n                    <p>This is the bee that you just saw.</p>\n                    <img src=\"bees-with-color/bee-B1DF.svg\" width=\"200\">\n                    <p><span class=\"greenText\"><b>Successful harvest!</b></span><br>Your pay has increased by $0.02. Your bonus pay is now $1.28.</p>\n            ","response":0,"trial_type":"html-button-response","trial_index":116,"time_elapsed":390548,"internal_node_id":"0.0-4.0-1.54","subject_id":"60d1008fc26892a1f0ed7ed5","study_id":"60edd13110225f80f9f3709b","session_id":"6196c706a471b511303ec0ba","condition":"full-information","relevant_dimensions":["wings","pattern"],"bee_group":{"antennae":"X","wings":"2","pattern":"D","legs":"X"},"bonus":1.9000000000000012},{"rt":1079.800000011921,"stimulus":"bees-with-color/bee-B1SM.svg","response":0,"trial_type":"image-button-response","trial_index":117,"time_elapsed":391629,"internal_node_id":"0.0-4.0-0.55","subject_id":"60d1008fc26892a1f0ed7ed5","study_id":"60edd13110225f80f9f3709b","session_id":"6196c706a471b511303ec0ba","condition":"full-information","relevant_dimensions":["wings","pattern"],"bee_group":{"antennae":"X","wings":"2","pattern":"D","legs":"X"},"action":"harvest","summary":"good-harvest","bonus":1.9000000000000012},{"rt":773.3999999761581,"stimulus":"\n                    <p><b>Action: <em>harvest</em></b></p>\n                    <p>This is the bee that you just saw.</p>\n                    <img src=\"bees-with-color/bee-B1SM.svg\" width=\"200\">\n                    <p><span class=\"greenText\"><b>Successful harvest!</b></span><br>Your pay has increased by $0.02. Your bonus pay is now $1.30.</p>\n            ","response":0,"trial_type":"html-button-response","trial_index":118,"time_elapsed":392404,"internal_node_id":"0.0-4.0-1.55","subject_id":"60d1008fc26892a1f0ed7ed5","study_id":"60edd13110225f80f9f3709b","session_id":"6196c706a471b511303ec0ba","condition":"full-information","relevant_dimensions":["wings","pattern"],"bee_group":{"antennae":"X","wings":"2","pattern":"D","legs":"X"},"bonus":1.9000000000000012},{"rt":830.8999999761581,"stimulus":"bees-with-color/bee-A1SM.svg","response":0,"trial_type":"image-button-response","trial_index":119,"time_elapsed":393236,"internal_node_id":"0.0-4.0-0.56","subject_id":"60d1008fc26892a1f0ed7ed5","study_id":"60edd13110225f80f9f3709b","session_id":"6196c706a471b511303ec0ba","condition":"full-information","relevant_dimensions":["wings","pattern"],"bee_group":{"antennae":"X","wings":"2","pattern":"D","legs":"X"},"action":"harvest","summary":"good-harvest","bonus":1.9000000000000012},{"rt":430.80000001192093,"stimulus":"\n                    <p><b>Action: <em>harvest</em></b></p>\n                    <p>This is the bee that you just saw.</p>\n                    <img src=\"bees-with-color/bee-A1SM.svg\" width=\"200\">\n                    <p><span class=\"greenText\"><b>Successful harvest!</b></span><br>Your pay has increased by $0.02. Your bonus pay is now $1.32.</p>\n            ","response":0,"trial_type":"html-button-response","trial_index":120,"time_elapsed":393668,"internal_node_id":"0.0-4.0-1.56","subject_id":"60d1008fc26892a1f0ed7ed5","study_id":"60edd13110225f80f9f3709b","session_id":"6196c706a471b511303ec0ba","condition":"full-information","relevant_dimensions":["wings","pattern"],"bee_group":{"antennae":"X","wings":"2","pattern":"D","legs":"X"},"bonus":1.9000000000000012},{"rt":758.6999999880791,"stimulus":"bees-with-color/bee-B2DM.svg","response":1,"trial_type":"image-button-response","trial_index":121,"time_elapsed":394428,"internal_node_id":"0.0-4.0-0.57","subject_id":"60d1008fc26892a1f0ed7ed5","study_id":"60edd13110225f80f9f3709b","session_id":"6196c706a471b511303ec0ba","condition":"full-information","relevant_dimensions":["wings","pattern"],"bee_group":{"antennae":"X","wings":"2","pattern":"D","legs":"X"},"action":"avoid","summary":"good-avoid","bonus":1.9000000000000012},{"rt":422.69999998807907,"stimulus":"\n                    <p><b>Action: <em>avoid</em></b></p>\n                    <p>This is the bee that you just saw.</p>\n                    <img src=\"bees-with-color/bee-B2DM.svg\" width=\"200\">\n                    <p><span class=\"greenText\">Good choice!</span>  This bee would have stung you.<br>Your bonus pay is unchanged, and remains at $1.32.</p>\n            ","response":0,"trial_type":"html-button-response","trial_index":122,"time_elapsed":394852,"internal_node_id":"0.0-4.0-1.57","subject_id":"60d1008fc26892a1f0ed7ed5","study_id":"60edd13110225f80f9f3709b","session_id":"6196c706a471b511303ec0ba","condition":"full-information","relevant_dimensions":["wings","pattern"],"bee_group":{"antennae":"X","wings":"2","pattern":"D","legs":"X"},"bonus":1.9000000000000012},{"rt":766.8999999761581,"stimulus":"bees-with-color/bee-A1SF.svg","response":0,"trial_type":"image-button-response","trial_index":123,"time_elapsed":395620,"internal_node_id":"0.0-4.0-0.58","subject_id":"60d1008fc26892a1f0ed7ed5","study_id":"60edd13110225f80f9f3709b","session_id":"6196c706a471b511303ec0ba","condition":"full-information","relevant_dimensions":["wings","pattern"],"bee_group":{"antennae":"X","wings":"2","pattern":"D","legs":"X"},"action":"harvest","summary":"good-harvest","bonus":1.9000000000000012},{"rt":470.4000000357628,"stimulus":"\n                    <p><b>Action: <em>harvest</em></b></p>\n                    <p>This is the bee that you just saw.</p>\n                    <img src=\"bees-with-color/bee-A1SF.svg\" width=\"200\">\n                    <p><span class=\"greenText\"><b>Successful harvest!</b></span><br>Your pay has increased by $0.02. Your bonus pay is now $1.34.</p>\n            ","response":0,"trial_type":"html-button-response","trial_index":124,"time_elapsed":396092,"internal_node_id":"0.0-4.0-1.58","subject_id":"60d1008fc26892a1f0ed7ed5","study_id":"60edd13110225f80f9f3709b","session_id":"6196c706a471b511303ec0ba","condition":"full-information","relevant_dimensions":["wings","pattern"],"bee_group":{"antennae":"X","wings":"2","pattern":"D","legs":"X"},"bonus":1.9000000000000012},{"rt":926.5999999642372,"stimulus":"bees-with-color/bee-A2SF.svg","response":0,"trial_type":"image-button-response","trial_index":125,"time_elapsed":397020,"internal_node_id":"0.0-4.0-0.59","subject_id":"60d1008fc26892a1f0ed7ed5","study_id":"60edd13110225f80f9f3709b","session_id":"6196c706a471b511303ec0ba","condition":"full-information","relevant_dimensions":["wings","pattern"],"bee_group":{"antennae":"X","wings":"2","pattern":"D","legs":"X"},"action":"harvest","summary":"good-harvest","bonus":1.9000000000000012},{"rt":342.5,"stimulus":"\n                    <p><b>Action: <em>harvest</em></b></p>\n                    <p>This is the bee that you just saw.</p>\n                    <img src=\"bees-with-color/bee-A2SF.svg\" width=\"200\">\n                    <p><span class=\"greenText\"><b>Successful harvest!</b></span><br>Your pay has increased by $0.02. Your bonus pay is now $1.36.</p>\n            ","response":0,"trial_type":"html-button-response","trial_index":126,"time_elapsed":397364,"internal_node_id":"0.0-4.0-1.59","subject_id":"60d1008fc26892a1f0ed7ed5","study_id":"60edd13110225f80f9f3709b","session_id":"6196c706a471b511303ec0ba","condition":"full-information","relevant_dimensions":["wings","pattern"],"bee_group":{"antennae":"X","wings":"2","pattern":"D","legs":"X"},"bonus":1.9000000000000012},{"rt":910.8999999761581,"stimulus":"bees-with-color/bee-A2SM.svg","response":0,"trial_type":"image-button-response","trial_index":127,"time_elapsed":398276,"internal_node_id":"0.0-4.0-0.60","subject_id":"60d1008fc26892a1f0ed7ed5","study_id":"60edd13110225f80f9f3709b","session_id":"6196c706a471b511303ec0ba","condition":"full-information","relevant_dimensions":["wings","pattern"],"bee_group":{"antennae":"X","wings":"2","pattern":"D","legs":"X"},"action":"harvest","summary":"good-harvest","bonus":1.9000000000000012},{"rt":406.5,"stimulus":"\n                    <p><b>Action: <em>harvest</em></b></p>\n                    <p>This is the bee that you just saw.</p>\n                    <img src=\"bees-with-color/bee-A2SM.svg\" width=\"200\">\n                    <p><span class=\"greenText\"><b>Successful harvest!</b></span><br>Your pay has increased by $0.02. Your bonus pay is now $1.38.</p>\n            ","response":0,"trial_type":"html-button-response","trial_index":128,"time_elapsed":398684,"internal_node_id":"0.0-4.0-1.60","subject_id":"60d1008fc26892a1f0ed7ed5","study_id":"60edd13110225f80f9f3709b","session_id":"6196c706a471b511303ec0ba","condition":"full-information","relevant_dimensions":["wings","pattern"],"bee_group":{"antennae":"X","wings":"2","pattern":"D","legs":"X"},"bonus":1.9000000000000012},{"rt":1383.2999999523163,"stimulus":"bees-with-color/bee-B1DM.svg","response":0,"trial_type":"image-button-response","trial_index":129,"time_elapsed":400068,"internal_node_id":"0.0-4.0-0.61","subject_id":"60d1008fc26892a1f0ed7ed5","study_id":"60edd13110225f80f9f3709b","session_id":"6196c706a471b511303ec0ba","condition":"full-information","relevant_dimensions":["wings","pattern"],"bee_group":{"antennae":"X","wings":"2","pattern":"D","legs":"X"},"action":"harvest","summary":"good-harvest","bonus":1.9000000000000012},{"rt":381.89999997615814,"stimulus":"\n                    <p><b>Action: <em>harvest</em></b></p>\n                    <p>This is the bee that you just saw.</p>\n                    <img src=\"bees-with-color/bee-B1DM.svg\" width=\"200\">\n                    <p><span class=\"greenText\"><b>Successful harvest!</b></span><br>Your pay has increased by $0.02. Your bonus pay is now $1.40.</p>\n            ","response":0,"trial_type":"html-button-response","trial_index":130,"time_elapsed":400452,"internal_node_id":"0.0-4.0-1.61","subject_id":"60d1008fc26892a1f0ed7ed5","study_id":"60edd13110225f80f9f3709b","session_id":"6196c706a471b511303ec0ba","condition":"full-information","relevant_dimensions":["wings","pattern"],"bee_group":{"antennae":"X","wings":"2","pattern":"D","legs":"X"},"bonus":1.9000000000000012},{"rt":886.8000000119209,"stimulus":"bees-with-color/bee-B2DF.svg","response":1,"trial_type":"image-button-response","trial_index":131,"time_elapsed":401340,"internal_node_id":"0.0-4.0-0.62","subject_id":"60d1008fc26892a1f0ed7ed5","study_id":"60edd13110225f80f9f3709b","session_id":"6196c706a471b511303ec0ba","condition":"full-information","relevant_dimensions":["wings","pattern"],"bee_group":{"antennae":"X","wings":"2","pattern":"D","legs":"X"},"action":"avoid","summary":"good-avoid","bonus":1.9000000000000012},{"rt":550.8999999761581,"stimulus":"\n                    <p><b>Action: <em>avoid</em></b></p>\n                    <p>This is the bee that you just saw.</p>\n                    <img src=\"bees-with-color/bee-B2DF.svg\" width=\"200\">\n                    <p><span class=\"greenText\">Good choice!</span>  This bee would have stung you.<br>Your bonus pay is unchanged, and remains at $1.40.</p>\n            ","response":0,"trial_type":"html-button-response","trial_index":132,"time_elapsed":401892,"internal_node_id":"0.0-4.0-1.62","subject_id":"60d1008fc26892a1f0ed7ed5","study_id":"60edd13110225f80f9f3709b","session_id":"6196c706a471b511303ec0ba","condition":"full-information","relevant_dimensions":["wings","pattern"],"bee_group":{"antennae":"X","wings":"2","pattern":"D","legs":"X"},"bonus":1.9000000000000012},{"rt":8326.399999976158,"stimulus":"bees-with-color/bee-A1DF.svg","response":0,"trial_type":"image-button-response","trial_index":133,"time_elapsed":410220,"internal_node_id":"0.0-4.0-0.63","subject_id":"60d1008fc26892a1f0ed7ed5","study_id":"60edd13110225f80f9f3709b","session_id":"6196c706a471b511303ec0ba","condition":"full-information","relevant_dimensions":["wings","pattern"],"bee_group":{"antennae":"X","wings":"2","pattern":"D","legs":"X"},"action":"harvest","summary":"good-harvest","bonus":1.9000000000000012},{"rt":486.60000002384186,"stimulus":"\n                    <p><b>Action: <em>harvest</em></b></p>\n                    <p>This is the bee that you just saw.</p>\n                    <img src=\"bees-with-color/bee-A1DF.svg\" width=\"200\">\n                    <p><span class=\"greenText\"><b>Successful harvest!</b></span><br>Your pay has increased by $0.02. Your bonus pay is now $1.42.</p>\n            ","response":0,"trial_type":"html-button-response","trial_index":134,"time_elapsed":410708,"internal_node_id":"0.0-4.0-1.63","subject_id":"60d1008fc26892a1f0ed7ed5","study_id":"60edd13110225f80f9f3709b","session_id":"6196c706a471b511303ec0ba","condition":"full-information","relevant_dimensions":["wings","pattern"],"bee_group":{"antennae":"X","wings":"2","pattern":"D","legs":"X"},"bonus":1.9000000000000012},{"rt":7824.600000023842,"stimulus":"You have completed the first part of this experiment.<br><br>You will now begin a shorter second part, in which you will receive no feedback.<br>The same rules regarding bonus pay apply.<br><br>Press any key to begin.","response":" ","trial_type":"html-keyboard-response","trial_index":135,"time_elapsed":418534,"internal_node_id":"0.0-5.0","subject_id":"60d1008fc26892a1f0ed7ed5","study_id":"60edd13110225f80f9f3709b","session_id":"6196c706a471b511303ec0ba","condition":"full-information","relevant_dimensions":["wings","pattern"],"bee_group":{"antennae":"X","wings":"2","pattern":"D","legs":"X"},"bonus":1.9000000000000012},{"rt":1678.300000011921,"stimulus":"bees-with-color/bee-A1DM.svg","response":0,"trial_type":"image-button-response","trial_index":136,"time_elapsed":420220,"internal_node_id":"0.0-6.0-0.0","subject_id":"60d1008fc26892a1f0ed7ed5","study_id":"60edd13110225f80f9f3709b","session_id":"6196c706a471b511303ec0ba","condition":"full-information","relevant_dimensions":["wings","pattern"],"bee_group":{"antennae":"X","wings":"2","pattern":"D","legs":"X"},"bonus":1.9000000000000012},{"rt":1541.5,"stimulus":"bees-with-color/bee-B2SF.svg","response":0,"trial_type":"image-button-response","trial_index":137,"time_elapsed":421764,"internal_node_id":"0.0-6.0-0.1","subject_id":"60d1008fc26892a1f0ed7ed5","study_id":"60edd13110225f80f9f3709b","session_id":"6196c706a471b511303ec0ba","condition":"full-information","relevant_dimensions":["wings","pattern"],"bee_group":{"antennae":"X","wings":"2","pattern":"D","legs":"X"},"bonus":1.9000000000000012},{"rt":1365.8999999761581,"stimulus":"bees-with-color/bee-A1DF.svg","response":0,"trial_type":"image-button-response","trial_index":138,"time_elapsed":423132,"internal_node_id":"0.0-6.0-0.2","subject_id":"60d1008fc26892a1f0ed7ed5","study_id":"60edd13110225f80f9f3709b","session_id":"6196c706a471b511303ec0ba","condition":"full-information","relevant_dimensions":["wings","pattern"],"bee_group":{"antennae":"X","wings":"2","pattern":"D","legs":"X"},"bonus":1.9000000000000012},{"rt":1093.7999999523163,"stimulus":"bees-with-color/bee-A2DF.svg","response":1,"trial_type":"image-button-response","trial_index":139,"time_elapsed":424228,"internal_node_id":"0.0-6.0-0.3","subject_id":"60d1008fc26892a1f0ed7ed5","study_id":"60edd13110225f80f9f3709b","session_id":"6196c706a471b511303ec0ba","condition":"full-information","relevant_dimensions":["wings","pattern"],"bee_group":{"antennae":"X","wings":"2","pattern":"D","legs":"X"},"bonus":1.9000000000000012},{"rt":13445.400000035763,"stimulus":"bees-with-color/bee-B2DF.svg","response":1,"trial_type":"image-button-response","trial_index":140,"time_elapsed":437675,"internal_node_id":"0.0-6.0-0.4","subject_id":"60d1008fc26892a1f0ed7ed5","study_id":"60edd13110225f80f9f3709b","session_id":"6196c706a471b511303ec0ba","condition":"full-information","relevant_dimensions":["wings","pattern"],"bee_group":{"antennae":"X","wings":"2","pattern":"D","legs":"X"},"bonus":1.9000000000000012},{"rt":877.8999999761581,"stimulus":"bees-with-color/bee-B1DM.svg","response":0,"trial_type":"image-button-response","trial_index":141,"time_elapsed":438556,"internal_node_id":"0.0-6.0-0.5","subject_id":"60d1008fc26892a1f0ed7ed5","study_id":"60edd13110225f80f9f3709b","session_id":"6196c706a471b511303ec0ba","condition":"full-information","relevant_dimensions":["wings","pattern"],"bee_group":{"antennae":"X","wings":"2","pattern":"D","legs":"X"},"bonus":1.9000000000000012},{"rt":974.1999999880791,"stimulus":"bees-with-color/bee-B2SM.svg","response":0,"trial_type":"image-button-response","trial_index":142,"time_elapsed":439532,"internal_node_id":"0.0-6.0-0.6","subject_id":"60d1008fc26892a1f0ed7ed5","study_id":"60edd13110225f80f9f3709b","session_id":"6196c706a471b511303ec0ba","condition":"full-information","relevant_dimensions":["wings","pattern"],"bee_group":{"antennae":"X","wings":"2","pattern":"D","legs":"X"},"bonus":1.9000000000000012},{"rt":949.2999999523163,"stimulus":"bees-with-color/bee-A2SF.svg","response":0,"trial_type":"image-button-response","trial_index":143,"time_elapsed":440484,"internal_node_id":"0.0-6.0-0.7","subject_id":"60d1008fc26892a1f0ed7ed5","study_id":"60edd13110225f80f9f3709b","session_id":"6196c706a471b511303ec0ba","condition":"full-information","relevant_dimensions":["wings","pattern"],"bee_group":{"antennae":"X","wings":"2","pattern":"D","legs":"X"},"bonus":1.9000000000000012},{"rt":750.1000000238419,"stimulus":"bees-with-color/bee-B1SF.svg","response":0,"trial_type":"image-button-response","trial_index":144,"time_elapsed":441236,"internal_node_id":"0.0-6.0-0.8","subject_id":"60d1008fc26892a1f0ed7ed5","study_id":"60edd13110225f80f9f3709b","session_id":"6196c706a471b511303ec0ba","condition":"full-information","relevant_dimensions":["wings","pattern"],"bee_group":{"antennae":"X","wings":"2","pattern":"D","legs":"X"},"bonus":1.9000000000000012},{"rt":1221.5999999642372,"stimulus":"bees-with-color/bee-B2DM.svg","response":1,"trial_type":"image-button-response","trial_index":145,"time_elapsed":442459,"internal_node_id":"0.0-6.0-0.9","subject_id":"60d1008fc26892a1f0ed7ed5","study_id":"60edd13110225f80f9f3709b","session_id":"6196c706a471b511303ec0ba","condition":"full-information","relevant_dimensions":["wings","pattern"],"bee_group":{"antennae":"X","wings":"2","pattern":"D","legs":"X"},"bonus":1.9000000000000012},{"rt":1926,"stimulus":"bees-with-color/bee-A2SM.svg","response":0,"trial_type":"image-button-response","trial_index":146,"time_elapsed":444387,"internal_node_id":"0.0-6.0-0.10","subject_id":"60d1008fc26892a1f0ed7ed5","study_id":"60edd13110225f80f9f3709b","session_id":"6196c706a471b511303ec0ba","condition":"full-information","relevant_dimensions":["wings","pattern"],"bee_group":{"antennae":"X","wings":"2","pattern":"D","legs":"X"},"bonus":1.9000000000000012},{"rt":1558.699999988079,"stimulus":"bees-with-color/bee-B1DF.svg","response":0,"trial_type":"image-button-response","trial_index":147,"time_elapsed":445948,"internal_node_id":"0.0-6.0-0.11","subject_id":"60d1008fc26892a1f0ed7ed5","study_id":"60edd13110225f80f9f3709b","session_id":"6196c706a471b511303ec0ba","condition":"full-information","relevant_dimensions":["wings","pattern"],"bee_group":{"antennae":"X","wings":"2","pattern":"D","legs":"X"},"bonus":1.9000000000000012},{"rt":1102.5,"stimulus":"bees-with-color/bee-B1SM.svg","response":0,"trial_type":"image-button-response","trial_index":148,"time_elapsed":447052,"internal_node_id":"0.0-6.0-0.12","subject_id":"60d1008fc26892a1f0ed7ed5","study_id":"60edd13110225f80f9f3709b","session_id":"6196c706a471b511303ec0ba","condition":"full-information","relevant_dimensions":["wings","pattern"],"bee_group":{"antennae":"X","wings":"2","pattern":"D","legs":"X"},"bonus":1.9000000000000012},{"rt":1197.800000011921,"stimulus":"bees-with-color/bee-A1SM.svg","response":0,"trial_type":"image-button-response","trial_index":149,"time_elapsed":448252,"internal_node_id":"0.0-6.0-0.13","subject_id":"60d1008fc26892a1f0ed7ed5","study_id":"60edd13110225f80f9f3709b","session_id":"6196c706a471b511303ec0ba","condition":"full-information","relevant_dimensions":["wings","pattern"],"bee_group":{"antennae":"X","wings":"2","pattern":"D","legs":"X"},"bonus":1.9000000000000012},{"rt":709.7999999523163,"stimulus":"bees-with-color/bee-A1SF.svg","response":0,"trial_type":"image-button-response","trial_index":150,"time_elapsed":448963,"internal_node_id":"0.0-6.0-0.14","subject_id":"60d1008fc26892a1f0ed7ed5","study_id":"60edd13110225f80f9f3709b","session_id":"6196c706a471b511303ec0ba","condition":"full-information","relevant_dimensions":["wings","pattern"],"bee_group":{"antennae":"X","wings":"2","pattern":"D","legs":"X"},"bonus":1.9000000000000012},{"rt":862.1999999880791,"stimulus":"bees-with-color/bee-A2DM.svg","response":1,"trial_type":"image-button-response","trial_index":151,"time_elapsed":449828,"internal_node_id":"0.0-6.0-0.15","subject_id":"60d1008fc26892a1f0ed7ed5","study_id":"60edd13110225f80f9f3709b","session_id":"6196c706a471b511303ec0ba","condition":"full-information","relevant_dimensions":["wings","pattern"],"bee_group":{"antennae":"X","wings":"2","pattern":"D","legs":"X"},"bonus":1.9000000000000012},{"rt":886,"stimulus":"bees-with-color/bee-A2SF.svg","response":0,"trial_type":"image-button-response","trial_index":152,"time_elapsed":450715,"internal_node_id":"0.0-6.0-0.16","subject_id":"60d1008fc26892a1f0ed7ed5","study_id":"60edd13110225f80f9f3709b","session_id":"6196c706a471b511303ec0ba","condition":"full-information","relevant_dimensions":["wings","pattern"],"bee_group":{"antennae":"X","wings":"2","pattern":"D","legs":"X"},"bonus":1.9000000000000012},{"rt":1143.3999999761581,"stimulus":"bees-with-color/bee-B1DM.svg","response":0,"trial_type":"image-button-response","trial_index":153,"time_elapsed":451860,"internal_node_id":"0.0-6.0-0.17","subject_id":"60d1008fc26892a1f0ed7ed5","study_id":"60edd13110225f80f9f3709b","session_id":"6196c706a471b511303ec0ba","condition":"full-information","relevant_dimensions":["wings","pattern"],"bee_group":{"antennae":"X","wings":"2","pattern":"D","legs":"X"},"bonus":1.9000000000000012},{"rt":1357.5999999642372,"stimulus":"bees-with-color/bee-A2DF.svg","response":1,"trial_type":"image-button-response","trial_index":154,"time_elapsed":453220,"internal_node_id":"0.0-6.0-0.18","subject_id":"60d1008fc26892a1f0ed7ed5","study_id":"60edd13110225f80f9f3709b","session_id":"6196c706a471b511303ec0ba","condition":"full-information","relevant_dimensions":["wings","pattern"],"bee_group":{"antennae":"X","wings":"2","pattern":"D","legs":"X"},"bonus":1.9000000000000012},{"rt":958.4000000357628,"stimulus":"bees-with-color/bee-B1SM.svg","response":0,"trial_type":"image-button-response","trial_index":155,"time_elapsed":454179,"internal_node_id":"0.0-6.0-0.19","subject_id":"60d1008fc26892a1f0ed7ed5","study_id":"60edd13110225f80f9f3709b","session_id":"6196c706a471b511303ec0ba","condition":"full-information","relevant_dimensions":["wings","pattern"],"bee_group":{"antennae":"X","wings":"2","pattern":"D","legs":"X"},"bonus":1.9000000000000012},{"rt":863.1999999880791,"stimulus":"bees-with-color/bee-A1DF.svg","response":0,"trial_type":"image-button-response","trial_index":156,"time_elapsed":455044,"internal_node_id":"0.0-6.0-0.20","subject_id":"60d1008fc26892a1f0ed7ed5","study_id":"60edd13110225f80f9f3709b","session_id":"6196c706a471b511303ec0ba","condition":"full-information","relevant_dimensions":["wings","pattern"],"bee_group":{"antennae":"X","wings":"2","pattern":"D","legs":"X"},"bonus":1.9000000000000012},{"rt":1557.7999999523163,"stimulus":"bees-with-color/bee-A1SM.svg","response":0,"trial_type":"image-button-response","trial_index":157,"time_elapsed":456603,"internal_node_id":"0.0-6.0-0.21","subject_id":"60d1008fc26892a1f0ed7ed5","study_id":"60edd13110225f80f9f3709b","session_id":"6196c706a471b511303ec0ba","condition":"full-information","relevant_dimensions":["wings","pattern"],