[{"success":true,"trial_type":"fullscreen","trial_index":0,"time_elapsed":8876,"internal_node_id":"0.0-0.0","subject_id":"58c537bfb101a7000129391a","study_id":"60edd13110225f80f9f3709b","session_id":"6196c7092f714b4d3ea34563","condition":"full-information","relevant_dimensions":["wings","legs"],"bee_group":{"antennae":"X","wings":"2","pattern":"X","legs":"F"},"bonus":1.080000000000001},{"success":true,"timeout":false,"failed_images":[],"failed_audio":[],"failed_video":[],"trial_type":"preload","trial_index":1,"time_elapsed":10614,"internal_node_id":"0.0-1.0","subject_id":"58c537bfb101a7000129391a","study_id":"60edd13110225f80f9f3709b","session_id":"6196c7092f714b4d3ea34563","condition":"full-information","relevant_dimensions":["wings","legs"],"bee_group":{"antennae":"X","wings":"2","pattern":"X","legs":"F"},"bonus":1.080000000000001},{"rt":2653,"stimulus":"Welcome! Press any key to begin.","response":" ","trial_type":"html-keyboard-response","trial_index":2,"time_elapsed":13269,"internal_node_id":"0.0-2.0","subject_id":"58c537bfb101a7000129391a","study_id":"60edd13110225f80f9f3709b","session_id":"6196c7092f714b4d3ea34563","condition":"full-information","relevant_dimensions":["wings","legs"],"bee_group":{"antennae":"X","wings":"2","pattern":"X","legs":"F"},"bonus":1.080000000000001},{"view_history":[{"page_index":0,"viewing_time":3969.5},{"page_index":1,"viewing_time":9455.90000000596},{"page_index":2,"viewing_time":7967.699999988079},{"page_index":3,"viewing_time":11112.09999999404},{"page_index":4,"viewing_time":5543.9000000059605},{"page_index":5,"viewing_time":5191.9000000059605},{"page_index":6,"viewing_time":6040},{"page_index":7,"viewing_time":4887.9000000059605},{"page_index":8,"viewing_time":4975.899999976158},{"page_index":9,"viewing_time":6512.4000000059605},{"page_index":8,"viewing_time":471.7000000178814},{"page_index":7,"viewing_time":983.8999999761581},{"page_index":6,"viewing_time":6799.9000000059605},{"page_index":7,"viewing_time":13527.90000000596},{"page_index":8,"viewing_time":9743.800000011921},{"page_index":9,"viewing_time":6703.899999976158},{"page_index":10,"viewing_time":15359.800000011921},{"page_index":11,"viewing_time":6848.199999988079},{"page_index":12,"viewing_time":23895.5},{"page_index":13,"viewing_time":1375.9000000059605},{"page_index":14,"viewing_time":3639.9000000059605}],"rt":155008.09999999404,"trial_type":"instructions","trial_index":3,"time_elapsed":168278,"internal_node_id":"0.0-3.0-0.0","subject_id":"58c537bfb101a7000129391a","study_id":"60edd13110225f80f9f3709b","session_id":"6196c7092f714b4d3ea34563","condition":"full-information","relevant_dimensions":["wings","legs"],"bee_group":{"antennae":"X","wings":"2","pattern":"X","legs":"F"},"bonus":1.080000000000001},{"rt":13570.399999976158,"response":{"Q0":["Two or six legs","Stripes or spots on body","Single or double wings","Antennae or no antennae"]},"question_order":[0],"trial_type":"survey-multi-select","trial_index":4,"time_elapsed":181854,"internal_node_id":"0.0-3.0-1.0","subject_id":"58c537bfb101a7000129391a","study_id":"60edd13110225f80f9f3709b","session_id":"6196c7092f714b4d3ea34563","condition":"full-information","relevant_dimensions":["wings","legs"],"bee_group":{"antennae":"X","wings":"2","pattern":"X","legs":"F"},"correct":true,"bonus":1.080000000000001},{"rt":21948.29999998212,"response":{"Q1":"No.","Q2":"Based on the four features of the bee.","Q3":"You learn if it was friendly or dangerous, but do not alter your bonus."},"question_order":[0,1,2],"trial_type":"survey-multi-choice","trial_index":5,"time_elapsed":203806,"internal_node_id":"0.0-3.0-2.0","subject_id":"58c537bfb101a7000129391a","study_id":"60edd13110225f80f9f3709b","session_id":"6196c7092f714b4d3ea34563","condition":"full-information","relevant_dimensions":["wings","legs"],"bee_group":{"antennae":"X","wings":"2","pattern":"X","legs":"F"},"correct":true,"bonus":1.080000000000001},{"rt":2621.300000011921,"stimulus":"<p>Congrats, you got everything right<br>When you're ready, click the button below to continue to the experiment.</p>","response":0,"trial_type":"html-button-response","trial_index":6,"time_elapsed":206429,"internal_node_id":"0.0-3.0-3.0","subject_id":"58c537bfb101a7000129391a","study_id":"60edd13110225f80f9f3709b","session_id":"6196c7092f714b4d3ea34563","condition":"full-information","relevant_dimensions":["wings","legs"],"bee_group":{"antennae":"X","wings":"2","pattern":"X","legs":"F"},"bonus":1.080000000000001},{"rt":14251.90000000596,"stimulus":"bees-with-color/bee-A1SM.svg","response":0,"trial_type":"image-button-response","trial_index":7,"time_elapsed":220685,"internal_node_id":"0.0-4.0-0.0","subject_id":"58c537bfb101a7000129391a","study_id":"60edd13110225f80f9f3709b","session_id":"6196c7092f714b4d3ea34563","condition":"full-information","relevant_dimensions":["wings","legs"],"bee_group":{"antennae":"X","wings":"2","pattern":"X","legs":"F"},"action":"harvest","summary":"good-harvest","bonus":1.080000000000001},{"rt":11355.100000023842,"stimulus":"\n                    <p><b>Action: <em>harvest</em></b></p>\n                    <p>This is the bee that you just saw.</p>\n                    <img src=\"bees-with-color/bee-A1SM.svg\" width=\"200\">\n                    <p><span class=\"greenText\"><b>Successful harvest!</b></span><br>Your pay has increased by $0.02. Your bonus pay is now $0.56.</p>\n            ","response":0,"trial_type":"html-button-response","trial_index":8,"time_elapsed":232045,"internal_node_id":"0.0-4.0-1.0","subject_id":"58c537bfb101a7000129391a","study_id":"60edd13110225f80f9f3709b","session_id":"6196c7092f714b4d3ea34563","condition":"full-information","relevant_dimensions":["wings","legs"],"bee_group":{"antennae":"X","wings":"2","pattern":"X","legs":"F"},"bonus":1.080000000000001},{"rt":3164.4000000059605,"stimulus":"bees-with-color/bee-B2DM.svg","response":0,"trial_type":"image-button-response","trial_index":9,"time_elapsed":235213,"internal_node_id":"0.0-4.0-0.1","subject_id":"58c537bfb101a7000129391a","study_id":"60edd13110225f80f9f3709b","session_id":"6196c7092f714b4d3ea34563","condition":"full-information","relevant_dimensions":["wings","legs"],"bee_group":{"antennae":"X","wings":"2","pattern":"X","legs":"F"},"action":"harvest","summary":"good-harvest","bonus":1.080000000000001},{"rt":8116.899999976158,"stimulus":"\n                    <p><b>Action: <em>harvest</em></b></p>\n                    <p>This is the bee that you just saw.</p>\n                    <img src=\"bees-with-color/bee-B2DM.svg\" width=\"200\">\n                    <p><span class=\"greenText\"><b>Successful harvest!</b></span><br>Your pay has increased by $0.02. Your bonus pay is now $0.58.</p>\n            ","response":0,"trial_type":"html-button-response","trial_index":10,"time_elapsed":243333,"internal_node_id":"0.0-4.0-1.1","subject_id":"58c537bfb101a7000129391a","study_id":"60edd13110225f80f9f3709b","session_id":"6196c7092f714b4d3ea34563","condition":"full-information","relevant_dimensions":["wings","legs"],"bee_group":{"antennae":"X","wings":"2","pattern":"X","legs":"F"},"bonus":1.080000000000001},{"rt":2428.899999976158,"stimulus":"bees-with-color/bee-A2DF.svg","response":0,"trial_type":"image-button-response","trial_index":11,"time_elapsed":245765,"internal_node_id":"0.0-4.0-0.2","subject_id":"58c537bfb101a7000129391a","study_id":"60edd13110225f80f9f3709b","session_id":"6196c7092f714b4d3ea34563","condition":"full-information","relevant_dimensions":["wings","legs"],"bee_group":{"antennae":"X","wings":"2","pattern":"X","legs":"F"},"action":"harvest","summary":"bad-harvest","bonus":1.080000000000001},{"rt":12012.300000011921,"stimulus":"\n                    <p><b>Action: <em>harvest</em></b></p>\n                    <p>This is the bee that you just saw.</p>\n                    <img src=\"bees-with-color/bee-A2DF.svg\" width=\"200\">\n                    <p><span class=\"redText\">Bad choice, the bee was angry.</span><br><b>You have been stung!</b><br>Your pay has been decreased by $0.10. Your bonus pay is now $0.48.</p>\n            ","response":0,"trial_type":"html-button-response","trial_index":12,"time_elapsed":257780,"internal_node_id":"0.0-4.0-1.2","subject_id":"58c537bfb101a7000129391a","study_id":"60edd13110225f80f9f3709b","session_id":"6196c7092f714b4d3ea34563","condition":"full-information","relevant_dimensions":["wings","legs"],"bee_group":{"antennae":"X","wings":"2","pattern":"X","legs":"F"},"bonus":1.080000000000001},{"rt":10829,"stimulus":"bees-with-color/bee-B1DF.svg","response":0,"trial_type":"image-button-response","trial_index":13,"time_elapsed":268612,"internal_node_id":"0.0-4.0-0.3","subject_id":"58c537bfb101a7000129391a","study_id":"60edd13110225f80f9f3709b","session_id":"6196c7092f714b4d3ea34563","condition":"full-information","relevant_dimensions":["wings","legs"],"bee_group":{"antennae":"X","wings":"2","pattern":"X","legs":"F"},"action":"harvest","summary":"good-harvest","bonus":1.080000000000001},{"rt":3933,"stimulus":"\n                    <p><b>Action: <em>harvest</em></b></p>\n                    <p>This is the bee that you just saw.</p>\n                    <img src=\"bees-with-color/bee-B1DF.svg\" width=\"200\">\n                    <p><span class=\"greenText\"><b>Successful harvest!</b></span><br>Your pay has increased by $0.02. Your bonus pay is now $0.50.</p>\n            ","response":0,"trial_type":"html-button-response","trial_index":14,"time_elapsed":272548,"internal_node_id":"0.0-4.0-1.3","subject_id":"58c537bfb101a7000129391a","study_id":"60edd13110225f80f9f3709b","session_id":"6196c7092f714b4d3ea34563","condition":"full-information","relevant_dimensions":["wings","legs"],"bee_group":{"antennae":"X","wings":"2","pattern":"X","legs":"F"},"bonus":1.080000000000001},{"rt":3388.9000000059605,"stimulus":"bees-with-color/bee-A1SF.svg","response":0,"trial_type":"image-button-response","trial_index":15,"time_elapsed":275940,"internal_node_id":"0.0-4.0-0.4","subject_id":"58c537bfb101a7000129391a","study_id":"60edd13110225f80f9f3709b","session_id":"6196c7092f714b4d3ea34563","condition":"full-information","relevant_dimensions":["wings","legs"],"bee_group":{"antennae":"X","wings":"2","pattern":"X","legs":"F"},"action":"harvest","summary":"good-harvest","bonus":1.080000000000001},{"rt":1389.9000000059605,"stimulus":"\n                    <p><b>Action: <em>harvest</em></b></p>\n                    <p>This is the bee that you just saw.</p>\n                    <img src=\"bees-with-color/bee-A1SF.svg\" width=\"200\">\n                    <p><span class=\"greenText\"><b>Successful harvest!</b></span><br>Your pay has increased by $0.02. Your bonus pay is now $0.52.</p>\n            ","response":0,"trial_type":"html-button-response","trial_index":16,"time_elapsed":277332,"internal_node_id":"0.0-4.0-1.4","subject_id":"58c537bfb101a7000129391a","study_id":"60edd13110225f80f9f3709b","session_id":"6196c7092f714b4d3ea34563","condition":"full-information","relevant_dimensions":["wings","legs"],"bee_group":{"antennae":"X","wings":"2","pattern":"X","legs":"F"},"bonus":1.080000000000001},{"rt":5829.199999988079,"stimulus":"bees-with-color/bee-A1DM.svg","response":0,"trial_type":"image-button-response","trial_index":17,"time_elapsed":283164,"internal_node_id":"0.0-4.0-0.5","subject_id":"58c537bfb101a7000129391a","study_id":"60edd13110225f80f9f3709b","session_id":"6196c7092f714b4d3ea34563","condition":"full-information","relevant_dimensions":["wings","legs"],"bee_group":{"antennae":"X","wings":"2","pattern":"X","legs":"F"},"action":"harvest","summary":"good-harvest","bonus":1.080000000000001},{"rt":1534,"stimulus":"\n                    <p><b>Action: <em>harvest</em></b></p>\n                    <p>This is the bee that you just saw.</p>\n                    <img src=\"bees-with-color/bee-A1DM.svg\" width=\"200\">\n                    <p><span class=\"greenText\"><b>Successful harvest!</b></span><br>Your pay has increased by $0.02. Your bonus pay is now $0.54.</p>\n            ","response":0,"trial_type":"html-button-response","trial_index":18,"time_elapsed":284700,"internal_node_id":"0.0-4.0-1.5","subject_id":"58c537bfb101a7000129391a","study_id":"60edd13110225f80f9f3709b","session_id":"6196c7092f714b4d3ea34563","condition":"full-information","relevant_dimensions":["wings","legs"],"bee_group":{"antennae":"X","wings":"2","pattern":"X","legs":"F"},"bonus":1.080000000000001},{"rt":6612.800000011921,"stimulus":"bees-with-color/bee-A2SF.svg","response":1,"trial_type":"image-button-response","trial_index":19,"time_elapsed":291316,"internal_node_id":"0.0-4.0-0.6","subject_id":"58c537bfb101a7000129391a","study_id":"60edd13110225f80f9f3709b","session_id":"6196c7092f714b4d3ea34563","condition":"full-information","relevant_dimensions":["wings","legs"],"bee_group":{"antennae":"X","wings":"2","pattern":"X","legs":"F"},"action":"avoid","summary":"good-avoid","bonus":1.080000000000001},{"rt":3589.5,"stimulus":"\n                    <p><b>Action: <em>avoid</em></b></p>\n                    <p>This is the bee that you just saw.</p>\n                    <img src=\"bees-with-color/bee-A2SF.svg\" width=\"200\">\n                    <p><span class=\"greenText\">Good choice!</span>  This bee would have stung you.<br>Your bonus pay is unchanged, and remains at $0.54.</p>\n            ","response":0,"trial_type":"html-button-response","trial_index":20,"time_elapsed":294908,"internal_node_id":"0.0-4.0-1.6","subject_id":"58c537bfb101a7000129391a","study_id":"60edd13110225f80f9f3709b","session_id":"6196c7092f714b4d3ea34563","condition":"full-information","relevant_dimensions":["wings","legs"],"bee_group":{"antennae":"X","wings":"2","pattern":"X","legs":"F"},"bonus":1.080000000000001},{"rt":12317.40000000596,"stimulus":"bees-with-color/bee-A2SM.svg","response":0,"trial_type":"image-button-response","trial_index":21,"time_elapsed":307228,"internal_node_id":"0.0-4.0-0.7","subject_id":"58c537bfb101a7000129391a","study_id":"60edd13110225f80f9f3709b","session_id":"6196c7092f714b4d3ea34563","condition":"full-information","relevant_dimensions":["wings","legs"],"bee_group":{"antennae":"X","wings":"2","pattern":"X","legs":"F"},"action":"harvest","summary":"good-harvest","bonus":1.080000000000001},{"rt":2261.800000011921,"stimulus":"\n                    <p><b>Action: <em>harvest</em></b></p>\n                    <p>This is the bee that you just saw.</p>\n                    <img src=\"bees-with-color/bee-A2SM.svg\" width=\"200\">\n                    <p><span class=\"greenText\"><b>Successful harvest!</b></span><br>Your pay has increased by $0.02. Your bonus pay is now $0.56.</p>\n            ","response":0,"trial_type":"html-button-response","trial_index":22,"time_elapsed":309492,"internal_node_id":"0.0-4.0-1.7","subject_id":"58c537bfb101a7000129391a","study_id":"60edd13110225f80f9f3709b","session_id":"6196c7092f714b4d3ea34563","condition":"full-information","relevant_dimensions":["wings","legs"],"bee_group":{"antennae":"X","wings":"2","pattern":"X","legs":"F"},"bonus":1.080000000000001},{"rt":3940.800000011921,"stimulus":"bees-with-color/bee-B2SM.svg","response":0,"trial_type":"image-button-response","trial_index":23,"time_elapsed":313436,"internal_node_id":"0.0-4.0-0.8","subject_id":"58c537bfb101a7000129391a","study_id":"60edd13110225f80f9f3709b","session_id":"6196c7092f714b4d3ea34563","condition":"full-information","relevant_dimensions":["wings","legs"],"bee_group":{"antennae":"X","wings":"2","pattern":"X","legs":"F"},"action":"harvest","summary":"good-harvest","bonus":1.080000000000001},{"rt":1333.6000000238419,"stimulus":"\n                    <p><b>Action: <em>harvest</em></b></p>\n                    <p>This is the bee that you just saw.</p>\n                    <img src=\"bees-with-color/bee-B2SM.svg\" width=\"200\">\n                    <p><span class=\"greenText\"><b>Successful harvest!</b></span><br>Your pay has increased by $0.02. Your bonus pay is now $0.58.</p>\n            ","response":0,"trial_type":"html-button-response","trial_index":24,"time_elapsed":314772,"internal_node_id":"0.0-4.0-1.8","subject_id":"58c537bfb101a7000129391a","study_id":"60edd13110225f80f9f3709b","session_id":"6196c7092f714b4d3ea34563","condition":"full-information","relevant_dimensions":["wings","legs"],"bee_group":{"antennae":"X","wings":"2","pattern":"X","legs":"F"},"bonus":1.080000000000001},{"rt":4677.299999982119,"stimulus":"bees-with-color/bee-B1SF.svg","response":1,"trial_type":"image-button-response","trial_index":25,"time_elapsed":319451,"internal_node_id":"0.0-4.0-0.9","subject_id":"58c537bfb101a7000129391a","study_id":"60edd13110225f80f9f3709b","session_id":"6196c7092f714b4d3ea34563","condition":"full-information","relevant_dimensions":["wings","legs"],"bee_group":{"antennae":"X","wings":"2","pattern":"X","legs":"F"},"action":"avoid","summary":"bad-avoid","bonus":1.080000000000001},{"rt":10117.299999982119,"stimulus":"\n                    <p><b>Action: <em>avoid</em></b></p>\n                    <p>This is the bee that you just saw.</p>\n                    <img src=\"bees-with-color/bee-B1SF.svg\" width=\"200\">\n                    <p><span class=\"redText\">Bad choice,</span> the bee was friendly.<br>Your bonus pay is unchanged, and remains at $0.58.</p>\n            ","response":0,"trial_type":"html-button-response","trial_index":26,"time_elapsed":329571,"internal_node_id":"0.0-4.0-1.9","subject_id":"58c537bfb101a7000129391a","study_id":"60edd13110225f80f9f3709b","session_id":"6196c7092f714b4d3ea34563","condition":"full-information","relevant_dimensions":["wings","legs"],"bee_group":{"antennae":"X","wings":"2","pattern":"X","legs":"F"},"bonus":1.080000000000001},{"rt":8173.0999999940395,"stimulus":"bees-with-color/bee-B2DF.svg","response":1,"trial_type":"image-button-response","trial_index":27,"time_elapsed":337747,"internal_node_id":"0.0-4.0-0.10","subject_id":"58c537bfb101a7000129391a","study_id":"60edd13110225f80f9f3709b","session_id":"6196c7092f714b4d3ea34563","condition":"full-information","relevant_dimensions":["wings","legs"],"bee_group":{"antennae":"X","wings":"2","pattern":"X","legs":"F"},"action":"avoid","summary":"good-avoid","bonus":1.080000000000001},{"rt":1461.199999988079,"stimulus":"\n                    <p><b>Action: <em>avoid</em></b></p>\n                    <p>This is the bee that you just saw.</p>\n                    <img src=\"bees-with-color/bee-B2DF.svg\" width=\"200\">\n                    <p><span class=\"greenText\">Good choice!</span>  This bee would have stung you.<br>Your bonus pay is unchanged, and remains at $0.58.</p>\n            ","response":0,"trial_type":"html-button-response","trial_index":28,"time_elapsed":339211,"internal_node_id":"0.0-4.0-1.10","subject_id":"58c537bfb101a7000129391a","study_id":"60edd13110225f80f9f3709b","session_id":"6196c7092f714b4d3ea34563","condition":"full-information","relevant_dimensions":["wings","legs"],"bee_group":{"antennae":"X","wings":"2","pattern":"X","legs":"F"},"bonus":1.080000000000001},{"rt":6517.5,"stimulus":"bees-with-color/bee-A1DF.svg","response":0,"trial_type":"image-button-response","trial_index":29,"time_elapsed":345731,"internal_node_id":"0.0-4.0-0.11","subject_id":"58c537bfb101a7000129391a","study_id":"60edd13110225f80f9f3709b","session_id":"6196c7092f714b4d3ea34563","condition":"full-information","relevant_dimensions":["wings","legs"],"bee_group":{"antennae":"X","wings":"2","pattern":"X","legs":"F"},"action":"harvest","summary":"good-harvest","bonus":1.080000000000001},{"rt":2414,"stimulus":"\n                    <p><b>Action: <em>harvest</em></b></p>\n                    <p>This is the bee that you just saw.</p>\n                    <img src=\"bees-with-color/bee-A1DF.svg\" width=\"200\">\n                    <p><span class=\"greenText\"><b>Successful harvest!</b></span><br>Your pay has increased by $0.02. Your bonus pay is now $0.60.</p>\n            ","response":0,"trial_type":"html-button-response","trial_index":30,"time_elapsed":348147,"internal_node_id":"0.0-4.0-1.11","subject_id":"58c537bfb101a7000129391a","study_id":"60edd13110225f80f9f3709b","session_id":"6196c7092f714b4d3ea34563","condition":"full-information","relevant_dimensions":["wings","legs"],"bee_group":{"antennae":"X","wings":"2","pattern":"X","legs":"F"},"bonus":1.080000000000001},{"rt":3805.899999976158,"stimulus":"bees-with-color/bee-B1SM.svg","response":0,"trial_type":"image-button-response","trial_index":31,"time_elapsed":351955,"internal_node_id":"0.0-4.0-0.12","subject_id":"58c537bfb101a7000129391a","study_id":"60edd13110225f80f9f3709b","session_id":"6196c7092f714b4d3ea34563","condition":"full-information","relevant_dimensions":["wings","legs"],"bee_group":{"antennae":"X","wings":"2","pattern":"X","legs":"F"},"action":"harvest","summary":"good-harvest","bonus":1.080000000000001},{"rt":1101.300000011921,"stimulus":"\n                    <p><b>Action: <em>harvest</em></b></p>\n                    <p>This is the bee that you just saw.</p>\n                    <img src=\"bees-with-color/bee-B1SM.svg\" width=\"200\">\n                    <p><span class=\"greenText\"><b>Successful harvest!</b></span><br>Your pay has increased by $0.02. Your bonus pay is now $0.62.</p>\n            ","response":0,"trial_type":"html-button-response","trial_index":32,"time_elapsed":353059,"internal_node_id":"0.0-4.0-1.12","subject_id":"58c537bfb101a7000129391a","study_id":"60edd13110225f80f9f3709b","session_id":"6196c7092f714b4d3ea34563","condition":"full-information","relevant_dimensions":["wings","legs"],"bee_group":{"antennae":"X","wings":"2","pattern":"X","legs":"F"},"bonus":1.080000000000001},{"rt":8110,"stimulus":"bees-with-color/bee-B2SF.svg","response":1,"trial_type":"image-button-response","trial_index":33,"time_elapsed":361171,"internal_node_id":"0.0-4.0-0.13","subject_id":"58c537bfb101a7000129391a","study_id":"60edd13110225f80f9f3709b","session_id":"6196c7092f714b4d3ea34563","condition":"full-information","relevant_dimensions":["wings","legs"],"bee_group":{"antennae":"X","wings":"2","pattern":"X","legs":"F"},"action":"avoid","summary":"good-avoid","bonus":1.080000000000001},{"rt":1165.8999999761581,"stimulus":"\n                    <p><b>Action: <em>avoid</em></b></p>\n                    <p>This is the bee that you just saw.</p>\n                    <img src=\"bees-with-color/bee-B2SF.svg\" width=\"200\">\n                    <p><span class=\"greenText\">Good choice!</span>  This bee would have stung you.<br>Your bonus pay is unchanged, and remains at $0.62.</p>\n            ","response":0,"trial_type":"html-button-response","trial_index":34,"time_elapsed":362338,"internal_node_id":"0.0-4.0-1.13","subject_id":"58c537bfb101a7000129391a","study_id":"60edd13110225f80f9f3709b","session_id":"6196c7092f714b4d3ea34563","condition":"full-information","relevant_dimensions":["wings","legs"],"bee_group":{"antennae":"X","wings":"2","pattern":"X","legs":"F"},"bonus":1.080000000000001},{"rt":5661.5,"stimulus":"bees-with-color/bee-A2DM.svg","response":1,"trial_type":"image-button-response","trial_index":35,"time_elapsed":368003,"internal_node_id":"0.0-4.0-0.14","subject_id":"58c537bfb101a7000129391a","study_id":"60edd13110225f80f9f3709b","session_id":"6196c7092f714b4d3ea34563","condition":"full-information","relevant_dimensions":["wings","legs"],"bee_group":{"antennae":"X","wings":"2","pattern":"X","legs":"F"},"action":"avoid","summary":"bad-avoid","bonus":1.080000000000001},{"rt":2246,"stimulus":"\n                    <p><b>Action: <em>avoid</em></b></p>\n                    <p>This is the bee that you just saw.</p>\n                    <img src=\"bees-with-color/bee-A2DM.svg\" width=\"200\">\n                    <p><span class=\"redText\">Bad choice,</span> the bee was friendly.<br>Your bonus pay is unchanged, and remains at $0.62.</p>\n            ","response":0,"trial_type":"html-button-response","trial_index":36,"time_elapsed":370250,"internal_node_id":"0.0-4.0-1.14","subject_id":"58c537bfb101a7000129391a","study_id":"60edd13110225f80f9f3709b","session_id":"6196c7092f714b4d3ea34563","condition":"full-information","relevant_dimensions":["wings","legs"],"bee_group":{"antennae":"X","wings":"2","pattern":"X","legs":"F"},"bonus":1.080000000000001},{"rt":9829.5,"stimulus":"bees-with-color/bee-B1DM.svg","response":1,"trial_type":"image-button-response","trial_index":37,"time_elapsed":380082,"internal_node_id":"0.0-4.0-0.15","subject_id":"58c537bfb101a7000129391a","study_id":"60edd13110225f80f9f3709b","session_id":"6196c7092f714b4d3ea34563","condition":"full-information","relevant_dimensions":["wings","legs"],"bee_group":{"antennae":"X","wings":"2","pattern":"X","legs":"F"},"action":"avoid","summary":"bad-avoid","bonus":1.080000000000001},{"rt":1629.699999988079,"stimulus":"\n                    <p><b>Action: <em>avoid</em></b></p>\n                    <p>This is the bee that you just saw.</p>\n                    <img src=\"bees-with-color/bee-B1DM.svg\" width=\"200\">\n                    <p><span class=\"redText\">Bad choice,</span> the bee was friendly.<br>Your bonus pay is unchanged, and remains at $0.62.</p>\n            ","response":0,"trial_type":"html-button-response","trial_index":38,"time_elapsed":381714,"internal_node_id":"0.0-4.0-1.15","subject_id":"58c537bfb101a7000129391a","study_id":"60edd13110225f80f9f3709b","session_id":"6196c7092f714b4d3ea34563","condition":"full-information","relevant_dimensions":["wings","legs"],"bee_group":{"antennae":"X","wings":"2","pattern":"X","legs":"F"},"bonus":1.080000000000001},{"rt":7837.200000017881,"stimulus":"bees-with-color/bee-A1DF.svg","response":0,"trial_type":"image-button-response","trial_index":39,"time_elapsed":389554,"internal_node_id":"0.0-4.0-0.16","subject_id":"58c537bfb101a7000129391a","study_id":"60edd13110225f80f9f3709b","session_id":"6196c7092f714b4d3ea34563","condition":"full-information","relevant_dimensions":["wings","legs"],"bee_group":{"antennae":"X","wings":"2","pattern":"X","legs":"F"},"action":"harvest","summary":"good-harvest","bonus":1.080000000000001},{"rt":1573.7000000178814,"stimulus":"\n                    <p><b>Action: <em>harvest</em></b></p>\n                    <p>This is the bee that you just saw.</p>\n                    <img src=\"bees-with-color/bee-A1DF.svg\" width=\"200\">\n                    <p><span class=\"greenText\"><b>Successful harvest!</b></span><br>Your pay has increased by $0.02. Your bonus pay is now $0.64.</p>\n            ","response":0,"trial_type":"html-button-response","trial_index":40,"time_elapsed":391130,"internal_node_id":"0.0-4.0-1.16","subject_id":"58c537bfb101a7000129391a","study_id":"60edd13110225f80f9f3709b","session_id":"6196c7092f714b4d3ea34563","condition":"full-information","relevant_dimensions":["wings","legs"],"bee_group":{"antennae":"X","wings":"2","pattern":"X","legs":"F"},"bonus":1.080000000000001},{"rt":2013.300000011921,"stimulus":"bees-with-color/bee-B1SF.svg","response":0,"trial_type":"image-button-response","trial_index":41,"time_elapsed":393146,"internal_node_id":"0.0-4.0-0.17","subject_id":"58c537bfb101a7000129391a","study_id":"60edd13110225f80f9f3709b","session_id":"6196c7092f714b4d3ea34563","condition":"full-information","relevant_dimensions":["wings","legs"],"bee_group":{"antennae":"X","wings":"2","pattern":"X","legs":"F"},"action":"harvest","summary":"good-harvest","bonus":1.080000000000001},{"rt":1029.7000000178814,"stimulus":"\n                    <p><b>Action: <em>harvest</em></b></p>\n                    <p>This is the bee that you just saw.</p>\n                    <img src=\"bees-with-color/bee-B1SF.svg\" width=\"200\">\n                    <p><span class=\"greenText\"><b>Successful harvest!</b></span><br>Your pay has increased by $0.02. Your bonus pay is now $0.66.</p>\n            ","response":0,"trial_type":"html-button-response","trial_index":42,"time_elapsed":394178,"internal_node_id":"0.0-4.0-1.17","subject_id":"58c537bfb101a7000129391a","study_id":"60edd13110225f80f9f3709b","session_id":"6196c7092f714b4d3ea34563","condition":"full-information","relevant_dimensions":["wings","legs"],"bee_group":{"antennae":"X","wings":"2","pattern":"X","legs":"F"},"bonus":1.080000000000001},{"rt":9765.59999999404,"stimulus":"bees-with-color/bee-A1DM.svg","response":0,"trial_type":"image-button-response","trial_index":43,"time_elapsed":403946,"internal_node_id":"0.0-4.0-0.18","subject_id":"58c537bfb101a7000129391a","study_id":"60edd13110225f80f9f3709b","session_id":"6196c7092f714b4d3ea34563","condition":"full-information","relevant_dimensions":["wings","legs"],"bee_group":{"antennae":"X","wings":"2","pattern":"X","legs":"F"},"action":"harvest","summary":"good-harvest","bonus":1.080000000000001},{"rt":1254.0999999940395,"stimulus":"\n                    <p><b>Action: <em>harvest</em></b></p>\n                    <p>This is the bee that you just saw.</p>\n                    <img src=\"bees-with-color/bee-A1DM.svg\" width=\"200\">\n                    <p><span class=\"greenText\"><b>Successful harvest!</b></span><br>Your pay has increased by $0.02. Your bonus pay is now $0.68.</p>\n            ","response":0,"trial_type":"html-button-response","trial_index":44,"time_elapsed":405202,"internal_node_id":"0.0-4.0-1.18","subject_id":"58c537bfb101a7000129391a","study_id":"60edd13110225f80f9f3709b","session_id":"6196c7092f714b4d3ea34563","condition":"full-information","relevant_dimensions":["wings","legs"],"bee_group":{"antennae":"X","wings":"2","pattern":"X","legs":"F"},"bonus":1.080000000000001},{"rt":5573.699999988079,"stimulus":"bees-with-color/bee-A1SM.svg","response":0,"trial_type":"image-button-response","trial_index":45,"time_elapsed":410778,"internal_node_id":"0.0-4.0-0.19","subject_id":"58c537bfb101a7000129391a","study_id":"60edd13110225f80f9f3709b","session_id":"6196c7092f714b4d3ea34563","condition":"full-information","relevant_dimensions":["wings","legs"],"bee_group":{"antennae":"X","wings":"2","pattern":"X","legs":"F"},"action":"harvest","summary":"good-harvest","bonus":1.080000000000001},{"rt":1070.0999999940395,"stimulus":"\n                    <p><b>Action: <em>harvest</em></b></p>\n                    <p>This is the bee that you just saw.</p>\n                    <img src=\"bees-with-color/bee-A1SM.svg\" width=\"200\">\n                    <p><span class=\"greenText\"><b>Successful harvest!</b></span><br>Your pay has increased by $0.02. Your bonus pay is now $0.70.</p>\n            ","response":0,"trial_type":"html-button-response","trial_index":46,"time_elapsed":411850,"internal_node_id":"0.0-4.0-1.19","subject_id":"58c537bfb101a7000129391a","study_id":"60edd13110225f80f9f3709b","session_id":"6196c7092f714b4d3ea34563","condition":"full-information","relevant_dimensions":["wings","legs"],"bee_group":{"antennae":"X","wings":"2","pattern":"X","legs":"F"},"bonus":1.080000000000001},{"rt":4597.800000011921,"stimulus":"bees-with-color/bee-B2DF.svg","response":1,"trial_type":"image-button-response","trial_index":47,"time_elapsed":416450,"internal_node_id":"0.0-4.0-0.20","subject_id":"58c537bfb101a7000129391a","study_id":"60edd13110225f80f9f3709b","session_id":"6196c7092f714b4d3ea34563","condition":"full-information","relevant_dimensions":["wings","legs"],"bee_group":{"antennae":"X","wings":"2","pattern":"X","legs":"F"},"action":"avoid","summary":"good-avoid","bonus":1.080000000000001},{"rt":2086.199999988079,"stimulus":"\n                    <p><b>Action: <em>avoid</em></b></p>\n                    <p>This is the bee that you just saw.</p>\n                    <img src=\"bees-with-color/bee-B2DF.svg\" width=\"200\">\n                    <p><span class=\"greenText\">Good choice!</span>  This bee would have stung you.<br>Your bonus pay is unchanged, and remains at $0.70.</p>\n            ","response":0,"trial_type":"html-button-response","trial_index":48,"time_elapsed":418538,"internal_node_id":"0.0-4.0-1.20","subject_id":"58c537bfb101a7000129391a","study_id":"60edd13110225f80f9f3709b","session_id":"6196c7092f714b4d3ea34563","condition":"full-information","relevant_dimensions":["wings","legs"],"bee_group":{"antennae":"X","wings":"2","pattern":"X","legs":"F"},"bonus":1.080000000000001},{"rt":2197.5,"stimulus":"bees-with-color/bee-B1DF.svg","response":0,"trial_type":"image-button-response","trial_index":49,"time_elapsed":420738,"internal_node_id":"0.0-4.0-0.21","subject_id":"58c537bfb101a7000129391a","study_id":"60edd13110225f80f9f3709b","session_id":"6196c7092f714b4d3ea34563","condition":"full-information","relevant_dimensions":["wings","legs"],"bee_group":{"antennae":"X","wings":"2","pattern":"X","legs":"F"},"action":"harvest","summary":"good-harvest","bonus":1.080000000000001},{"rt":1213.9000000059605,"stimulus":"\n                    <p><b>Action: <em>harvest</em></b></p>\n                    <p>This is the bee that you just saw.</p>\n                    <img src=\"bees-with-color/bee-B1DF.svg\" width=\"200\">\n                    <p><span class=\"greenText\"><b>Successful harvest!</b></span><br>Your pay has increased by $0.02. Your bonus pay is now $0.72.</p>\n            ","response":0,"trial_type":"html-button-response","trial_index":50,"time_elapsed":421954,"internal_node_id":"0.0-4.0-1.21","subject_id":"58c537bfb101a7000129391a","study_id":"60edd13110225f80f9f3709b","session_id":"6196c7092f714b4d3ea34563","condition":"full-information","relevant_dimensions":["wings","legs"],"bee_group":{"antennae":"X","wings":"2","pattern":"X","legs":"F"},"bonus":1.080000000000001},{"rt":8109.399999976158,"stimulus":"bees-with-color/bee-B2SF.svg","response":0,"trial_type":"image-button-response","trial_index":51,"time_elapsed":430066,"internal_node_id":"0.0-4.0-0.22","subject_id":"58c537bfb101a7000129391a","study_id":"60edd13110225f80f9f3709b","session_id":"6196c7092f714b4d3ea34563","condition":"full-information","relevant_dimensions":["wings","legs"],"bee_group":{"antennae":"X","wings":"2","pattern":"X","legs":"F"},"action":"harvest","summary":"bad-harvest","bonus":1.080000000000001},{"rt":2382,"stimulus":"\n                    <p><b>Action: <em>harvest</em></b></p>\n                    <p>This is the bee that you just saw.</p>\n                    <img src=\"bees-with-color/bee-B2SF.svg\" width=\"200\">\n                    <p><span class=\"redText\">Bad choice, the bee was angry.</span><br><b>You have been stung!</b><br>Your pay has been decreased by $0.10. Your bonus pay is now $0.62.</p>\n            ","response":0,"trial_type":"html-button-response","trial_index":52,"time_elapsed":432450,"internal_node_id":"0.0-4.0-1.22","subject_id":"58c537bfb101a7000129391a","study_id":"60edd13110225f80f9f3709b","session_id":"6196c7092f714b4d3ea34563","condition":"full-information","relevant_dimensions":["wings","legs"],"bee_group":{"antennae":"X","wings":"2","pattern":"X","legs":"F"},"bonus":1.080000000000001},{"rt":4613.4000000059605,"stimulus":"bees-with-color/bee-A1SF.svg","response":0,"trial_type":"image-button-response","trial_index":53,"time_elapsed":437066,"internal_node_id":"0.0-4.0-0.23","subject_id":"58c537bfb101a7000129391a","study_id":"60edd13110225f80f9f3709b","session_id":"6196c7092f714b4d3ea34563","condition":"full-information","relevant_dimensions":["wings","legs"],"bee_group":{"antennae":"X","wings":"2","pattern":"X","legs":"F"},"action":"harvest","summary":"good-harvest","bonus":1.080000000000001},{"rt":893.2000000178814,"stimulus":"\n                    <p><b>Action: <em>harvest</em></b></p>\n                    <p>This is the bee that you just saw.</p>\n                    <img src=\"bees-with-color/bee-A1SF.svg\" width=\"200\">\n                    <p><span class=\"greenText\"><b>Successful harvest!</b></span><br>Your pay has increased by $0.02. Your bonus pay is now $0.64.</p>\n            ","response":0,"trial_type":"html-button-response","trial_index":54,"time_elapsed":437962,"internal_node_id":"0.0-4.0-1.23","subject_id":"58c537bfb101a7000129391a","study_id":"60edd13110225f80f9f3709b","session_id":"6196c7092f714b4d3ea34563","condition":"full-information","relevant_dimensions":["wings","legs"],"bee_group":{"antennae":"X","wings":"2","pattern":"X","legs":"F"},"bonus":1.080000000000001},{"rt":7477.5,"stimulus":"bees-with-color/bee-B2SM.svg","response":0,"trial_type":"image-button-response","trial_index":55,"time_elapsed":445442,"internal_node_id":"0.0-4.0-0.24","subject_id":"58c537bfb101a7000129391a","study_id":"60edd13110225f80f9f3709b","session_id":"6196c7092f714b4d3ea34563","condition":"full-information","relevant_dimensions":["wings","legs"],"bee_group":{"antennae":"X","wings":"2","pattern":"X","legs":"F"},"action":"harvest","summary":"good-harvest","bonus":1.080000000000001},{"rt":949.7000000178814,"stimulus":"\n                    <p><b>Action: <em>harvest</em></b></p>\n                    <p>This is the bee that you just saw.</p>\n                    <img src=\"bees-with-color/bee-B2SM.svg\" width=\"200\">\n                    <p><span class=\"greenText\"><b>Successful harvest!</b></span><br>Your pay has increased by $0.02. Your bonus pay is now $0.66.</p>\n            ","response":0,"trial_type":"html-button-response","trial_index":56,"time_elapsed":446394,"internal_node_id":"0.0-4.0-1.24","subject_id":"58c537bfb101a7000129391a","study_id":"60edd13110225f80f9f3709b","session_id":"6196c7092f714b4d3ea34563","condition":"full-information","relevant_dimensions":["wings","legs"],"bee_group":{"antennae":"X","wings":"2","pattern":"X","legs":"F"},"bonus":1.080000000000001},{"rt":4828.9000000059605,"stimulus":"bees-with-color/bee-B2DM.svg","response":1,"trial_type":"image-button-response","trial_index":57,"time_elapsed":451226,"internal_node_id":"0.0-4.0-0.25","subject_id":"58c537bfb101a7000129391a","study_id":"60edd13110225f80f9f3709b","session_id":"6196c7092f714b4d3ea34563","condition":"full-information","relevant_dimensions":["wings","legs"],"bee_group":{"antennae":"X","wings":"2","pattern":"X","legs":"F"},"action":"avoid","summary":"bad-avoid","bonus":1.080000000000001},{"rt":1565.5999999940395,"stimulus":"\n                    <p><b>Action: <em>avoid</em></b></p>\n                    <p>This is the bee that you just saw.</p>\n                    <img src=\"bees-with-color/bee-B2DM.svg\" width=\"200\">\n                    <p><span class=\"redText\">Bad choice,</span> the bee was friendly.<br>Your bonus pay is unchanged, and remains at $0.66.</p>\n            ","response":0,"trial_type":"html-button-response","trial_index":58,"time_elapsed":452794,"internal_node_id":"0.0-4.0-1.25","subject_id":"58c537bfb101a7000129391a","study_id":"60edd13110225f80f9f3709b","session_id":"6196c7092f714b4d3ea34563","condition":"full-information","relevant_dimensions":["wings","legs"],"bee_group":{"antennae":"X","wings":"2","pattern":"X","legs":"F"},"bonus":1.080000000000001},{"rt":12940.699999988079,"stimulus":"bees-with-color/bee-A2DM.svg","response":1,"trial_type":"image-button-response","trial_index":59,"time_elapsed":465738,"internal_node_id":"0.0-4.0-0.26","subject_id":"58c537bfb101a7000129391a","study_id":"60edd13110225f80f9f3709b","session_id":"6196c7092f714b4d3ea34563","condition":"full-information","relevant_dimensions":["wings","legs"],"bee_group":{"antennae":"X","wings":"2","pattern":"X","legs":"F"},"action":"avoid","summary":"bad-avoid","bonus":1.080000000000001},{"rt":1277.2000000178814,"stimulus":"\n                    <p><b>Action: <em>avoid</em></b></p>\n                    <p>This is the bee that you just saw.</p>\n                    <img src=\"bees-with-color/bee-A2DM.svg\" width=\"200\">\n                    <p><span class=\"redText\">Bad choice,</span> the bee was friendly.<br>Your bonus pay is unchanged, and remains at $0.66.</p>\n            ","response":0,"trial_type":"html-button-response","trial_index":60,"time_elapsed":467017,"internal_node_id":"0.0-4.0-1.26","subject_id":"58c537bfb101a7000129391a","study_id":"60edd13110225f80f9f3709b","session_id":"6196c7092f714b4d3ea34563","condition":"full-information","relevant_dimensions":["wings","legs"],"bee_group":{"antennae":"X","wings":"2","pattern":"X","legs":"F"},"bonus":1.080000000000001},{"rt":9917.800000011921,"stimulus":"bees-with-color/bee-A2DF.svg","response":0,"trial_type":"image-button-response","trial_index":61,"time_elapsed":476938,"internal_node_id":"0.0-4.0-0.27","subject_id":"58c537bfb101a7000129391a","study_id":"60edd13110225f80f9f3709b","session_id":"6196c7092f714b4d3ea34563","condition":"full-information","relevant_dimensions":["wings","legs"],"bee_group":{"antennae":"X","wings":"2","pattern":"X","legs":"F"},"action":"harvest","summary":"bad-harvest","bonus":1.080000000000001},{"rt":2222.100000023842,"stimulus":"\n                    <p><b>Action: <em>harvest</em></b></p>\n                    <p>This is the bee that you just saw.</p>\n                    <img src=\"bees-with-color/bee-A2DF.svg\" width=\"200\">\n                    <p><span class=\"redText\">Bad choice, the bee was angry.</span><br><b>You have been stung!</b><br>Your pay has been decreased by $0.10. Your bonus pay is now $0.56.</p>\n            ","response":0,"trial_type":"html-button-response","trial_index":62,"time_elapsed":479161,"internal_node_id":"0.0-4.0-1.27","subject_id":"58c537bfb101a7000129391a","study_id":"60edd13110225f80f9f3709b","session_id":"6196c7092f714b4d3ea34563","condition":"full-information","relevant_dimensions":["wings","legs"],"bee_group":{"antennae":"X","wings":"2","pattern":"X","legs":"F"},"bonus":1.080000000000001},{"rt":2989.5,"stimulus":"bees-with-color/bee-A2SM.svg","response":0,"trial_type":"image-button-response","trial_index":63,"time_elapsed":482154,"internal_node_id":"0.0-4.0-0.28","subject_id":"58c537bfb101a7000129391a","study_id":"60edd13110225f80f9f3709b","session_id":"6196c7092f714b4d3ea34563","condition":"full-information","relevant_dimensions":["wings","legs"],"bee_group":{"antennae":"X","wings":"2","pattern":"X","legs":"F"},"action":"harvest","summary":"good-harvest","bonus":1.080000000000001},{"rt":1869.4000000059605,"stimulus":"\n                    <p><b>Action: <em>harvest</em></b></p>\n                    <p>This is the bee that you just saw.</p>\n                    <img src=\"bees-with-color/bee-A2SM.svg\" width=\"200\">\n                    <p><span class=\"greenText\"><b>Successful harvest!</b></span><br>Your pay has increased by $0.02. Your bonus pay is now $0.58.</p>\n            ","response":0,"trial_type":"html-button-response","trial_index":64,"time_elapsed":484026,"internal_node_id":"0.0-4.0-1.28","subject_id":"58c537bfb101a7000129391a","study_id":"60edd13110225f80f9f3709b","session_id":"6196c7092f714b4d3ea34563","condition":"full-information","relevant_dimensions":["wings","legs"],"bee_group":{"antennae":"X","wings":"2","pattern":"X","legs":"F"},"bonus":1.080000000000001},{"rt":3453.2000000178814,"stimulus":"bees-with-color/bee-A2SF.svg","response":1,"trial_type":"image-button-response","trial_index":65,"time_elapsed":487482,"internal_node_id":"0.0-4.0-0.29","subject_id":"58c537bfb101a7000129391a","study_id":"60edd13110225f80f9f3709b","session_id":"6196c7092f714b4d3ea34563","condition":"full-information","relevant_dimensions":["wings","legs"],"bee_group":{"antennae":"X","wings":"2","pattern":"X","legs":"F"},"action":"avoid","summary":"good-avoid","bonus":1.080000000000001},{"rt":1301.8999999761581,"stimulus":"\n                    <p><b>Action: <em>avoid</em></b></p>\n                    <p>This is the bee that you just saw.</p>\n                    <img src=\"bees-with-color/bee-A2SF.svg\" width=\"200\">\n                    <p><span class=\"greenText\">Good choice!</span>  This bee would have stung you.<br>Your bonus pay is unchanged, and remains at $0.58.</p>\n            ","response":0,"trial_type":"html-button-response","trial_index":66,"time_elapsed":488786,"internal_node_id":"0.0-4.0-1.29","subject_id":"58c537bfb101a7000129391a","study_id":"60edd13110225f80f9f3709b","session_id":"6196c7092f714b4d3ea34563","condition":"full-information","relevant_dimensions":["wings","legs"],"bee_group":{"antennae":"X","wings":"2","pattern":"X","legs":"F"},"bonus":1.080000000000001},{"rt":2085.0999999940395,"stimulus":"bees-with-color/bee-B1DM.svg","response":1,"trial_type":"image-button-response","trial_index":67,"time_elapsed":490874,"internal_node_id":"0.0-4.0-0.30","subject_id":"58c537bfb101a7000129391a","study_id":"60edd13110225f80f9f3709b","session_id":"6196c7092f714b4d3ea34563","condition":"full-information","relevant_dimensions":["wings","legs"],"bee_group":{"antennae":"X","wings":"2","pattern":"X","legs":"F"},"action":"avoid","summary":"bad-avoid","bonus":1.080000000000001},{"rt":997.5999999940395,"stimulus":"\n                    <p><b>Action: <em>avoid</em></b></p>\n                    <p>This is the bee that you just saw.</p>\n                    <img src=\"bees-with-color/bee-B1DM.svg\" width=\"200\">\n                    <p><span class=\"redText\">Bad choice,</span> the bee was friendly.<br>Your bonus pay is unchanged, and remains at $0.58.</p>\n            ","response":0,"trial_type":"html-button-response","trial_index":68,"time_elapsed":491874,"internal_node_id":"0.0-4.0-1.30","subject_id":"58c537bfb101a7000129391a","study_id":"60edd13110225f80f9f3709b","session_id":"6196c7092f714b4d3ea34563","condition":"full-information","relevant_dimensions":["wings","legs"],"bee_group":{"antennae":"X","wings":"2","pattern":"X","legs":"F"},"bonus":1.080000000000001},{"rt":5301.699999988079,"stimulus":"bees-with-color/bee-B1SM.svg","response":1,"trial_type":"image-button-response","trial_index":69,"time_elapsed":497178,"internal_node_id":"0.0-4.0-0.31","subject_id":"58c537bfb101a7000129391a","study_id":"60edd13110225f80f9f3709b","session_id":"6196c7092f714b4d3ea34563","condition":"full-information","relevant_dimensions":["wings","legs"],"bee_group":{"antennae":"X","wings":"2","pattern":"X","legs":"F"},"action":"avoid","summary":"bad-avoid","bonus":1.080000000000001},{"rt":1157.8999999761581,"stimulus":"\n                    <p><b>Action: <em>avoid</em></b></p>\n                    <p>This is the bee that you just saw.</p>\n                    <img src=\"bees-with-color/bee-B1SM.svg\" width=\"200\">\n                    <p><span class=\"redText\">Bad choice,</span> the bee was friendly.<br>Your bonus pay is unchanged, and remains at $0.58.</p>\n            ","response":0,"trial_type":"html-button-response","trial_index":70,"time_elapsed":498338,"internal_node_id":"0.0-4.0-1.31","subject_id":"58c537bfb101a7000129391a","study_id":"60edd13110225f80f9f3709b","session_id":"6196c7092f714b4d3ea34563","condition":"full-information","relevant_dimensions":["wings","legs"],"bee_group":{"antennae":"X","wings":"2","pattern":"X","legs":"F"},"bonus":1.080000000000001},{"rt":2013.300000011921,"stimulus":"bees-with-color/bee-A2SM.svg","response":1,"trial_type":"image-button-response","trial_index":71,"time_elapsed":500354,"internal_node_id":"0.0-4.0-0.32","subject_id":"58c537bfb101a7000129391a","study_id":"60edd13110225f80f9f3709b","session_id":"6196c7092f714b4d3ea34563","condition":"full-information","relevant_dimensions":["wings","legs"],"bee_group":{"antennae":"X","wings":"2","pattern":"X","legs":"F"},"action":"avoid","summary":"bad-avoid","bonus":1.080000000000001},{"rt":1149.800000011921,"stimulus":"\n                    <p><b>Action: <em>avoid</em></b></p>\n                    <p>This is the bee that you just saw.</p>\n                    <img src=\"bees-with-color/bee-A2SM.svg\" width=\"200\">\n                    <p><span class=\"redText\">Bad choice,</span> the bee was friendly.<br>Your bonus pay is unchanged, and remains at $0.58.</p>\n            ","response":0,"trial_type":"html-button-response","trial_index":72,"time_elapsed":501506,"internal_node_id":"0.0-4.0-1.32","subject_id":"58c537bfb101a7000129391a","study_id":"60edd13110225f80f9f3709b","session_id":"6196c7092f714b4d3ea34563","condition":"full-information","relevant_dimensions":["wings","legs"],"bee_group":{"antennae":"X","wings":"2","pattern":"X","legs":"F"},"bonus":1.080000000000001},{"rt":1549.699999988079,"stimulus":"bees-with-color/bee-A1DF.svg","response":0,"trial_type":"image-button-response","trial_index":73,"time_elapsed":503058,"internal_node_id":"0.0-4.0-0.33","subject_id":"58c537bfb101a7000129391a","study_id":"60edd13110225f80f9f3709b","session_id":"6196c7092f714b4d3ea34563","condition":"full-information","relevant_dimensions":["wings","legs"],"bee_group":{"antennae":"X","wings":"2","pattern":"X","legs":"F"},"action":"harvest","summary":"good-harvest","bonus":1.080000000000001},{"rt":925.6999999880791,"stimulus":"\n                    <p><b>Action: <em>harvest</em></b></p>\n                    <p>This is the bee that you just saw.</p>\n                    <img src=\"bees-with-color/bee-A1DF.svg\" width=\"200\">\n                    <p><span class=\"greenText\"><b>Successful harvest!</b></span><br>Your pay has increased by $0.02. Your bonus pay is now $0.60.</p>\n            ","response":0,"trial_type":"html-button-response","trial_index":74,"time_elapsed":503986,"internal_node_id":"0.0-4.0-1.33","subject_id":"58c537bfb101a7000129391a","study_id":"60edd13110225f80f9f3709b","session_id":"6196c7092f714b4d3ea34563","condition":"full-information","relevant_dimensions":["wings","legs"],"bee_group":{"antennae":"X","wings":"2","pattern":"X","legs":"F"},"bonus":1.080000000000001},{"rt":1509.800000011921,"stimulus":"bees-with-color/bee-A2DF.svg","response":0,"trial_type":"image-button-response","trial_index":75,"time_elapsed":505497,"internal_node_id":"0.0-4.0-0.34","subject_id":"58c537bfb101a7000129391a","study_id":"60edd13110225f80f9f3709b","session_id":"6196c7092f714b4d3ea34563","condition":"full-information","relevant_dimensions":["wings","legs"],"bee_group":{"antennae":"X","wings":"2","pattern":"X","legs":"F"},"action":"harvest","summary":"bad-harvest","bonus":1.080000000000001},{"rt":1469.9000000059605,"stimulus":"\n                    <p><b>Action: <em>harvest</em></b></p>\n                    <p>This is the bee that you just saw.</p>\n                    <img src=\"bees-with-color/bee-A2DF.svg\" width=\"200\">\n                    <p><span class=\"redText\">Bad choice, the bee was angry.</span><br><b>You have been stung!</b><br>Your pay has been decreased by $0.10. Your bonus pay is now $0.50.</p>\n            ","response":0,"trial_type":"html-button-response","trial_index":76,"time_elapsed":506970,"internal_node_id":"0.0-4.0-1.34","subject_id":"58c537bfb101a7000129391a","study_id":"60edd13110225f80f9f3709b","session_id":"6196c7092f714b4d3ea34563","condition":"full-information","relevant_dimensions":["wings","legs"],"bee_group":{"antennae":"X","wings":"2","pattern":"X","legs":"F"},"bonus":1.080000000000001},{"rt":1821.9000000059605,"stimulus":"bees-with-color/bee-B2SF.svg","response":1,"trial_type":"image-button-response","trial_index":77,"time_elapsed":508794,"internal_node_id":"0.0-4.0-0.35","subject_id":"58c537bfb101a7000129391a","study_id":"60edd13110225f80f9f3709b","session_id":"6196c7092f714b4d3ea34563","condition":"full-information","relevant_dimensions":["wings","legs"],"bee_group":{"antennae":"X","wings":"2","pattern":"X","legs":"F"},"action":"avoid","summary":"good-avoid","bonus":1.080000000000001},{"rt":1445.4000000059605,"stimulus":"\n                    <p><b>Action: <em>avoid</em></b></p>\n                    <p>This is the bee that you just saw.</p>\n                    <img src=\"bees-with-color/bee-B2SF.svg\" width=\"200\">\n                    <p><span class=\"greenText\">Good choice!</span>  This bee would have stung you.<br>Your bonus pay is unchanged, and remains at $0.50.</p>\n            ","response":0,"trial_type":"html-button-response","trial_index":78,"time_elapsed":510242,"internal_node_id":"0.0-4.0-1.35","subject_id":"58c537bfb101a7000129391a","study_id":"60edd13110225f80f9f3709b","session_id":"6196c7092f714b4d3ea34563","condition":"full-information","relevant_dimensions":["wings","legs"],"bee_group":{"antennae":"X","wings":"2","pattern":"X","legs":"F"},"bonus":1.080000000000001},{"rt":2365.5,"stimulus":"bees-with-color/bee-A2DM.svg","response":1,"trial_type":"image-button-response","trial_index":79,"time_elapsed":512610,"internal_node_id":"0.0-4.0-0.36","subject_id":"58c537bfb101a7000129391a","study_id":"60edd13110225f80f9f3709b","session_id":"6196c7092f714b4d3ea34563","condition":"full-information","relevant_dimensions":["wings","legs"],"bee_group":{"antennae":"X","wings":"2","pattern":"X","legs":"F"},"action":"avoid","summary":"bad-avoid","bonus":1.080000000000001},{"rt":813.3000000119209,"stimulus":"\n                    <p><b>Action: <em>avoid</em></b></p>\n                    <p>This is the bee that you just saw.</p>\n                    <img src=\"bees-with-color/bee-A2DM.svg\" width=\"200\">\n                    <p><span class=\"redText\">Bad choice,</span> the bee was friendly.<br>Your bonus pay is unchanged, and remains at $0.50.</p>\n            ","response":0,"trial_type":"html-button-response","trial_index":80,"time_elapsed":513425,"internal_node_id":"0.0-4.0-1.36","subject_id":"58c537bfb101a7000129391a","study_id":"60edd13110225f80f9f3709b","session_id":"6196c7092f714b4d3ea34563","condition":"full-information","relevant_dimensions":["wings","legs"],"bee_group":{"antennae":"X","wings":"2","pattern":"X","legs":"F"},"bonus":1.080000000000001},{"rt":3220.7000000178814,"stimulus":"bees-with-color/bee-A1DM.svg","response":0,"trial_type":"image-button-response","trial_index":81,"time_elapsed":516650,"internal_node_id":"0.0-4.0-0.37","subject_id":"58c537bfb101a7000129391a","study_id":"60edd13110225f80f9f3709b","session_id":"6196c7092f714b4d3ea34563","condition":"full-information","relevant_dimensions":["wings","legs"],"bee_group":{"antennae":"X","wings":"2","pattern":"X","legs":"F"},"action":"harvest","summary":"good-harvest","bonus":1.080000000000001},{"rt":900.9000000059605,"stimulus":"\n                    <p><b>Action: <em>harvest</em></b></p>\n                    <p>This is the bee that you just saw.</p>\n                    <img src=\"bees-with-color/bee-A1DM.svg\" width=\"200\">\n                    <p><span class=\"greenText\"><b>Successful harvest!</b></span><br>Your pay has increased by $0.02. Your bonus pay is now $0.52.</p>\n            ","response":0,"trial_type":"html-button-response","trial_index":82,"time_elapsed":517554,"internal_node_id":"0.0-4.0-1.37","subject_id":"58c537bfb101a7000129391a","study_id":"60edd13110225f80f9f3709b","session_id":"6196c7092f714b4d3ea34563","condition":"full-information","relevant_dimensions":["wings","legs"],"bee_group":{"antennae":"X","wings":"2","pattern":"X","legs":"F"},"bonus":1.080000000000001},{"rt":1605.199999988079,"stimulus":"bees-with-color/bee-B1DM.svg","response":0,"trial_type":"image-button-response","trial_index":83,"time_elapsed":519161,"internal_node_id":"0.0-4.0-0.38","subject_id":"58c537bfb101a7000129391a","study_id":"60edd13110225f80f9f3709b","session_id":"6196c7092f714b4d3ea34563","condition":"full-information","relevant_dimensions":["wings","legs"],"bee_group":{"antennae":"X","wings":"2","pattern":"X","legs":"F"},"action":"harvest","summary":"good-harvest","bonus":1.080000000000001},{"rt":758.0999999940395,"stimulus":"\n                    <p><b>Action: <em>harvest</em></b></p>\n                    <p>This is the bee that you just saw.</p>\n                    <img src=\"bees-with-color/bee-B1DM.svg\" width=\"200\">\n                    <p><span class=\"greenText\"><b>Successful harvest!</b></span><br>Your pay has increased by $0.02. Your bonus pay is now $0.54.</p>\n            ","response":0,"trial_type":"html-button-response","trial_index":84,"time_elapsed":519921,"internal_node_id":"0.0-4.0-1.38","subject_id":"58c537bfb101a7000129391a","study_id":"60edd13110225f80f9f3709b","session_id":"6196c7092f714b4d3ea34563","condition":"full-information","relevant_dimensions":["wings","legs"],"bee_group":{"antennae":"X","wings":"2","pattern":"X","legs":"F"},"bonus":1.080000000000001},{"rt":1438.3999999761581,"stimulus":"bees-with-color/bee-B1SF.svg","response":0,"trial_type":"image-button-response","trial_index":85,"time_elapsed":521361,"internal_node_id":"0.0-4.0-0.39","subject_id":"58c537bfb101a7000129391a","study_id":"60edd13110225f80f9f3709b","session_id":"6196c7092f714b4d3ea34563","condition":"full-information","relevant_dimensions":["wings","legs"],"bee_group":{"antennae":"X","wings":"2","pattern":"X","legs":"F"},"action":"harvest","summary":"good-harvest","bonus":1.080000000000001},{"rt":725.5,"stimulus":"\n                    <p><b>Action: <em>harvest</em></b></p>\n                    <p>This is the bee that you just saw.</p>\n                    <img src=\"bees-with-color/bee-B1SF.svg\" width=\"200\">\n                    <p><span class=\"greenText\"><b>Successful harvest!</b></span><br>Your pay has increased by $0.02. Your bonus pay is now $0.56.</p>\n            ","response":0,"trial_type":"html-button-response","trial_index":86,"time_elapsed":522089,"internal_node_id":"0.0-4.0-1.39","subject_id":"58c537bfb101a7000129391a","study_id":"60edd13110225f80f9f3709b","session_id":"6196c7092f714b4d3ea34563","condition":"full-information","relevant_dimensions":["wings","legs"],"bee_group":{"antennae":"X","wings":"2","pattern":"X","legs":"F"},"bonus":1.080000000000001},{"rt":1502.300000011921,"stimulus":"bees-with-color/bee-A1SF.svg","response":0,"trial_type":"image-button-response","trial_index":87,"time_elapsed":523593,"internal_node_id":"0.0-4.0-0.40","subject_id":"58c537bfb101a7000129391a","study_id":"60edd13110225f80f9f3709b","session_id":"6196c7092f714b4d3ea34563","condition":"full-information","relevant_dimensions":["wings","legs"],"bee_group":{"antennae":"X","wings":"2","pattern":"X","legs":"F"},"action":"harvest","summary":"good-harvest","bonus":1.080000000000001},{"rt":734.1000000238419,"stimulus":"\n                    <p><b>Action: <em>harvest</em></b></p>\n                    <p>This is the bee that you just saw.</p>\n                    <img src=\"bees-with-color/bee-A1SF.svg\" width=\"200\">\n                    <p><span class=\"greenText\"><b>Successful harvest!</b></span><br>Your pay has increased by $0.02. Your bonus pay is now $0.58.</p>\n            ","response":0,"trial_type":"html-button-response","trial_index":88,"time_elapsed":524329,"internal_node_id":"0.0-4.0-1.40","subject_id":"58c537bfb101a7000129391a","study_id":"60edd13110225f80f9f3709b","session_id":"6196c7092f714b4d3ea34563","condition":"full-information","relevant_dimensions":["wings","legs"],"bee_group":{"antennae":"X","wings":"2","pattern":"X","legs":"F"},"bonus":1.080000000000001},{"rt":1254.2000000178814,"stimulus":"bees-with-color/bee-B1DF.svg","response":0,"trial_type":"image-button-response","trial_index":89,"time_elapsed":525585,"internal_node_id":"0.0-4.0-0.41","subject_id":"58c537bfb101a7000129391a","study_id":"60edd13110225f80f9f3709b","session_id":"6196c7092f714b4d3ea34563","condition":"full-information","relevant_dimensions":["wings","legs"],"bee_group":{"antennae":"X","wings":"2","pattern":"X","legs":"F"},"action":"harvest","summary":"good-harvest","bonus":1.080000000000001},{"rt":686,"stimulus":"\n                    <p><b>Action: <em>harvest</em></b></p>\n                    <p>This is the bee that you just saw.</p>\n                    <img src=\"bees-with-color/bee-B1DF.svg\" width=\"200\">\n                    <p><span class=\"greenText\"><b>Successful harvest!</b></span><br>Your pay has increased by $0.02. Your bonus pay is now $0.60.</p>\n            ","response":0,"trial_type":"html-button-response","trial_index":90,"time_elapsed":526273,"internal_node_id":"0.0-4.0-1.41","subject_id":"58c537bfb101a7000129391a","study_id":"60edd13110225f80f9f3709b","session_id":"6196c7092f714b4d3ea34563","condition":"full-information","relevant_dimensions":["wings","legs"],"bee_group":{"antennae":"X","wings":"2","pattern":"X","legs":"F"},"bonus":1.080000000000001},{"rt":1221.9000000059605,"stimulus":"bees-with-color/bee-A2SF.svg","response":1,"trial_type":"image-button-response","trial_index":91,"time_elapsed":527497,"internal_node_id":"0.0-4.0-0.42","subject_id":"58c537bfb101a7000129391a","study_id":"60edd13110225f80f9f3709b","session_id":"6196c7092f714b4d3ea34563","condition":"full-information","relevant_dimensions":["wings","legs"],"bee_group":{"antennae":"X","wings":"2","pattern":"X","legs":"F"},"action":"avoid","summary":"good-avoid","bonus":1.080000000000001},{"rt":878,"stimulus":"\n                    <p><b>Action: <em>avoid</em></b></p>\n                    <p>This is the bee that you just saw.</p>\n                    <img src=\"bees-with-color/bee-A2SF.svg\" width=\"200\">\n                    <p><span class=\"greenText\">Good choice!</span>  This bee would have stung you.<br>Your bonus pay is unchanged, and remains at $0.60.</p>\n            ","response":0,"trial_type":"html-button-response","trial_index":92,"time_elapsed":528377,"internal_node_id":"0.0-4.0-1.42","subject_id":"58c537bfb101a7000129391a","study_id":"60edd13110225f80f9f3709b","session_id":"6196c7092f714b4d3ea34563","condition":"full-information","relevant_dimensions":["wings","legs"],"bee_group":{"antennae":"X","wings":"2","pattern":"X","legs":"F"},"bonus":1.080000000000001},{"rt":1413.5,"stimulus":"bees-with-color/bee-B2DM.svg","response":1,"trial_type":"image-button-response","trial_index":93,"time_elapsed":529793,"internal_node_id":"0.0-4.0-0.43","subject_id":"58c537bfb101a7000129391a","study_id":"60edd13110225f80f9f3709b","session_id":"6196c7092f714b4d3ea34563","condition":"full-information","relevant_dimensions":["wings","legs"],"bee_group":{"antennae":"X","wings":"2","pattern":"X","legs":"F"},"action":"avoid","summary":"bad-avoid","bonus":1.080000000000001},{"rt":909.8999999761581,"stimulus":"\n                    <p><b>Action: <em>avoid</em></b></p>\n                    <p>This is the bee that you just saw.</p>\n                    <img src=\"bees-with-color/bee-B2DM.svg\" width=\"200\">\n                    <p><span class=\"redText\">Bad choice,</span> the bee was friendly.<br>Your bonus pay is unchanged, and remains at $0.60.</p>\n            ","response":0,"trial_type":"html-button-response","trial_index":94,"time_elapsed":530705,"internal_node_id":"0.0-4.0-1.43","subject_id":"58c537bfb101a7000129391a","study_id":"60edd13110225f80f9f3709b","session_id":"6196c7092f714b4d3ea34563","condition":"full-information","relevant_dimensions":["wings","legs"],"bee_group":{"antennae":"X","wings":"2","pattern":"X","legs":"F"},"bonus":1.080000000000001},{"rt":1918,"stimulus":"bees-with-color/bee-A1SM.svg","response":1,"trial_type":"image-button-response","trial_index":95,"time_elapsed":532625,"internal_node_id":"0.0-4.0-0.44","subject_id":"58c537bfb101a7000129391a","study_id":"60edd13110225f80f9f3709b","session_id":"6196c7092f714b4d3ea34563","condition":"full-information","relevant_dimensions":["wings","legs"],"bee_group":{"antennae":"X","wings":"2","pattern":"X","legs":"F"},"action":"avoid","summary":"bad-avoid","bonus":1.080000000000001},{"rt":757.5999999940395,"stimulus":"\n                    <p><b>Action: <em>avoid</em></b></p>\n                    <p>This is the bee that you just saw.</p>\n                    <img src=\"bees-with-color/bee-A1SM.svg\" width=\"200\">\n                    <p><span class=\"redText\">Bad choice,</span> the bee was friendly.<br>Your bonus pay is unchanged, and remains at $0.60.</p>\n            ","response":0,"trial_type":"html-button-response","trial_index":96,"time_elapsed":533385,"internal_node_id":"0.0-4.0-1.44","subject_id":"58c537bfb101a7000129391a","study_id":"60edd13110225f80f9f3709b","session_id":"6196c7092f714b4d3ea34563","condition":"full-information","relevant_dimensions":["wings","legs"],"bee_group":{"antennae":"X","wings":"2","pattern":"X","legs":"F"},"bonus":1.080000000000001},{"rt":3117.7999999821186,"stimulus":"bees-with-color/bee-B1SM.svg","response":0,"trial_type":"image-button-response","trial_index":97,"time_elapsed":536505,"internal_node_id":"0.0-4.0-0.45","subject_id":"58c537bfb101a7000129391a","study_id":"60edd13110225f80f9f3709b","session_id":"6196c7092f714b4d3ea34563","condition":"full-information","relevant_dimensions":["wings","legs"],"bee_group":{"antennae":"X","wings":"2","pattern":"X","legs":"F"},"action":"harvest","summary":"good-harvest","bonus":1.080000000000001},{"rt":685.7999999821186,"stimulus":"\n                    <p><b>Action: <em>harvest</em></b></p>\n                    <p>This is the bee that you just saw.</p>\n                    <img src=\"bees-with-color/bee-B1SM.svg\" width=\"200\">\n                    <p><span class=\"greenText\"><b>Successful harvest!</b></span><br>Your pay has increased by $0.02. Your bonus pay is now $0.62.</p>\n            ","response":0,"trial_type":"html-button-response","trial_index":98,"time_elapsed":537193,"internal_node_id":"0.0-4.0-1.45","subject_id":"58c537bfb101a7000129391a","study_id":"60edd13110225f80f9f3709b","session_id":"6196c7092f714b4d3ea34563","condition":"full-information","relevant_dimensions":["wings","legs"],"bee_group":{"antennae":"X","wings":"2","pattern":"X","legs":"F"},"bonus":1.080000000000001},{"rt":7478.199999988079,"stimulus":"bees-with-color/bee-B2DF.svg","response":1,"trial_type":"image-button-response","trial_index":99,"time_elapsed":544673,"internal_node_id":"0.0-4.0-0.46","subject_id":"58c537bfb101a7000129391a","study_id":"60edd13110225f80f9f3709b","session_id":"6196c7092f714b4d3ea34563","condition":"full-information","relevant_dimensions":["wings","legs"],"bee_group":{"antennae":"X","wings":"2","pattern":"X","legs":"F"},"action":"avoid","summary":"good-avoid","bonus":1.080000000000001},{"rt":997.5999999940395,"stimulus":"\n                    <p><b>Action: <em>avoid</em></b></p>\n                    <p>This is the bee that you just saw.</p>\n                    <img src=\"bees-with-color/bee-B2DF.svg\" width=\"200\">\n                    <p><span class=\"greenText\">Good choice!</span>  This bee would have stung you.<br>Your bonus pay is unchanged, and remains at $0.62.</p>\n            ","response":0,"trial_type":"html-button-response","trial_index":100,"time_elapsed":545673,"internal_node_id":"0.0-4.0-1.46","subject_id":"58c537bfb101a7000129391a","study_id":"60edd13110225f80f9f3709b","session_id":"6196c7092f714b4d3ea34563","condition":"full-information","relevant_dimensions":["wings","legs"],"bee_group":{"antennae":"X","wings":"2","pattern":"X","legs":"F"},"bonus":1.080000000000001},{"rt":1277.300000011921,"stimulus":"bees-with-color/bee-B2SM.svg","response":1,"trial_type":"image-button-response","trial_index":101,"time_elapsed":546953,"internal_node_id":"0.0-4.0-0.47","subject_id":"58c537bfb101a7000129391a","study_id":"60edd13110225f80f9f3709b","session_id":"6196c7092f714b4d3ea34563","condition":"full-information","relevant_dimensions":["wings","legs"],"bee_group":{"antennae":"X","wings":"2","pattern":"X","legs":"F"},"action":"avoid","summary":"bad-avoid","bonus":1.080000000000001},{"rt":637.0999999940395,"stimulus":"\n                    <p><b>Action: <em>avoid</em></b></p>\n                    <p>This is the bee that you just saw.</p>\n                    <img src=\"bees-with-color/bee-B2SM.svg\" width=\"200\">\n                    <p><span class=\"redText\">Bad choice,</span> the bee was friendly.<br>Your bonus pay is unchanged, and remains at $0.62.</p>\n            ","response":0,"trial_type":"html-button-response","trial_index":102,"time_elapsed":547593,"internal_node_id":"0.0-4.0-1.47","subject_id":"58c537bfb101a7000129391a","study_id":"60edd13110225f80f9f3709b","session_id":"6196c7092f714b4d3ea34563","condition":"full-information","relevant_dimensions":["wings","legs"],"bee_group":{"antennae":"X","wings":"2","pattern":"X","legs":"F"},"bonus":1.080000000000001},{"rt":1653.9000000059605,"stimulus":"bees-with-color/bee-A2SM.svg","response":0,"trial_type":"image-button-response","trial_index":103,"time_elapsed":549249,"internal_node_id":"0.0-4.0-0.48","subject_id":"58c537bfb101a7000129391a","study_id":"60edd13110225f80f9f3709b","session_id":"6196c7092f714b4d3ea34563","condition":"full-information","relevant_dimensions":["wings","legs"],"bee_group":{"antennae":"X","wings":"2","pattern":"X","legs":"F"},"action":"harvest","summary":"good-harvest","bonus":1.080000000000001},{"rt":661.5,"stimulus":"\n                    <p><b>Action: <em>harvest</em></b></p>\n                    <p>This is the bee that you just saw.</p>\n                    <img src=\"bees-with-color/bee-A2SM.svg\" width=\"200\">\n                    <p><span class=\"greenText\"><b>Successful harvest!</b></span><br>Your pay has increased by $0.02. Your bonus pay is now $0.64.</p>\n            ","response":0,"trial_type":"html-button-response","trial_index":104,"time_elapsed":549913,"internal_node_id":"0.0-4.0-1.48","subject_id":"58c537bfb101a7000129391a","study_id":"60edd13110225f80f9f3709b","session_id":"6196c7092f714b4d3ea34563","condition":"full-information","relevant_dimensions":["wings","legs"],"bee_group":{"antennae":"X","wings":"2","pattern":"X","legs":"F"},"bonus":1.080000000000001},{"rt":2637.5,"stimulus":"bees-with-color/bee-B1SF.svg","response":0,"trial_type":"image-button-response","trial_index":105,"time_elapsed":552553,"internal_node_id":"0.0-4.0-0.49","subject_id":"58c537bfb101a7000129391a","study_id":"60edd13110225f80f9f3709b","session_id":"6196c7092f714b4d3ea34563","condition":"full-information","relevant_dimensions":["wings","legs"],"bee_group":{"antennae":"X","wings":"2","pattern":"X","legs":"F"},"action":"harvest","summary":"good-harvest","bonus":1.080000000000001},{"rt":573.2999999821186,"stimulus":"\n                    <p><b>Action: <em>harvest</em></b></p>\n                    <p>This is the bee that you just saw.</p>\n                    <img src=\"bees-with-color/bee-B1SF.svg\" width=\"200\">\n                    <p><span class=\"greenText\"><b>Successful harvest!</b></span><br>Your pay has increased by $0.02. Your bonus pay is now $0.66.</p>\n            ","response":0,"trial_type":"html-button-response","trial_index":106,"time_elapsed":553129,"internal_node_id":"0.0-4.0-1.49","subject_id":"58c537bfb101a7000129391a","study_id":"60edd13110225f80f9f3709b","session_id":"6196c7092f714b4d3ea34563","condition":"full-information","relevant_dimensions":["wings","legs"],"bee_group":{"antennae":"X","wings":"2","pattern":"X","legs":"F"},"bonus":1.080000000000001},{"rt":1397.800000011921,"stimulus":"bees-with-color/bee-B2SF.svg","response":1,"trial_type":"image-button-response","trial_index":107,"time_elapsed":554529,"internal_node_id":"0.0-4.0-0.50","subject_id":"58c537bfb101a7000129391a","study_id":"60edd13110225f80f9f3709b","session_id":"6196c7092f714b4d3ea34563","condition":"full-information","relevant_dimensions":["wings","legs"],"bee_group":{"antennae":"X","wings":"2","pattern":"X","legs":"F"},"action":"avoid","summary":"good-avoid","bonus":1.080000000000001},{"rt":733.5,"stimulus":"\n                    <p><b>Action: <em>avoid</em></b></p>\n                    <p>This is the bee that you just saw.</p>\n                    <img src=\"bees-with-color/bee-B2SF.svg\" width=\"200\">\n                    <p><span class=\"greenText\">Good choice!</span>  This bee would have stung you.<br>Your bonus pay is unchanged, and remains at $0.66.</p>\n            ","response":0,"trial_type":"html-button-response","trial_index":108,"time_elapsed":555265,"internal_node_id":"0.0-4.0-1.50","subject_id":"58c537bfb101a7000129391a","study_id":"60edd13110225f80f9f3709b","session_id":"6196c7092f714b4d3ea34563","condition":"full-information","relevant_dimensions":["wings","legs"],"bee_group":{"antennae":"X","wings":"2","pattern":"X","legs":"F"},"bonus":1.080000000000001},{"rt":1966,"stimulus":"bees-with-color/bee-A1SM.svg","response":0,"trial_type":"image-button-response","trial_index":109,"time_elapsed":557233,"internal_node_id":"0.0-4.0-0.51","subject_id":"58c537bfb101a7000129391a","study_id":"60edd13110225f80f9f3709b","session_id":"6196c7092f714b4d3ea34563","condition":"full-information","relevant_dimensions":["wings","legs"],"bee_group":{"antennae":"X","wings":"2","pattern":"X","legs":"F"},"action":"harvest","summary":"good-harvest","bonus":1.080000000000001},{"rt":605.5,"stimulus":"\n                    <p><b>Action: <em>harvest</em></b></p>\n                    <p>This is the bee that you just saw.</p>\n                    <img src=\"bees-with-color/bee-A1SM.svg\" width=\"200\">\n                    <p><span class=\"greenText\"><b>Successful harvest!</b></span><br>Your pay has increased by $0.02. Your bonus pay is now $0.68.</p>\n            ","response":0,"trial_type":"html-button-response","trial_index":110,"time_elapsed":557841,"internal_node_id":"0.0-4.0-1.51","subject_id":"58c537bfb101a7000129391a","study_id":"60edd13110225f80f9f3709b","session_id":"6196c7092f714b4d3ea34563","condition":"full-information","relevant_dimensions":["wings","legs"],"bee_group":{"antennae":"X","wings":"2","pattern":"X","legs":"F"},"bonus":1.080000000000001},{"rt":1677.800000011921,"stimulus":"bees-with-color/bee-A1DM.svg","response":0,"trial_type":"image-button-response","trial_index":111,"time_elapsed":559521,"internal_node_id":"0.0-4.0-0.52","subject_id":"58c537bfb101a7000129391a","study_id":"60edd13110225f80f9f3709b","session_id":"6196c7092f714b4d3ea34563","condition":"full-information","relevant_dimensions":["wings","legs"],"bee_group":{"antennae":"X","wings":"2","pattern":"X","legs":"F"},"action":"harvest","summary":"good-harvest","bonus":1.080000000000001},{"rt":726.2000000178814,"stimulus":"\n                    <p><b>Action: <em>harvest</em></b></p>\n                    <p>This is the bee that you just saw.</p>\n                    <img src=\"bees-with-color/bee-A1DM.svg\" width=\"200\">\n                    <p><span class=\"greenText\"><b>Successful harvest!</b></span><br>Your pay has increased by $0.02. Your bonus pay is now $0.70.</p>\n            ","response":0,"trial_type":"html-button-response","trial_index":112,"time_elapsed":560249,"internal_node_id":"0.0-4.0-1.52","subject_id":"58c537bfb101a7000129391a","study_id":"60edd13110225f80f9f3709b","session_id":"6196c7092f714b4d3ea34563","condition":"full-information","relevant_dimensions":["wings","legs"],"bee_group":{"antennae":"X","wings":"2","pattern":"X","legs":"F"},"bonus":1.080000000000001},{"rt":1542.4000000059605,"stimulus":"bees-with-color/bee-B1SM.svg","response":1,"trial_type":"image-button-response","trial_index":113,"time_elapsed":561793,"internal_node_id":"0.0-4.0-0.53","subject_id":"58c537bfb101a7000129391a","study_id":"60edd13110225f80f9f3709b","session_id":"6196c7092f714b4d3ea34563","condition":"full-information","relevant_dimensions":["wings","legs"],"bee_group":{"antennae":"X","wings":"2","pattern":"X","legs":"F"},"action":"avoid","summary":"bad-avoid","bonus":1.080000000000001},{"rt":870.3000000119209,"stimulus":"\n                    <p><b>Action: <em>avoid</em></b></p>\n                    <p>This is the bee that you just saw.</p>\n                    <img src=\"bees-with-color/bee-B1SM.svg\" width=\"200\">\n                    <p><span class=\"redText\">Bad choice,</span> the bee was friendly.<br>Your bonus pay is unchanged, and remains at $0.70.</p>\n            ","response":0,"trial_type":"html-button-response","trial_index":114,"time_elapsed":562665,"internal_node_id":"0.0-4.0-1.53","subject_id":"58c537bfb101a7000129391a","study_id":"60edd13110225f80f9f3709b","session_id":"6196c7092f714b4d3ea34563","condition":"full-information","relevant_dimensions":["wings","legs"],"bee_group":{"antennae":"X","wings":"2","pattern":"X","legs":"F"},"bonus":1.080000000000001},{"rt":1182.4000000059605,"stimulus":"bees-with-color/bee-B1DM.svg","response":0,"trial_type":"image-button-response","trial_index":115,"time_elapsed":563849,"internal_node_id":"0.0-4.0-0.54","subject_id":"58c537bfb101a7000129391a","study_id":"60edd13110225f80f9f3709b","session_id":"6196c7092f714b4d3ea34563","condition":"full-information","relevant_dimensions":["wings","legs"],"bee_group":{"antennae":"X","wings":"2","pattern":"X","legs":"F"},"action":"harvest","summary":"good-harvest","bonus":1.080000000000001},{"rt":638.0999999940395,"stimulus":"\n                    <p><b>Action: <em>harvest</em></b></p>\n                    <p>This is the bee that you just saw.</p>\n                    <img src=\"bees-with-color/bee-B1DM.svg\" width=\"200\">\n                    <p><span class=\"greenText\"><b>Successful harvest!</b></span><br>Your pay has increased by $0.02. Your bonus pay is now $0.72.</p>\n            ","response":0,"trial_type":"html-button-response","trial_index":116,"time_elapsed":564489,"internal_node_id":"0.0-4.0-1.54","subject_id":"58c537bfb101a7000129391a","study_id":"60edd13110225f80f9f3709b","session_id":"6196c7092f714b4d3ea34563","condition":"full-information","relevant_dimensions":["wings","legs"],"bee_group":{"antennae":"X","wings":"2","pattern":"X","legs":"F"},"bonus":1.080000000000001},{"rt":2366.5,"stimulus":"bees-with-color/bee-B2DF.svg","response":1,"trial_type":"image-button-response","trial_index":117,"time_elapsed":566857,"internal_node_id":"0.0-4.0-0.55","subject_id":"58c537bfb101a7000129391a","study_id":"60edd13110225f80f9f3709b","session_id":"6196c7092f714b4d3ea34563","condition":"full-information","relevant_dimensions":["wings","legs"],"bee_group":{"antennae":"X","wings":"2","pattern":"X","legs":"F"},"action":"avoid","summary":"good-avoid","bonus":1.080000000000001},{"rt":662,"stimulus":"\n                    <p><b>Action: <em>avoid</em></b></p>\n                    <p>This is the bee that you just saw.</p>\n                    <img src=\"bees-with-color/bee-B2DF.svg\" width=\"200\">\n                    <p><span class=\"greenText\">Good choice!</span>  This bee would have stung you.<br>Your bonus pay is unchanged, and remains at $0.72.</p>\n            ","response":0,"trial_type":"html-button-response","trial_index":118,"time_elapsed":567520,"internal_node_id":"0.0-4.0-1.55","subject_id":"58c537bfb101a7000129391a","study_id":"60edd13110225f80f9f3709b","session_id":"6196c7092f714b4d3ea34563","condition":"full-information","relevant_dimensions":["wings","legs"],"bee_group":{"antennae":"X","wings":"2","pattern":"X","legs":"F"},"bonus":1.080000000000001},{"rt":1062.3999999761581,"stimulus":"bees-with-color/bee-B2DM.svg","response":1,"trial_type":"image-button-response","trial_index":119,"time_elapsed":568585,"internal_node_id":"0.0-4.0-0.56","subject_id":"58c537bfb101a7000129391a","study_id":"60edd13110225f80f9f3709b","session_id":"6196c7092f714b4d3ea34563","condition":"full-information","relevant_dimensions":["wings","legs"],"bee_group":{"antennae":"X","wings":"2","pattern":"X","legs":"F"},"action":"avoid","summary":"bad-avoid","bonus":1.080000000000001},{"rt":942.3000000119209,"stimulus":"\n                    <p><b>Action: <em>avoid</em></b></p>\n                    <p>This is the bee that you just saw.</p>\n                    <img src=\"bees-with-color/bee-B2DM.svg\" width=\"200\">\n                    <p><span class=\"redText\">Bad choice,</span> the bee was friendly.<br>Your bonus pay is unchanged, and remains at $0.72.</p>\n            ","response":0,"trial_type":"html-button-response","trial_index":120,"time_elapsed":569529,"internal_node_id":"0.0-4.0-1.56","subject_id":"58c537bfb101a7000129391a","study_id":"60edd13110225f80f9f3709b","session_id":"6196c7092f714b4d3ea34563","condition":"full-information","relevant_dimensions":["wings","legs"],"bee_group":{"antennae":"X","wings":"2","pattern":"X","legs":"F"},"bonus":1.080000000000001},{"rt":1726,"stimulus":"bees-with-color/bee-A1DF.svg","response":0,"trial_type":"image-button-response","trial_index":121,"time_elapsed":571257,"internal_node_id":"0.0-4.0-0.57","subject_id":"58c537bfb101a7000129391a","study_id":"60edd13110225f80f9f3709b","session_id":"6196c7092f714b4d3ea34563","condition":"full-information","relevant_dimensions":["wings","legs"],"bee_group":{"antennae":"X","wings":"2","pattern":"X","legs":"F"},"action":"harvest","summary":"good-harvest","bonus":1.080000000000001},{"rt":622.1000000238419,"stimulus":"\n                    <p><b>Action: <em>harvest</em></b></p>\n                    <p>This is the bee that you just saw.</p>\n                    <img src=\"bees-with-color/bee-A1DF.svg\" width=\"200\">\n                    <p><span class=\"greenText\"><b>Successful harvest!</b></span><br>Your pay has increased by $0.02. Your bonus pay is now $0.74.</p>\n            ","response":0,"trial_type":"html-button-response","trial_index":122,"time_elapsed":571881,"internal_node_id":"0.0-4.0-1.57","subject_id":"58c537bfb101a7000129391a","study_id":"60edd13110225f80f9f3709b","session_id":"6196c7092f714b4d3ea34563","condition":"full-information","relevant_dimensions":["wings","legs"],"bee_group":{"antennae":"X","wings":"2","pattern":"X","legs":"F"},"bonus":1.080000000000001},{"rt":1149.5999999940395,"stimulus":"bees-with-color/bee-A2DM.svg","response":1,"trial_type":"image-button-response","trial_index":123,"time_elapsed":573033,"internal_node_id":"0.0-4.0-0.58","subject_id":"58c537bfb101a7000129391a","study_id":"60edd13110225f80f9f3709b","session_id":"6196c7092f714b4d3ea34563","condition":"full-information","relevant_dimensions":["wings","legs"],"bee_group":{"antennae":"X","wings":"2","pattern":"X","legs":"F"},"action":"avoid","summary":"bad-avoid","bonus":1.080000000000001},{"rt":646,"stimulus":"\n                    <p><b>Action: <em>avoid</em></b></p>\n                    <p>This is the bee that you just saw.</p>\n                    <img src=\"bees-with-color/bee-A2DM.svg\" width=\"200\">\n                    <p><span class=\"redText\">Bad choice,</span> the bee was friendly.<br>Your bonus pay is unchanged, and remains at $0.74.</p>\n            ","response":0,"trial_type":"html-button-response","trial_index":124,"time_elapsed":573681,"internal_node_id":"0.0-4.0-1.58","subject_id":"58c537bfb101a7000129391a","study_id":"60edd13110225f80f9f3709b","session_id":"6196c7092f714b4d3ea34563","condition":"full-information","relevant_dimensions":["wings","legs"],"bee_group":{"antennae":"X","wings":"2","pattern":"X","legs":"F"},"bonus":1.080000000000001},{"rt":1454.7000000178814,"stimulus":"bees-with-color/bee-B1DF.svg","response":0,"trial_type":"image-button-response","trial_index":125,"time_elapsed":575137,"internal_node_id":"0.0-4.0-0.59","subject_id":"58c537bfb101a7000129391a","study_id":"60edd13110225f80f9f3709b","session_id":"6196c7092f714b4d3ea34563","condition":"full-information","relevant_dimensions":["wings","legs"],"bee_group":{"antennae":"X","wings":"2","pattern":"X","legs":"F"},"action":"harvest","summary":"good-harvest","bonus":1.080000000000001},{"rt":525.3999999761581,"stimulus":"\n                    <p><b>Action: <em>harvest</em></b></p>\n                    <p>This is the bee that you just saw.</p>\n                    <img src=\"bees-with-color/bee-B1DF.svg\" width=\"200\">\n                    <p><span class=\"greenText\"><b>Successful harvest!</b></span><br>Your pay has increased by $0.02. Your bonus pay is now $0.76.</p>\n            ","response":0,"trial_type":"html-button-response","trial_index":126,"time_elapsed":575665,"internal_node_id":"0.0-4.0-1.59","subject_id":"58c537bfb101a7000129391a","study_id":"60edd13110225f80f9f3709b","session_id":"6196c7092f714b4d3ea34563","condition":"full-information","relevant_dimensions":["wings","legs"],"bee_group":{"antennae":"X","wings":"2","pattern":"X","legs":"F"},"bonus":1.080000000000001},{"rt":1973.9000000059605,"stimulus":"bees-with-color/bee-A1SF.svg","response":0,"trial_type":"image-button-response","trial_index":127,"time_elapsed":577640,"internal_node_id":"0.0-4.0-0.60","subject_id":"58c537bfb101a7000129391a","study_id":"60edd13110225f80f9f3709b","session_id":"6196c7092f714b4d3ea34563","condition":"full-information","relevant_dimensions":["wings","legs"],"bee_group":{"antennae":"X","wings":"2","pattern":"X","legs":"F"},"action":"harvest","summary":"good-harvest","bonus":1.080000000000001},{"rt":597.1999999880791,"stimulus":"\n                    <p><b>Action: <em>harvest</em></b></p>\n                    <p>This is the bee that you just saw.</p>\n                    <img src=\"bees-with-color/bee-A1SF.svg\" width=\"200\">\n                    <p><span class=\"greenText\"><b>Successful harvest!</b></span><br>Your pay has increased by $0.02. Your bonus pay is now $0.78.</p>\n            ","response":0,"trial_type":"html-button-response","trial_index":128,"time_elapsed":578241,"internal_node_id":"0.0-4.0-1.60","subject_id":"58c537bfb101a7000129391a","study_id":"60edd13110225f80f9f3709b","session_id":"6196c7092f714b4d3ea34563","condition":"full-information","relevant_dimensions":["wings","legs"],"bee_group":{"antennae":"X","wings":"2","pattern":"X","legs":"F"},"bonus":1.080000000000001},{"rt":1093.800000011921,"stimulus":"bees-with-color/bee-A2DF.svg","response":1,"trial_type":"image-button-response","trial_index":129,"time_elapsed":579337,"internal_node_id":"0.0-4.0-0.61","subject_id":"58c537bfb101a7000129391a","study_id":"60edd13110225f80f9f3709b","session_id":"6196c7092f714b4d3ea34563","condition":"full-information","relevant_dimensions":["wings","legs"],"bee_group":{"antennae":"X","wings":"2","pattern":"X","legs":"F"},"action":"avoid","summary":"good-avoid","bonus":1.080000000000001},{"rt":741.5999999940395,"stimulus":"\n                    <p><b>Action: <em>avoid</em></b></p>\n                    <p>This is the bee that you just saw.</p>\n                    <img src=\"bees-with-color/bee-A2DF.svg\" width=\"200\">\n                    <p><span class=\"greenText\">Good choice!</span>  This bee would have stung you.<br>Your bonus pay is unchanged, and remains at $0.78.</p>\n            ","response":0,"trial_type":"html-button-response","trial_index":130,"time_elapsed":580081,"internal_node_id":"0.0-4.0-1.61","subject_id":"58c537bfb101a7000129391a","study_id":"60edd13110225f80f9f3709b","session_id":"6196c7092f714b4d3ea34563","condition":"full-information","relevant_dimensions":["wings","legs"],"bee_group":{"antennae":"X","wings":"2","pattern":"X","legs":"F"},"bonus":1.080000000000001},{"rt":1077.5999999940395,"stimulus":"bees-with-color/bee-A2SF.svg","response":1,"trial_type":"image-button-response","trial_index":131,"time_elapsed":581161,"internal_node_id":"0.0-4.0-0.62","subject_id":"58c537bfb101a7000129391a","study_id":"60edd13110225f80f9f3709b","session_id":"6196c7092f714b4d3ea34563","condition":"full-information","relevant_dimensions":["wings","legs"],"bee_group":{"antennae":"X","wings":"2","pattern":"X","legs":"F"},"action":"avoid","summary":"good-avoid","bonus":1.080000000000001},{"rt":693.5,"stimulus":"\n                    <p><b>Action: <em>avoid</em></b></p>\n                    <p>This is the bee that you just saw.</p>\n                    <img src=\"bees-with-color/bee-A2SF.svg\" width=\"200\">\n                    <p><span class=\"greenText\">Good choice!</span>  This bee would have stung you.<br>Your bonus pay is unchanged, and remains at $0.78.</p>\n            ","response":0,"trial_type":"html-button-response","trial_index":132,"time_elapsed":581857,"internal_node_id":"0.0-4.0-1.62","subject_id":"58c537bfb101a7000129391a","study_id":"60edd13110225f80f9f3709b","session_id":"6196c7092f714b4d3ea34563","condition":"full-information","relevant_dimensions":["wings","legs"],"bee_group":{"antennae":"X","wings":"2","pattern":"X","legs":"F"},"bonus":1.080000000000001},{"rt":1206,"stimulus":"bees-with-color/bee-B2SM.svg","response":1,"trial_type":"image-button-response","trial_index":133,"time_elapsed":583065,"internal_node_id":"0.0-4.0-0.63","subject_id":"58c537bfb101a7000129391a","study_id":"60edd13110225f80f9f3709b","session_id":"6196c7092f714b4d3ea34563","condition":"full-information","relevant_dimensions":["wings","legs"],"bee_group":{"antennae":"X","wings":"2","pattern":"X","legs":"F"},"action":"avoid","summary":"bad-avoid","bonus":1.080000000000001},{"rt":573.5999999940395,"stimulus":"\n                    <p><b>Action: <em>avoid</em></b></p>\n                    <p>This is the bee that you just saw.</p>\n                    <img src=\"bees-with-color/bee-B2SM.svg\" width=\"200\">\n                    <p><span class=\"redText\">Bad choice,</span> the bee was friendly.<br>Your bonus pay is unchanged, and remains at $0.78.</p>\n            ","response":0,"trial_type":"html-button-response","trial_index":134,"time_elapsed":583640,"internal_node_id":"0.0-4.0-1.63","subject_id":"58c537bfb101a7000129391a","study_id":"60edd13110225f80f9f3709b","session_id":"6196c7092f714b4d3ea34563","condition":"full-information","relevant_dimensions":["wings","legs"],"bee_group":{"antennae":"X","wings":"2","pattern":"X","legs":"F"},"bonus":1.080000000000001},{"rt":7094,"stimulus":"You have completed the first part of this experiment.<br><br>You will now begin a shorter second part, in which you will receive no feedback.<br>The same rules regarding bonus pay apply.<br><br>Press any key to begin.","response":" ","trial_type":"html-keyboard-response","trial_index":135,"time_elapsed":590737,"internal_node_id":"0.0-5.0","subject_id":"58c537bfb101a7000129391a","study_id":"60edd13110225f80f9f3709b","session_id":"6196c7092f714b4d3ea34563","condition":"full-information","relevant_dimensions":["wings","legs"],"bee_group":{"antennae":"X","wings":"2","pattern":"X","legs":"F"},"bonus":1.080000000000001},{"rt":6174,"stimulus":"bees-with-color/bee-B1SM.svg","response":0,"trial_type":"image-button-response","trial_index":136,"time_elapsed":596920,"internal_node_id":"0.0-6.0-0.0","subject_id":"58c537bfb101a7000129391a","study_id":"60edd13110225f80f9f3709b","session_id":"6196c7092f714b4d3ea34563","condition":"full-information","relevant_dimensions":["wings","legs"],"bee_group":{"antennae":"X","wings":"2","pattern":"X","legs":"F"},"bonus":1.080000000000001},{"rt":2604.199999988079,"stimulus":"bees-with-color/bee-A2DF.svg","response":1,"trial_type":"image-button-response","trial_index":137,"time_elapsed":599529,"internal_node_id":"0.0-6.0-0.1","subject_id":"58c537bfb101a7000129391a","study_id":"60edd13110225f80f9f3709b","session_id":"6196c7092f714b4d3ea34563","condition":"full-information","relevant_dimensions":["wings","legs"],"bee_group":{"antennae":"X","wings":"2","pattern":"X","legs":"F"},"bonus":1.080000000000001},{"rt":1412.7000000178814,"stimulus":"bees-with-color/bee-B1SF.svg","response":0,"trial_type":"image-button-response","trial_index":138,"time_elapsed":600944,"internal_node_id":"0.0-6.0-0.2","subject_id":"58c537bfb101a7000129391a","study_id":"60edd13110225f80f9f3709b","session_id":"6196c7092f714b4d3ea34563","condition":"full-information","relevant_dimensions":["wings","legs"],"bee_group":{"antennae":"X","wings":"2","pattern":"X","legs":"F"},"bonus":1.080000000000001},{"rt":2316.0999999940395,"stimulus":"bees-with-color/bee-B1DM.svg","response":0,"trial_type":"image-button-response","trial_index":139,"time_elapsed":603264,"internal_node_id":"0.0-6.0-0.3","subject_id":"58c537bfb101a7000129391a","study_id":"60edd13110225f80f9f3709b","session_id":"6196c7092f714b4d3ea34563","condition":"full-information","relevant_dimensions":["wings","legs"],"bee_group":{"antennae":"X","wings":"2","pattern":"X","legs":"F"},"bonus":1.080000000000001},{"rt":3997.300000011921,"stimulus":"bees-with-color/bee-B2SM.svg","response":1,"trial_type":"image-button-response","trial_index":140,"time_elapsed":607264,"internal_node_id":"0.0-6.0-0.4","subject_id":"58c537bfb101a7000129391a","study_id":"60edd13110225f80f9f3709b","session_id":"6196c7092f714b4d3ea34563","condition":"full-information","relevant_dimensions":["wings","legs"],"bee_group":{"antennae":"X","wings":"2","pattern":"X","legs":"F"},"bonus":1.080000000000001},{"rt":2612.5999999940395,"stimulus":"bees-with-color/bee-B1DF.svg","response":0,"trial_type":"image-button-response","trial_index":141,"time_elapsed":609880,"internal_node_id":"0.0-6.0-0.5","subject_id":"58c537bfb101a7000129391a","study_id":"60edd13110225f80f9f3709b","session_id":"6196c7092f714b4d3ea34563","condition":"full-information","relevant_dimensions":["wings","legs"],"bee_group":{"antennae":"X","wings":"2","pattern":"X","legs":"F"},"bonus":1.080000000000001},{"rt":7301.399999976158,"stimulus":"bees-with-color/bee-B2DM.svg","response":0,"trial_type":"image-button-response","trial_index":142,"time_elapsed":617184,"internal_node_id":"0.0-6.0-0.6","subject_id":"58c537bfb101a7000129391a","study_id":"60edd13110225f80f9f3709b","session_id":"6196c7092f714b4d3ea34563","condition":"full-information","relevant_dimensions":["wings","legs"],"bee_group":{"antennae":"X","wings":"2","pattern":"X","legs":"F"},"bonus":1.080000000000001},{"rt":1364.5,"stimulus":"bees-with-color/bee-A2SF.svg","response":1,"trial_type":"image-button-response","trial_index":143,"time_elapsed":618552,"internal_node_id":"0.0-6.0-0.7","subject_id":"58c537bfb101a7000129391a","study_id":"60edd13110225f80f9f3709b","session_id":"6196c7092f714b4d3ea34563","condition":"full-information","relevant_dimensions":["wings","legs"],"bee_group":{"antennae":"X","wings":"2","pattern":"X","legs":"F"},"bonus":1.080000000000001},{"rt":1428.7999999821186,"stimulus":"bees-with-color/bee-A1DF.svg","response":0,"trial_type":"image-button-response","trial_index":144,"time_elapsed":619984,"internal_node_id":"0.0-6.0-0.8","subject_id":"58c537bfb101a7000129391a","study_id":"60edd13110225f80f9f3709b","session_id":"6196c7092f714b4d3ea34563","condition":"full-information","relevant_dimensions":["wings","legs"],"bee_group":{"antennae":"X","wings":"2","pattern":"X","legs":"F"},"bonus":1.080000000000001},{"rt":1797.4000000059605,"stimulus":"bees-with-color/bee-B2DF.svg","response":1,"trial_type":"image-button-response","trial_index":145,"time_elapsed":621784,"internal_node_id":"0.0-6.0-0.9","subject_id":"58c537bfb101a7000129391a","study_id":"60edd13110225f80f9f3709b","session_id":"6196c7092f714b4d3ea34563","condition":"full-information","relevant_dimensions":["wings","legs"],"bee_group":{"antennae":"X","wings":"2","pattern":"X","legs":"F"},"bonus":1.080000000000001},{"rt":1220.5999999940395,"stimulus":"bees-with-color/bee-A1SM.svg","response":0,"trial_type":"image-button-response","trial_index":146,"time_elapsed":623008,"internal_node_id":"0.0-6.0-0.10","subject_id":"58c537bfb101a7000129391a","study_id":"60edd13110225f80f9f3709b","session_id":"6196c7092f714b4d3ea34563","condition":"full-information","relevant_dimensions":["wings","legs"],"bee_group":{"antennae":"X","wings":"2","pattern":"X","legs":"F"},"bonus":1.080000000000001},{"rt":1021.5999999940395,"stimulus":"bees-with-color/bee-A1SF.svg","response":0,"trial_type":"image-button-response","trial_index":147,"time_elapsed":624033,"internal_node_id":"0.0-6.0-0.11","subject_id":"58c537bfb101a7000129391a","study_id":"60edd13110225f80f9f3709b","session_id":"6196c7092f714b4d3ea34563","condition":"full-information","relevant_dimensions":["wings","legs"],"bee_group":{"antennae":"X","wings":"2","pattern":"X","legs":"F"},"bonus":1.080000000000001},{"rt":1012.8000000119209,"stimulus":"bees-with-color/bee-A2SM.svg","response":1,"trial_type":"image-button-response","trial_index":148,"time_elapsed":625048,"internal_node_id":"0.0-6.0-0.12","subject_id":"58c537bfb101a7000129391a","study_id":"60edd13110225f80f9f3709b","session_id":"6196c7092f714b4d3ea34563","condition":"full-information","relevant_dimensions":["wings","legs"],"bee_group":{"antennae":"X","wings":"2","pattern":"X","legs":"F"},"bonus":1.080000000000001},{"rt":1148.9000000059605,"stimulus":"bees-with-color/bee-A2DM.svg","response":1,"trial_type":"image-button-response","trial_index":149,"time_elapsed":626200,"internal_node_id":"0.0-6.0-0.13","subject_id":"58c537bfb101a7000129391a","study_id":"60edd13110225f80f9f3709b","session_id":"6196c7092f714b4d3ea34563","condition":"full-information","relevant_dimensions":["wings","legs"],"bee_group":{"antennae":"X","wings":"2","pattern":"X","legs":"F"},"bonus":1.080000000000001},{"rt":1092.9000000059605,"stimulus":"bees-with-color/bee-A1DM.svg","response":0,"trial_type":"image-button-response","trial_index":150,"time_elapsed":627296,"internal_node_id":"0.0-6.0-0.14","subject_id":"58c537bfb101a7000129391a","study_id":"60edd13110225f80f9f3709b","session_id":"6196c7092f714b4d3ea34563","condition":"full-information","relevant_dimensions":["wings","legs"],"bee_group":{"antennae":"X","wings":"2","pattern":"X","legs":"F"},"bonus":1.080000000000001},{"rt":901.2999999821186,"stimulus":"bees-with-color/bee-B2SF.svg","response":1,"trial_type":"image-button-response","trial_index":151,"time_elapsed":628200,"internal_node_id":"0.0-6.0-0.15","subject_id":"58c537bfb101a7000129391a","study_id":"60edd13110225f80f9f3709b","session_id":"6196c7092f714b4d3ea34563","condition":"full-information","relevant_dimensions":["wings","legs"],"bee_group":{"antennae":"X","wings":"2","pattern":"X","legs":"F"},"bonus":1.080000000000001},{"rt":1757.699999988079,"stimulus":"bees-with-color/bee-A2DM.svg","response":1,"trial_type":"image-button-response","trial_index":152,"time_elapsed":629960,"internal_node_id":"0.0-6.0-0.16","subject_id":"58c537bfb101a7000129391a","study_id":"60edd13110225f80f9f3709b","session_id":"6196c7092f714b4d3ea34563","condition":"full-information","relevant_dimensions":["wings","legs"],"bee_group":{"antennae":"X","wings":"2","pattern":"X","legs":"F"},"bonus":1.080000000000001},{"rt":933.5999999940395,"stimulus":"bees-with-color/bee-A1DF.svg","response":0,"trial_type":"image-button-response","trial_index":153,"time_elapsed":630896,"internal_node_id":"0.0-6.0-0.17","subject_id":"58c537bfb101a7000129391a","study_id":"60edd13110225f80f9f3709b","session_id":"6196c7092f714b4d3ea34563","condition":"full-information","relevant_dimensions":["wings","legs"],"bee_group":{"antennae":"X","wings":"2","pattern":"X","legs":"F"},"bonus":1.080000000000001},{"rt":1165.2000000178814,"stimulus":"bees-with-color/bee-B1DM.svg","response":0,"trial_type":"image-button-response","trial_index":154,"time_elapsed":632064,"internal_node_id":"0.0-6.0-0.18","subject_id":"58c537bfb101a7000129391a","study_id":"60edd13110225f80f9f3709b","session_id":"6196c7092f714b4d3ea34563","condition":"full-information","relevant_dimensions":["wings","legs"],"bee_group":{"antennae":"X","wings":"2","pattern":"X","legs":"F"},"bonus":1.080000000000001},{"rt":1477.699999988079,"stimulus":"bees-with-color/bee-A1SF.svg","response":0,"trial_type":"image-button-response","trial_index":155,"time_elapsed":633544,"internal_node_id":"0.0-6.0-0.19","subject_id":"58c537bfb101a7000129391a","study_id":"60edd13110225f80f9f3709b","session_id":"6196c7092f714b4d3ea34563","condition":"full-information","relevant_dimensions":["wings","legs"],"bee_group":{"antennae":"X","wings":"2","pattern":"X","legs":"F"},"bonus":1.080000000000001},{"rt":1573.699999988079,"stimulus":"bees-with-color/bee-B1SM.svg","response":1,"trial_type":"image-button-response","trial_index":156,"time_elapsed":635120,"internal_node_id":"0.0-6.0-0.20","subject_id":"58c537bfb101a7000129391a","study_id":"60edd13110225f80f9f3709b","session_id":"6196c7092f714b4d3ea34563","condition":"full-information","relevant_dimensions":["wings","legs"],"bee_group":{"antennae":"X","wings":"2","pattern":"X","legs":"F"},"bonus":1.080000000000001},{"rt":1093.5999999940395,"stimulus":"bees-with-color/bee-A1SM.svg","response":1,"trial_type":"image-button-response","trial_index":157,"time_elapsed":636216,"internal_node_id":"0.0-6.0-0.21","subject_id":"58c537bfb101a7000129391a","study_id":"60edd13110225f80f9f3709b","session_id":"6196c7092f714b4d3ea34563","condition":"full-information","relevant_dimensions":["wings","legs"],"bee_group":{"antennae":"X","wings":"2","pattern":"X","legs":"F"},"bonus":1.080000000000001},{"rt":1381.5,"stimulus":"bees-with-color/bee-A2DF.svg","response":1,"trial_type":"image-button-response","trial_index":158,"time_elapsed":637600,"internal_node_id":"0.0-6.0-0.22","subject_id":"58c537bfb101a7000129391a","study_id":"60edd13110225f8