[{"success":true,"trial_type":"fullscreen","trial_index":0,"time_elapsed":6530,"internal_node_id":"0.0-0.0","subject_id":"60219a0f9a69921c5bd2bf3e","study_id":"6197b3f67c2b5cd3b6d9596a","session_id":"6197b7e366b27ec7ffa8fed5","condition":"full-information","relevant_dimensions":["antennae","wings"],"bee_group":{"antennae":"A","wings":"2","pattern":"X","legs":"X"},"bonus":1.420000000000001},{"success":true,"timeout":false,"failed_images":[],"failed_audio":[],"failed_video":[],"trial_type":"preload","trial_index":1,"time_elapsed":8146,"internal_node_id":"0.0-1.0","subject_id":"60219a0f9a69921c5bd2bf3e","study_id":"6197b3f67c2b5cd3b6d9596a","session_id":"6197b7e366b27ec7ffa8fed5","condition":"full-information","relevant_dimensions":["antennae","wings"],"bee_group":{"antennae":"A","wings":"2","pattern":"X","legs":"X"},"bonus":1.420000000000001},{"rt":2099.2000000029802,"stimulus":"Welcome! Press any key to begin.","response":" ","trial_type":"html-keyboard-response","trial_index":2,"time_elapsed":10248,"internal_node_id":"0.0-2.0","subject_id":"60219a0f9a69921c5bd2bf3e","study_id":"6197b3f67c2b5cd3b6d9596a","session_id":"6197b7e366b27ec7ffa8fed5","condition":"full-information","relevant_dimensions":["antennae","wings"],"bee_group":{"antennae":"A","wings":"2","pattern":"X","legs":"X"},"bonus":1.420000000000001},{"view_history":[{"page_index":0,"viewing_time":9036},{"page_index":1,"viewing_time":24677.69999998808},{"page_index":2,"viewing_time":13481.20000000298},{"page_index":3,"viewing_time":117619.70000000298},{"page_index":4,"viewing_time":18169.79999999702},{"page_index":5,"viewing_time":16790.20000000298},{"page_index":6,"viewing_time":14587.29999999702},{"page_index":7,"viewing_time":5359.600000008941},{"page_index":8,"viewing_time":4387.899999991059},{"page_index":9,"viewing_time":6010.29999999702},{"page_index":10,"viewing_time":2615.9000000059605},{"page_index":11,"viewing_time":26920.40000000596},{"page_index":12,"viewing_time":11563.699999988079},{"page_index":13,"viewing_time":1216},{"page_index":14,"viewing_time":3664.2000000029802}],"rt":276100.799999997,"trial_type":"instructions","trial_index":3,"time_elapsed":286351,"internal_node_id":"0.0-3.0-0.0","subject_id":"60219a0f9a69921c5bd2bf3e","study_id":"6197b3f67c2b5cd3b6d9596a","session_id":"6197b7e366b27ec7ffa8fed5","condition":"full-information","relevant_dimensions":["antennae","wings"],"bee_group":{"antennae":"A","wings":"2","pattern":"X","legs":"X"},"bonus":1.420000000000001},{"rt":32377.29999999702,"response":{"Q0":["Two or six legs","Stripes or spots on body","Single or double wings","Antennae or no antennae"]},"question_order":[0],"trial_type":"survey-multi-select","trial_index":4,"time_elapsed":318741,"internal_node_id":"0.0-3.0-1.0","subject_id":"60219a0f9a69921c5bd2bf3e","study_id":"6197b3f67c2b5cd3b6d9596a","session_id":"6197b7e366b27ec7ffa8fed5","condition":"full-information","relevant_dimensions":["antennae","wings"],"bee_group":{"antennae":"A","wings":"2","pattern":"X","legs":"X"},"correct":true,"bonus":1.420000000000001},{"rt":39414.29999999702,"response":{"Q1":"No.","Q2":"Based on the four features of the bee.","Q3":"You do not learn if it was friendly or dangerous, and do not alter your bonus."},"question_order":[0,1,2],"trial_type":"survey-multi-choice","trial_index":5,"time_elapsed":358160,"internal_node_id":"0.0-3.0-2.0","subject_id":"60219a0f9a69921c5bd2bf3e","study_id":"6197b3f67c2b5cd3b6d9596a","session_id":"6197b7e366b27ec7ffa8fed5","condition":"full-information","relevant_dimensions":["antennae","wings"],"bee_group":{"antennae":"A","wings":"2","pattern":"X","legs":"X"},"correct":false,"bonus":1.420000000000001},{"rt":5104.70000000298,"stimulus":"<p>You did not answer all comprehension questions correctly.<br>Press <b>continue</b> to review the instructions again.</p>","response":0,"trial_type":"html-button-response","trial_index":6,"time_elapsed":363267,"internal_node_id":"0.0-3.0-3.0","subject_id":"60219a0f9a69921c5bd2bf3e","study_id":"6197b3f67c2b5cd3b6d9596a","session_id":"6197b7e366b27ec7ffa8fed5","condition":"full-information","relevant_dimensions":["antennae","wings"],"bee_group":{"antennae":"A","wings":"2","pattern":"X","legs":"X"},"bonus":1.420000000000001},{"view_history":[{"page_index":0,"viewing_time":2973},{"page_index":1,"viewing_time":34243.09999999404},{"page_index":2,"viewing_time":22919.59999999404},{"page_index":3,"viewing_time":5729.20000000298},{"page_index":4,"viewing_time":6065.9000000059605},{"page_index":5,"viewing_time":739.3999999910593},{"page_index":6,"viewing_time":936.9000000059605},{"page_index":7,"viewing_time":897},{"page_index":8,"viewing_time":378.70000000298023},{"page_index":9,"viewing_time":321.29999999701977},{"page_index":10,"viewing_time":460.5},{"page_index":11,"viewing_time":1362.2000000029802},{"page_index":12,"viewing_time":1198.3999999910593},{"page_index":13,"viewing_time":1202},{"page_index":14,"viewing_time":1050.2000000029802}],"rt":80478,"trial_type":"instructions","trial_index":7,"time_elapsed":443747,"internal_node_id":"0.0-3.0-4.0-0.0","subject_id":"60219a0f9a69921c5bd2bf3e","study_id":"6197b3f67c2b5cd3b6d9596a","session_id":"6197b7e366b27ec7ffa8fed5","condition":"full-information","relevant_dimensions":["antennae","wings"],"bee_group":{"antennae":"A","wings":"2","pattern":"X","legs":"X"},"bonus":1.420000000000001},{"rt":6260.0999999940395,"response":{"Q0":["Two or six legs","Stripes or spots on body","Single or double wings","Antennae or no antennae"]},"question_order":[0],"trial_type":"survey-multi-select","trial_index":8,"time_elapsed":450017,"internal_node_id":"0.0-3.0-4.0-1.0","subject_id":"60219a0f9a69921c5bd2bf3e","study_id":"6197b3f67c2b5cd3b6d9596a","session_id":"6197b7e366b27ec7ffa8fed5","condition":"full-information","relevant_dimensions":["antennae","wings"],"bee_group":{"antennae":"A","wings":"2","pattern":"X","legs":"X"},"correct":true,"bonus":1.420000000000001},{"rt":7405.20000000298,"response":{"Q1":"No.","Q2":"Based on the four features of the bee.","Q3":"You learn if it was friendly or dangerous, but do not alter your bonus."},"question_order":[0,1,2],"trial_type":"survey-multi-choice","trial_index":9,"time_elapsed":457427,"internal_node_id":"0.0-3.0-4.0-2.0","subject_id":"60219a0f9a69921c5bd2bf3e","study_id":"6197b3f67c2b5cd3b6d9596a","session_id":"6197b7e366b27ec7ffa8fed5","condition":"full-information","relevant_dimensions":["antennae","wings"],"bee_group":{"antennae":"A","wings":"2","pattern":"X","legs":"X"},"correct":true,"bonus":1.420000000000001},{"rt":2207,"stimulus":"<p>Congrats, you got everything right<br>When you're ready, click the button below to continue to the experiment.</p>","response":0,"trial_type":"html-button-response","trial_index":10,"time_elapsed":459637,"internal_node_id":"0.0-3.0-4.0-3.0","subject_id":"60219a0f9a69921c5bd2bf3e","study_id":"6197b3f67c2b5cd3b6d9596a","session_id":"6197b7e366b27ec7ffa8fed5","condition":"full-information","relevant_dimensions":["antennae","wings"],"bee_group":{"antennae":"A","wings":"2","pattern":"X","legs":"X"},"bonus":1.420000000000001},{"rt":35537.70000000298,"stimulus":"bees-with-color/bee-A2DF.svg","response":0,"trial_type":"image-button-response","trial_index":11,"time_elapsed":495183,"internal_node_id":"0.0-4.0-0.0","subject_id":"60219a0f9a69921c5bd2bf3e","study_id":"6197b3f67c2b5cd3b6d9596a","session_id":"6197b7e366b27ec7ffa8fed5","condition":"full-information","relevant_dimensions":["antennae","wings"],"bee_group":{"antennae":"A","wings":"2","pattern":"X","legs":"X"},"action":"harvest","summary":"bad-harvest","bonus":1.420000000000001},{"rt":8166.29999999702,"stimulus":"\n                    <p><b>Action: <em>harvest</em></b></p>\n                    <p>This is the bee that you just saw.</p>\n                    <img src=\"bees-with-color/bee-A2DF.svg\" width=\"200\">\n                    <p><span class=\"redText\">Bad choice, the bee was angry.</span><br><b>You have been stung!</b><br>Your pay has been decreased by $0.10. Your bonus pay is now $0.44.</p>\n            ","response":0,"trial_type":"html-button-response","trial_index":12,"time_elapsed":503363,"internal_node_id":"0.0-4.0-1.0","subject_id":"60219a0f9a69921c5bd2bf3e","study_id":"6197b3f67c2b5cd3b6d9596a","session_id":"6197b7e366b27ec7ffa8fed5","condition":"full-information","relevant_dimensions":["antennae","wings"],"bee_group":{"antennae":"A","wings":"2","pattern":"X","legs":"X"},"bonus":1.420000000000001},{"rt":22832.70000000298,"stimulus":"bees-with-color/bee-A1SM.svg","response":0,"trial_type":"image-button-response","trial_index":13,"time_elapsed":526201,"internal_node_id":"0.0-4.0-0.1","subject_id":"60219a0f9a69921c5bd2bf3e","study_id":"6197b3f67c2b5cd3b6d9596a","session_id":"6197b7e366b27ec7ffa8fed5","condition":"full-information","relevant_dimensions":["antennae","wings"],"bee_group":{"antennae":"A","wings":"2","pattern":"X","legs":"X"},"action":"harvest","summary":"good-harvest","bonus":1.420000000000001},{"rt":2673.2000000029802,"stimulus":"\n                    <p><b>Action: <em>harvest</em></b></p>\n                    <p>This is the bee that you just saw.</p>\n                    <img src=\"bees-with-color/bee-A1SM.svg\" width=\"200\">\n                    <p><span class=\"greenText\"><b>Successful harvest!</b></span><br>Your pay has increased by $0.02. Your bonus pay is now $0.46.</p>\n            ","response":0,"trial_type":"html-button-response","trial_index":14,"time_elapsed":528878,"internal_node_id":"0.0-4.0-1.1","subject_id":"60219a0f9a69921c5bd2bf3e","study_id":"6197b3f67c2b5cd3b6d9596a","session_id":"6197b7e366b27ec7ffa8fed5","condition":"full-information","relevant_dimensions":["antennae","wings"],"bee_group":{"antennae":"A","wings":"2","pattern":"X","legs":"X"},"bonus":1.420000000000001},{"rt":8866.300000011921,"stimulus":"bees-with-color/bee-B2DM.svg","response":0,"trial_type":"image-button-response","trial_index":15,"time_elapsed":537749,"internal_node_id":"0.0-4.0-0.2","subject_id":"60219a0f9a69921c5bd2bf3e","study_id":"6197b3f67c2b5cd3b6d9596a","session_id":"6197b7e366b27ec7ffa8fed5","condition":"full-information","relevant_dimensions":["antennae","wings"],"bee_group":{"antennae":"A","wings":"2","pattern":"X","legs":"X"},"action":"harvest","summary":"good-harvest","bonus":1.420000000000001},{"rt":5915.600000008941,"stimulus":"\n                    <p><b>Action: <em>harvest</em></b></p>\n                    <p>This is the bee that you just saw.</p>\n                    <img src=\"bees-with-color/bee-B2DM.svg\" width=\"200\">\n                    <p><span class=\"greenText\"><b>Successful harvest!</b></span><br>Your pay has increased by $0.02. Your bonus pay is now $0.48.</p>\n            ","response":0,"trial_type":"html-button-response","trial_index":16,"time_elapsed":543670,"internal_node_id":"0.0-4.0-1.2","subject_id":"60219a0f9a69921c5bd2bf3e","study_id":"6197b3f67c2b5cd3b6d9596a","session_id":"6197b7e366b27ec7ffa8fed5","condition":"full-information","relevant_dimensions":["antennae","wings"],"bee_group":{"antennae":"A","wings":"2","pattern":"X","legs":"X"},"bonus":1.420000000000001},{"rt":10078.39999999106,"stimulus":"bees-with-color/bee-A1DM.svg","response":1,"trial_type":"image-button-response","trial_index":17,"time_elapsed":553753,"internal_node_id":"0.0-4.0-0.3","subject_id":"60219a0f9a69921c5bd2bf3e","study_id":"6197b3f67c2b5cd3b6d9596a","session_id":"6197b7e366b27ec7ffa8fed5","condition":"full-information","relevant_dimensions":["antennae","wings"],"bee_group":{"antennae":"A","wings":"2","pattern":"X","legs":"X"},"action":"avoid","summary":"bad-avoid","bonus":1.420000000000001},{"rt":9001.20000000298,"stimulus":"\n                    <p><b>Action: <em>avoid</em></b></p>\n                    <p>This is the bee that you just saw.</p>\n                    <img src=\"bees-with-color/bee-A1DM.svg\" width=\"200\">\n                    <p><span class=\"redText\">Bad choice,</span> the bee was friendly.<br>Your bonus pay is unchanged, and remains at $0.48.</p>\n            ","response":0,"trial_type":"html-button-response","trial_index":18,"time_elapsed":562758,"internal_node_id":"0.0-4.0-1.3","subject_id":"60219a0f9a69921c5bd2bf3e","study_id":"6197b3f67c2b5cd3b6d9596a","session_id":"6197b7e366b27ec7ffa8fed5","condition":"full-information","relevant_dimensions":["antennae","wings"],"bee_group":{"antennae":"A","wings":"2","pattern":"X","legs":"X"},"bonus":1.420000000000001},{"rt":3495.0999999940395,"stimulus":"bees-with-color/bee-A2SM.svg","response":1,"trial_type":"image-button-response","trial_index":19,"time_elapsed":566258,"internal_node_id":"0.0-4.0-0.4","subject_id":"60219a0f9a69921c5bd2bf3e","study_id":"6197b3f67c2b5cd3b6d9596a","session_id":"6197b7e366b27ec7ffa8fed5","condition":"full-information","relevant_dimensions":["antennae","wings"],"bee_group":{"antennae":"A","wings":"2","pattern":"X","legs":"X"},"action":"avoid","summary":"good-avoid","bonus":1.420000000000001},{"rt":15355.39999999106,"stimulus":"\n                    <p><b>Action: <em>avoid</em></b></p>\n                    <p>This is the bee that you just saw.</p>\n                    <img src=\"bees-with-color/bee-A2SM.svg\" width=\"200\">\n                    <p><span class=\"greenText\">Good choice!</span>  This bee would have stung you.<br>Your bonus pay is unchanged, and remains at $0.48.</p>\n            ","response":0,"trial_type":"html-button-response","trial_index":20,"time_elapsed":581618,"internal_node_id":"0.0-4.0-1.4","subject_id":"60219a0f9a69921c5bd2bf3e","study_id":"6197b3f67c2b5cd3b6d9596a","session_id":"6197b7e366b27ec7ffa8fed5","condition":"full-information","relevant_dimensions":["antennae","wings"],"bee_group":{"antennae":"A","wings":"2","pattern":"X","legs":"X"},"bonus":1.420000000000001},{"rt":3888.2000000029802,"stimulus":"bees-with-color/bee-B2SM.svg","response":1,"trial_type":"image-button-response","trial_index":21,"time_elapsed":585511,"internal_node_id":"0.0-4.0-0.5","subject_id":"60219a0f9a69921c5bd2bf3e","study_id":"6197b3f67c2b5cd3b6d9596a","session_id":"6197b7e366b27ec7ffa8fed5","condition":"full-information","relevant_dimensions":["antennae","wings"],"bee_group":{"antennae":"A","wings":"2","pattern":"X","legs":"X"},"action":"avoid","summary":"bad-avoid","bonus":1.420000000000001},{"rt":1834.2999999970198,"stimulus":"\n                    <p><b>Action: <em>avoid</em></b></p>\n                    <p>This is the bee that you just saw.</p>\n                    <img src=\"bees-with-color/bee-B2SM.svg\" width=\"200\">\n                    <p><span class=\"redText\">Bad choice,</span> the bee was friendly.<br>Your bonus pay is unchanged, and remains at $0.48.</p>\n            ","response":0,"trial_type":"html-button-response","trial_index":22,"time_elapsed":587350,"internal_node_id":"0.0-4.0-1.5","subject_id":"60219a0f9a69921c5bd2bf3e","study_id":"6197b3f67c2b5cd3b6d9596a","session_id":"6197b7e366b27ec7ffa8fed5","condition":"full-information","relevant_dimensions":["antennae","wings"],"bee_group":{"antennae":"A","wings":"2","pattern":"X","legs":"X"},"bonus":1.420000000000001},{"rt":5158,"stimulus":"bees-with-color/bee-A1SF.svg","response":1,"trial_type":"image-button-response","trial_index":23,"time_elapsed":592513,"internal_node_id":"0.0-4.0-0.6","subject_id":"60219a0f9a69921c5bd2bf3e","study_id":"6197b3f67c2b5cd3b6d9596a","session_id":"6197b7e366b27ec7ffa8fed5","condition":"full-information","relevant_dimensions":["antennae","wings"],"bee_group":{"antennae":"A","wings":"2","pattern":"X","legs":"X"},"action":"avoid","summary":"bad-avoid","bonus":1.420000000000001},{"rt":1236.7999999970198,"stimulus":"\n                    <p><b>Action: <em>avoid</em></b></p>\n                    <p>This is the bee that you just saw.</p>\n                    <img src=\"bees-with-color/bee-A1SF.svg\" width=\"200\">\n                    <p><span class=\"redText\">Bad choice,</span> the bee was friendly.<br>Your bonus pay is unchanged, and remains at $0.48.</p>\n            ","response":0,"trial_type":"html-button-response","trial_index":24,"time_elapsed":593756,"internal_node_id":"0.0-4.0-1.6","subject_id":"60219a0f9a69921c5bd2bf3e","study_id":"6197b3f67c2b5cd3b6d9596a","session_id":"6197b7e366b27ec7ffa8fed5","condition":"full-information","relevant_dimensions":["antennae","wings"],"bee_group":{"antennae":"A","wings":"2","pattern":"X","legs":"X"},"bonus":1.420000000000001},{"rt":1340.2000000029802,"stimulus":"bees-with-color/bee-B1DF.svg","response":1,"trial_type":"image-button-response","trial_index":25,"time_elapsed":595102,"internal_node_id":"0.0-4.0-0.7","subject_id":"60219a0f9a69921c5bd2bf3e","study_id":"6197b3f67c2b5cd3b6d9596a","session_id":"6197b7e366b27ec7ffa8fed5","condition":"full-information","relevant_dimensions":["antennae","wings"],"bee_group":{"antennae":"A","wings":"2","pattern":"X","legs":"X"},"action":"avoid","summary":"bad-avoid","bonus":1.420000000000001},{"rt":901,"stimulus":"\n                    <p><b>Action: <em>avoid</em></b></p>\n                    <p>This is the bee that you just saw.</p>\n                    <img src=\"bees-with-color/bee-B1DF.svg\" width=\"200\">\n                    <p><span class=\"redText\">Bad choice,</span> the bee was friendly.<br>Your bonus pay is unchanged, and remains at $0.48.</p>\n            ","response":0,"trial_type":"html-button-response","trial_index":26,"time_elapsed":596007,"internal_node_id":"0.0-4.0-1.7","subject_id":"60219a0f9a69921c5bd2bf3e","study_id":"6197b3f67c2b5cd3b6d9596a","session_id":"6197b7e366b27ec7ffa8fed5","condition":"full-information","relevant_dimensions":["antennae","wings"],"bee_group":{"antennae":"A","wings":"2","pattern":"X","legs":"X"},"bonus":1.420000000000001},{"rt":643.1000000089407,"stimulus":"bees-with-color/bee-B2DF.svg","response":1,"trial_type":"image-button-response","trial_index":27,"time_elapsed":596654,"internal_node_id":"0.0-4.0-0.8","subject_id":"60219a0f9a69921c5bd2bf3e","study_id":"6197b3f67c2b5cd3b6d9596a","session_id":"6197b7e366b27ec7ffa8fed5","condition":"full-information","relevant_dimensions":["antennae","wings"],"bee_group":{"antennae":"A","wings":"2","pattern":"X","legs":"X"},"action":"avoid","summary":"bad-avoid","bonus":1.420000000000001},{"rt":967.8999999910593,"stimulus":"\n                    <p><b>Action: <em>avoid</em></b></p>\n                    <p>This is the bee that you just saw.</p>\n                    <img src=\"bees-with-color/bee-B2DF.svg\" width=\"200\">\n                    <p><span class=\"redText\">Bad choice,</span> the bee was friendly.<br>Your bonus pay is unchanged, and remains at $0.48.</p>\n            ","response":0,"trial_type":"html-button-response","trial_index":28,"time_elapsed":597626,"internal_node_id":"0.0-4.0-1.8","subject_id":"60219a0f9a69921c5bd2bf3e","study_id":"6197b3f67c2b5cd3b6d9596a","session_id":"6197b7e366b27ec7ffa8fed5","condition":"full-information","relevant_dimensions":["antennae","wings"],"bee_group":{"antennae":"A","wings":"2","pattern":"X","legs":"X"},"bonus":1.420000000000001},{"rt":1101.2999999970198,"stimulus":"bees-with-color/bee-B1SF.svg","response":0,"trial_type":"image-button-response","trial_index":29,"time_elapsed":598730,"internal_node_id":"0.0-4.0-0.9","subject_id":"60219a0f9a69921c5bd2bf3e","study_id":"6197b3f67c2b5cd3b6d9596a","session_id":"6197b7e366b27ec7ffa8fed5","condition":"full-information","relevant_dimensions":["antennae","wings"],"bee_group":{"antennae":"A","wings":"2","pattern":"X","legs":"X"},"action":"harvest","summary":"good-harvest","bonus":1.420000000000001},{"rt":1139.9000000059605,"stimulus":"\n                    <p><b>Action: <em>harvest</em></b></p>\n                    <p>This is the bee that you just saw.</p>\n                    <img src=\"bees-with-color/bee-B1SF.svg\" width=\"200\">\n                    <p><span class=\"greenText\"><b>Successful harvest!</b></span><br>Your pay has increased by $0.02. Your bonus pay is now $0.50.</p>\n            ","response":0,"trial_type":"html-button-response","trial_index":30,"time_elapsed":599871,"internal_node_id":"0.0-4.0-1.9","subject_id":"60219a0f9a69921c5bd2bf3e","study_id":"6197b3f67c2b5cd3b6d9596a","session_id":"6197b7e366b27ec7ffa8fed5","condition":"full-information","relevant_dimensions":["antennae","wings"],"bee_group":{"antennae":"A","wings":"2","pattern":"X","legs":"X"},"bonus":1.420000000000001},{"rt":2448.699999988079,"stimulus":"bees-with-color/bee-B1DM.svg","response":0,"trial_type":"image-button-response","trial_index":31,"time_elapsed":602322,"internal_node_id":"0.0-4.0-0.10","subject_id":"60219a0f9a69921c5bd2bf3e","study_id":"6197b3f67c2b5cd3b6d9596a","session_id":"6197b7e366b27ec7ffa8fed5","condition":"full-information","relevant_dimensions":["antennae","wings"],"bee_group":{"antennae":"A","wings":"2","pattern":"X","legs":"X"},"action":"harvest","summary":"good-harvest","bonus":1.420000000000001},{"rt":1040.6000000089407,"stimulus":"\n                    <p><b>Action: <em>harvest</em></b></p>\n                    <p>This is the bee that you just saw.</p>\n                    <img src=\"bees-with-color/bee-B1DM.svg\" width=\"200\">\n                    <p><span class=\"greenText\"><b>Successful harvest!</b></span><br>Your pay has increased by $0.02. Your bonus pay is now $0.52.</p>\n            ","response":0,"trial_type":"html-button-response","trial_index":32,"time_elapsed":603367,"internal_node_id":"0.0-4.0-1.10","subject_id":"60219a0f9a69921c5bd2bf3e","study_id":"6197b3f67c2b5cd3b6d9596a","session_id":"6197b7e366b27ec7ffa8fed5","condition":"full-information","relevant_dimensions":["antennae","wings"],"bee_group":{"antennae":"A","wings":"2","pattern":"X","legs":"X"},"bonus":1.420000000000001},{"rt":670.7999999970198,"stimulus":"bees-with-color/bee-A2DM.svg","response":1,"trial_type":"image-button-response","trial_index":33,"time_elapsed":604041,"internal_node_id":"0.0-4.0-0.11","subject_id":"60219a0f9a69921c5bd2bf3e","study_id":"6197b3f67c2b5cd3b6d9596a","session_id":"6197b7e366b27ec7ffa8fed5","condition":"full-information","relevant_dimensions":["antennae","wings"],"bee_group":{"antennae":"A","wings":"2","pattern":"X","legs":"X"},"action":"avoid","summary":"good-avoid","bonus":1.420000000000001},{"rt":14961,"stimulus":"\n                    <p><b>Action: <em>avoid</em></b></p>\n                    <p>This is the bee that you just saw.</p>\n                    <img src=\"bees-with-color/bee-A2DM.svg\" width=\"200\">\n                    <p><span class=\"greenText\">Good choice!</span>  This bee would have stung you.<br>Your bonus pay is unchanged, and remains at $0.52.</p>\n            ","response":0,"trial_type":"html-button-response","trial_index":34,"time_elapsed":619005,"internal_node_id":"0.0-4.0-1.11","subject_id":"60219a0f9a69921c5bd2bf3e","study_id":"6197b3f67c2b5cd3b6d9596a","session_id":"6197b7e366b27ec7ffa8fed5","condition":"full-information","relevant_dimensions":["antennae","wings"],"bee_group":{"antennae":"A","wings":"2","pattern":"X","legs":"X"},"bonus":1.420000000000001},{"rt":13760.5,"stimulus":"bees-with-color/bee-A2SF.svg","response":1,"trial_type":"image-button-response","trial_index":35,"time_elapsed":632769,"internal_node_id":"0.0-4.0-0.12","subject_id":"60219a0f9a69921c5bd2bf3e","study_id":"6197b3f67c2b5cd3b6d9596a","session_id":"6197b7e366b27ec7ffa8fed5","condition":"full-information","relevant_dimensions":["antennae","wings"],"bee_group":{"antennae":"A","wings":"2","pattern":"X","legs":"X"},"action":"avoid","summary":"good-avoid","bonus":1.420000000000001},{"rt":2691.699999988079,"stimulus":"\n                    <p><b>Action: <em>avoid</em></b></p>\n                    <p>This is the bee that you just saw.</p>\n                    <img src=\"bees-with-color/bee-A2SF.svg\" width=\"200\">\n                    <p><span class=\"greenText\">Good choice!</span>  This bee would have stung you.<br>Your bonus pay is unchanged, and remains at $0.52.</p>\n            ","response":0,"trial_type":"html-button-response","trial_index":36,"time_elapsed":635464,"internal_node_id":"0.0-4.0-1.12","subject_id":"60219a0f9a69921c5bd2bf3e","study_id":"6197b3f67c2b5cd3b6d9596a","session_id":"6197b7e366b27ec7ffa8fed5","condition":"full-information","relevant_dimensions":["antennae","wings"],"bee_group":{"antennae":"A","wings":"2","pattern":"X","legs":"X"},"bonus":1.420000000000001},{"rt":3257.7999999970198,"stimulus":"bees-with-color/bee-B1SM.svg","response":0,"trial_type":"image-button-response","trial_index":37,"time_elapsed":638726,"internal_node_id":"0.0-4.0-0.13","subject_id":"60219a0f9a69921c5bd2bf3e","study_id":"6197b3f67c2b5cd3b6d9596a","session_id":"6197b7e366b27ec7ffa8fed5","condition":"full-information","relevant_dimensions":["antennae","wings"],"bee_group":{"antennae":"A","wings":"2","pattern":"X","legs":"X"},"action":"harvest","summary":"good-harvest","bonus":1.420000000000001},{"rt":1060.5999999940395,"stimulus":"\n                    <p><b>Action: <em>harvest</em></b></p>\n                    <p>This is the bee that you just saw.</p>\n                    <img src=\"bees-with-color/bee-B1SM.svg\" width=\"200\">\n                    <p><span class=\"greenText\"><b>Successful harvest!</b></span><br>Your pay has increased by $0.02. Your bonus pay is now $0.54.</p>\n            ","response":0,"trial_type":"html-button-response","trial_index":38,"time_elapsed":639790,"internal_node_id":"0.0-4.0-1.13","subject_id":"60219a0f9a69921c5bd2bf3e","study_id":"6197b3f67c2b5cd3b6d9596a","session_id":"6197b7e366b27ec7ffa8fed5","condition":"full-information","relevant_dimensions":["antennae","wings"],"bee_group":{"antennae":"A","wings":"2","pattern":"X","legs":"X"},"bonus":1.420000000000001},{"rt":10813.59999999404,"stimulus":"bees-with-color/bee-A1DF.svg","response":0,"trial_type":"image-button-response","trial_index":39,"time_elapsed":650608,"internal_node_id":"0.0-4.0-0.14","subject_id":"60219a0f9a69921c5bd2bf3e","study_id":"6197b3f67c2b5cd3b6d9596a","session_id":"6197b7e366b27ec7ffa8fed5","condition":"full-information","relevant_dimensions":["antennae","wings"],"bee_group":{"antennae":"A","wings":"2","pattern":"X","legs":"X"},"action":"harvest","summary":"good-harvest","bonus":1.420000000000001},{"rt":968.7000000029802,"stimulus":"\n                    <p><b>Action: <em>harvest</em></b></p>\n                    <p>This is the bee that you just saw.</p>\n                    <img src=\"bees-with-color/bee-A1DF.svg\" width=\"200\">\n                    <p><span class=\"greenText\"><b>Successful harvest!</b></span><br>Your pay has increased by $0.02. Your bonus pay is now $0.56.</p>\n            ","response":0,"trial_type":"html-button-response","trial_index":40,"time_elapsed":651580,"internal_node_id":"0.0-4.0-1.14","subject_id":"60219a0f9a69921c5bd2bf3e","study_id":"6197b3f67c2b5cd3b6d9596a","session_id":"6197b7e366b27ec7ffa8fed5","condition":"full-information","relevant_dimensions":["antennae","wings"],"bee_group":{"antennae":"A","wings":"2","pattern":"X","legs":"X"},"bonus":1.420000000000001},{"rt":2736.199999988079,"stimulus":"bees-with-color/bee-B2SF.svg","response":1,"trial_type":"image-button-response","trial_index":41,"time_elapsed":654321,"internal_node_id":"0.0-4.0-0.15","subject_id":"60219a0f9a69921c5bd2bf3e","study_id":"6197b3f67c2b5cd3b6d9596a","session_id":"6197b7e366b27ec7ffa8fed5","condition":"full-information","relevant_dimensions":["antennae","wings"],"bee_group":{"antennae":"A","wings":"2","pattern":"X","legs":"X"},"action":"avoid","summary":"bad-avoid","bonus":1.420000000000001},{"rt":3428.2000000029802,"stimulus":"\n                    <p><b>Action: <em>avoid</em></b></p>\n                    <p>This is the bee that you just saw.</p>\n                    <img src=\"bees-with-color/bee-B2SF.svg\" width=\"200\">\n                    <p><span class=\"redText\">Bad choice,</span> the bee was friendly.<br>Your bonus pay is unchanged, and remains at $0.56.</p>\n            ","response":0,"trial_type":"html-button-response","trial_index":42,"time_elapsed":657753,"internal_node_id":"0.0-4.0-1.15","subject_id":"60219a0f9a69921c5bd2bf3e","study_id":"6197b3f67c2b5cd3b6d9596a","session_id":"6197b7e366b27ec7ffa8fed5","condition":"full-information","relevant_dimensions":["antennae","wings"],"bee_group":{"antennae":"A","wings":"2","pattern":"X","legs":"X"},"bonus":1.420000000000001},{"rt":1312.300000011921,"stimulus":"bees-with-color/bee-B1SF.svg","response":0,"trial_type":"image-button-response","trial_index":43,"time_elapsed":659071,"internal_node_id":"0.0-4.0-0.16","subject_id":"60219a0f9a69921c5bd2bf3e","study_id":"6197b3f67c2b5cd3b6d9596a","session_id":"6197b7e366b27ec7ffa8fed5","condition":"full-information","relevant_dimensions":["antennae","wings"],"bee_group":{"antennae":"A","wings":"2","pattern":"X","legs":"X"},"action":"harvest","summary":"good-harvest","bonus":1.420000000000001},{"rt":793.5999999940395,"stimulus":"\n                    <p><b>Action: <em>harvest</em></b></p>\n                    <p>This is the bee that you just saw.</p>\n                    <img src=\"bees-with-color/bee-B1SF.svg\" width=\"200\">\n                    <p><span class=\"greenText\"><b>Successful harvest!</b></span><br>Your pay has increased by $0.02. Your bonus pay is now $0.58.</p>\n            ","response":0,"trial_type":"html-button-response","trial_index":44,"time_elapsed":659869,"internal_node_id":"0.0-4.0-1.16","subject_id":"60219a0f9a69921c5bd2bf3e","study_id":"6197b3f67c2b5cd3b6d9596a","session_id":"6197b7e366b27ec7ffa8fed5","condition":"full-information","relevant_dimensions":["antennae","wings"],"bee_group":{"antennae":"A","wings":"2","pattern":"X","legs":"X"},"bonus":1.420000000000001},{"rt":1554.5,"stimulus":"bees-with-color/bee-A2DM.svg","response":1,"trial_type":"image-button-response","trial_index":45,"time_elapsed":661426,"internal_node_id":"0.0-4.0-0.17","subject_id":"60219a0f9a69921c5bd2bf3e","study_id":"6197b3f67c2b5cd3b6d9596a","session_id":"6197b7e366b27ec7ffa8fed5","condition":"full-information","relevant_dimensions":["antennae","wings"],"bee_group":{"antennae":"A","wings":"2","pattern":"X","legs":"X"},"action":"avoid","summary":"good-avoid","bonus":1.420000000000001},{"rt":1101.5,"stimulus":"\n                    <p><b>Action: <em>avoid</em></b></p>\n                    <p>This is the bee that you just saw.</p>\n                    <img src=\"bees-with-color/bee-A2DM.svg\" width=\"200\">\n                    <p><span class=\"greenText\">Good choice!</span>  This bee would have stung you.<br>Your bonus pay is unchanged, and remains at $0.58.</p>\n            ","response":0,"trial_type":"html-button-response","trial_index":46,"time_elapsed":662532,"internal_node_id":"0.0-4.0-1.17","subject_id":"60219a0f9a69921c5bd2bf3e","study_id":"6197b3f67c2b5cd3b6d9596a","session_id":"6197b7e366b27ec7ffa8fed5","condition":"full-information","relevant_dimensions":["antennae","wings"],"bee_group":{"antennae":"A","wings":"2","pattern":"X","legs":"X"},"bonus":1.420000000000001},{"rt":2215.2000000029802,"stimulus":"bees-with-color/bee-B1SM.svg","response":0,"trial_type":"image-button-response","trial_index":47,"time_elapsed":664751,"internal_node_id":"0.0-4.0-0.18","subject_id":"60219a0f9a69921c5bd2bf3e","study_id":"6197b3f67c2b5cd3b6d9596a","session_id":"6197b7e366b27ec7ffa8fed5","condition":"full-information","relevant_dimensions":["antennae","wings"],"bee_group":{"antennae":"A","wings":"2","pattern":"X","legs":"X"},"action":"harvest","summary":"good-harvest","bonus":1.420000000000001},{"rt":840.7000000029802,"stimulus":"\n                    <p><b>Action: <em>harvest</em></b></p>\n                    <p>This is the bee that you just saw.</p>\n                    <img src=\"bees-with-color/bee-B1SM.svg\" width=\"200\">\n                    <p><span class=\"greenText\"><b>Successful harvest!</b></span><br>Your pay has increased by $0.02. Your bonus pay is now $0.60.</p>\n            ","response":0,"trial_type":"html-button-response","trial_index":48,"time_elapsed":665596,"internal_node_id":"0.0-4.0-1.18","subject_id":"60219a0f9a69921c5bd2bf3e","study_id":"6197b3f67c2b5cd3b6d9596a","session_id":"6197b7e366b27ec7ffa8fed5","condition":"full-information","relevant_dimensions":["antennae","wings"],"bee_group":{"antennae":"A","wings":"2","pattern":"X","legs":"X"},"bonus":1.420000000000001},{"rt":2235,"stimulus":"bees-with-color/bee-B2DF.svg","response":1,"trial_type":"image-button-response","trial_index":49,"time_elapsed":667834,"internal_node_id":"0.0-4.0-0.19","subject_id":"60219a0f9a69921c5bd2bf3e","study_id":"6197b3f67c2b5cd3b6d9596a","session_id":"6197b7e366b27ec7ffa8fed5","condition":"full-information","relevant_dimensions":["antennae","wings"],"bee_group":{"antennae":"A","wings":"2","pattern":"X","legs":"X"},"action":"avoid","summary":"bad-avoid","bonus":1.420000000000001},{"rt":811.9000000059605,"stimulus":"\n                    <p><b>Action: <em>avoid</em></b></p>\n                    <p>This is the bee that you just saw.</p>\n                    <img src=\"bees-with-color/bee-B2DF.svg\" width=\"200\">\n                    <p><span class=\"redText\">Bad choice,</span> the bee was friendly.<br>Your bonus pay is unchanged, and remains at $0.60.</p>\n            ","response":0,"trial_type":"html-button-response","trial_index":50,"time_elapsed":668650,"internal_node_id":"0.0-4.0-1.19","subject_id":"60219a0f9a69921c5bd2bf3e","study_id":"6197b3f67c2b5cd3b6d9596a","session_id":"6197b7e366b27ec7ffa8fed5","condition":"full-information","relevant_dimensions":["antennae","wings"],"bee_group":{"antennae":"A","wings":"2","pattern":"X","legs":"X"},"bonus":1.420000000000001},{"rt":1039.9000000059605,"stimulus":"bees-with-color/bee-B1DF.svg","response":0,"trial_type":"image-button-response","trial_index":51,"time_elapsed":669694,"internal_node_id":"0.0-4.0-0.20","subject_id":"60219a0f9a69921c5bd2bf3e","study_id":"6197b3f67c2b5cd3b6d9596a","session_id":"6197b7e366b27ec7ffa8fed5","condition":"full-information","relevant_dimensions":["antennae","wings"],"bee_group":{"antennae":"A","wings":"2","pattern":"X","legs":"X"},"action":"harvest","summary":"good-harvest","bonus":1.420000000000001},{"rt":684.1999999880791,"stimulus":"\n                    <p><b>Action: <em>harvest</em></b></p>\n                    <p>This is the bee that you just saw.</p>\n                    <img src=\"bees-with-color/bee-B1DF.svg\" width=\"200\">\n                    <p><span class=\"greenText\"><b>Successful harvest!</b></span><br>Your pay has increased by $0.02. Your bonus pay is now $0.62.</p>\n            ","response":0,"trial_type":"html-button-response","trial_index":52,"time_elapsed":670382,"internal_node_id":"0.0-4.0-1.20","subject_id":"60219a0f9a69921c5bd2bf3e","study_id":"6197b3f67c2b5cd3b6d9596a","session_id":"6197b7e366b27ec7ffa8fed5","condition":"full-information","relevant_dimensions":["antennae","wings"],"bee_group":{"antennae":"A","wings":"2","pattern":"X","legs":"X"},"bonus":1.420000000000001},{"rt":1620.2000000029802,"stimulus":"bees-with-color/bee-B2SF.svg","response":1,"trial_type":"image-button-response","trial_index":53,"time_elapsed":672006,"internal_node_id":"0.0-4.0-0.21","subject_id":"60219a0f9a69921c5bd2bf3e","study_id":"6197b3f67c2b5cd3b6d9596a","session_id":"6197b7e366b27ec7ffa8fed5","condition":"full-information","relevant_dimensions":["antennae","wings"],"bee_group":{"antennae":"A","wings":"2","pattern":"X","legs":"X"},"action":"avoid","summary":"bad-avoid","bonus":1.420000000000001},{"rt":665.3999999910593,"stimulus":"\n                    <p><b>Action: <em>avoid</em></b></p>\n                    <p>This is the bee that you just saw.</p>\n                    <img src=\"bees-with-color/bee-B2SF.svg\" width=\"200\">\n                    <p><span class=\"redText\">Bad choice,</span> the bee was friendly.<br>Your bonus pay is unchanged, and remains at $0.62.</p>\n            ","response":0,"trial_type":"html-button-response","trial_index":54,"time_elapsed":672675,"internal_node_id":"0.0-4.0-1.21","subject_id":"60219a0f9a69921c5bd2bf3e","study_id":"6197b3f67c2b5cd3b6d9596a","session_id":"6197b7e366b27ec7ffa8fed5","condition":"full-information","relevant_dimensions":["antennae","wings"],"bee_group":{"antennae":"A","wings":"2","pattern":"X","legs":"X"},"bonus":1.420000000000001},{"rt":2520.7000000029802,"stimulus":"bees-with-color/bee-A2DF.svg","response":1,"trial_type":"image-button-response","trial_index":55,"time_elapsed":675199,"internal_node_id":"0.0-4.0-0.22","subject_id":"60219a0f9a69921c5bd2bf3e","study_id":"6197b3f67c2b5cd3b6d9596a","session_id":"6197b7e366b27ec7ffa8fed5","condition":"full-information","relevant_dimensions":["antennae","wings"],"bee_group":{"antennae":"A","wings":"2","pattern":"X","legs":"X"},"action":"avoid","summary":"good-avoid","bonus":1.420000000000001},{"rt":930.5,"stimulus":"\n                    <p><b>Action: <em>avoid</em></b></p>\n                    <p>This is the bee that you just saw.</p>\n                    <img src=\"bees-with-color/bee-A2DF.svg\" width=\"200\">\n                    <p><span class=\"greenText\">Good choice!</span>  This bee would have stung you.<br>Your bonus pay is unchanged, and remains at $0.62.</p>\n            ","response":0,"trial_type":"html-button-response","trial_index":56,"time_elapsed":676133,"internal_node_id":"0.0-4.0-1.22","subject_id":"60219a0f9a69921c5bd2bf3e","study_id":"6197b3f67c2b5cd3b6d9596a","session_id":"6197b7e366b27ec7ffa8fed5","condition":"full-information","relevant_dimensions":["antennae","wings"],"bee_group":{"antennae":"A","wings":"2","pattern":"X","legs":"X"},"bonus":1.420000000000001},{"rt":5928.5999999940395,"stimulus":"bees-with-color/bee-B2DM.svg","response":0,"trial_type":"image-button-response","trial_index":57,"time_elapsed":682065,"internal_node_id":"0.0-4.0-0.23","subject_id":"60219a0f9a69921c5bd2bf3e","study_id":"6197b3f67c2b5cd3b6d9596a","session_id":"6197b7e366b27ec7ffa8fed5","condition":"full-information","relevant_dimensions":["antennae","wings"],"bee_group":{"antennae":"A","wings":"2","pattern":"X","legs":"X"},"action":"harvest","summary":"good-harvest","bonus":1.420000000000001},{"rt":820,"stimulus":"\n                    <p><b>Action: <em>harvest</em></b></p>\n                    <p>This is the bee that you just saw.</p>\n                    <img src=\"bees-with-color/bee-B2DM.svg\" width=\"200\">\n                    <p><span class=\"greenText\"><b>Successful harvest!</b></span><br>Your pay has increased by $0.02. Your bonus pay is now $0.64.</p>\n            ","response":0,"trial_type":"html-button-response","trial_index":58,"time_elapsed":682889,"internal_node_id":"0.0-4.0-1.23","subject_id":"60219a0f9a69921c5bd2bf3e","study_id":"6197b3f67c2b5cd3b6d9596a","session_id":"6197b7e366b27ec7ffa8fed5","condition":"full-information","relevant_dimensions":["antennae","wings"],"bee_group":{"antennae":"A","wings":"2","pattern":"X","legs":"X"},"bonus":1.420000000000001},{"rt":1395.9000000059605,"stimulus":"bees-with-color/bee-B1DM.svg","response":0,"trial_type":"image-button-response","trial_index":59,"time_elapsed":684289,"internal_node_id":"0.0-4.0-0.24","subject_id":"60219a0f9a69921c5bd2bf3e","study_id":"6197b3f67c2b5cd3b6d9596a","session_id":"6197b7e366b27ec7ffa8fed5","condition":"full-information","relevant_dimensions":["antennae","wings"],"bee_group":{"antennae":"A","wings":"2","pattern":"X","legs":"X"},"action":"harvest","summary":"good-harvest","bonus":1.420000000000001},{"rt":718.5,"stimulus":"\n                    <p><b>Action: <em>harvest</em></b></p>\n                    <p>This is the bee that you just saw.</p>\n                    <img src=\"bees-with-color/bee-B1DM.svg\" width=\"200\">\n                    <p><span class=\"greenText\"><b>Successful harvest!</b></span><br>Your pay has increased by $0.02. Your bonus pay is now $0.66.</p>\n            ","response":0,"trial_type":"html-button-response","trial_index":60,"time_elapsed":685010,"internal_node_id":"0.0-4.0-1.24","subject_id":"60219a0f9a69921c5bd2bf3e","study_id":"6197b3f67c2b5cd3b6d9596a","session_id":"6197b7e366b27ec7ffa8fed5","condition":"full-information","relevant_dimensions":["antennae","wings"],"bee_group":{"antennae":"A","wings":"2","pattern":"X","legs":"X"},"bonus":1.420000000000001},{"rt":1397.5,"stimulus":"bees-with-color/bee-A1DF.svg","response":0,"trial_type":"image-button-response","trial_index":61,"time_elapsed":686410,"internal_node_id":"0.0-4.0-0.25","subject_id":"60219a0f9a69921c5bd2bf3e","study_id":"6197b3f67c2b5cd3b6d9596a","session_id":"6197b7e366b27ec7ffa8fed5","condition":"full-information","relevant_dimensions":["antennae","wings"],"bee_group":{"antennae":"A","wings":"2","pattern":"X","legs":"X"},"action":"harvest","summary":"good-harvest","bonus":1.420000000000001},{"rt":814.7000000029802,"stimulus":"\n                    <p><b>Action: <em>harvest</em></b></p>\n                    <p>This is the bee that you just saw.</p>\n                    <img src=\"bees-with-color/bee-A1DF.svg\" width=\"200\">\n                    <p><span class=\"greenText\"><b>Successful harvest!</b></span><br>Your pay has increased by $0.02. Your bonus pay is now $0.68.</p>\n            ","response":0,"trial_type":"html-button-response","trial_index":62,"time_elapsed":687228,"internal_node_id":"0.0-4.0-1.25","subject_id":"60219a0f9a69921c5bd2bf3e","study_id":"6197b3f67c2b5cd3b6d9596a","session_id":"6197b7e366b27ec7ffa8fed5","condition":"full-information","relevant_dimensions":["antennae","wings"],"bee_group":{"antennae":"A","wings":"2","pattern":"X","legs":"X"},"bonus":1.420000000000001},{"rt":1396.9000000059605,"stimulus":"bees-with-color/bee-B2SM.svg","response":1,"trial_type":"image-button-response","trial_index":63,"time_elapsed":688628,"internal_node_id":"0.0-4.0-0.26","subject_id":"60219a0f9a69921c5bd2bf3e","study_id":"6197b3f67c2b5cd3b6d9596a","session_id":"6197b7e366b27ec7ffa8fed5","condition":"full-information","relevant_dimensions":["antennae","wings"],"bee_group":{"antennae":"A","wings":"2","pattern":"X","legs":"X"},"action":"avoid","summary":"bad-avoid","bonus":1.420000000000001},{"rt":712,"stimulus":"\n                    <p><b>Action: <em>avoid</em></b></p>\n                    <p>This is the bee that you just saw.</p>\n                    <img src=\"bees-with-color/bee-B2SM.svg\" width=\"200\">\n                    <p><span class=\"redText\">Bad choice,</span> the bee was friendly.<br>Your bonus pay is unchanged, and remains at $0.68.</p>\n            ","response":0,"trial_type":"html-button-response","trial_index":64,"time_elapsed":689343,"internal_node_id":"0.0-4.0-1.26","subject_id":"60219a0f9a69921c5bd2bf3e","study_id":"6197b3f67c2b5cd3b6d9596a","session_id":"6197b7e366b27ec7ffa8fed5","condition":"full-information","relevant_dimensions":["antennae","wings"],"bee_group":{"antennae":"A","wings":"2","pattern":"X","legs":"X"},"bonus":1.420000000000001},{"rt":1006,"stimulus":"bees-with-color/bee-A1DM.svg","response":1,"trial_type":"image-button-response","trial_index":65,"time_elapsed":690352,"internal_node_id":"0.0-4.0-0.27","subject_id":"60219a0f9a69921c5bd2bf3e","study_id":"6197b3f67c2b5cd3b6d9596a","session_id":"6197b7e366b27ec7ffa8fed5","condition":"full-information","relevant_dimensions":["antennae","wings"],"bee_group":{"antennae":"A","wings":"2","pattern":"X","legs":"X"},"action":"avoid","summary":"bad-avoid","bonus":1.420000000000001},{"rt":745.3000000119209,"stimulus":"\n                    <p><b>Action: <em>avoid</em></b></p>\n                    <p>This is the bee that you just saw.</p>\n                    <img src=\"bees-with-color/bee-A1DM.svg\" width=\"200\">\n                    <p><span class=\"redText\">Bad choice,</span> the bee was friendly.<br>Your bonus pay is unchanged, and remains at $0.68.</p>\n            ","response":0,"trial_type":"html-button-response","trial_index":66,"time_elapsed":691101,"internal_node_id":"0.0-4.0-1.27","subject_id":"60219a0f9a69921c5bd2bf3e","study_id":"6197b3f67c2b5cd3b6d9596a","session_id":"6197b7e366b27ec7ffa8fed5","condition":"full-information","relevant_dimensions":["antennae","wings"],"bee_group":{"antennae":"A","wings":"2","pattern":"X","legs":"X"},"bonus":1.420000000000001},{"rt":1438.800000011921,"stimulus":"bees-with-color/bee-A1SF.svg","response":0,"trial_type":"image-button-response","trial_index":67,"time_elapsed":692543,"internal_node_id":"0.0-4.0-0.28","subject_id":"60219a0f9a69921c5bd2bf3e","study_id":"6197b3f67c2b5cd3b6d9596a","session_id":"6197b7e366b27ec7ffa8fed5","condition":"full-information","relevant_dimensions":["antennae","wings"],"bee_group":{"antennae":"A","wings":"2","pattern":"X","legs":"X"},"action":"harvest","summary":"good-harvest","bonus":1.420000000000001},{"rt":716.4000000059605,"stimulus":"\n                    <p><b>Action: <em>harvest</em></b></p>\n                    <p>This is the bee that you just saw.</p>\n                    <img src=\"bees-with-color/bee-A1SF.svg\" width=\"200\">\n                    <p><span class=\"greenText\"><b>Successful harvest!</b></span><br>Your pay has increased by $0.02. Your bonus pay is now $0.70.</p>\n            ","response":0,"trial_type":"html-button-response","trial_index":68,"time_elapsed":693263,"internal_node_id":"0.0-4.0-1.28","subject_id":"60219a0f9a69921c5bd2bf3e","study_id":"6197b3f67c2b5cd3b6d9596a","session_id":"6197b7e366b27ec7ffa8fed5","condition":"full-information","relevant_dimensions":["antennae","wings"],"bee_group":{"antennae":"A","wings":"2","pattern":"X","legs":"X"},"bonus":1.420000000000001},{"rt":1617.8999999910593,"stimulus":"bees-with-color/bee-A2SM.svg","response":1,"trial_type":"image-button-response","trial_index":69,"time_elapsed":694885,"internal_node_id":"0.0-4.0-0.29","subject_id":"60219a0f9a69921c5bd2bf3e","study_id":"6197b3f67c2b5cd3b6d9596a","session_id":"6197b7e366b27ec7ffa8fed5","condition":"full-information","relevant_dimensions":["antennae","wings"],"bee_group":{"antennae":"A","wings":"2","pattern":"X","legs":"X"},"action":"avoid","summary":"good-avoid","bonus":1.420000000000001},{"rt":675.4000000059605,"stimulus":"\n                    <p><b>Action: <em>avoid</em></b></p>\n                    <p>This is the bee that you just saw.</p>\n                    <img src=\"bees-with-color/bee-A2SM.svg\" width=\"200\">\n                    <p><span class=\"greenText\">Good choice!</span>  This bee would have stung you.<br>Your bonus pay is unchanged, and remains at $0.70.</p>\n            ","response":0,"trial_type":"html-button-response","trial_index":70,"time_elapsed":695563,"internal_node_id":"0.0-4.0-1.29","subject_id":"60219a0f9a69921c5bd2bf3e","study_id":"6197b3f67c2b5cd3b6d9596a","session_id":"6197b7e366b27ec7ffa8fed5","condition":"full-information","relevant_dimensions":["antennae","wings"],"bee_group":{"antennae":"A","wings":"2","pattern":"X","legs":"X"},"bonus":1.420000000000001},{"rt":2456.9000000059605,"stimulus":"bees-with-color/bee-A1SM.svg","response":0,"trial_type":"image-button-response","trial_index":71,"time_elapsed":698023,"internal_node_id":"0.0-4.0-0.30","subject_id":"60219a0f9a69921c5bd2bf3e","study_id":"6197b3f67c2b5cd3b6d9596a","session_id":"6197b7e366b27ec7ffa8fed5","condition":"full-information","relevant_dimensions":["antennae","wings"],"bee_group":{"antennae":"A","wings":"2","pattern":"X","legs":"X"},"action":"harvest","summary":"good-harvest","bonus":1.420000000000001},{"rt":668.4000000059605,"stimulus":"\n                    <p><b>Action: <em>harvest</em></b></p>\n                    <p>This is the bee that you just saw.</p>\n                    <img src=\"bees-with-color/bee-A1SM.svg\" width=\"200\">\n                    <p><span class=\"greenText\"><b>Successful harvest!</b></span><br>Your pay has increased by $0.02. Your bonus pay is now $0.72.</p>\n            ","response":0,"trial_type":"html-button-response","trial_index":72,"time_elapsed":698695,"internal_node_id":"0.0-4.0-1.30","subject_id":"60219a0f9a69921c5bd2bf3e","study_id":"6197b3f67c2b5cd3b6d9596a","session_id":"6197b7e366b27ec7ffa8fed5","condition":"full-information","relevant_dimensions":["antennae","wings"],"bee_group":{"antennae":"A","wings":"2","pattern":"X","legs":"X"},"bonus":1.420000000000001},{"rt":1910.6000000089407,"stimulus":"bees-with-color/bee-A2SF.svg","response":1,"trial_type":"image-button-response","trial_index":73,"time_elapsed":700610,"internal_node_id":"0.0-4.0-0.31","subject_id":"60219a0f9a69921c5bd2bf3e","study_id":"6197b3f67c2b5cd3b6d9596a","session_id":"6197b7e366b27ec7ffa8fed5","condition":"full-information","relevant_dimensions":["antennae","wings"],"bee_group":{"antennae":"A","wings":"2","pattern":"X","legs":"X"},"action":"avoid","summary":"good-avoid","bonus":1.420000000000001},{"rt":765.7000000029802,"stimulus":"\n                    <p><b>Action: <em>avoid</em></b></p>\n                    <p>This is the bee that you just saw.</p>\n                    <img src=\"bees-with-color/bee-A2SF.svg\" width=\"200\">\n                    <p><span class=\"greenText\">Good choice!</span>  This bee would have stung you.<br>Your bonus pay is unchanged, and remains at $0.72.</p>\n            ","response":0,"trial_type":"html-button-response","trial_index":74,"time_elapsed":701380,"internal_node_id":"0.0-4.0-1.31","subject_id":"60219a0f9a69921c5bd2bf3e","study_id":"6197b3f67c2b5cd3b6d9596a","session_id":"6197b7e366b27ec7ffa8fed5","condition":"full-information","relevant_dimensions":["antennae","wings"],"bee_group":{"antennae":"A","wings":"2","pattern":"X","legs":"X"},"bonus":1.420000000000001},{"rt":806.7000000029802,"stimulus":"bees-with-color/bee-B1SF.svg","response":0,"trial_type":"image-button-response","trial_index":75,"time_elapsed":702190,"internal_node_id":"0.0-4.0-0.32","subject_id":"60219a0f9a69921c5bd2bf3e","study_id":"6197b3f67c2b5cd3b6d9596a","session_id":"6197b7e366b27ec7ffa8fed5","condition":"full-information","relevant_dimensions":["antennae","wings"],"bee_group":{"antennae":"A","wings":"2","pattern":"X","legs":"X"},"action":"harvest","summary":"good-harvest","bonus":1.420000000000001},{"rt":760.4000000059605,"stimulus":"\n                    <p><b>Action: <em>harvest</em></b></p>\n                    <p>This is the bee that you just saw.</p>\n                    <img src=\"bees-with-color/bee-B1SF.svg\" width=\"200\">\n                    <p><span class=\"greenText\"><b>Successful harvest!</b></span><br>Your pay has increased by $0.02. Your bonus pay is now $0.74.</p>\n            ","response":0,"trial_type":"html-button-response","trial_index":76,"time_elapsed":702954,"internal_node_id":"0.0-4.0-1.32","subject_id":"60219a0f9a69921c5bd2bf3e","study_id":"6197b3f67c2b5cd3b6d9596a","session_id":"6197b7e366b27ec7ffa8fed5","condition":"full-information","relevant_dimensions":["antennae","wings"],"bee_group":{"antennae":"A","wings":"2","pattern":"X","legs":"X"},"bonus":1.420000000000001},{"rt":28799.90000000596,"stimulus":"bees-with-color/bee-A2SM.svg","response":1,"trial_type":"image-button-response","trial_index":77,"time_elapsed":731757,"internal_node_id":"0.0-4.0-0.33","subject_id":"60219a0f9a69921c5bd2bf3e","study_id":"6197b3f67c2b5cd3b6d9596a","session_id":"6197b7e366b27ec7ffa8fed5","condition":"full-information","relevant_dimensions":["antennae","wings"],"bee_group":{"antennae":"A","wings":"2","pattern":"X","legs":"X"},"action":"avoid","summary":"good-avoid","bonus":1.420000000000001},{"rt":999.5,"stimulus":"\n                    <p><b>Action: <em>avoid</em></b></p>\n                    <p>This is the bee that you just saw.</p>\n                    <img src=\"bees-with-color/bee-A2SM.svg\" width=\"200\">\n                    <p><span class=\"greenText\">Good choice!</span>  This bee would have stung you.<br>Your bonus pay is unchanged, and remains at $0.74.</p>\n            ","response":0,"trial_type":"html-button-response","trial_index":78,"time_elapsed":732760,"internal_node_id":"0.0-4.0-1.33","subject_id":"60219a0f9a69921c5bd2bf3e","study_id":"6197b3f67c2b5cd3b6d9596a","session_id":"6197b7e366b27ec7ffa8fed5","condition":"full-information","relevant_dimensions":["antennae","wings"],"bee_group":{"antennae":"A","wings":"2","pattern":"X","legs":"X"},"bonus":1.420000000000001},{"rt":1174.800000011921,"stimulus":"bees-with-color/bee-A2SF.svg","response":0,"trial_type":"image-button-response","trial_index":79,"time_elapsed":733940,"internal_node_id":"0.0-4.0-0.34","subject_id":"60219a0f9a69921c5bd2bf3e","study_id":"6197b3f67c2b5cd3b6d9596a","session_id":"6197b7e366b27ec7ffa8fed5","condition":"full-information","relevant_dimensions":["antennae","wings"],"bee_group":{"antennae":"A","wings":"2","pattern":"X","legs":"X"},"action":"harvest","summary":"bad-harvest","bonus":1.420000000000001},{"rt":1569.699999988079,"stimulus":"\n                    <p><b>Action: <em>harvest</em></b></p>\n                    <p>This is the bee that you just saw.</p>\n                    <img src=\"bees-with-color/bee-A2SF.svg\" width=\"200\">\n                    <p><span class=\"redText\">Bad choice, the bee was angry.</span><br><b>You have been stung!</b><br>Your pay has been decreased by $0.10. Your bonus pay is now $0.64.</p>\n            ","response":0,"trial_type":"html-button-response","trial_index":80,"time_elapsed":735513,"internal_node_id":"0.0-4.0-1.34","subject_id":"60219a0f9a69921c5bd2bf3e","study_id":"6197b3f67c2b5cd3b6d9596a","session_id":"6197b7e366b27ec7ffa8fed5","condition":"full-information","relevant_dimensions":["antennae","wings"],"bee_group":{"antennae":"A","wings":"2","pattern":"X","legs":"X"},"bonus":1.420000000000001},{"rt":738,"stimulus":"bees-with-color/bee-B2DF.svg","response":0,"trial_type":"image-button-response","trial_index":81,"time_elapsed":736260,"internal_node_id":"0.0-4.0-0.35","subject_id":"60219a0f9a69921c5bd2bf3e","study_id":"6197b3f67c2b5cd3b6d9596a","session_id":"6197b7e366b27ec7ffa8fed5","condition":"full-information","relevant_dimensions":["antennae","wings"],"bee_group":{"antennae":"A","wings":"2","pattern":"X","legs":"X"},"action":"harvest","summary":"good-harvest","bonus":1.420000000000001},{"rt":717.5999999940395,"stimulus":"\n                    <p><b>Action: <em>harvest</em></b></p>\n                    <p>This is the bee that you just saw.</p>\n                    <img src=\"bees-with-color/bee-B2DF.svg\" width=\"200\">\n                    <p><span class=\"greenText\"><b>Successful harvest!</b></span><br>Your pay has increased by $0.02. Your bonus pay is now $0.66.</p>\n            ","response":0,"trial_type":"html-button-response","trial_index":82,"time_elapsed":736981,"internal_node_id":"0.0-4.0-1.35","subject_id":"60219a0f9a69921c5bd2bf3e","study_id":"6197b3f67c2b5cd3b6d9596a","session_id":"6197b7e366b27ec7ffa8fed5","condition":"full-information","relevant_dimensions":["antennae","wings"],"bee_group":{"antennae":"A","wings":"2","pattern":"X","legs":"X"},"bonus":1.420000000000001},{"rt":1623.2999999970198,"stimulus":"bees-with-color/bee-A1SM.svg","response":0,"trial_type":"image-button-response","trial_index":83,"time_elapsed":738607,"internal_node_id":"0.0-4.0-0.36","subject_id":"60219a0f9a69921c5bd2bf3e","study_id":"6197b3f67c2b5cd3b6d9596a","session_id":"6197b7e366b27ec7ffa8fed5","condition":"full-information","relevant_dimensions":["antennae","wings"],"bee_group":{"antennae":"A","wings":"2","pattern":"X","legs":"X"},"action":"harvest","summary":"good-harvest","bonus":1.420000000000001},{"rt":655.7000000029802,"stimulus":"\n                    <p><b>Action: <em>harvest</em></b></p>\n                    <p>This is the bee that you just saw.</p>\n                    <img src=\"bees-with-color/bee-A1SM.svg\" width=\"200\">\n                    <p><span class=\"greenText\"><b>Successful harvest!</b></span><br>Your pay has increased by $0.02. Your bonus pay is now $0.68.</p>\n            ","response":0,"trial_type":"html-button-response","trial_index":84,"time_elapsed":739267,"internal_node_id":"0.0-4.0-1.36","subject_id":"60219a0f9a69921c5bd2bf3e","study_id":"6197b3f67c2b5cd3b6d9596a","session_id":"6197b7e366b27ec7ffa8fed5","condition":"full-information","relevant_dimensions":["antennae","wings"],"bee_group":{"antennae":"A","wings":"2","pattern":"X","legs":"X"},"bonus":1.420000000000001},{"rt":1067,"stimulus":"bees-with-color/bee-A1SF.svg","response":0,"trial_type":"image-button-response","trial_index":85,"time_elapsed":740337,"internal_node_id":"0.0-4.0-0.37","subject_id":"60219a0f9a69921c5bd2bf3e","study_id":"6197b3f67c2b5cd3b6d9596a","session_id":"6197b7e366b27ec7ffa8fed5","condition":"full-information","relevant_dimensions":["antennae","wings"],"bee_group":{"antennae":"A","wings":"2","pattern":"X","legs":"X"},"action":"harvest","summary":"good-harvest","bonus":1.420000000000001},{"rt":719.0999999940395,"stimulus":"\n                    <p><b>Action: <em>harvest</em></b></p>\n                    <p>This is the bee that you just saw.</p>\n                    <img src=\"bees-with-color/bee-A1SF.svg\" width=\"200\">\n                    <p><span class=\"greenText\"><b>Successful harvest!</b></span><br>Your pay has increased by $0.02. Your bonus pay is now $0.70.</p>\n            ","response":0,"trial_type":"html-button-response","trial_index":86,"time_elapsed":741060,"internal_node_id":"0.0-4.0-1.37","subject_id":"60219a0f9a69921c5bd2bf3e","study_id":"6197b3f67c2b5cd3b6d9596a","session_id":"6197b7e366b27ec7ffa8fed5","condition":"full-information","relevant_dimensions":["antennae","wings"],"bee_group":{"antennae":"A","wings":"2","pattern":"X","legs":"X"},"bonus":1.420000000000001},{"rt":1395.0999999940395,"stimulus":"bees-with-color/bee-B1SM.svg","response":0,"trial_type":"image-button-response","trial_index":87,"time_elapsed":742459,"internal_node_id":"0.0-4.0-0.38","subject_id":"60219a0f9a69921c5bd2bf3e","study_id":"6197b3f67c2b5cd3b6d9596a","session_id":"6197b7e366b27ec7ffa8fed5","condition":"full-information","relevant_dimensions":["antennae","wings"],"bee_group":{"antennae":"A","wings":"2","pattern":"X","legs":"X"},"action":"harvest","summary":"good-harvest","bonus":1.420000000000001},{"rt":797.5,"stimulus":"\n                    <p><b>Action: <em>harvest</em></b></p>\n                    <p>This is the bee that you just saw.</p>\n                    <img src=\"bees-with-color/bee-B1SM.svg\" width=\"200\">\n                    <p><span class=\"greenText\"><b>Successful harvest!</b></span><br>Your pay has increased by $0.02. Your bonus pay is now $0.72.</p>\n            ","response":0,"trial_type":"html-button-response","trial_index":88,"time_elapsed":743260,"internal_node_id":"0.0-4.0-1.38","subject_id":"60219a0f9a69921c5bd2bf3e","study_id":"6197b3f67c2b5cd3b6d9596a","session_id":"6197b7e366b27ec7ffa8fed5","condition":"full-information","relevant_dimensions":["antennae","wings"],"bee_group":{"antennae":"A","wings":"2","pattern":"X","legs":"X"},"bonus":1.420000000000001},{"rt":1153,"stimulus":"bees-with-color/bee-A1DM.svg","response":1,"trial_type":"image-button-response","trial_index":89,"time_elapsed":744415,"internal_node_id":"0.0-4.0-0.39","subject_id":"60219a0f9a69921c5bd2bf3e","study_id":"6197b3f67c2b5cd3b6d9596a","session_id":"6197b7e366b27ec7ffa8fed5","condition":"full-information","relevant_dimensions":["antennae","wings"],"bee_group":{"antennae":"A","wings":"2","pattern":"X","legs":"X"},"action":"avoid","summary":"bad-avoid","bonus":1.420000000000001},{"rt":662.3999999910593,"stimulus":"\n                    <p><b>Action: <em>avoid</em></b></p>\n                    <p>This is the bee that you just saw.</p>\n                    <img src=\"bees-with-color/bee-A1DM.svg\" width=\"200\">\n                    <p><span class=\"redText\">Bad choice,</span> the bee was friendly.<br>Your bonus pay is unchanged, and remains at $0.72.</p>\n            ","response":0,"trial_type":"html-button-response","trial_index":90,"time_elapsed":745080,"internal_node_id":"0.0-4.0-1.39","subject_id":"60219a0f9a69921c5bd2bf3e","study_id":"6197b3f67c2b5cd3b6d9596a","session_id":"6197b7e366b27ec7ffa8fed5","condition":"full-information","relevant_dimensions":["antennae","wings"],"bee_group":{"antennae":"A","wings":"2","pattern":"X","legs":"X"},"bonus":1.420000000000001},{"rt":1130.4000000059605,"stimulus":"bees-with-color/bee-B1DF.svg","response":0,"trial_type":"image-button-response","trial_index":91,"time_elapsed":746213,"internal_node_id":"0.0-4.0-0.40","subject_id":"60219a0f9a69921c5bd2bf3e","study_id":"6197b3f67c2b5cd3b6d9596a","session_id":"6197b7e366b27ec7ffa8fed5","condition":"full-information","relevant_dimensions":["antennae","wings"],"bee_group":{"antennae":"A","wings":"2","pattern":"X","legs":"X"},"action":"harvest","summary":"good-harvest","bonus":1.420000000000001},{"rt":608,"stimulus":"\n                    <p><b>Action: <em>harvest</em></b></p>\n                    <p>This is the bee that you just saw.</p>\n                    <img src=\"bees-with-color/bee-B1DF.svg\" width=\"200\">\n                    <p><span class=\"greenText\"><b>Successful harvest!</b></span><br>Your pay has increased by $0.02. Your bonus pay is now $0.74.</p>\n            ","response":0,"trial_type":"html-button-response","trial_index":92,"time_elapsed":746824,"internal_node_id":"0.0-4.0-1.40","subject_id":"60219a0f9a69921c5bd2bf3e","study_id":"6197b3f67c2b5cd3b6d9596a","session_id":"6197b7e366b27ec7ffa8fed5","condition":"full-information","relevant_dimensions":["antennae","wings"],"bee_group":{"antennae":"A","wings":"2","pattern":"X","legs":"X"},"bonus":1.420000000000001},{"rt":2180.5999999940395,"stimulus":"bees-with-color/bee-A1DF.svg","response":0,"trial_type":"image-button-response","trial_index":93,"time_elapsed":749008,"internal_node_id":"0.0-4.0-0.41","subject_id":"60219a0f9a69921c5bd2bf3e","study_id":"6197b3f67c2b5cd3b6d9596a","session_id":"6197b7e366b27ec7ffa8fed5","condition":"full-information","relevant_dimensions":["antennae","wings"],"bee_group":{"antennae":"A","wings":"2","pattern":"X","legs":"X"},"action":"harvest","summary":"good-harvest","bonus":1.420000000000001},{"rt":620.5,"stimulus":"\n                    <p><b>Action: <em>harvest</em></b></p>\n                    <p>This is the bee that you just saw.</p>\n                    <img src=\"bees-with-color/bee-A1DF.svg\" width=\"200\">\n                    <p><span class=\"greenText\"><b>Successful harvest!</b></span><br>Your pay has increased by $0.02. Your bonus pay is now $0.76.</p>\n            ","response":0,"trial_type":"html-button-response","trial_index":94,"time_elapsed":749632,"internal_node_id":"0.0-4.0-1.41","subject_id":"60219a0f9a69921c5bd2bf3e","study_id":"6197b3f67c2b5cd3b6d9596a","session_id":"6197b7e366b27ec7ffa8fed5","condition":"full-information","relevant_dimensions":["antennae","wings"],"bee_group":{"antennae":"A","wings":"2","pattern":"X","legs":"X"},"bonus":1.420000000000001},{"rt":1392.7000000029802,"stimulus":"bees-with-color/bee-B2DM.svg","response":1,"trial_type":"image-button-response","trial_index":95,"time_elapsed":751027,"internal_node_id":"0.0-4.0-0.42","subject_id":"60219a0f9a69921c5bd2bf3e","study_id":"6197b3f67c2b5cd3b6d9596a","session_id":"6197b7e366b27ec7ffa8fed5","condition":"full-information","relevant_dimensions":["antennae","wings"],"bee_group":{"antennae":"A","wings":"2","pattern":"X","legs":"X"},"action":"avoid","summary":"bad-avoid","bonus":1.420000000000001},{"rt":949.5999999940395,"stimulus":"\n                    <p><b>Action: <em>avoid</em></b></p>\n                    <p>This is the bee that you just saw.</p>\n                    <img src=\"bees-with-color/bee-B2DM.svg\" width=\"200\">\n                    <p><span class=\"redText\">Bad choice,</span> the bee was friendly.<br>Your bonus pay is unchanged, and remains at $0.76.</p>\n            ","response":0,"trial_type":"html-button-response","trial_index":96,"time_elapsed":751980,"internal_node_id":"0.0-4.0-1.42","subject_id":"60219a0f9a69921c5bd2bf3e","study_id":"6197b3f67c2b5cd3b6d9596a","session_id":"6197b7e366b27ec7ffa8fed5","condition":"full-information","relevant_dimensions":["antennae","wings"],"bee_group":{"antennae":"A","wings":"2","pattern":"X","legs":"X"},"bonus":1.420000000000001},{"rt":1136.2000000029802,"stimulus":"bees-with-color/bee-B2SF.svg","response":1,"trial_type":"image-button-response","trial_index":97,"time_elapsed":753120,"internal_node_id":"0.0-4.0-0.43","subject_id":"60219a0f9a69921c5bd2bf3e","study_id":"6197b3f67c2b5cd3b6d9596a","session_id":"6197b7e366b27ec7ffa8fed5","condition":"full-information","relevant_dimensions":["antennae","wings"],"bee_group":{"antennae":"A","wings":"2","pattern":"X","legs":"X"},"action":"avoid","summary":"bad-avoid","bonus":1.420000000000001},{"rt":682.2999999970198,"stimulus":"\n                    <p><b>Action: <em>avoid</em></b></p>\n                    <p>This is the bee that you just saw.</p>\n                    <img src=\"bees-with-color/bee-B2SF.svg\" width=\"200\">\n                    <p><span class=\"redText\">Bad choice,</span> the bee was friendly.<br>Your bonus pay is unchanged, and remains at $0.76.</p>\n            ","response":0,"trial_type":"html-button-response","trial_index":98,"time_elapsed":753805,"internal_node_id":"0.0-4.0-1.43","subject_id":"60219a0f9a69921c5bd2bf3e","study_id":"6197b3f67c2b5cd3b6d9596a","session_id":"6197b7e366b27ec7ffa8fed5","condition":"full-information","relevant_dimensions":["antennae","wings"],"bee_group":{"antennae":"A","wings":"2","pattern":"X","legs":"X"},"bonus":1.420000000000001},{"rt":683.8000000119209,"stimulus":"bees-with-color/bee-B1DM.svg","response":1,"trial_type":"image-button-response","trial_index":99,"time_elapsed":754493,"internal_node_id":"0.0-4.0-0.44","subject_id":"60219a0f9a69921c5bd2bf3e","study_id":"6197b3f67c2b5cd3b6d9596a","session_id":"6197b7e366b27ec7ffa8fed5","condition":"full-information","relevant_dimensions":["antennae","wings"],"bee_group":{"antennae":"A","wings":"2","pattern":"X","legs":"X"},"action":"avoid","summary":"bad-avoid","bonus":1.420000000000001},{"rt":634.7999999970198,"stimulus":"\n                    <p><b>Action: <em>avoid</em></b></p>\n                    <p>This is the bee that you just saw.</p>\n                    <img src=\"bees-with-color/bee-B1DM.svg\" width=\"200\">\n                    <p><span class=\"redText\">Bad choice,</span> the bee was friendly.<br>Your bonus pay is unchanged, and remains at $0.76.</p>\n            ","response":0,"trial_type":"html-button-response","trial_index":100,"time_elapsed":755131,"internal_node_id":"0.0-4.0-1.44","subject_id":"60219a0f9a69921c5bd2bf3e","study_id":"6197b3f67c2b5cd3b6d9596a","session_id":"6197b7e366b27ec7ffa8fed5","condition":"full-information","relevant_dimensions":["antennae","wings"],"bee_group":{"antennae":"A","wings":"2","pattern":"X","legs":"X"},"bonus":1.420000000000001},{"rt":1185.300000011921,"stimulus":"bees-with-color/bee-A2DM.svg","response":1,"trial_type":"image-button-response","trial_index":101,"time_elapsed":756319,"internal_node_id":"0.0-4.0-0.45","subject_id":"60219a0f9a69921c5bd2bf3e","study_id":"6197b3f67c2b5cd3b6d9596a","session_id":"6197b7e366b27ec7ffa8fed5","condition":"full-information","relevant_dimensions":["antennae","wings"],"bee_group":{"antennae":"A","wings":"2","pattern":"X","legs":"X"},"action":"avoid","summary":"good-avoid","bonus":1.420000000000001},{"rt":1622.199999988079,"stimulus":"\n                    <p><b>Action: <em>avoid</em></b></p>\n                    <p>This is the bee that you just saw.</p>\n                    <img src=\"bees-with-color/bee-A2DM.svg\" width=\"200\">\n                    <p><span class=\"greenText\">Good choice!</span>  This bee would have stung you.<br>Your bonus pay is unchanged, and remains at $0.76.</p>\n            ","response":0,"trial_type":"html-button-response","trial_index":102,"time_elapsed":757946,"internal_node_id":"0.0-4.0-1.45","subject_id":"60219a0f9a69921c5bd2bf3e","study_id":"6197b3f67c2b5cd3b6d9596a","session_id":"6197b7e366b27ec7ffa8fed5","condition":"full-information","relevant_dimensions":["antennae","wings"],"bee_group":{"antennae":"A","wings":"2","pattern":"X","legs":"X"},"bonus":1.420000000000001},{"rt":1143.2000000029802,"stimulus":"bees-with-color/bee-A2DF.svg","response":1,"trial_type":"image-button-response","trial_index":103,"time_elapsed":759093,"internal_node_id":"0.0-4.0-0.46","subject_id":"60219a0f9a69921c5bd2bf3e","study_id":"6197b3f67c2b5cd3b6d9596a","session_id":"6197b7e366b27ec7ffa8fed5","condition":"full-information","relevant_dimensions":["antennae","wings"],"bee_group":{"antennae":"A","wings":"2","pattern":"X","legs":"X"},"action":"avoid","summary":"good-avoid","bonus":1.420000000000001},{"rt":667.3999999910593,"stimulus":"\n                    <p><b>Action: <em>avoid</em></b></p>\n                    <p>This is the bee that you just saw.</p>\n                    <img src=\"bees-with-color/bee-A2DF.svg\" width=\"200\">\n                    <p><span class=\"greenText\">Good choice!</span>  This bee would have stung you.<br>Your bonus pay is unchanged, and remains at $0.76.</p>\n            ","response":0,"trial_type":"html-button-response","trial_index":104,"time_elapsed":759765,"internal_node_id":"0.0-4.0-1.46","subject_id":"60219a0f9a69921c5bd2bf3e","study_id":"6197b3f67c2b5cd3b6d9596a","session_id":"6197b7e366b27ec7ffa8fed5","condition":"full-information","relevant_dimensions":["antennae","wings"],"bee_group":{"antennae":"A","wings":"2","pattern":"X","legs":"X"},"bonus":1.420000000000001},{"rt":2990.5,"stimulus":"bees-with-color/bee-B2SM.svg","response":0,"trial_type":"image-button-response","trial_index":105,"time_elapsed":762759,"internal_node_id":"0.0-4.0-0.47","subject_id":"60219a0f9a69921c5bd2bf3e","study_id":"6197b3f67c2b5cd3b6d9596a","session_id":"6197b7e366b27ec7ffa8fed5","condition":"full-information","relevant_dimensions":["antennae","wings"],"bee_group":{"antennae":"A","wings":"2","pattern":"X","legs":"X"},"action":"harvest","summary":"good-harvest","bonus":1.420000000000001},{"rt":826.4000000059605,"stimulus":"\n                    <p><b>Action: <em>harvest</em></b></p>\n                    <p>This is the bee that you just saw.</p>\n                    <img src=\"bees-with-color/bee-B2SM.svg\" width=\"200\">\n                    <p><span class=\"greenText\"><b>Successful harvest!</b></span><br>Your pay has increased by $0.02. Your bonus pay is now $0.78.</p>\n            ","response":0,"trial_type":"html-button-response","trial_index":106,"time_elapsed":763589,"internal_node_id":"0.0-4.0-1.47","subject_id":"60219a0f9a69921c5bd2bf3e","study_id":"6197b3f67c2b5cd3b6d9596a","session_id":"6197b7e366b27ec7ffa8fed5","condition":"full-information","relevant_dimensions":["antennae","wings"],"bee_group":{"antennae":"A","wings":"2","pattern":"X","legs":"X"},"bonus":1.420000000000001},{"rt":1375.5,"stimulus":"bees-with-color/bee-B1DF.svg","response":0,"trial_type":"image-button-response","trial_index":107,"time_elapsed":764969,"internal_node_id":"0.0-4.0-0.48","subject_id":"60219a0f9a69921c5bd2bf3e","study_id":"6197b3f67c2b5cd3b6d9596a","session_id":"6197b7e366b27ec7ffa8fed5","condition":"full-information","relevant_dimensions":["antennae","wings"],"bee_group":{"antennae":"A","wings":"2","pattern":"X","legs":"X"},"action":"harvest","summary":"good-harvest","bonus":1.420000000000001},{"rt":737.2999999970198,"stimulus":"\n                    <p><b>Action: <em>harvest</em></b></p>\n                    <p>This is the bee that you just saw.</p>\n                    <img src=\"bees-with-color/bee-B1DF.svg\" width=\"200\">\n                    <p><span class=\"greenText\"><b>Successful harvest!</b></span><br>Your pay has increased by $0.02. Your bonus pay is now $0.80.</p>\n            ","response":0,"trial_type":"html-button-response","trial_index":108,"time_elapsed":765710,"internal_node_id":"0.0-4.0-1.48","subject_id":"60219a0f9a69921c5bd2bf3e","study_id":"6197b3f67c2b5cd3b6d9596a","session_id":"6197b7e366b27ec7ffa8fed5","condition":"full-information","relevant_dimensions":["antennae","wings"],"bee_group":{"antennae":"A","wings":"2","pattern":"X","legs":"X"},"bonus":1.420000000000001},{"rt":2874.1000000089407,"stimulus":"bees-with-color/bee-B1DM.svg","response":0,"trial_type":"image-button-response","trial_index":109,"time_elapsed":768588,"internal_node_id":"0.0-4.0-0.49","subject_id":"60219a0f9a69921c5bd2bf3e","study_id":"6197b3f67c2b5cd3b6d9596a","session_id":"6197b7e366b27ec7ffa8fed5","condition":"full-information","relevant_dimensions":["antennae","wings"],"bee_group":{"antennae":"A","wings":"2","pattern":"X","legs":"X"},"action":"harvest","summary":"good-harvest","bonus":1.420000000000001},{"rt":749.5,"stimulus":"\n                    <p><b>Action: <em>harvest</em></b></p>\n                    <p>This is the bee that you just saw.</p>\n                    <img src=\"bees-with-color/bee-B1DM.svg\" width=\"200\">\n                    <p><span class=\"greenText\"><b>Successful harvest!</b></span><br>Your pay has increased by $0.02. Your bonus pay is now $0.82.</p>\n            ","response":0,"trial_type":"html-button-response","trial_index":110,"time_elapsed":769342,"internal_node_id":"0.0-4.0-1.49","subject_id":"60219a0f9a69921c5bd2bf3e","study_id":"6197b3f67c2b5cd3b6d9596a","session_id":"6197b7e366b27ec7ffa8fed5","condition":"full-information","relevant_dimensions":["antennae","wings"],"bee_group":{"antennae":"A","wings":"2","pattern":"X","legs":"X"},"bonus":1.420000000000001},{"rt":839.5,"stimulus":"bees-with-color/bee-B2DM.svg","response":0,"trial_type":"image-button-response","trial_index":111,"time_elapsed":770188,"internal_node_id":"0.0-4.0-0.50","subject_id":"60219a0f9a69921c5bd2bf3e","study_id":"6197b3f67c2b5cd3b6d9596a","session_id":"6197b7e366b27ec7ffa8fed5","condition":"full-information","relevant_dimensions":["antennae","wings"],"bee_group":{"antennae":"A","wings":"2","pattern":"X","legs":"X"},"action":"harvest","summary":"good-harvest","bonus":1.420000000000001},{"rt":703.7000000029802,"stimulus":"\n                    <p><b>Action: <em>harvest</em></b></p>\n                    <p>This is the bee that you just saw.</p>\n                    <img src=\"bees-with-color/bee-B2DM.svg\" width=\"200\">\n                    <p><span class=\"greenText\"><b>Successful harvest!</b></span><br>Your pay has increased by $0.02. Your bonus pay is now $0.84.</p>\n            ","response":0,"trial_type":"html-button-response","trial_index":112,"time_elapsed":770896,"internal_node_id":"0.0-4.0-1.50","subject_id":"60219a0f9a69921c5bd2bf3e","study_id":"6197b3f67c2b5cd3b6d9596a","session_id":"6197b7e366b27ec7ffa8fed5","condition":"full-information","relevant_dimensions":["antennae","wings"],"bee_group":{"antennae":"A","wings":"2","pattern":"X","legs":"X"},"bonus":1.420000000000001},{"rt":949,"stimulus":"bees-with-color/bee-A2SM.svg","response":1,"trial_type":"image-button-response","trial_index":113,"time_elapsed":771849,"internal_node_id":"0.0-4.0-0.51","subject_id":"60219a0f9a69921c5bd2bf3e","study_id":"6197b3f67c2b5cd3b6d9596a","session_id":"6197b7e366b27ec7ffa8fed5","condition":"full-information","relevant_dimensions":["antennae","wings"],"bee_group":{"antennae":"A","wings":"2","pattern":"X","legs":"X"},"action":"avoid","summary":"good-avoid","bonus":1.420000000000001},{"rt":1128.9000000059605,"stimulus":"\n                    <p><b>Action: <em>avoid</em></b></p>\n                    <p>This is the bee that you just saw.</p>\n                    <img src=\"bees-with-color/bee-A2SM.svg\" width=\"200\">\n                    <p><span class=\"greenText\">Good choice!</span>  This bee would have stung you.<br>Your bonus pay is unchanged, and remains at $0.84.</p>\n            ","response":0,"trial_type":"html-button-response","trial_index":114,"time_elapsed":772982,"internal_node_id":"0.0-4.0-1.51","subject_id":"60219a0f9a69921c5bd2bf3e","study_id":"6197b3f67c2b5cd3b6d9596a","session_id":"6197b7e366b27ec7ffa8fed5","condition":"full-information","relevant_dimensions":["antennae","wings"],"bee_group":{"antennae":"A","wings":"2","pattern":"X","legs":"X"},"bonus":1.420000000000001},{"rt":2470,"stimulus":"bees-with-color/bee-A1DM.svg","response":1,"trial_type":"image-button-response","trial_index":115,"time_elapsed":775456,"internal_node_id":"0.0-4.0-0.52","subject_id":"60219a0f9a69921c5bd2bf3e","study_id":"6197b3f67c2b5cd3b6d9596a","session_id":"6197b7e366b27ec7ffa8fed5","condition":"full-information","relevant_dimensions":["antennae","wings"],"bee_group":{"antennae":"A","wings":"2","pattern":"X","legs":"X"},"action":"avoid","summary":"bad-avoid","bonus":1.420000000000001},{"rt":695.4000000059605,"stimulus":"\n                    <p><b>Action: <em>avoid</em></b></p>\n                    <p>This is the bee that you just saw.</p>\n                    <img src=\"bees-with-color/bee-A1DM.svg\" width=\"200\">\n                    <p><span class=\"redText\">Bad choice,</span> the bee was friendly.<br>Your bonus pay is unchanged, and remains at $0.84.</p>\n            ","response":0,"trial_type":"html-button-response","trial_index":116,"time_elapsed":776156,"internal_node_id":"0.0-4.0-1.52","subject_id":"60219a0f9a69921c5bd2bf3e","study_id":"6197b3f67c2b5cd3b6d9596a","session_id":"6197b7e366b27ec7ffa8fed5","condition":"full-information","relevant_dimensions":["antennae","wings"],"bee_group":{"antennae":"A","wings":"2","pattern":"X","legs":"X"},"bonus":1.420000000000001},{"rt":840.2999999970198,"stimulus":"bees-with-color/bee-B2DF.svg","response":0,"trial_type":"image-button-response","trial_index":117,"time_elapsed":777000,"internal_node_id":"0.0-4.0-0.53","subject_id":"60219a0f9a69921c5bd2bf3e","study_id":"6197b3f67c2b5cd3b6d9596a","session_id":"6197b7e366b27ec7ffa8fed5","condition":"full-information","relevant_dimensions":["antennae","wings"],"bee_group":{"antennae":"A","wings":"2","pattern":"X","legs":"X"},"action":"harvest","summary":"good-harvest","bonus":1.420000000000001},{"rt":771.2000000029802,"stimulus":"\n                    <p><b>Action: <em>harvest</em></b></p>\n                    <p>This is the bee that you just saw.</p>\n                    <img src=\"bees-with-color/bee-B2DF.svg\" width=\"200\">\n                    <p><span class=\"greenText\"><b>Successful harvest!</b></span><br>Your pay has increased by $0.02. Your bonus pay is now $0.86.</p>\n            ","response":0,"trial_type":"html-button-response","trial_index":118,"time_elapsed":777776,"internal_node_id":"0.0-4.0-1.53","subject_id":"60219a0f9a69921c5bd2bf3e","study_id":"6197b3f67c2b5cd3b6d9596a","session_id":"6197b7e366b27ec7ffa8fed5","condition":"full-information","relevant_dimensions":["antennae","wings"],"bee_group":{"antennae":"A","wings":"2","pattern":"X","legs":"X"},"bonus":1.420000000000001},{"rt":18087.70000000298,"stimulus":"bees-with-color/bee-B2SF.svg","response":1,"trial_type":"image-button-response","trial_index":119,"time_elapsed":795868,"internal_node_id":"0.0-4.0-0.54","subject_id":"60219a0f9a69921c5bd2bf3e","study_id":"6197b3f67c2b5cd3b6d9596a","session_id":"6197b7e366b27ec7ffa8fed5","condition":"full-information","relevant_dimensions":["antennae","wings"],"bee_group":{"antennae":"A","wings":"2","pattern":"X","legs":"X"},"action":"avoid","summary":"bad-avoid","bonus":1.420000000000001},{"rt":1164.9000000059605,"stimulus":"\n                    <p><b>Action: <em>avoid</em></b></p>\n                    <p>This is the bee that you just saw.</p>\n                    <img src=\"bees-with-color/bee-B2SF.svg\" width=\"200\">\n                    <p><span class=\"redText\">Bad choice,</span> the bee was friendly.<br>Your bonus pay is unchanged, and remains at $0.86.</p>\n            ","response":0,"trial_type":"html-button-response","trial_index":120,"time_elapsed":797036,"internal_node_id":"0.0-4.0-1.54","subject_id":"60219a0f9a69921c5bd2bf3e","study_id":"6197b3f67c2b5cd3b6d9596a","session_id":"6197b7e366b27ec7ffa8fed5","condition":"full-information","relevant_dimensions":["antennae","wings"],"bee_group":{"antennae":"A","wings":"2","pattern":"X","legs":"X"},"bonus":1.420000000000001},{"rt":1566.2000000029802,"stimulus":"bees-with-color/bee-A2DF.svg","response":1,"trial_type":"image-button-response","trial_index":121,"time_elapsed":798607,"internal_node_id":"0.0-4.0-0.55","subject_id":"60219a0f9a69921c5bd2bf3e","study_id":"6197b3f67c2b5cd3b6d9596a","session_id":"6197b7e366b27ec7ffa8fed5","condition":"full-information","relevant_dimensions":["antennae","wings"],"bee_group":{"antennae":"A","wings":"2","pattern":"X","legs":"X"},"action":"avoid","summary":"good-avoid","bonus":1.420000000000001},{"rt":655.7999999970198,"stimulus":"\n                    <p><b>Action: <em>avoid</em></b></p>\n                    <p>This is the bee that you just saw.</p>\n                    <img src=\"bees-with-color/bee-A2DF.svg\" width=\"200\">\n                    <p><span class=\"greenText\">Good choice!</span>  This bee would have stung you.<br>Your bonus pay is unchanged, and remains at $0.86.</p>\n            ","response":0,"trial_type":"html-button-response","trial_index":122,"time_elapsed":799266,"internal_node_id":"0.0-4.0-1.55","subject_id":"60219a0f9a69921c5bd2bf3e","study_id":"6197b3f67c2b5cd3b6d9596a","session_id":"6197b7e366b27ec7ffa8fed5","condition":"full-information","relevant_dimensions":["antennae","wings"],"bee_group":{"antennae":"A","wings":"2","pattern":"X","legs":"X"},"bonus":1.420000000000001},{"rt":1781,"stimulus":"bees-with-color/bee-A2SF.svg","response":1,"trial_type":"image-button-response","trial_index":123,"time_elapsed":801050,"internal_node_id":"0.0-4.0-0.56","subject_id":"60219a0f9a69921c5bd2bf3e","study_id":"6197b3f67c2b5cd3b6d9596a","session_id":"6197b7e366b27ec7ffa8fed5","condition":"full-information","relevant_dimensions":["antennae","wings"],"bee_group":{"antennae":"A","wings":"2","pattern":"X","legs":"X"},"action":"avoid","summary":"good-avoid","bonus":1.420000000000001},{"rt":1164.3999999910593,"stimulus":"\n                    <p><b>Action: <em>avoid</em></b></p>\n                    <p>This is the bee that you just saw.</p>\n                    <img src=\"bees-with-color/bee-A2SF.svg\" width=\"200\">\n                    <p><span class=\"greenText\">Good choice!</span>  This bee would have stung you.<br>Your bonus pay is unchanged, and remains at $0.86.</p>\n            ","response":0,"trial_type":"html-button-response","trial_index":124,"time_elapsed":802218,"internal_node_id":"0.0-4.0-1.56","subject_id":"60219a0f9a69921c5bd2bf3e","study_id":"6197b3f67c2b5cd3b6d9596a","session_id":"6197b7e366b27ec7ffa8fed5","condition":"full-information","relevant_dimensions":["antennae","wings"],"bee_group":{"antennae":"A","wings":"2","pattern":"X","legs":"X"},"bonus":1.420000000000001},{"rt":1054.199999988079,"stimulus":"bees-with-color/bee-B1SF.svg","response":0,"trial_type":"image-button-response","trial_index":125,"time_elapsed":803275,"internal_node_id":"0.0-4.0-0.57","subject_id":"60219a0f9a69921c5bd2bf3e","study_id":"6197b3f67c2b5cd3b6d9596a","session_id":"6197b7e366b27ec7ffa8fed5","condition":"full-information","relevant_dimensions":["antennae","wings"],"bee_group":{"antennae":"A","wings":"2","pattern":"X","legs":"X"},"action":"harvest","summary":"good-harvest","bonus":1.420000000000001},{"rt":669,"stimulus":"\n                    <p><b>Action: <em>harvest</em></b></p>\n                    <p>This is the bee that you just saw.</p>\n                    <img src=\"bees-with-color/bee-B1SF.svg\" width=\"200\">\n                    <p><span class=\"greenText\"><b>Successful harvest!</b></span><br>Your pay has increased by $0.02. Your bonus pay is now $0.88.</p>\n            ","response":0,"trial_type":"html-button-response","trial_index":126,"time_elapsed":803948,"internal_node_id":"0.0-4.0-1.57","subject_id":"60219a0f9a69921c5bd2bf3e","study_id":"6197b3f67c2b5cd3b6d9596a","session_id":"6197b7e366b27ec7ffa8fed5","condition":"full-information","relevant_dimensions":["antennae","wings"],"bee_group":{"antennae":"A","wings":"2","pattern":"X","legs":"X"},"bonus":1.420000000000001},{"rt":1390.5,"stimulus":"bees-with-color/bee-B2SM.svg","response":0,"trial_type":"image-button-response","trial_index":127,"time_elapsed":805341,"internal_node_id":"0.0-4.0-0.58","subject_id":"60219a0f9a69921c5bd2bf3e","study_id":"6197b3f67c2b5cd3b6d9596a","session_id":"6197b7e366b27ec7ffa8fed5","condition":"full-information","relevant_dimensions":["antennae","wings"],"bee_group":{"antennae":"A","wings":"2","pattern":"X","legs":"X"},"action":"harvest","summary":"good-harvest","bonus":1.420000000000001},{"rt":668.9000000059605,"stimulus":"\n                    <p><b>Action: <em>harvest</em></b></p>\n                    <p>This is the bee that you just saw.</p>\n                    <img src=\"bees-with-color/bee-B2SM.svg\" width=\"200\">\n                    <p><span class=\"greenText\"><b>Successful harvest!</b></span><br>Your pay has increased by $0.02. Your bonus pay is now $0.90.</p>\n            ","response":0,"trial_type":"html-button-response","trial_index":128,"time_elapsed":806013,"internal_node_id":"0.0-4.0-1.58","subject_id":"60219a0f9a69921c5bd2bf3e","study_id":"6197b3f67c2b5cd3b6d9596a","session_id":"6197b7e366b27ec7ffa8fed5","condition":"full-information","relevant_dimensions":["antennae","wings"],"bee_group":{"antennae":"A","wings":"2","pattern":"X","legs":"X"},"bonus":1.420000000000001},{"rt":1626.8999999910593,"stimulus":"bees-with-color/bee-B1SM.svg","response":0,"trial_type":"image-button-response","trial_index":129,"time_elapsed":807642,"internal_node_id":"0.0-4.0-0.59","subject_id":"60219a0f9a69921c5bd2bf3e","study_id":"6197b3f67c2b5cd3b6d9596a","session_id":"6197b7e366b27ec7ffa8fed5","condition":"full-information","relevant_dimensions":["antennae","wings"],"bee_group":{"antennae":"A","wings":"2","pattern":"X","legs":"X"},"action":"harvest","summary":"good-harvest","bonus":1.420000000000001},{"rt":923.5,"stimulus":"\n                    <p><b>Action: <em>harvest</em></b></p>\n                    <p>This is the bee that you just saw.</p>\n                    <img src=\"bees-with-color/bee-B1SM.svg\" width=\"200\">\n                    <p><span class=\"greenText\"><b>Successful harvest!</b></span><br>Your pay has increased by $0.02. Your bonus pay is now $0.92.</p>\n            ","response":0,"trial_type":"html-button-response","trial_index":130,"time_elapsed":808568,"internal_node_id":"0.0-4.0-1.59","subject_id":"60219a0f9a69921c5bd2bf3e","study_id":"6197b3f67c2b5cd3b6d9596a","session_id":"6197b7e366b27ec7ffa8fed5","condition":"full-information","relevant_dimensions":["antennae","wings"],"bee_group":{"antennae":"A","wings":"2","pattern":"X","legs":"X"},"bonus":1.420000000000001},{"rt":1142,"stimulus":"bees-with-color/bee-A1DF.svg","response":0,"trial_type":"image-button-response","trial_index":131,"time_elapsed":809713,"internal_node_id":"0.0-4.0-0.60","subject_id":"60219a0f9a69921c5bd2bf3e","study_id":"6197b3f67c2b5cd3b6d9596a","session_id":"6197b7e366b27ec7ffa8fed5","condition":"full-information","relevant_dimensions":["antennae","wings"],"bee_group":{"antennae":"A","wings":"2","pattern":"X","legs":"X"},"action":"harvest","summary":"good-harvest","bonus":1.420000000000001},{"rt":1069.7999999970198,"stimulus":"\n                    <p><b>Action: <em>harvest</em></b></p>\n                    <p>This is the bee that you just saw.</p>\n                    <img src=\"bees-with-color/bee-A1DF.svg\" width=\"200\">\n                    <p><span class=\"greenText\"><b>Successful harvest!</b></span><br>Your pay has increased by $0.02. Your bonus pay is now $0.94.</p>\n            ","response":0,"trial_type":"html-button-response","trial_index":132,"time_elapsed":810786,"internal_node_id":"0.0-4.0-1.60","subject_id":"60219a0f9a69921c5bd2bf3e","study_id":"6197b3f67c2b5cd3b6d9596a","session_id":"6197b7e366b27ec7ffa8fed5","condition":"full-information","relevant_dimensions":["antennae","wings"],"bee_group":{"antennae":"A","wings":"2","pattern":"X","legs":"X"},"bonus":1.420000000000001},{"rt":2401.9000000059605,"stimulus":"bees-with-color/bee-A1SF.svg","response":0,"trial_type":"image-button-response","trial_index":133,"time_elapsed":813191,"internal_node_id":"0.0-4.0-0.61","subject_id":"60219a0f9a69921c5bd2bf3e","study_id":"6197b3f67c2b5cd3b6d9596a","session_id":"6197b7e366b27ec7ffa8fed5","condition":"full-information","relevant_dimensions":["antennae","wings"],"bee_group":{"antennae":"A","wings":"2","pattern":"X","legs":"X"},"action":"harvest","summary":"good-harvest","bonus":1.420000000000001},{"rt":729.5,"stimulus":"\n                    <p><b>Action: <em>harvest</em></b></p>\n                    <p>This is the bee that you just saw.</p>\n                    <img src=\"bees-with-color/bee-A1SF.svg\" width=\"200\">\n                    <p><span class=\"greenText\"><b>Successful harvest!</b></span><br>Your pay has increased by $0.02. Your bonus pay is now $0.96.</p>\n            ","response":0,"trial_type":"html-button-response","trial_index":134,"time_elapsed":813924,"internal_node_id":"0.0-4.0-1.61","subject_id":"60219a0f9a69921c5bd2bf3e","study_id":"6197b3f67c2b5cd3b6d9596a","session_id":"6197b7e366b27ec7ffa8fed5","condition":"full-information","relevant_dimensions":["antennae","wings"],"bee_group":{"antennae":"A","wings":"2","pattern":"X","legs":"X"},"bonus":1.420000000000001},{"rt":1254.5,"stimulus":"bees-with-color/bee-A1SM.svg","response":0,"trial_type":"image-button-response","trial_index":135,"time_elapsed":815182,"internal_node_id":"0.0-4.0-0.62","subject_id":"60219a0f9a69921c5bd2bf3e","study_id":"6197b3f67c2b5cd3b6d9596a","session_id":"6197b7e366b27ec7ffa8fed5","condition":"full-information","relevant_dimensions":["antennae","wings"],"bee_group":{"antennae":"A","wings":"2","pattern":"X","legs":"X"},"action":"harvest","summary":"good-harvest","bonus":1.420000000000001},{"rt":727.5999999940395,"stimulus":"\n                    <p><b>Action: <em>harvest</em></b></p>\n                    <p>This is the bee that you just saw.</p>\n                    <img src=\"bees-with-color/bee-A1SM.svg\" width=\"200\">\n                    <p><span class=\"greenText\"><b>Successful harvest!</b></span><br>Your pay has increased by $0.02. Your bonus pay is now $0.98.</p>\n            ","response":0,"trial_type":"html-button-response","trial_index":136,"time_elapsed":815913,"internal_node_id":"0.0-4.0-1.62","subject_id":"60219a0f9a69921c5bd2bf3e","study_id":"6197b3f67c2b5cd3b6d9596a","session_id":"6197b7e366b27ec7ffa8fed5","condition":"full-information","relevant_dimensions":["antennae","wings"],"bee_group":{"antennae":"A","wings":"2","pattern":"X","legs":"X"},"bonus":1.420000000000001},{"rt":931.0999999940395,"stimulus":"bees-with-color/bee-A2DM.svg","response":1,"trial_type":"image-button-response","trial_index":137,"time_elapsed":816847,"internal_node_id":"0.0-4.0-0.63","subject_id":"60219a0f9a69921c5bd2bf3e","study_id":"6197b3f67c2b5cd3b6d9596a","session_id":"6197b7e366b27ec7ffa8fed5","condition":"full-information","relevant_dimensions":["antennae","wings"],"bee_group":{"antennae":"A","wings":"2","pattern":"X","legs":"X"},"action":"avoid","summary":"good-avoid","bonus":1.420000000000001},{"rt":600.7000000029802,"stimulus":"\n                    <p><b>Action: <em>avoid</em></b></p>\n                    <p>This is the bee that you just saw.</p>\n                    <img src=\"bees-with-color/bee-A2DM.svg\" width=\"200\">\n                    <p><span class=\"greenText\">Good choice!</span>  This bee would have stung you.<br>Your bonus pay is unchanged, and remains at $0.98.</p>\n            ","response":0,"trial_type":"html-button-response","trial_index":138,"time_elapsed":817452,"internal_node_id":"0.0-4.0-1.63","subject_id":"60219a0f9a69921c5bd2bf3e","study_id":"6197b3f67c2b5cd3b6d9596a","session_id":"6197b7e366b27ec7ffa8fed5","condition":"full-information","relevant_dimensions":["antennae","wings"],"bee_group":{"antennae":"A","wings":"2","pattern":"X","legs":"X"},"bonus":1.420000000000001},{"rt":64696,"stimulus":"You have completed the first part of this experiment.<br><br>You will now begin a shorter second part, in which you will receive no feedback.<br>The same rules regarding bonus pay apply.<br><br>Press any key to begin.","response":" ","trial_type":"html-keyboard-response","trial_index":139,"time_elapsed":882151,"internal_node_id":"0.0-5.0","subject_id":"60219a0f9a69921c5bd2bf3e","study_id":"6197b3f67c2b5cd3b6d9596a","session_id":"6197b7e366b27ec7ffa8fed5","condition":"full-information","relevant_dimensions":["antennae","wings"],"bee_group":{"antennae":"A","wings":"2","pattern":"X","legs":"X"},"bonus":1.420000000000001},{"rt":9848.59999999404,"stimulus":"bees-with-color/bee-B2SF.svg","response":0,"trial_type":"image-button-response","trial_index":140,"time_elapsed":892025,"internal_node_id":"0.0-6.0-0.0","subject_id":"60219a0f9a69921c5bd2bf3e","study_id":"6197b3f67c2b5cd3b6d9596a","session_id":"6197b7e366b27ec7ffa8fed5","condition":"full-information","relevant_dimensions":["antennae","wings"],"bee_group":{"antennae":"A","wings":"2","pattern":"X","legs":"X"},"bonus":1.420000000000001},{"rt":4320.29999999702,"stimulus":"bees-with-color/bee-A2SF.svg","response":1,"trial_type":"image-button-response","trial_index":141,"time_elapsed":896350,"internal_node_id":"0.0-6.0-0.1","subject_id":"60219a0f9a69921c5bd2bf3e","study_id":"6197b3f67c2b5cd3b6d9596a","session_id":"6197b7e366b27ec7ffa8fed5","condition":"full-information","relevant_dimensions":["antennae","wings"],"bee_group":{"antennae":"A","wings":"2","pattern":"X","legs":"X"},"bonus":1.420000000000001},{"rt":1462.2000000029802,"stimulus":"bees-with-color/bee-A2DF.svg","response":1,"trial_type":"image-button-response","trial_index":142,"time_elapsed":897819,"internal_node_id":"0.0-6.0-0.2","subject_id":"60219a0f9a69921c5bd2bf3e","study_id":"6197b3f67c2b5cd3b6d9596a","session_id":"6197b7e366b27ec7ffa8fed5","condition":"full-information","relevant_dimensions":["antennae","wings"],"bee_group":{"antennae":"A","wings":"2","pattern":"X","legs":"X"},"bonus":1.420000000000001},{"rt":1190.5,"stimulus":"bees-with-color/bee-A1SF.svg","response":0,"trial_type":"image-button-response","trial_index":143,"time_elapsed":899015,"internal_node_id":"0.0-6.0-0.3","subject_id":"60219a0f9a69921c5bd2bf3e","study_id":"6197b3f67c2b5cd3b6d9596a","session_id":"6197b7e366b27ec7ffa8fed5","condition":"full-information","relevant_dimensions":["antennae","wings"],"bee_group":{"antennae":"A","wings":"2","pattern":"X","legs":"X"},"bonus":1.420000000000001},{"rt":785.3000000119209,"stimulus":"bees-with-color/bee-B1DF.svg","response":0,"trial_type":"image-button-response","trial_index":144,"time_elapsed":899805,"internal_node_id":"0.0-6.0-0.4","subject_id":"60219a0f9a69921c5bd2bf3e","study_id":"6197b3f67c2b5cd3b6d9596a","session_id":"6197b7e366b27ec7ffa8fed5","condition":"full-information","relevant_dimensions":["antennae","wings"],"bee_group":{"antennae":"A","wings":"2","pattern":"X","legs":"X"},"bonus":1.420000000000001},{"rt":1023.5,"stimulus":"bees-with-color/bee-B2DM.svg","response":0,"trial_type":"image-button-response","trial_index":145,"time_elapsed":900835,"internal_node_id":"0.0-6.0-0.5","subject_id":"60219a0f9a69921c5bd2bf3e","study_id":"6197b3f67c2b5cd3b6d9596a","session_id":"6197b7e366b27ec7ffa8fed5","condition":"full-information","relevant_dimensions":["antennae","wings"],"bee_group":{"antennae":"A","wings":"2","pattern":"X","legs":"X"},"bonus":1.420000000000001},{"rt":1497.7999999970198,"stimulus":"bees-with-color/bee-B1SF.svg","response":0,"trial_type":"image-button-response","trial_index":146,"time_elapsed":902338,"internal_node_id":"0.0-6.0-0.6","subject_id":"60219a0f9a69921c5bd2bf3e","study_id":"6197b3f67c2b5cd3b6d9596a","session_id":"6197b7e366b27ec7ffa8fed5","condition":"full-information","relevant_dimensions":["antennae","wings"],"bee_group":{"antennae":"A","wings":"2","pattern":"X","legs":"X"},"bonus":1.420000000000001},{"rt":1037.7000000029802,"stimulus":"bees-with-color/bee-A1SM.svg","response":1,"trial_type":"image-button-response","trial_index":147,"time_elapsed":903382,"internal_node_id":"0.0-6.0-0.7","subject_id":"60219a0f9a69921c5bd2bf3e","study_id":"6197b3f67c2b5cd3b6d9596a","session_id":"6197b7e366b27ec7ffa8fed5","condition":"full-information","relevant_dimensions":["antennae","wings"],"bee_group":{"antennae":"A","wings":"2","pattern":"X","legs":"X"},"bonus":1.420000000000001},{"rt":939.7000000029802,"stimulus":"bees-with-color/bee-A1DM.svg","response":0,"trial_type":"image-button-response","trial_index":148,"time_elapsed":904327,"internal_node_id":"0.0-6.0-0.8","subject_id":"60219a0f9a69921c5bd2bf3e","study_id":"6197b3f67c2b5cd3b6d9596a","session_id":"6197b7e366b27ec7ffa8fed5","condition":"full-information","relevant_dimensions":["antennae","wings"],"bee_group":{"antennae":"A","wings":"2","pattern":"X","legs":"X"},"bonus":1.420000000000001},{"rt":1482.699999988079,"stimulus":"bees-with-color/bee-B2SM.svg","response":0,"trial_type":"image-button-response","trial_index":149,"time_elapsed":905812,"internal_node_id":"0.0-6.0-0.9","subject_id":"60219a0f9a69921c5bd2bf3e","study_id":"6197b3f67c2b5cd3b6d9596a","session_id":"6197b7e366b27ec7ffa8fed5","condition":"full-information","relevant_dimensions":["antennae","wings"],"bee_group":{"antennae":"A","wings":"2","pattern":"X","legs":"X"},"bonus":1.420000000000001},{"rt":1307.7999999970198,"stimulus":"bees-with-color/bee-A1DF.svg","response":0,"trial_type":"image-button-response","trial_index":150,"time_elapsed":907125,"internal_node_id":"0.0-6.0-0.10","subject_id":"60219a0f9a69921c5bd2bf3e","study_id":"6197b3f67c2b5cd3b6d9596a","session_id":"6197b7e366b27ec7ffa8fed5","condition":"full-information","relevant_dimensions":["antennae","wings"],"bee_group":{"antennae":"A","wings":"2","pattern":"X","legs":"X"},"bonus":1.420000000000001},{"rt":949.1000000089407,"stimulus":"bees-with-color/bee-B1SM.svg","response":0,"trial_type":"image-button-response","trial_index":151,"time_elapsed":908079,"internal_node_id":"0.0-6.0-0.11","subject_id":"60219a0f9a69921c5bd2bf3e","study_id":"6197b3f67c2b5cd3b6d9596a","session_id":"6197b7e366b27ec7ffa8fed5","condition":"full-information","relevant_dimensions":["antennae","wings"],"bee_group":{"antennae":"A","wings":"2","pattern":"X","legs":"X"},"bonus":1.420000000000001},{"rt":796.9000000059605,"stimulus":"bees-with-color/bee-A2SM.svg","response":1,"trial_type":"image-button-response","trial_index":152,"time_elapsed":908880,"internal_node_id":"0.0-6.0-0.12","subject_id":"60219a0f9a69921c5bd2bf3e","study_id":"6197b3f67c2b5cd3b6d9596a","session_id":"6197b7e366b27ec7ffa8fed5","condition":"full-information","relevant_dimensions":["antennae","wings"],"bee_group":{"antennae":"A","wings":"2","pattern":"X","legs":"X"},"bonus":1.420000000000001},{"rt":707.2000000029802,"stimulus":"bees-with-color/bee-B1DM.svg","response":0,"trial_type":"image-button-response","trial_index":153,"time_elapsed":909589,"internal_node_id":"0.0-6.0-0.13","subject_id":"60219a0f9a69921c5bd2bf3e","study_id":"6197b3f67c2b5cd3b6d9596a","session_id":"6197b7e366b27ec7ffa8fed5","condition":"full-information","relevant_dimensions":["antennae","wings"],"bee_group":{"antennae":"A","wings":"2","pattern":"X","legs":"X"},"bonus":1.420000000000001},{"rt":853.1000000089407,"stimulus":"bees-with-color/bee-A2DM.svg","response":1,"trial_type":"image-button-response","trial_index":154,"time_elapsed":910448,"internal_node_id":"0.0-6.0-0.14","subject_id":"60219a0f9a69921c5bd2bf3e","study_id":"6197b3f67c2b5cd3b6d9596a","session_id":"6197b7e366b27ec7ffa8fed5","condition":"full-information","relevant_dimensions":["antennae","wings"],"bee_group":{"antennae":"A","wings":"2","pattern":"X","legs":"X"},"bonus":1.420000000000001},{"rt":1072.5999999940395,"stimulus":"bees-with-color/bee-B2DF.svg","response":0,"trial_type":"image-button-response","trial_index":155,"time_elapsed":911526,"internal_node_id":"0.0-6.0-0.15","subject_id":"60219a0f9a69921c5bd2bf3e","study_id":"6197b3f67c2b5cd3b6d9596a","session_id":"6197b7e366b27ec7ffa8fed5","condition":"full-information","relevant_dimensions":["antennae","wings"],"bee_group":{"antennae":"A","wings":"2","pattern":"X","legs":"X"},"bonus":1.420