[{"success":true,"trial_type":"fullscreen","trial_index":0,"time_elapsed":6149,"internal_node_id":"0.0-0.0","subject_id":"6175d16823c9e4175810882e","study_id":"60edd13110225f80f9f3709b","session_id":"6196c4a70a64387375c1e16b","condition":"contingent","relevant_dimensions":["wings","pattern"],"bee_group":{"antennae":"X","wings":"1","pattern":"S","legs":"X"},"bonus":0.04},{"success":true,"timeout":false,"failed_images":[],"failed_audio":[],"failed_video":[],"trial_type":"preload","trial_index":1,"time_elapsed":7831,"internal_node_id":"0.0-1.0","subject_id":"6175d16823c9e4175810882e","study_id":"60edd13110225f80f9f3709b","session_id":"6196c4a70a64387375c1e16b","condition":"contingent","relevant_dimensions":["wings","pattern"],"bee_group":{"antennae":"X","wings":"1","pattern":"S","legs":"X"},"bonus":0.04},{"rt":2279.7999999970198,"stimulus":"Welcome! Press any key to begin.","response":"n","trial_type":"html-keyboard-response","trial_index":2,"time_elapsed":10111,"internal_node_id":"0.0-2.0","subject_id":"6175d16823c9e4175810882e","study_id":"60edd13110225f80f9f3709b","session_id":"6196c4a70a64387375c1e16b","condition":"contingent","relevant_dimensions":["wings","pattern"],"bee_group":{"antennae":"X","wings":"1","pattern":"S","legs":"X"},"bonus":0.04},{"view_history":[{"page_index":0,"viewing_time":4507.5},{"page_index":1,"viewing_time":15207.79999999702},{"page_index":2,"viewing_time":7296.5},{"page_index":3,"viewing_time":13511.5},{"page_index":4,"viewing_time":2760.39999999851},{"page_index":3,"viewing_time":535.3999999985099},{"page_index":2,"viewing_time":10104.10000000149},{"page_index":3,"viewing_time":584.3000000044703},{"page_index":4,"viewing_time":5263.79999999702},{"page_index":5,"viewing_time":3376.2000000029802},{"page_index":6,"viewing_time":6192.39999999851},{"page_index":7,"viewing_time":2863.1999999955297},{"page_index":6,"viewing_time":38512.20000000298},{"page_index":7,"viewing_time":1176.2000000029802},{"page_index":6,"viewing_time":927.8999999985099},{"page_index":7,"viewing_time":2359.89999999851},{"page_index":8,"viewing_time":2639.5},{"page_index":9,"viewing_time":2152.7999999970198},{"page_index":10,"viewing_time":2143.9000000059605},{"page_index":11,"viewing_time":7191.89999999851},{"page_index":12,"viewing_time":18215.60000000149},{"page_index":13,"viewing_time":1088.5},{"page_index":14,"viewing_time":1816.0999999940395}],"rt":150427.8999999985,"trial_type":"instructions","trial_index":3,"time_elapsed":160539,"internal_node_id":"0.0-3.0-0.0","subject_id":"6175d16823c9e4175810882e","study_id":"60edd13110225f80f9f3709b","session_id":"6196c4a70a64387375c1e16b","condition":"contingent","relevant_dimensions":["wings","pattern"],"bee_group":{"antennae":"X","wings":"1","pattern":"S","legs":"X"},"bonus":0.04},{"rt":15986.39999999851,"response":{"Q0":["Two or six legs","Stripes or spots on body","Antennae or no antennae"]},"question_order":[0],"trial_type":"survey-multi-select","trial_index":4,"time_elapsed":176533,"internal_node_id":"0.0-3.0-1.0","subject_id":"6175d16823c9e4175810882e","study_id":"60edd13110225f80f9f3709b","session_id":"6196c4a70a64387375c1e16b","condition":"contingent","relevant_dimensions":["wings","pattern"],"bee_group":{"antennae":"X","wings":"1","pattern":"S","legs":"X"},"correct":false,"bonus":0.04},{"rt":24139.89999999851,"response":{"Q1":"No.","Q2":"Based on the four features of the bee.","Q3":"You do not learn if it was friendly or dangerous, and do not alter your bonus."},"question_order":[0,1,2],"trial_type":"survey-multi-choice","trial_index":5,"time_elapsed":200675,"internal_node_id":"0.0-3.0-2.0","subject_id":"6175d16823c9e4175810882e","study_id":"60edd13110225f80f9f3709b","session_id":"6196c4a70a64387375c1e16b","condition":"contingent","relevant_dimensions":["wings","pattern"],"bee_group":{"antennae":"X","wings":"1","pattern":"S","legs":"X"},"correct":true,"bonus":0.04},{"rt":12183.30000000447,"stimulus":"<p>You did not answer all comprehension questions correctly.<br>Press <b>continue</b> to review the instructions again.</p>","response":0,"trial_type":"html-button-response","trial_index":6,"time_elapsed":212859,"internal_node_id":"0.0-3.0-3.0","subject_id":"6175d16823c9e4175810882e","study_id":"60edd13110225f80f9f3709b","session_id":"6196c4a70a64387375c1e16b","condition":"contingent","relevant_dimensions":["wings","pattern"],"bee_group":{"antennae":"X","wings":"1","pattern":"S","legs":"X"},"bonus":0.04},{"view_history":[{"page_index":0,"viewing_time":1599.1000000014901},{"page_index":1,"viewing_time":831.6999999955297},{"page_index":2,"viewing_time":504},{"page_index":3,"viewing_time":504.30000000447035},{"page_index":4,"viewing_time":415.69999999552965},{"page_index":5,"viewing_time":304.40000000596046},{"page_index":6,"viewing_time":527.5999999940395},{"page_index":7,"viewing_time":2568},{"page_index":8,"viewing_time":2176.3000000044703},{"page_index":9,"viewing_time":2503.6999999955297},{"page_index":10,"viewing_time":1216.1000000014901},{"page_index":11,"viewing_time":1095.8999999985099},{"page_index":12,"viewing_time":1784.2000000029802},{"page_index":13,"viewing_time":703.7000000029802},{"page_index":14,"viewing_time":1864.1999999955297}],"rt":18599.10000000149,"trial_type":"instructions","trial_index":7,"time_elapsed":231459,"internal_node_id":"0.0-3.0-4.0-0.0","subject_id":"6175d16823c9e4175810882e","study_id":"60edd13110225f80f9f3709b","session_id":"6196c4a70a64387375c1e16b","condition":"contingent","relevant_dimensions":["wings","pattern"],"bee_group":{"antennae":"X","wings":"1","pattern":"S","legs":"X"},"bonus":0.04},{"rt":7301.5,"response":{"Q0":["Two or six legs","Stripes or spots on body","Single or double wings","Antennae or no antennae"]},"question_order":[0],"trial_type":"survey-multi-select","trial_index":8,"time_elapsed":238763,"internal_node_id":"0.0-3.0-4.0-1.0","subject_id":"6175d16823c9e4175810882e","study_id":"60edd13110225f80f9f3709b","session_id":"6196c4a70a64387375c1e16b","condition":"contingent","relevant_dimensions":["wings","pattern"],"bee_group":{"antennae":"X","wings":"1","pattern":"S","legs":"X"},"correct":true,"bonus":0.04},{"rt":6678.5,"response":{"Q1":"No.","Q2":"Based on the four features of the bee.","Q3":"You do not learn if it was friendly or dangerous, and do not alter your bonus."},"question_order":[0,1,2],"trial_type":"survey-multi-choice","trial_index":9,"time_elapsed":245443,"internal_node_id":"0.0-3.0-4.0-2.0","subject_id":"6175d16823c9e4175810882e","study_id":"60edd13110225f80f9f3709b","session_id":"6196c4a70a64387375c1e16b","condition":"contingent","relevant_dimensions":["wings","pattern"],"bee_group":{"antennae":"X","wings":"1","pattern":"S","legs":"X"},"correct":true,"bonus":0.04},{"rt":3510.89999999851,"stimulus":"<p>Congrats, you got everything right<br>When you're ready, click the button below to continue to the experiment.</p>","response":0,"trial_type":"html-button-response","trial_index":10,"time_elapsed":248955,"internal_node_id":"0.0-3.0-4.0-3.0","subject_id":"6175d16823c9e4175810882e","study_id":"60edd13110225f80f9f3709b","session_id":"6196c4a70a64387375c1e16b","condition":"contingent","relevant_dimensions":["wings","pattern"],"bee_group":{"antennae":"X","wings":"1","pattern":"S","legs":"X"},"bonus":0.04},{"rt":8534,"stimulus":"bees-with-color/bee-A1SF.svg","response":0,"trial_type":"image-button-response","trial_index":11,"time_elapsed":257490,"internal_node_id":"0.0-4.0-0.0","subject_id":"6175d16823c9e4175810882e","study_id":"60edd13110225f80f9f3709b","session_id":"6196c4a70a64387375c1e16b","condition":"contingent","relevant_dimensions":["wings","pattern"],"bee_group":{"antennae":"X","wings":"1","pattern":"S","legs":"X"},"action":"harvest","summary":"bad-harvest","bonus":0.04},{"rt":10746.60000000149,"stimulus":"\n                    <p><b>Action: <em>harvest</em></b></p>\n                    <p>This is the bee that you just saw.</p>\n                    <img src=\"bees-with-color/bee-A1SF.svg\" width=\"200\">\n                    <p><span class=\"redText\">Bad choice, the bee was angry.</span><br><b>You have been stung!</b><br>Your pay has been decreased by $0.10. Your bonus pay is now $0.44.</p>\n            ","response":0,"trial_type":"html-button-response","trial_index":12,"time_elapsed":268243,"internal_node_id":"0.0-4.0-1.0","subject_id":"6175d16823c9e4175810882e","study_id":"60edd13110225f80f9f3709b","session_id":"6196c4a70a64387375c1e16b","condition":"contingent","relevant_dimensions":["wings","pattern"],"bee_group":{"antennae":"X","wings":"1","pattern":"S","legs":"X"},"bonus":0.04},{"rt":2133.7000000029802,"stimulus":"bees-with-color/bee-B1SM.svg","response":0,"trial_type":"image-button-response","trial_index":13,"time_elapsed":270378,"internal_node_id":"0.0-4.0-0.1","subject_id":"6175d16823c9e4175810882e","study_id":"60edd13110225f80f9f3709b","session_id":"6196c4a70a64387375c1e16b","condition":"contingent","relevant_dimensions":["wings","pattern"],"bee_group":{"antennae":"X","wings":"1","pattern":"S","legs":"X"},"action":"harvest","summary":"bad-harvest","bonus":0.04},{"rt":1607.1999999955297,"stimulus":"\n                    <p><b>Action: <em>harvest</em></b></p>\n                    <p>This is the bee that you just saw.</p>\n                    <img src=\"bees-with-color/bee-B1SM.svg\" width=\"200\">\n                    <p><span class=\"redText\">Bad choice, the bee was angry.</span><br><b>You have been stung!</b><br>Your pay has been decreased by $0.10. Your bonus pay is now $0.34.</p>\n            ","response":0,"trial_type":"html-button-response","trial_index":14,"time_elapsed":271986,"internal_node_id":"0.0-4.0-1.1","subject_id":"6175d16823c9e4175810882e","study_id":"60edd13110225f80f9f3709b","session_id":"6196c4a70a64387375c1e16b","condition":"contingent","relevant_dimensions":["wings","pattern"],"bee_group":{"antennae":"X","wings":"1","pattern":"S","legs":"X"},"bonus":0.04},{"rt":2223.5,"stimulus":"bees-with-color/bee-B1DF.svg","response":0,"trial_type":"image-button-response","trial_index":15,"time_elapsed":274211,"internal_node_id":"0.0-4.0-0.2","subject_id":"6175d16823c9e4175810882e","study_id":"60edd13110225f80f9f3709b","session_id":"6196c4a70a64387375c1e16b","condition":"contingent","relevant_dimensions":["wings","pattern"],"bee_group":{"antennae":"X","wings":"1","pattern":"S","legs":"X"},"action":"harvest","summary":"good-harvest","bonus":0.04},{"rt":2695.2000000029802,"stimulus":"\n                    <p><b>Action: <em>harvest</em></b></p>\n                    <p>This is the bee that you just saw.</p>\n                    <img src=\"bees-with-color/bee-B1DF.svg\" width=\"200\">\n                    <p><span class=\"greenText\"><b>Successful harvest!</b></span><br>Your pay has increased by $0.02. Your bonus pay is now $0.36.</p>\n            ","response":0,"trial_type":"html-button-response","trial_index":16,"time_elapsed":276907,"internal_node_id":"0.0-4.0-1.2","subject_id":"6175d16823c9e4175810882e","study_id":"60edd13110225f80f9f3709b","session_id":"6196c4a70a64387375c1e16b","condition":"contingent","relevant_dimensions":["wings","pattern"],"bee_group":{"antennae":"X","wings":"1","pattern":"S","legs":"X"},"bonus":0.04},{"rt":1718.6000000014901,"stimulus":"bees-with-color/bee-A2SM.svg","response":1,"trial_type":"image-button-response","trial_index":17,"time_elapsed":278626,"internal_node_id":"0.0-4.0-0.3","subject_id":"6175d16823c9e4175810882e","study_id":"60edd13110225f80f9f3709b","session_id":"6196c4a70a64387375c1e16b","condition":"contingent","relevant_dimensions":["wings","pattern"],"bee_group":{"antennae":"X","wings":"1","pattern":"S","legs":"X"},"action":"avoid","summary":"bad-avoid","bonus":0.04},{"rt":2143.3000000044703,"stimulus":"\n                    <p><b>Action: <em>avoid</em></b></p>\n                    <p>This is the bee that you just saw.</p>\n                    <img src=\"bees-with-color/bee-A2SM.svg\" width=\"200\">\n                    <p><br>Your bonus pay is unchanged, and remains at $0.36.</p>\n            ","response":0,"trial_type":"html-button-response","trial_index":18,"time_elapsed":280771,"internal_node_id":"0.0-4.0-1.3","subject_id":"6175d16823c9e4175810882e","study_id":"60edd13110225f80f9f3709b","session_id":"6196c4a70a64387375c1e16b","condition":"contingent","relevant_dimensions":["wings","pattern"],"bee_group":{"antennae":"X","wings":"1","pattern":"S","legs":"X"},"bonus":0.04},{"rt":1542.5,"stimulus":"bees-with-color/bee-A2SF.svg","response":0,"trial_type":"image-button-response","trial_index":19,"time_elapsed":282314,"internal_node_id":"0.0-4.0-0.4","subject_id":"6175d16823c9e4175810882e","study_id":"60edd13110225f80f9f3709b","session_id":"6196c4a70a64387375c1e16b","condition":"contingent","relevant_dimensions":["wings","pattern"],"bee_group":{"antennae":"X","wings":"1","pattern":"S","legs":"X"},"action":"harvest","summary":"good-harvest","bonus":0.04},{"rt":1406.3999999985099,"stimulus":"\n                    <p><b>Action: <em>harvest</em></b></p>\n                    <p>This is the bee that you just saw.</p>\n                    <img src=\"bees-with-color/bee-A2SF.svg\" width=\"200\">\n                    <p><span class=\"greenText\"><b>Successful harvest!</b></span><br>Your pay has increased by $0.02. Your bonus pay is now $0.38.</p>\n            ","response":0,"trial_type":"html-button-response","trial_index":20,"time_elapsed":283723,"internal_node_id":"0.0-4.0-1.4","subject_id":"6175d16823c9e4175810882e","study_id":"60edd13110225f80f9f3709b","session_id":"6196c4a70a64387375c1e16b","condition":"contingent","relevant_dimensions":["wings","pattern"],"bee_group":{"antennae":"X","wings":"1","pattern":"S","legs":"X"},"bonus":0.04},{"rt":830.7999999970198,"stimulus":"bees-with-color/bee-A2DF.svg","response":1,"trial_type":"image-button-response","trial_index":21,"time_elapsed":284554,"internal_node_id":"0.0-4.0-0.5","subject_id":"6175d16823c9e4175810882e","study_id":"60edd13110225f80f9f3709b","session_id":"6196c4a70a64387375c1e16b","condition":"contingent","relevant_dimensions":["wings","pattern"],"bee_group":{"antennae":"X","wings":"1","pattern":"S","legs":"X"},"action":"avoid","summary":"bad-avoid","bonus":0.04},{"rt":663.5,"stimulus":"\n                    <p><b>Action: <em>avoid</em></b></p>\n                    <p>This is the bee that you just saw.</p>\n                    <img src=\"bees-with-color/bee-A2DF.svg\" width=\"200\">\n                    <p><br>Your bonus pay is unchanged, and remains at $0.38.</p>\n            ","response":0,"trial_type":"html-button-response","trial_index":22,"time_elapsed":285219,"internal_node_id":"0.0-4.0-1.5","subject_id":"6175d16823c9e4175810882e","study_id":"60edd13110225f80f9f3709b","session_id":"6196c4a70a64387375c1e16b","condition":"contingent","relevant_dimensions":["wings","pattern"],"bee_group":{"antennae":"X","wings":"1","pattern":"S","legs":"X"},"bonus":0.04},{"rt":598.7000000029802,"stimulus":"bees-with-color/bee-B2SF.svg","response":1,"trial_type":"image-button-response","trial_index":23,"time_elapsed":285819,"internal_node_id":"0.0-4.0-0.6","subject_id":"6175d16823c9e4175810882e","study_id":"60edd13110225f80f9f3709b","session_id":"6196c4a70a64387375c1e16b","condition":"contingent","relevant_dimensions":["wings","pattern"],"bee_group":{"antennae":"X","wings":"1","pattern":"S","legs":"X"},"action":"avoid","summary":"bad-avoid","bonus":0.04},{"rt":406.79999999701977,"stimulus":"\n                    <p><b>Action: <em>avoid</em></b></p>\n                    <p>This is the bee that you just saw.</p>\n                    <img src=\"bees-with-color/bee-B2SF.svg\" width=\"200\">\n                    <p><br>Your bonus pay is unchanged, and remains at $0.38.</p>\n            ","response":0,"trial_type":"html-button-response","trial_index":24,"time_elapsed":286226,"internal_node_id":"0.0-4.0-1.6","subject_id":"6175d16823c9e4175810882e","study_id":"60edd13110225f80f9f3709b","session_id":"6196c4a70a64387375c1e16b","condition":"contingent","relevant_dimensions":["wings","pattern"],"bee_group":{"antennae":"X","wings":"1","pattern":"S","legs":"X"},"bonus":0.04},{"rt":383.29999999701977,"stimulus":"bees-with-color/bee-B2DM.svg","response":0,"trial_type":"image-button-response","trial_index":25,"time_elapsed":286611,"internal_node_id":"0.0-4.0-0.7","subject_id":"6175d16823c9e4175810882e","study_id":"60edd13110225f80f9f3709b","session_id":"6196c4a70a64387375c1e16b","condition":"contingent","relevant_dimensions":["wings","pattern"],"bee_group":{"antennae":"X","wings":"1","pattern":"S","legs":"X"},"action":"harvest","summary":"good-harvest","bonus":0.04},{"rt":1047.3000000044703,"stimulus":"\n                    <p><b>Action: <em>harvest</em></b></p>\n                    <p>This is the bee that you just saw.</p>\n                    <img src=\"bees-with-color/bee-B2DM.svg\" width=\"200\">\n                    <p><span class=\"greenText\"><b>Successful harvest!</b></span><br>Your pay has increased by $0.02. Your bonus pay is now $0.40.</p>\n            ","response":0,"trial_type":"html-button-response","trial_index":26,"time_elapsed":287659,"internal_node_id":"0.0-4.0-1.7","subject_id":"6175d16823c9e4175810882e","study_id":"60edd13110225f80f9f3709b","session_id":"6196c4a70a64387375c1e16b","condition":"contingent","relevant_dimensions":["wings","pattern"],"bee_group":{"antennae":"X","wings":"1","pattern":"S","legs":"X"},"bonus":0.04},{"rt":430.8999999985099,"stimulus":"bees-with-color/bee-B1SF.svg","response":1,"trial_type":"image-button-response","trial_index":27,"time_elapsed":288091,"internal_node_id":"0.0-4.0-0.8","subject_id":"6175d16823c9e4175810882e","study_id":"60edd13110225f80f9f3709b","session_id":"6196c4a70a64387375c1e16b","condition":"contingent","relevant_dimensions":["wings","pattern"],"bee_group":{"antennae":"X","wings":"1","pattern":"S","legs":"X"},"action":"avoid","summary":"good-avoid","bonus":0.04},{"rt":927,"stimulus":"\n                    <p><b>Action: <em>avoid</em></b></p>\n                    <p>This is the bee that you just saw.</p>\n                    <img src=\"bees-with-color/bee-B1SF.svg\" width=\"200\">\n                    <p><br>Your bonus pay is unchanged, and remains at $0.40.</p>\n            ","response":0,"trial_type":"html-button-response","trial_index":28,"time_elapsed":289019,"internal_node_id":"0.0-4.0-1.8","subject_id":"6175d16823c9e4175810882e","study_id":"60edd13110225f80f9f3709b","session_id":"6196c4a70a64387375c1e16b","condition":"contingent","relevant_dimensions":["wings","pattern"],"bee_group":{"antennae":"X","wings":"1","pattern":"S","legs":"X"},"bonus":0.04},{"rt":830.8999999985099,"stimulus":"bees-with-color/bee-B1DM.svg","response":1,"trial_type":"image-button-response","trial_index":29,"time_elapsed":289850,"internal_node_id":"0.0-4.0-0.9","subject_id":"6175d16823c9e4175810882e","study_id":"60edd13110225f80f9f3709b","session_id":"6196c4a70a64387375c1e16b","condition":"contingent","relevant_dimensions":["wings","pattern"],"bee_group":{"antennae":"X","wings":"1","pattern":"S","legs":"X"},"action":"avoid","summary":"bad-avoid","bonus":0.04},{"rt":399.20000000298023,"stimulus":"\n                    <p><b>Action: <em>avoid</em></b></p>\n                    <p>This is the bee that you just saw.</p>\n                    <img src=\"bees-with-color/bee-B1DM.svg\" width=\"200\">\n                    <p><br>Your bonus pay is unchanged, and remains at $0.40.</p>\n            ","response":0,"trial_type":"html-button-response","trial_index":30,"time_elapsed":290250,"internal_node_id":"0.0-4.0-1.9","subject_id":"6175d16823c9e4175810882e","study_id":"60edd13110225f80f9f3709b","session_id":"6196c4a70a64387375c1e16b","condition":"contingent","relevant_dimensions":["wings","pattern"],"bee_group":{"antennae":"X","wings":"1","pattern":"S","legs":"X"},"bonus":0.04},{"rt":351,"stimulus":"bees-with-color/bee-A1SM.svg","response":0,"trial_type":"image-button-response","trial_index":31,"time_elapsed":290602,"internal_node_id":"0.0-4.0-0.10","subject_id":"6175d16823c9e4175810882e","study_id":"60edd13110225f80f9f3709b","session_id":"6196c4a70a64387375c1e16b","condition":"contingent","relevant_dimensions":["wings","pattern"],"bee_group":{"antennae":"X","wings":"1","pattern":"S","legs":"X"},"action":"harvest","summary":"bad-harvest","bonus":0.04},{"rt":910.6000000014901,"stimulus":"\n                    <p><b>Action: <em>harvest</em></b></p>\n                    <p>This is the bee that you just saw.</p>\n                    <img src=\"bees-with-color/bee-A1SM.svg\" width=\"200\">\n                    <p><span class=\"redText\">Bad choice, the bee was angry.</span><br><b>You have been stung!</b><br>Your pay has been decreased by $0.10. Your bonus pay is now $0.30.</p>\n            ","response":0,"trial_type":"html-button-response","trial_index":32,"time_elapsed":291514,"internal_node_id":"0.0-4.0-1.10","subject_id":"6175d16823c9e4175810882e","study_id":"60edd13110225f80f9f3709b","session_id":"6196c4a70a64387375c1e16b","condition":"contingent","relevant_dimensions":["wings","pattern"],"bee_group":{"antennae":"X","wings":"1","pattern":"S","legs":"X"},"bonus":0.04},{"rt":343.20000000298023,"stimulus":"bees-with-color/bee-A1DF.svg","response":1,"trial_type":"image-button-response","trial_index":33,"time_elapsed":291858,"internal_node_id":"0.0-4.0-0.11","subject_id":"6175d16823c9e4175810882e","study_id":"60edd13110225f80f9f3709b","session_id":"6196c4a70a64387375c1e16b","condition":"contingent","relevant_dimensions":["wings","pattern"],"bee_group":{"antennae":"X","wings":"1","pattern":"S","legs":"X"},"action":"avoid","summary":"bad-avoid","bonus":0.04},{"rt":518.9000000059605,"stimulus":"\n                    <p><b>Action: <em>avoid</em></b></p>\n                    <p>This is the bee that you just saw.</p>\n                    <img src=\"bees-with-color/bee-A1DF.svg\" width=\"200\">\n                    <p><br>Your bonus pay is unchanged, and remains at $0.30.</p>\n            ","response":0,"trial_type":"html-button-response","trial_index":34,"time_elapsed":292378,"internal_node_id":"0.0-4.0-1.11","subject_id":"6175d16823c9e4175810882e","study_id":"60edd13110225f80f9f3709b","session_id":"6196c4a70a64387375c1e16b","condition":"contingent","relevant_dimensions":["wings","pattern"],"bee_group":{"antennae":"X","wings":"1","pattern":"S","legs":"X"},"bonus":0.04},{"rt":271.19999999552965,"stimulus":"bees-with-color/bee-B2SM.svg","response":0,"trial_type":"image-button-response","trial_index":35,"time_elapsed":292650,"internal_node_id":"0.0-4.0-0.12","subject_id":"6175d16823c9e4175810882e","study_id":"60edd13110225f80f9f3709b","session_id":"6196c4a70a64387375c1e16b","condition":"contingent","relevant_dimensions":["wings","pattern"],"bee_group":{"antennae":"X","wings":"1","pattern":"S","legs":"X"},"action":"harvest","summary":"good-harvest","bonus":0.04},{"rt":718.8000000044703,"stimulus":"\n                    <p><b>Action: <em>harvest</em></b></p>\n                    <p>This is the bee that you just saw.</p>\n                    <img src=\"bees-with-color/bee-B2SM.svg\" width=\"200\">\n                    <p><span class=\"greenText\"><b>Successful harvest!</b></span><br>Your pay has increased by $0.02. Your bonus pay is now $0.32.</p>\n            ","response":0,"trial_type":"html-button-response","trial_index":36,"time_elapsed":293370,"internal_node_id":"0.0-4.0-1.12","subject_id":"6175d16823c9e4175810882e","study_id":"60edd13110225f80f9f3709b","session_id":"6196c4a70a64387375c1e16b","condition":"contingent","relevant_dimensions":["wings","pattern"],"bee_group":{"antennae":"X","wings":"1","pattern":"S","legs":"X"},"bonus":0.04},{"rt":439.70000000298023,"stimulus":"bees-with-color/bee-B2DF.svg","response":0,"trial_type":"image-button-response","trial_index":37,"time_elapsed":293811,"internal_node_id":"0.0-4.0-0.13","subject_id":"6175d16823c9e4175810882e","study_id":"60edd13110225f80f9f3709b","session_id":"6196c4a70a64387375c1e16b","condition":"contingent","relevant_dimensions":["wings","pattern"],"bee_group":{"antennae":"X","wings":"1","pattern":"S","legs":"X"},"action":"harvest","summary":"good-harvest","bonus":0.04},{"rt":558.5,"stimulus":"\n                    <p><b>Action: <em>harvest</em></b></p>\n                    <p>This is the bee that you just saw.</p>\n                    <img src=\"bees-with-color/bee-B2DF.svg\" width=\"200\">\n                    <p><span class=\"greenText\"><b>Successful harvest!</b></span><br>Your pay has increased by $0.02. Your bonus pay is now $0.34.</p>\n            ","response":0,"trial_type":"html-button-response","trial_index":38,"time_elapsed":294370,"internal_node_id":"0.0-4.0-1.13","subject_id":"6175d16823c9e4175810882e","study_id":"60edd13110225f80f9f3709b","session_id":"6196c4a70a64387375c1e16b","condition":"contingent","relevant_dimensions":["wings","pattern"],"bee_group":{"antennae":"X","wings":"1","pattern":"S","legs":"X"},"bonus":0.04},{"rt":384.09999999403954,"stimulus":"bees-with-color/bee-A2DM.svg","response":1,"trial_type":"image-button-response","trial_index":39,"time_elapsed":294755,"internal_node_id":"0.0-4.0-0.14","subject_id":"6175d16823c9e4175810882e","study_id":"60edd13110225f80f9f3709b","session_id":"6196c4a70a64387375c1e16b","condition":"contingent","relevant_dimensions":["wings","pattern"],"bee_group":{"antennae":"X","wings":"1","pattern":"S","legs":"X"},"action":"avoid","summary":"bad-avoid","bonus":0.04},{"rt":446.90000000596046,"stimulus":"\n                    <p><b>Action: <em>avoid</em></b></p>\n                    <p>This is the bee that you just saw.</p>\n                    <img src=\"bees-with-color/bee-A2DM.svg\" width=\"200\">\n                    <p><br>Your bonus pay is unchanged, and remains at $0.34.</p>\n            ","response":0,"trial_type":"html-button-response","trial_index":40,"time_elapsed":295203,"internal_node_id":"0.0-4.0-1.14","subject_id":"6175d16823c9e4175810882e","study_id":"60edd13110225f80f9f3709b","session_id":"6196c4a70a64387375c1e16b","condition":"contingent","relevant_dimensions":["wings","pattern"],"bee_group":{"antennae":"X","wings":"1","pattern":"S","legs":"X"},"bonus":0.04},{"rt":366.79999999701977,"stimulus":"bees-with-color/bee-A1DM.svg","response":1,"trial_type":"image-button-response","trial_index":41,"time_elapsed":295571,"internal_node_id":"0.0-4.0-0.15","subject_id":"6175d16823c9e4175810882e","study_id":"60edd13110225f80f9f3709b","session_id":"6196c4a70a64387375c1e16b","condition":"contingent","relevant_dimensions":["wings","pattern"],"bee_group":{"antennae":"X","wings":"1","pattern":"S","legs":"X"},"action":"avoid","summary":"bad-avoid","bonus":0.04},{"rt":382.30000000447035,"stimulus":"\n                    <p><b>Action: <em>avoid</em></b></p>\n                    <p>This is the bee that you just saw.</p>\n                    <img src=\"bees-with-color/bee-A1DM.svg\" width=\"200\">\n                    <p><br>Your bonus pay is unchanged, and remains at $0.34.</p>\n            ","response":0,"trial_type":"html-button-response","trial_index":42,"time_elapsed":295954,"internal_node_id":"0.0-4.0-1.15","subject_id":"6175d16823c9e4175810882e","study_id":"60edd13110225f80f9f3709b","session_id":"6196c4a70a64387375c1e16b","condition":"contingent","relevant_dimensions":["wings","pattern"],"bee_group":{"antennae":"X","wings":"1","pattern":"S","legs":"X"},"bonus":0.04},{"rt":327.5,"stimulus":"bees-with-color/bee-A1DM.svg","response":0,"trial_type":"image-button-response","trial_index":43,"time_elapsed":296283,"internal_node_id":"0.0-4.0-0.16","subject_id":"6175d16823c9e4175810882e","study_id":"60edd13110225f80f9f3709b","session_id":"6196c4a70a64387375c1e16b","condition":"contingent","relevant_dimensions":["wings","pattern"],"bee_group":{"antennae":"X","wings":"1","pattern":"S","legs":"X"},"action":"harvest","summary":"good-harvest","bonus":0.04},{"rt":495.1000000014901,"stimulus":"\n                    <p><b>Action: <em>harvest</em></b></p>\n                    <p>This is the bee that you just saw.</p>\n                    <img src=\"bees-with-color/bee-A1DM.svg\" width=\"200\">\n                    <p><span class=\"greenText\"><b>Successful harvest!</b></span><br>Your pay has increased by $0.02. Your bonus pay is now $0.36.</p>\n            ","response":0,"trial_type":"html-button-response","trial_index":44,"time_elapsed":296779,"internal_node_id":"0.0-4.0-1.16","subject_id":"6175d16823c9e4175810882e","study_id":"60edd13110225f80f9f3709b","session_id":"6196c4a70a64387375c1e16b","condition":"contingent","relevant_dimensions":["wings","pattern"],"bee_group":{"antennae":"X","wings":"1","pattern":"S","legs":"X"},"bonus":0.04},{"rt":990.8999999985099,"stimulus":"bees-with-color/bee-B1SM.svg","response":0,"trial_type":"image-button-response","trial_index":45,"time_elapsed":297771,"internal_node_id":"0.0-4.0-0.17","subject_id":"6175d16823c9e4175810882e","study_id":"60edd13110225f80f9f3709b","session_id":"6196c4a70a64387375c1e16b","condition":"contingent","relevant_dimensions":["wings","pattern"],"bee_group":{"antennae":"X","wings":"1","pattern":"S","legs":"X"},"action":"harvest","summary":"bad-harvest","bonus":0.04},{"rt":502.6000000014901,"stimulus":"\n                    <p><b>Action: <em>harvest</em></b></p>\n                    <p>This is the bee that you just saw.</p>\n                    <img src=\"bees-with-color/bee-B1SM.svg\" width=\"200\">\n                    <p><span class=\"redText\">Bad choice, the bee was angry.</span><br><b>You have been stung!</b><br>Your pay has been decreased by $0.10. Your bonus pay is now $0.26.</p>\n            ","response":0,"trial_type":"html-button-response","trial_index":46,"time_elapsed":298275,"internal_node_id":"0.0-4.0-1.17","subject_id":"6175d16823c9e4175810882e","study_id":"60edd13110225f80f9f3709b","session_id":"6196c4a70a64387375c1e16b","condition":"contingent","relevant_dimensions":["wings","pattern"],"bee_group":{"antennae":"X","wings":"1","pattern":"S","legs":"X"},"bonus":0.04},{"rt":503.8999999985099,"stimulus":"bees-with-color/bee-B2DM.svg","response":1,"trial_type":"image-button-response","trial_index":47,"time_elapsed":298780,"internal_node_id":"0.0-4.0-0.18","subject_id":"6175d16823c9e4175810882e","study_id":"60edd13110225f80f9f3709b","session_id":"6196c4a70a64387375c1e16b","condition":"contingent","relevant_dimensions":["wings","pattern"],"bee_group":{"antennae":"X","wings":"1","pattern":"S","legs":"X"},"action":"avoid","summary":"bad-avoid","bonus":0.04},{"rt":646.8000000044703,"stimulus":"\n                    <p><b>Action: <em>avoid</em></b></p>\n                    <p>This is the bee that you just saw.</p>\n                    <img src=\"bees-with-color/bee-B2DM.svg\" width=\"200\">\n                    <p><br>Your bonus pay is unchanged, and remains at $0.26.</p>\n            ","response":0,"trial_type":"html-button-response","trial_index":48,"time_elapsed":299427,"internal_node_id":"0.0-4.0-1.18","subject_id":"6175d16823c9e4175810882e","study_id":"60edd13110225f80f9f3709b","session_id":"6196c4a70a64387375c1e16b","condition":"contingent","relevant_dimensions":["wings","pattern"],"bee_group":{"antennae":"X","wings":"1","pattern":"S","legs":"X"},"bonus":0.04},{"rt":503.09999999403954,"stimulus":"bees-with-color/bee-B2SM.svg","response":1,"trial_type":"image-button-response","trial_index":49,"time_elapsed":299931,"internal_node_id":"0.0-4.0-0.19","subject_id":"6175d16823c9e4175810882e","study_id":"60edd13110225f80f9f3709b","session_id":"6196c4a70a64387375c1e16b","condition":"contingent","relevant_dimensions":["wings","pattern"],"bee_group":{"antennae":"X","wings":"1","pattern":"S","legs":"X"},"action":"avoid","summary":"bad-avoid","bonus":0.04},{"rt":439.6000000014901,"stimulus":"\n                    <p><b>Action: <em>avoid</em></b></p>\n                    <p>This is the bee that you just saw.</p>\n                    <img src=\"bees-with-color/bee-B2SM.svg\" width=\"200\">\n                    <p><br>Your bonus pay is unchanged, and remains at $0.26.</p>\n            ","response":0,"trial_type":"html-button-response","trial_index":50,"time_elapsed":300371,"internal_node_id":"0.0-4.0-1.19","subject_id":"6175d16823c9e4175810882e","study_id":"60edd13110225f80f9f3709b","session_id":"6196c4a70a64387375c1e16b","condition":"contingent","relevant_dimensions":["wings","pattern"],"bee_group":{"antennae":"X","wings":"1","pattern":"S","legs":"X"},"bonus":0.04},{"rt":455,"stimulus":"bees-with-color/bee-B1DF.svg","response":0,"trial_type":"image-button-response","trial_index":51,"time_elapsed":300827,"internal_node_id":"0.0-4.0-0.20","subject_id":"6175d16823c9e4175810882e","study_id":"60edd13110225f80f9f3709b","session_id":"6196c4a70a64387375c1e16b","condition":"contingent","relevant_dimensions":["wings","pattern"],"bee_group":{"antennae":"X","wings":"1","pattern":"S","legs":"X"},"action":"harvest","summary":"good-harvest","bonus":0.04},{"rt":599.7000000029802,"stimulus":"\n                    <p><b>Action: <em>harvest</em></b></p>\n                    <p>This is the bee that you just saw.</p>\n                    <img src=\"bees-with-color/bee-B1DF.svg\" width=\"200\">\n                    <p><span class=\"greenText\"><b>Successful harvest!</b></span><br>Your pay has increased by $0.02. Your bonus pay is now $0.28.</p>\n            ","response":0,"trial_type":"html-button-response","trial_index":52,"time_elapsed":301427,"internal_node_id":"0.0-4.0-1.20","subject_id":"6175d16823c9e4175810882e","study_id":"60edd13110225f80f9f3709b","session_id":"6196c4a70a64387375c1e16b","condition":"contingent","relevant_dimensions":["wings","pattern"],"bee_group":{"antennae":"X","wings":"1","pattern":"S","legs":"X"},"bonus":0.04},{"rt":2063.1999999955297,"stimulus":"bees-with-color/bee-A2DM.svg","response":1,"trial_type":"image-button-response","trial_index":53,"time_elapsed":303491,"internal_node_id":"0.0-4.0-0.21","subject_id":"6175d16823c9e4175810882e","study_id":"60edd13110225f80f9f3709b","session_id":"6196c4a70a64387375c1e16b","condition":"contingent","relevant_dimensions":["wings","pattern"],"bee_group":{"antennae":"X","wings":"1","pattern":"S","legs":"X"},"action":"avoid","summary":"bad-avoid","bonus":0.04},{"rt":487.29999999701977,"stimulus":"\n                    <p><b>Action: <em>avoid</em></b></p>\n                    <p>This is the bee that you just saw.</p>\n                    <img src=\"bees-with-color/bee-A2DM.svg\" width=\"200\">\n                    <p><br>Your bonus pay is unchanged, and remains at $0.28.</p>\n            ","response":0,"trial_type":"html-button-response","trial_index":54,"time_elapsed":303979,"internal_node_id":"0.0-4.0-1.21","subject_id":"6175d16823c9e4175810882e","study_id":"60edd13110225f80f9f3709b","session_id":"6196c4a70a64387375c1e16b","condition":"contingent","relevant_dimensions":["wings","pattern"],"bee_group":{"antennae":"X","wings":"1","pattern":"S","legs":"X"},"bonus":0.04},{"rt":406.8999999985099,"stimulus":"bees-with-color/bee-A1SF.svg","response":1,"trial_type":"image-button-response","trial_index":55,"time_elapsed":304387,"internal_node_id":"0.0-4.0-0.22","subject_id":"6175d16823c9e4175810882e","study_id":"60edd13110225f80f9f3709b","session_id":"6196c4a70a64387375c1e16b","condition":"contingent","relevant_dimensions":["wings","pattern"],"bee_group":{"antennae":"X","wings":"1","pattern":"S","legs":"X"},"action":"avoid","summary":"good-avoid","bonus":0.04},{"rt":439.1000000014901,"stimulus":"\n                    <p><b>Action: <em>avoid</em></b></p>\n                    <p>This is the bee that you just saw.</p>\n                    <img src=\"bees-with-color/bee-A1SF.svg\" width=\"200\">\n                    <p><br>Your bonus pay is unchanged, and remains at $0.28.</p>\n            ","response":0,"trial_type":"html-button-response","trial_index":56,"time_elapsed":304827,"internal_node_id":"0.0-4.0-1.22","subject_id":"6175d16823c9e4175810882e","study_id":"60edd13110225f80f9f3709b","session_id":"6196c4a70a64387375c1e16b","condition":"contingent","relevant_dimensions":["wings","pattern"],"bee_group":{"antennae":"X","wings":"1","pattern":"S","legs":"X"},"bonus":0.04},{"rt":447.5,"stimulus":"bees-with-color/bee-A2SM.svg","response":0,"trial_type":"image-button-response","trial_index":57,"time_elapsed":305275,"internal_node_id":"0.0-4.0-0.23","subject_id":"6175d16823c9e4175810882e","study_id":"60edd13110225f80f9f3709b","session_id":"6196c4a70a64387375c1e16b","condition":"contingent","relevant_dimensions":["wings","pattern"],"bee_group":{"antennae":"X","wings":"1","pattern":"S","legs":"X"},"action":"harvest","summary":"good-harvest","bonus":0.04},{"rt":623.2999999970198,"stimulus":"\n                    <p><b>Action: <em>harvest</em></b></p>\n                    <p>This is the bee that you just saw.</p>\n                    <img src=\"bees-with-color/bee-A2SM.svg\" width=\"200\">\n                    <p><span class=\"greenText\"><b>Successful harvest!</b></span><br>Your pay has increased by $0.02. Your bonus pay is now $0.30.</p>\n            ","response":0,"trial_type":"html-button-response","trial_index":58,"time_elapsed":305899,"internal_node_id":"0.0-4.0-1.23","subject_id":"6175d16823c9e4175810882e","study_id":"60edd13110225f80f9f3709b","session_id":"6196c4a70a64387375c1e16b","condition":"contingent","relevant_dimensions":["wings","pattern"],"bee_group":{"antennae":"X","wings":"1","pattern":"S","legs":"X"},"bonus":0.04},{"rt":454.8999999985099,"stimulus":"bees-with-color/bee-B1DM.svg","response":1,"trial_type":"image-button-response","trial_index":59,"time_elapsed":306355,"internal_node_id":"0.0-4.0-0.24","subject_id":"6175d16823c9e4175810882e","study_id":"60edd13110225f80f9f3709b","session_id":"6196c4a70a64387375c1e16b","condition":"contingent","relevant_dimensions":["wings","pattern"],"bee_group":{"antennae":"X","wings":"1","pattern":"S","legs":"X"},"action":"avoid","summary":"bad-avoid","bonus":0.04},{"rt":407.70000000298023,"stimulus":"\n                    <p><b>Action: <em>avoid</em></b></p>\n                    <p>This is the bee that you just saw.</p>\n                    <img src=\"bees-with-color/bee-B1DM.svg\" width=\"200\">\n                    <p><br>Your bonus pay is unchanged, and remains at $0.30.</p>\n            ","response":0,"trial_type":"html-button-response","trial_index":60,"time_elapsed":306763,"internal_node_id":"0.0-4.0-1.24","subject_id":"6175d16823c9e4175810882e","study_id":"60edd13110225f80f9f3709b","session_id":"6196c4a70a64387375c1e16b","condition":"contingent","relevant_dimensions":["wings","pattern"],"bee_group":{"antennae":"X","wings":"1","pattern":"S","legs":"X"},"bonus":0.04},{"rt":334.80000000447035,"stimulus":"bees-with-color/bee-A1SM.svg","response":1,"trial_type":"image-button-response","trial_index":61,"time_elapsed":307099,"internal_node_id":"0.0-4.0-0.25","subject_id":"6175d16823c9e4175810882e","study_id":"60edd13110225f80f9f3709b","session_id":"6196c4a70a64387375c1e16b","condition":"contingent","relevant_dimensions":["wings","pattern"],"bee_group":{"antennae":"X","wings":"1","pattern":"S","legs":"X"},"action":"avoid","summary":"good-avoid","bonus":0.04},{"rt":327.1000000014901,"stimulus":"\n                    <p><b>Action: <em>avoid</em></b></p>\n                    <p>This is the bee that you just saw.</p>\n                    <img src=\"bees-with-color/bee-A1SM.svg\" width=\"200\">\n                    <p><br>Your bonus pay is unchanged, and remains at $0.30.</p>\n            ","response":0,"trial_type":"html-button-response","trial_index":62,"time_elapsed":307427,"internal_node_id":"0.0-4.0-1.25","subject_id":"6175d16823c9e4175810882e","study_id":"60edd13110225f80f9f3709b","session_id":"6196c4a70a64387375c1e16b","condition":"contingent","relevant_dimensions":["wings","pattern"],"bee_group":{"antennae":"X","wings":"1","pattern":"S","legs":"X"},"bonus":0.04},{"rt":311.69999999552965,"stimulus":"bees-with-color/bee-B1SF.svg","response":1,"trial_type":"image-button-response","trial_index":63,"time_elapsed":307739,"internal_node_id":"0.0-4.0-0.26","subject_id":"6175d16823c9e4175810882e","study_id":"60edd13110225f80f9f3709b","session_id":"6196c4a70a64387375c1e16b","condition":"contingent","relevant_dimensions":["wings","pattern"],"bee_group":{"antennae":"X","wings":"1","pattern":"S","legs":"X"},"action":"avoid","summary":"good-avoid","bonus":0.04},{"rt":319.29999999701977,"stimulus":"\n                    <p><b>Action: <em>avoid</em></b></p>\n                    <p>This is the bee that you just saw.</p>\n                    <img src=\"bees-with-color/bee-B1SF.svg\" width=\"200\">\n                    <p><br>Your bonus pay is unchanged, and remains at $0.30.</p>\n            ","response":0,"trial_type":"html-button-response","trial_index":64,"time_elapsed":308059,"internal_node_id":"0.0-4.0-1.26","subject_id":"6175d16823c9e4175810882e","study_id":"60edd13110225f80f9f3709b","session_id":"6196c4a70a64387375c1e16b","condition":"contingent","relevant_dimensions":["wings","pattern"],"bee_group":{"antennae":"X","wings":"1","pattern":"S","legs":"X"},"bonus":0.04},{"rt":286.80000000447035,"stimulus":"bees-with-color/bee-B2DF.svg","response":0,"trial_type":"image-button-response","trial_index":65,"time_elapsed":308347,"internal_node_id":"0.0-4.0-0.27","subject_id":"6175d16823c9e4175810882e","study_id":"60edd13110225f80f9f3709b","session_id":"6196c4a70a64387375c1e16b","condition":"contingent","relevant_dimensions":["wings","pattern"],"bee_group":{"antennae":"X","wings":"1","pattern":"S","legs":"X"},"action":"harvest","summary":"good-harvest","bonus":0.04},{"rt":511.29999999701977,"stimulus":"\n                    <p><b>Action: <em>harvest</em></b></p>\n                    <p>This is the bee that you just saw.</p>\n                    <img src=\"bees-with-color/bee-B2DF.svg\" width=\"200\">\n                    <p><span class=\"greenText\"><b>Successful harvest!</b></span><br>Your pay has increased by $0.02. Your bonus pay is now $0.32.</p>\n            ","response":0,"trial_type":"html-button-response","trial_index":66,"time_elapsed":308859,"internal_node_id":"0.0-4.0-1.27","subject_id":"6175d16823c9e4175810882e","study_id":"60edd13110225f80f9f3709b","session_id":"6196c4a70a64387375c1e16b","condition":"contingent","relevant_dimensions":["wings","pattern"],"bee_group":{"antennae":"X","wings":"1","pattern":"S","legs":"X"},"bonus":0.04},{"rt":382.80000000447035,"stimulus":"bees-with-color/bee-A2SF.svg","response":1,"trial_type":"image-button-response","trial_index":67,"time_elapsed":309243,"internal_node_id":"0.0-4.0-0.28","subject_id":"6175d16823c9e4175810882e","study_id":"60edd13110225f80f9f3709b","session_id":"6196c4a70a64387375c1e16b","condition":"contingent","relevant_dimensions":["wings","pattern"],"bee_group":{"antennae":"X","wings":"1","pattern":"S","legs":"X"},"action":"avoid","summary":"bad-avoid","bonus":0.04},{"rt":326.8999999985099,"stimulus":"\n                    <p><b>Action: <em>avoid</em></b></p>\n                    <p>This is the bee that you just saw.</p>\n                    <img src=\"bees-with-color/bee-A2SF.svg\" width=\"200\">\n                    <p><br>Your bonus pay is unchanged, and remains at $0.32.</p>\n            ","response":0,"trial_type":"html-button-response","trial_index":68,"time_elapsed":309571,"internal_node_id":"0.0-4.0-1.28","subject_id":"6175d16823c9e4175810882e","study_id":"60edd13110225f80f9f3709b","session_id":"6196c4a70a64387375c1e16b","condition":"contingent","relevant_dimensions":["wings","pattern"],"bee_group":{"antennae":"X","wings":"1","pattern":"S","legs":"X"},"bonus":0.04},{"rt":271.5,"stimulus":"bees-with-color/bee-B2SF.svg","response":0,"trial_type":"image-button-response","trial_index":69,"time_elapsed":309843,"internal_node_id":"0.0-4.0-0.29","subject_id":"6175d16823c9e4175810882e","study_id":"60edd13110225f80f9f3709b","session_id":"6196c4a70a64387375c1e16b","condition":"contingent","relevant_dimensions":["wings","pattern"],"bee_group":{"antennae":"X","wings":"1","pattern":"S","legs":"X"},"action":"harvest","summary":"good-harvest","bonus":0.04},{"rt":527.4000000059605,"stimulus":"\n                    <p><b>Action: <em>harvest</em></b></p>\n                    <p>This is the bee that you just saw.</p>\n                    <img src=\"bees-with-color/bee-B2SF.svg\" width=\"200\">\n                    <p><span class=\"greenText\"><b>Successful harvest!</b></span><br>Your pay has increased by $0.02. Your bonus pay is now $0.34.</p>\n            ","response":0,"trial_type":"html-button-response","trial_index":70,"time_elapsed":310371,"internal_node_id":"0.0-4.0-1.29","subject_id":"6175d16823c9e4175810882e","study_id":"60edd13110225f80f9f3709b","session_id":"6196c4a70a64387375c1e16b","condition":"contingent","relevant_dimensions":["wings","pattern"],"bee_group":{"antennae":"X","wings":"1","pattern":"S","legs":"X"},"bonus":0.04},{"rt":367,"stimulus":"bees-with-color/bee-A2DF.svg","response":1,"trial_type":"image-button-response","trial_index":71,"time_elapsed":310739,"internal_node_id":"0.0-4.0-0.30","subject_id":"6175d16823c9e4175810882e","study_id":"60edd13110225f80f9f3709b","session_id":"6196c4a70a64387375c1e16b","condition":"contingent","relevant_dimensions":["wings","pattern"],"bee_group":{"antennae":"X","wings":"1","pattern":"S","legs":"X"},"action":"avoid","summary":"bad-avoid","bonus":0.04},{"rt":303.29999999701977,"stimulus":"\n                    <p><b>Action: <em>avoid</em></b></p>\n                    <p>This is the bee that you just saw.</p>\n                    <img src=\"bees-with-color/bee-A2DF.svg\" width=\"200\">\n                    <p><br>Your bonus pay is unchanged, and remains at $0.34.</p>\n            ","response":0,"trial_type":"html-button-response","trial_index":72,"time_elapsed":311043,"internal_node_id":"0.0-4.0-1.30","subject_id":"6175d16823c9e4175810882e","study_id":"60edd13110225f80f9f3709b","session_id":"6196c4a70a64387375c1e16b","condition":"contingent","relevant_dimensions":["wings","pattern"],"bee_group":{"antennae":"X","wings":"1","pattern":"S","legs":"X"},"bonus":0.04},{"rt":342.90000000596046,"stimulus":"bees-with-color/bee-A1DF.svg","response":0,"trial_type":"image-button-response","trial_index":73,"time_elapsed":311387,"internal_node_id":"0.0-4.0-0.31","subject_id":"6175d16823c9e4175810882e","study_id":"60edd13110225f80f9f3709b","session_id":"6196c4a70a64387375c1e16b","condition":"contingent","relevant_dimensions":["wings","pattern"],"bee_group":{"antennae":"X","wings":"1","pattern":"S","legs":"X"},"action":"harvest","summary":"good-harvest","bonus":0.04},{"rt":471.3999999985099,"stimulus":"\n                    <p><b>Action: <em>harvest</em></b></p>\n                    <p>This is the bee that you just saw.</p>\n                    <img src=\"bees-with-color/bee-A1DF.svg\" width=\"200\">\n                    <p><span class=\"greenText\"><b>Successful harvest!</b></span><br>Your pay has increased by $0.02. Your bonus pay is now $0.36.</p>\n            ","response":0,"trial_type":"html-button-response","trial_index":74,"time_elapsed":311859,"internal_node_id":"0.0-4.0-1.31","subject_id":"6175d16823c9e4175810882e","study_id":"60edd13110225f80f9f3709b","session_id":"6196c4a70a64387375c1e16b","condition":"contingent","relevant_dimensions":["wings","pattern"],"bee_group":{"antennae":"X","wings":"1","pattern":"S","legs":"X"},"bonus":0.04},{"rt":350.70000000298023,"stimulus":"bees-with-color/bee-B2SF.svg","response":1,"trial_type":"image-button-response","trial_index":75,"time_elapsed":312211,"internal_node_id":"0.0-4.0-0.32","subject_id":"6175d16823c9e4175810882e","study_id":"60edd13110225f80f9f3709b","session_id":"6196c4a70a64387375c1e16b","condition":"contingent","relevant_dimensions":["wings","pattern"],"bee_group":{"antennae":"X","wings":"1","pattern":"S","legs":"X"},"action":"avoid","summary":"bad-avoid","bonus":0.04},{"rt":319.5,"stimulus":"\n                    <p><b>Action: <em>avoid</em></b></p>\n                    <p>This is the bee that you just saw.</p>\n                    <img src=\"bees-with-color/bee-B2SF.svg\" width=\"200\">\n                    <p><br>Your bonus pay is unchanged, and remains at $0.36.</p>\n            ","response":0,"trial_type":"html-button-response","trial_index":76,"time_elapsed":312531,"internal_node_id":"0.0-4.0-1.32","subject_id":"6175d16823c9e4175810882e","study_id":"60edd13110225f80f9f3709b","session_id":"6196c4a70a64387375c1e16b","condition":"contingent","relevant_dimensions":["wings","pattern"],"bee_group":{"antennae":"X","wings":"1","pattern":"S","legs":"X"},"bonus":0.04},{"rt":303.29999999701977,"stimulus":"bees-with-color/bee-A1DM.svg","response":0,"trial_type":"image-button-response","trial_index":77,"time_elapsed":312835,"internal_node_id":"0.0-4.0-0.33","subject_id":"6175d16823c9e4175810882e","study_id":"60edd13110225f80f9f3709b","session_id":"6196c4a70a64387375c1e16b","condition":"contingent","relevant_dimensions":["wings","pattern"],"bee_group":{"antennae":"X","wings":"1","pattern":"S","legs":"X"},"action":"harvest","summary":"good-harvest","bonus":0.04},{"rt":447.8999999985099,"stimulus":"\n                    <p><b>Action: <em>harvest</em></b></p>\n                    <p>This is the bee that you just saw.</p>\n                    <img src=\"bees-with-color/bee-A1DM.svg\" width=\"200\">\n                    <p><span class=\"greenText\"><b>Successful harvest!</b></span><br>Your pay has increased by $0.02. Your bonus pay is now $0.38.</p>\n            ","response":0,"trial_type":"html-button-response","trial_index":78,"time_elapsed":313284,"internal_node_id":"0.0-4.0-1.33","subject_id":"6175d16823c9e4175810882e","study_id":"60edd13110225f80f9f3709b","session_id":"6196c4a70a64387375c1e16b","condition":"contingent","relevant_dimensions":["wings","pattern"],"bee_group":{"antennae":"X","wings":"1","pattern":"S","legs":"X"},"bonus":0.04},{"rt":382.30000000447035,"stimulus":"bees-with-color/bee-B2SM.svg","response":1,"trial_type":"image-button-response","trial_index":79,"time_elapsed":313667,"internal_node_id":"0.0-4.0-0.34","subject_id":"6175d16823c9e4175810882e","study_id":"60edd13110225f80f9f3709b","session_id":"6196c4a70a64387375c1e16b","condition":"contingent","relevant_dimensions":["wings","pattern"],"bee_group":{"antennae":"X","wings":"1","pattern":"S","legs":"X"},"action":"avoid","summary":"bad-avoid","bonus":0.04},{"rt":335.3999999985099,"stimulus":"\n                    <p><b>Action: <em>avoid</em></b></p>\n                    <p>This is the bee that you just saw.</p>\n                    <img src=\"bees-with-color/bee-B2SM.svg\" width=\"200\">\n                    <p><br>Your bonus pay is unchanged, and remains at $0.38.</p>\n            ","response":0,"trial_type":"html-button-response","trial_index":80,"time_elapsed":314003,"internal_node_id":"0.0-4.0-1.34","subject_id":"6175d16823c9e4175810882e","study_id":"60edd13110225f80f9f3709b","session_id":"6196c4a70a64387375c1e16b","condition":"contingent","relevant_dimensions":["wings","pattern"],"bee_group":{"antennae":"X","wings":"1","pattern":"S","legs":"X"},"bonus":0.04},{"rt":510.90000000596046,"stimulus":"bees-with-color/bee-B2DF.svg","response":0,"trial_type":"image-button-response","trial_index":81,"time_elapsed":314515,"internal_node_id":"0.0-4.0-0.35","subject_id":"6175d16823c9e4175810882e","study_id":"60edd13110225f80f9f3709b","session_id":"6196c4a70a64387375c1e16b","condition":"contingent","relevant_dimensions":["wings","pattern"],"bee_group":{"antennae":"X","wings":"1","pattern":"S","legs":"X"},"action":"harvest","summary":"good-harvest","bonus":0.04},{"rt":447.6000000014901,"stimulus":"\n                    <p><b>Action: <em>harvest</em></b></p>\n                    <p>This is the bee that you just saw.</p>\n                    <img src=\"bees-with-color/bee-B2DF.svg\" width=\"200\">\n                    <p><span class=\"greenText\"><b>Successful harvest!</b></span><br>Your pay has increased by $0.02. Your bonus pay is now $0.40.</p>\n            ","response":0,"trial_type":"html-button-response","trial_index":82,"time_elapsed":314963,"internal_node_id":"0.0-4.0-1.35","subject_id":"6175d16823c9e4175810882e","study_id":"60edd13110225f80f9f3709b","session_id":"6196c4a70a64387375c1e16b","condition":"contingent","relevant_dimensions":["wings","pattern"],"bee_group":{"antennae":"X","wings":"1","pattern":"S","legs":"X"},"bonus":0.04},{"rt":527,"stimulus":"bees-with-color/bee-B1SF.svg","response":1,"trial_type":"image-button-response","trial_index":83,"time_elapsed":315491,"internal_node_id":"0.0-4.0-0.36","subject_id":"6175d16823c9e4175810882e","study_id":"60edd13110225f80f9f3709b","session_id":"6196c4a70a64387375c1e16b","condition":"contingent","relevant_dimensions":["wings","pattern"],"bee_group":{"antennae":"X","wings":"1","pattern":"S","legs":"X"},"action":"avoid","summary":"good-avoid","bonus":0.04},{"rt":359.20000000298023,"stimulus":"\n                    <p><b>Action: <em>avoid</em></b></p>\n                    <p>This is the bee that you just saw.</p>\n                    <img src=\"bees-with-color/bee-B1SF.svg\" width=\"200\">\n                    <p><br>Your bonus pay is unchanged, and remains at $0.40.</p>\n            ","response":0,"trial_type":"html-button-response","trial_index":84,"time_elapsed":315851,"internal_node_id":"0.0-4.0-1.36","subject_id":"6175d16823c9e4175810882e","study_id":"60edd13110225f80f9f3709b","session_id":"6196c4a70a64387375c1e16b","condition":"contingent","relevant_dimensions":["wings","pattern"],"bee_group":{"antennae":"X","wings":"1","pattern":"S","legs":"X"},"bonus":0.04},{"rt":446.8999999985099,"stimulus":"bees-with-color/bee-A1SM.svg","response":0,"trial_type":"image-button-response","trial_index":85,"time_elapsed":316299,"internal_node_id":"0.0-4.0-0.37","subject_id":"6175d16823c9e4175810882e","study_id":"60edd13110225f80f9f3709b","session_id":"6196c4a70a64387375c1e16b","condition":"contingent","relevant_dimensions":["wings","pattern"],"bee_group":{"antennae":"X","wings":"1","pattern":"S","legs":"X"},"action":"harvest","summary":"bad-harvest","bonus":0.04},{"rt":718.5,"stimulus":"\n                    <p><b>Action: <em>harvest</em></b></p>\n                    <p>This is the bee that you just saw.</p>\n                    <img src=\"bees-with-color/bee-A1SM.svg\" width=\"200\">\n                    <p><span class=\"redText\">Bad choice, the bee was angry.</span><br><b>You have been stung!</b><br>Your pay has been decreased by $0.10. Your bonus pay is now $0.30.</p>\n            ","response":0,"trial_type":"html-button-response","trial_index":86,"time_elapsed":317019,"internal_node_id":"0.0-4.0-1.37","subject_id":"6175d16823c9e4175810882e","study_id":"60edd13110225f80f9f3709b","session_id":"6196c4a70a64387375c1e16b","condition":"contingent","relevant_dimensions":["wings","pattern"],"bee_group":{"antennae":"X","wings":"1","pattern":"S","legs":"X"},"bonus":0.04},{"rt":743.8000000044703,"stimulus":"bees-with-color/bee-A1DF.svg","response":1,"trial_type":"image-button-response","trial_index":87,"time_elapsed":317763,"internal_node_id":"0.0-4.0-0.38","subject_id":"6175d16823c9e4175810882e","study_id":"60edd13110225f80f9f3709b","session_id":"6196c4a70a64387375c1e16b","condition":"contingent","relevant_dimensions":["wings","pattern"],"bee_group":{"antennae":"X","wings":"1","pattern":"S","legs":"X"},"action":"avoid","summary":"bad-avoid","bonus":0.04},{"rt":742.5999999940395,"stimulus":"\n                    <p><b>Action: <em>avoid</em></b></p>\n                    <p>This is the bee that you just saw.</p>\n                    <img src=\"bees-with-color/bee-A1DF.svg\" width=\"200\">\n                    <p><br>Your bonus pay is unchanged, and remains at $0.30.</p>\n            ","response":0,"trial_type":"html-button-response","trial_index":88,"time_elapsed":318507,"internal_node_id":"0.0-4.0-1.38","subject_id":"6175d16823c9e4175810882e","study_id":"60edd13110225f80f9f3709b","session_id":"6196c4a70a64387375c1e16b","condition":"contingent","relevant_dimensions":["wings","pattern"],"bee_group":{"antennae":"X","wings":"1","pattern":"S","legs":"X"},"bonus":0.04},{"rt":455.3999999985099,"stimulus":"bees-with-color/bee-A2DF.svg","response":1,"trial_type":"image-button-response","trial_index":89,"time_elapsed":318963,"internal_node_id":"0.0-4.0-0.39","subject_id":"6175d16823c9e4175810882e","study_id":"60edd13110225f80f9f3709b","session_id":"6196c4a70a64387375c1e16b","condition":"contingent","relevant_dimensions":["wings","pattern"],"bee_group":{"antennae":"X","wings":"1","pattern":"S","legs":"X"},"action":"avoid","summary":"bad-avoid","bonus":0.04},{"rt":335.20000000298023,"stimulus":"\n                    <p><b>Action: <em>avoid</em></b></p>\n                    <p>This is the bee that you just saw.</p>\n                    <img src=\"bees-with-color/bee-A2DF.svg\" width=\"200\">\n                    <p><br>Your bonus pay is unchanged, and remains at $0.30.</p>\n            ","response":0,"trial_type":"html-button-response","trial_index":90,"time_elapsed":319299,"internal_node_id":"0.0-4.0-1.39","subject_id":"6175d16823c9e4175810882e","study_id":"60edd13110225f80f9f3709b","session_id":"6196c4a70a64387375c1e16b","condition":"contingent","relevant_dimensions":["wings","pattern"],"bee_group":{"antennae":"X","wings":"1","pattern":"S","legs":"X"},"bonus":0.04},{"rt":583,"stimulus":"bees-with-color/bee-A2SF.svg","response":0,"trial_type":"image-button-response","trial_index":91,"time_elapsed":319883,"internal_node_id":"0.0-4.0-0.40","subject_id":"6175d16823c9e4175810882e","study_id":"60edd13110225f80f9f3709b","session_id":"6196c4a70a64387375c1e16b","condition":"contingent","relevant_dimensions":["wings","pattern"],"bee_group":{"antennae":"X","wings":"1","pattern":"S","legs":"X"},"action":"harvest","summary":"good-harvest","bonus":0.04},{"rt":574.3999999985099,"stimulus":"\n                    <p><b>Action: <em>harvest</em></b></p>\n                    <p>This is the bee that you just saw.</p>\n                    <img src=\"bees-with-color/bee-A2SF.svg\" width=\"200\">\n                    <p><span class=\"greenText\"><b>Successful harvest!</b></span><br>Your pay has increased by $0.02. Your bonus pay is now $0.32.</p>\n            ","response":0,"trial_type":"html-button-response","trial_index":92,"time_elapsed":320459,"internal_node_id":"0.0-4.0-1.40","subject_id":"6175d16823c9e4175810882e","study_id":"60edd13110225f80f9f3709b","session_id":"6196c4a70a64387375c1e16b","condition":"contingent","relevant_dimensions":["wings","pattern"],"bee_group":{"antennae":"X","wings":"1","pattern":"S","legs":"X"},"bonus":0.04},{"rt":1023.6000000014901,"stimulus":"bees-with-color/bee-B1SM.svg","response":1,"trial_type":"image-button-response","trial_index":93,"time_elapsed":321483,"internal_node_id":"0.0-4.0-0.41","subject_id":"6175d16823c9e4175810882e","study_id":"60edd13110225f80f9f3709b","session_id":"6196c4a70a64387375c1e16b","condition":"contingent","relevant_dimensions":["wings","pattern"],"bee_group":{"antennae":"X","wings":"1","pattern":"S","legs":"X"},"action":"avoid","summary":"good-avoid","bonus":0.04},{"rt":606.9000000059605,"stimulus":"\n                    <p><b>Action: <em>avoid</em></b></p>\n                    <p>This is the bee that you just saw.</p>\n                    <img src=\"bees-with-color/bee-B1SM.svg\" width=\"200\">\n                    <p><br>Your bonus pay is unchanged, and remains at $0.32.</p>\n            ","response":0,"trial_type":"html-button-response","trial_index":94,"time_elapsed":322091,"internal_node_id":"0.0-4.0-1.41","subject_id":"6175d16823c9e4175810882e","study_id":"60edd13110225f80f9f3709b","session_id":"6196c4a70a64387375c1e16b","condition":"contingent","relevant_dimensions":["wings","pattern"],"bee_group":{"antennae":"X","wings":"1","pattern":"S","legs":"X"},"bonus":0.04},{"rt":663.1000000014901,"stimulus":"bees-with-color/bee-B1DF.svg","response":1,"trial_type":"image-button-response","trial_index":95,"time_elapsed":322755,"internal_node_id":"0.0-4.0-0.42","subject_id":"6175d16823c9e4175810882e","study_id":"60edd13110225f80f9f3709b","session_id":"6196c4a70a64387375c1e16b","condition":"contingent","relevant_dimensions":["wings","pattern"],"bee_group":{"antennae":"X","wings":"1","pattern":"S","legs":"X"},"action":"avoid","summary":"bad-avoid","bonus":0.04},{"rt":399.6000000014901,"stimulus":"\n                    <p><b>Action: <em>avoid</em></b></p>\n                    <p>This is the bee that you just saw.</p>\n                    <img src=\"bees-with-color/bee-B1DF.svg\" width=\"200\">\n                    <p><br>Your bonus pay is unchanged, and remains at $0.32.</p>\n            ","response":0,"trial_type":"html-button-response","trial_index":96,"time_elapsed":323155,"internal_node_id":"0.0-4.0-1.42","subject_id":"6175d16823c9e4175810882e","study_id":"60edd13110225f80f9f3709b","session_id":"6196c4a70a64387375c1e16b","condition":"contingent","relevant_dimensions":["wings","pattern"],"bee_group":{"antennae":"X","wings":"1","pattern":"S","legs":"X"},"bonus":0.04},{"rt":327.20000000298023,"stimulus":"bees-with-color/bee-A2SM.svg","response":0,"trial_type":"image-button-response","trial_index":97,"time_elapsed":323483,"internal_node_id":"0.0-4.0-0.43","subject_id":"6175d16823c9e4175810882e","study_id":"60edd13110225f80f9f3709b","session_id":"6196c4a70a64387375c1e16b","condition":"contingent","relevant_dimensions":["wings","pattern"],"bee_group":{"antennae":"X","wings":"1","pattern":"S","legs":"X"},"action":"harvest","summary":"good-harvest","bonus":0.04},{"rt":574.7000000029802,"stimulus":"\n                    <p><b>Action: <em>harvest</em></b></p>\n                    <p>This is the bee that you just saw.</p>\n                    <img src=\"bees-with-color/bee-A2SM.svg\" width=\"200\">\n                    <p><span class=\"greenText\"><b>Successful harvest!</b></span><br>Your pay has increased by $0.02. Your bonus pay is now $0.34.</p>\n            ","response":0,"trial_type":"html-button-response","trial_index":98,"time_elapsed":324059,"internal_node_id":"0.0-4.0-1.43","subject_id":"6175d16823c9e4175810882e","study_id":"60edd13110225f80f9f3709b","session_id":"6196c4a70a64387375c1e16b","condition":"contingent","relevant_dimensions":["wings","pattern"],"bee_group":{"antennae":"X","wings":"1","pattern":"S","legs":"X"},"bonus":0.04},{"rt":407.6000000014901,"stimulus":"bees-with-color/bee-B1DM.svg","response":1,"trial_type":"image-button-response","trial_index":99,"time_elapsed":324467,"internal_node_id":"0.0-4.0-0.44","subject_id":"6175d16823c9e4175810882e","study_id":"60edd13110225f80f9f3709b","session_id":"6196c4a70a64387375c1e16b","condition":"contingent","relevant_dimensions":["wings","pattern"],"bee_group":{"antennae":"X","wings":"1","pattern":"S","legs":"X"},"action":"avoid","summary":"bad-avoid","bonus":0.04},{"rt":550.8999999985099,"stimulus":"\n                    <p><b>Action: <em>avoid</em></b></p>\n                    <p>This is the bee that you just saw.</p>\n                    <img src=\"bees-with-color/bee-B1DM.svg\" width=\"200\">\n                    <p><br>Your bonus pay is unchanged, and remains at $0.34.</p>\n            ","response":0,"trial_type":"html-button-response","trial_index":100,"time_elapsed":325018,"internal_node_id":"0.0-4.0-1.44","subject_id":"6175d16823c9e4175810882e","study_id":"60edd13110225f80f9f3709b","session_id":"6196c4a70a64387375c1e16b","condition":"contingent","relevant_dimensions":["wings","pattern"],"bee_group":{"antennae":"X","wings":"1","pattern":"S","legs":"X"},"bonus":0.04},{"rt":351.69999999552965,"stimulus":"bees-with-color/bee-A1SF.svg","response":0,"trial_type":"image-button-response","trial_index":101,"time_elapsed":325371,"internal_node_id":"0.0-4.0-0.45","subject_id":"6175d16823c9e4175810882e","study_id":"60edd13110225f80f9f3709b","session_id":"6196c4a70a64387375c1e16b","condition":"contingent","relevant_dimensions":["wings","pattern"],"bee_group":{"antennae":"X","wings":"1","pattern":"S","legs":"X"},"action":"harvest","summary":"bad-harvest","bonus":0.04},{"rt":486.8999999985099,"stimulus":"\n                    <p><b>Action: <em>harvest</em></b></p>\n                    <p>This is the bee that you just saw.</p>\n                    <img src=\"bees-with-color/bee-A1SF.svg\" width=\"200\">\n                    <p><span class=\"redText\">Bad choice, the bee was angry.</span><br><b>You have been stung!</b><br>Your pay has been decreased by $0.10. Your bonus pay is now $0.24.</p>\n            ","response":0,"trial_type":"html-button-response","trial_index":102,"time_elapsed":325859,"internal_node_id":"0.0-4.0-1.45","subject_id":"6175d16823c9e4175810882e","study_id":"60edd13110225f80f9f3709b","session_id":"6196c4a70a64387375c1e16b","condition":"contingent","relevant_dimensions":["wings","pattern"],"bee_group":{"antennae":"X","wings":"1","pattern":"S","legs":"X"},"bonus":0.04},{"rt":415.5,"stimulus":"bees-with-color/bee-B2DM.svg","response":1,"trial_type":"image-button-response","trial_index":103,"time_elapsed":326275,"internal_node_id":"0.0-4.0-0.46","subject_id":"6175d16823c9e4175810882e","study_id":"60edd13110225f80f9f3709b","session_id":"6196c4a70a64387375c1e16b","condition":"contingent","relevant_dimensions":["wings","pattern"],"bee_group":{"antennae":"X","wings":"1","pattern":"S","legs":"X"},"action":"avoid","summary":"bad-avoid","bonus":0.04},{"rt":527.2999999970198,"stimulus":"\n                    <p><b>Action: <em>avoid</em></b></p>\n                    <p>This is the bee that you just saw.</p>\n                    <img src=\"bees-with-color/bee-B2DM.svg\" width=\"200\">\n                    <p><br>Your bonus pay is unchanged, and remains at $0.24.</p>\n            ","response":0,"trial_type":"html-button-response","trial_index":104,"time_elapsed":326803,"internal_node_id":"0.0-4.0-1.46","subject_id":"6175d16823c9e4175810882e","study_id":"60edd13110225f80f9f3709b","session_id":"6196c4a70a64387375c1e16b","condition":"contingent","relevant_dimensions":["wings","pattern"],"bee_group":{"antennae":"X","wings":"1","pattern":"S","legs":"X"},"bonus":0.04},{"rt":350.8999999985099,"stimulus":"bees-with-color/bee-A2DM.svg","response":1,"trial_type":"image-button-response","trial_index":105,"time_elapsed":327155,"internal_node_id":"0.0-4.0-0.47","subject_id":"6175d16823c9e4175810882e","study_id":"60edd13110225f80f9f3709b","session_id":"6196c4a70a64387375c1e16b","condition":"contingent","relevant_dimensions":["wings","pattern"],"bee_group":{"antennae":"X","wings":"1","pattern":"S","legs":"X"},"action":"avoid","summary":"bad-avoid","bonus":0.04},{"rt":327.90000000596046,"stimulus":"\n                    <p><b>Action: <em>avoid</em></b></p>\n                    <p>This is the bee that you just saw.</p>\n                    <img src=\"bees-with-color/bee-A2DM.svg\" width=\"200\">\n                    <p><br>Your bonus pay is unchanged, and remains at $0.24.</p>\n            ","response":0,"trial_type":"html-button-response","trial_index":106,"time_elapsed":327483,"internal_node_id":"0.0-4.0-1.47","subject_id":"6175d16823c9e4175810882e","study_id":"60edd13110225f80f9f3709b","session_id":"6196c4a70a64387375c1e16b","condition":"contingent","relevant_dimensions":["wings","pattern"],"bee_group":{"antennae":"X","wings":"1","pattern":"S","legs":"X"},"bonus":0.04},{"rt":270.70000000298023,"stimulus":"bees-with-color/bee-B1SM.svg","response":0,"trial_type":"image-button-response","trial_index":107,"time_elapsed":327755,"internal_node_id":"0.0-4.0-0.48","subject_id":"6175d16823c9e4175810882e","study_id":"60edd13110225f80f9f3709b","session_id":"6196c4a70a64387375c1e16b","condition":"contingent","relevant_dimensions":["wings","pattern"],"bee_group":{"antennae":"X","wings":"1","pattern":"S","legs":"X"},"action":"harvest","summary":"bad-harvest","bonus":0.04},{"rt":711.2000000029802,"stimulus":"\n                    <p><b>Action: <em>harvest</em></b></p>\n                    <p>This is the bee that you just saw.</p>\n                    <img src=\"bees-with-color/bee-B1SM.svg\" width=\"200\">\n                    <p><span class=\"redText\">Bad choice, the bee was angry.</span><br><b>You have been stung!</b><br>Your pay has been decreased by $0.10. Your bonus pay is now $0.14.</p>\n            ","response":0,"trial_type":"html-button-response","trial_index":108,"time_elapsed":328467,"internal_node_id":"0.0-4.0-1.48","subject_id":"6175d16823c9e4175810882e","study_id":"60edd13110225f80f9f3709b","session_id":"6196c4a70a64387375c1e16b","condition":"contingent","relevant_dimensions":["wings","pattern"],"bee_group":{"antennae":"X","wings":"1","pattern":"S","legs":"X"},"bonus":0.04},{"rt":495.69999999552965,"stimulus":"bees-with-color/bee-A1DF.svg","response":1,"trial_type":"image-button-response","trial_index":109,"time_elapsed":328963,"internal_node_id":"0.0-4.0-0.49","subject_id":"6175d16823c9e4175810882e","study_id":"60edd13110225f80f9f3709b","session_id":"6196c4a70a64387375c1e16b","condition":"contingent","relevant_dimensions":["wings","pattern"],"bee_group":{"antennae":"X","wings":"1","pattern":"S","legs":"X"},"action":"avoid","summary":"bad-avoid","bonus":0.04},{"rt":519,"stimulus":"\n                    <p><b>Action: <em>avoid</em></b></p>\n                    <p>This is the bee that you just saw.</p>\n                    <img src=\"bees-with-color/bee-A1DF.svg\" width=\"200\">\n                    <p><br>Your bonus pay is unchanged, and remains at $0.14.</p>\n            ","response":0,"trial_type":"html-button-response","trial_index":110,"time_elapsed":329483,"internal_node_id":"0.0-4.0-1.49","subject_id":"6175d16823c9e4175810882e","study_id":"60edd13110225f80f9f3709b","session_id":"6196c4a70a64387375c1e16b","condition":"contingent","relevant_dimensions":["wings","pattern"],"bee_group":{"antennae":"X","wings":"1","pattern":"S","legs":"X"},"bonus":0.04},{"rt":342.70000000298023,"stimulus":"bees-with-color/bee-B2DM.svg","response":1,"trial_type":"image-button-response","trial_index":111,"time_elapsed":329827,"internal_node_id":"0.0-4.0-0.50","subject_id":"6175d16823c9e4175810882e","study_id":"60edd13110225f80f9f3709b","session_id":"6196c4a70a64387375c1e16b","condition":"contingent","relevant_dimensions":["wings","pattern"],"bee_group":{"antennae":"X","wings":"1","pattern":"S","legs":"X"},"action":"avoid","summary":"bad-avoid","bonus":0.04},{"rt":311.29999999701977,"stimulus":"\n                    <p><b>Action: <em>avoid</em></b></p>\n                    <p>This is the bee that you just saw.</p>\n                    <img src=\"bees-with-color/bee-B2DM.svg\" width=\"200\">\n                    <p><br>Your bonus pay is unchanged, and remains at $0.14.</p>\n            ","response":0,"trial_type":"html-button-response","trial_index":112,"time_elapsed":330139,"internal_node_id":"0.0-4.0-1.50","subject_id":"6175d16823c9e4175810882e","study_id":"60edd13110225f80f9f3709b","session_id":"6196c4a70a64387375c1e16b","condition":"contingent","relevant_dimensions":["wings","pattern"],"bee_group":{"antennae":"X","wings":"1","pattern":"S","legs":"X"},"bonus":0.04},{"rt":350.80000000447035,"stimulus":"bees-with-color/bee-A2SM.svg","response":0,"trial_type":"image-button-response","trial_index":113,"time_elapsed":330491,"internal_node_id":"0.0-4.0-0.51","subject_id":"6175d16823c9e4175810882e","study_id":"60edd13110225f80f9f3709b","session_id":"6196c4a70a64387375c1e16b","condition":"contingent","relevant_dimensions":["wings","pattern"],"bee_group":{"antennae":"X","wings":"1","pattern":"S","legs":"X"},"action":"harvest","summary":"good-harvest","bonus":0.04},{"rt":592.1000000014901,"stimulus":"\n                    <p><b>Action: <em>harvest</em></b></p>\n                    <p>This is the bee that you just saw.</p>\n                    <img src=\"bees-with-color/bee-A2SM.svg\" width=\"200\">\n                    <p><span class=\"greenText\"><b>Successful harvest!</b></span><br>Your pay has increased by $0.02. Your bonus pay is now $0.16.</p>\n            ","response":0,"trial_type":"html-button-response","trial_index":114,"time_elapsed":331083,"internal_node_id":"0.0-4.0-1.51","subject_id":"6175d16823c9e4175810882e","study_id":"60edd13110225f80f9f3709b","session_id":"6196c4a70a64387375c1e16b","condition":"contingent","relevant_dimensions":["wings","pattern"],"bee_group":{"antennae":"X","wings":"1","pattern":"S","legs":"X"},"bonus":0.04},{"rt":2438.89999999851,"stimulus":"bees-with-color/bee-B2SM.svg","response":1,"trial_type":"image-button-response","trial_index":115,"time_elapsed":333523,"internal_node_id":"0.0-4.0-0.52","subject_id":"6175d16823c9e4175810882e","study_id":"60edd13110225f80f9f3709b","session_id":"6196c4a70a64387375c1e16b","condition":"contingent","relevant_dimensions":["wings","pattern"],"bee_group":{"antennae":"X","wings":"1","pattern":"S","legs":"X"},"action":"avoid","summary":"bad-avoid","bonus":0.04},{"rt":366.8999999985099,"stimulus":"\n                    <p><b>Action: <em>avoid</em></b></p>\n                    <p>This is the bee that you just saw.</p>\n                    <img src=\"bees-with-color/bee-B2SM.svg\" width=\"200\">\n                    <p><br>Your bonus pay is unchanged, and remains at $0.16.</p>\n            ","response":0,"trial_type":"html-button-response","trial_index":116,"time_elapsed":333891,"internal_node_id":"0.0-4.0-1.52","subject_id":"6175d16823c9e4175810882e","study_id":"60edd13110225f80f9f3709b","session_id":"6196c4a70a64387375c1e16b","condition":"contingent","relevant_dimensions":["wings","pattern"],"bee_group":{"antennae":"X","wings":"1","pattern":"S","legs":"X"},"bonus":0.04},{"rt":831.3999999985099,"stimulus":"bees-with-color/bee-B2SF.svg","response":1,"trial_type":"image-button-response","trial_index":117,"time_elapsed":334723,"internal_node_id":"0.0-4.0-0.53","subject_id":"6175d16823c9e4175810882e","study_id":"60edd13110225f80f9f3709b","session_id":"6196c4a70a64387375c1e16b","condition":"contingent","relevant_dimensions":["wings","pattern"],"bee_group":{"antennae":"X","wings":"1","pattern":"S","legs":"X"},"action":"avoid","summary":"bad-avoid","bonus":0.04},{"rt":255.20000000298023,"stimulus":"\n                    <p><b>Action: <em>avoid</em></b></p>\n                    <p>This is the bee that you just saw.</p>\n                    <img src=\"bees-with-color/bee-B2SF.svg\" width=\"200\">\n                    <p><br>Your bonus pay is unchanged, and remains at $0.16.</p>\n            ","response":0,"trial_type":"html-button-response","trial_index":118,"time_elapsed":334979,"internal_node_id":"0.0-4.0-1.53","subject_id":"6175d16823c9e4175810882e","study_id":"60edd13110225f80f9f3709b","session_id":"6196c4a70a64387375c1e16b","condition":"contingent","relevant_dimensions":["wings","pattern"],"bee_group":{"antennae":"X","wings":"1","pattern":"S","legs":"X"},"bonus":0.04},{"rt":255.09999999403954,"stimulus":"bees-with-color/bee-A2SF.svg","response":0,"trial_type":"image-button-response","trial_index":119,"time_elapsed":335235,"internal_node_id":"0.0-4.0-0.54","subject_id":"6175d16823c9e4175810882e","study_id":"60edd13110225f80f9f3709b","session_id":"6196c4a70a64387375c1e16b","condition":"contingent","relevant_dimensions":["wings","pattern"],"bee_group":{"antennae":"X","wings":"1","pattern":"S","legs":"X"},"action":"harvest","summary":"good-harvest","bonus":0.04},{"rt":607,"stimulus":"\n                    <p><b>Action: <em>harvest</em></b></p>\n                    <p>This is the bee that you just saw.</p>\n                    <img src=\"bees-with-color/bee-A2SF.svg\" width=\"200\">\n                    <p><span class=\"greenText\"><b>Successful harvest!</b></span><br>Your pay has increased by $0.02. Your bonus pay is now $0.18.</p>\n            ","response":0,"trial_type":"html-button-response","trial_index":120,"time_elapsed":335843,"internal_node_id":"0.0-4.0-1.54","subject_id":"6175d16823c9e4175810882e","study_id":"60edd13110225f80f9f3709b","session_id":"6196c4a70a64387375c1e16b","condition":"contingent","relevant_dimensions":["wings","pattern"],"bee_group":{"antennae":"X","wings":"1","pattern":"S","legs":"X"},"bonus":0.04},{"rt":1279.5,"stimulus":"bees-with-color/bee-A1SF.svg","response":1,"trial_type":"image-button-response","trial_index":121,"time_elapsed":337123,"internal_node_id":"0.0-4.0-0.55","subject_id":"6175d16823c9e4175810882e","study_id":"60edd13110225f80f9f3709b","session_id":"6196c4a70a64387375c1e16b","condition":"contingent","relevant_dimensions":["wings","pattern"],"bee_group":{"antennae":"X","wings":"1","pattern":"S","legs":"X"},"action":"avoid","summary":"good-avoid","bonus":0.04},{"rt":255.20000000298023,"stimulus":"\n                    <p><b>Action: <em>avoid</em></b></p>\n                    <p>This is the bee that you just saw.</p>\n                    <img src=\"bees-with-color/bee-A1SF.svg\" width=\"200\">\n                    <p><br>Your bonus pay is unchanged, and remains at $0.18.</p>\n            ","response":0,"trial_type":"html-button-response","trial_index":122,"time_elapsed":337379,"internal_node_id":"0.0-4.0-1.55","subject_id":"6175d16823c9e4175810882e","study_id":"60edd13110225f80f9f3709b","session_id":"6196c4a70a64387375c1e16b","condition":"contingent","relevant_dimensions":["wings","pattern"],"bee_group":{"antennae":"X","wings":"1","pattern":"S","legs":"X"},"bonus":0.04},{"rt":391.30000000447035,"stimulus":"bees-with-color/bee-B1SF.svg","response":1,"trial_type":"image-button-response","trial_index":123,"time_elapsed":337771,"internal_node_id":"0.0-4.0-0.56","subject_id":"6175d16823c9e4175810882e","study_id":"60edd13110225f80f9f3709b","session_id":"6196c4a70a64387375c1e16b","condition":"contingent","relevant_dimensions":["wings","pattern"],"bee_group":{"antennae":"X","wings":"1","pattern":"S","legs":"X"},"action":"avoid","summary":"good-avoid","bonus":0.04},{"rt":279.20000000298023,"stimulus":"\n                    <p><b>Action: <em>avoid</em></b></p>\n                    <p>This is the bee that you just saw.</p>\n                    <img src=\"bees-with-color/bee-B1SF.svg\" width=\"200\">\n                    <p><br>Your bonus pay is unchanged, and remains at $0.18.</p>\n            ","response":0,"trial_type":"html-button-response","trial_index":124,"time_elapsed":338051,"internal_node_id":"0.0-4.0-1.56","subject_id":"6175d16823c9e4175810882e","study_id":"60edd13110225f80f9f3709b","session_id":"6196c4a70a64387375c1e16b","condition":"contingent","relevant_dimensions":["wings","pattern"],"bee_group":{"antennae":"X","wings":"1","pattern":"S","legs":"X"},"bonus":0.04},{"rt":742.6000000014901,"stimulus":"bees-with-color/bee-A1SM.svg","response":0,"trial_type":"image-button-response","trial_index":125,"time_elapsed":338795,"internal_node_id":"0.0-4.0-0.57","subject_id":"6175d16823c9e4175810882e","study_id":"60edd13110225f80f9f3709b","session_id":"6196c4a70a64387375c1e16b","condition":"contingent","relevant_dimensions":["wings","pattern"],"bee_group":{"antennae":"X","wings":"1","pattern":"S","legs":"X"},"action":"harvest","summary":"bad-harvest","bonus":0.04},{"rt":791.4000000059605,"stimulus":"\n                    <p><b>Action: <em>harvest</em></b></p>\n                    <p>This is the bee that you just saw.</p>\n                    <img src=\"bees-with-color/bee-A1SM.svg\" width=\"200\">\n                    <p><span class=\"redText\">Bad choice, the bee was angry.</span><br><b>You have been stung!</b><br>Your pay has been decreased by $0.10. Your bonus pay is now $0.08.</p>\n            ","response":0,"trial_type":"html-button-response","trial_index":126,"time_elapsed":339587,"internal_node_id":"0.0-4.0-1.57","subject_id":"6175d16823c9e4175810882e","study_id":"60edd13110225f80f9f3709b","session_id":"6196c4a70a64387375c1e16b","condition":"contingent","relevant_dimensions":["wings","pattern"],"bee_group":{"antennae":"X","wings":"1","pattern":"S","legs":"X"},"bonus":0.04},{"rt":439.30000000447035,"stimulus":"bees-with-color/bee-B1DM.svg","response":1,"trial_type":"image-button-response","trial_index":127,"time_elapsed":340027,"internal_node_id":"0.0-4.0-0.58","subject_id":"6175d16823c9e4175810882e","study_id":"60edd13110225f80f9f3709b","session_id":"6196c4a70a64387375c1e16b","condition":"contingent","relevant_dimensions":["wings","pattern"],"bee_group":{"antennae":"X","wings":"1","pattern":"S","legs":"X"},"action":"avoid","summary":"bad-avoid","bonus":0.04},{"rt":303.1000000014901,"stimulus":"\n                    <p><b>Action: <em>avoid</em></b></p>\n                    <p>This is the bee that you just saw.</p>\n                    <img src=\"bees-with-color/bee-B1DM.svg\" width=\"200\">\n                    <p><br>Your bonus pay is unchanged, and remains at $0.08.</p>\n            ","response":0,"trial_type":"html-button-response","trial_index":128,"time_elapsed":340331,"internal_node_id":"0.0-4.0-1.58","subject_id":"6175d16823c9e4175810882e","study_id":"60edd13110225f80f9f3709b","session_id":"6196c4a70a64387375c1e16b","condition":"contingent","relevant_dimensions":["wings","pattern"],"bee_group":{"antennae":"X","wings":"1","pattern":"S","legs":"X"},"bonus":0.04},{"rt":351,"stimulus":"bees-with-color/bee-A2DM.svg","response":1,"trial_type":"image-button-response","trial_index":129,"time_elapsed":340683,"internal_node_id":"0.0-4.0-0.59","subject_id":"6175d16823c9e4175810882e","study_id":"60edd13110225f80f9f3709b","session_id":"6196c4a70a64387375c1e16b","condition":"contingent","relevant_dimensions":["wings","pattern"],"bee_group":{"antennae":"X","wings":"1","pattern":"S","legs":"X"},"action":"avoid","summary":"bad-avoid","bonus":0.04},{"rt":943.1000000014901,"stimulus":"\n                    <p><b>Action: <em>avoid</em></b></p>\n                    <p>This is the bee that you just saw.</p>\n                    <img src=\"bees-with-color/bee-A2DM.svg\" width=\"200\">\n                    <p><br>Your bonus pay is unchanged, and remains at $0.08.</p>\n            ","response":0,"trial_type":"html-button-response","trial_index":130,"time_elapsed":341627,"internal_node_id":"0.0-4.0-1.59","subject_id":"6175d16823c9e4175810882e","study_id":"60edd13110225f80f9f3709b","session_id":"6196c4a70a64387375c1e16b","condition":"contingent","relevant_dimensions":["wings","pattern"],"bee_group":{"antennae":"X","wings":"1","pattern":"S","legs":"X"},"bonus":0.04},{"rt":502.8999999985099,"stimulus":"bees-with-color/bee-A1DM.svg","response":0,"trial_type":"image-button-response","trial_index":131,"time_elapsed":342131,"internal_node_id":"0.0-4.0-0.60","subject_id":"6175d16823c9e4175810882e","study_id":"60edd13110225f80f9f3709b","session_id":"6196c4a70a64387375c1e16b","condition":"contingent","relevant_dimensions":["wings","pattern"],"bee_group":{"antennae":"X","wings":"1","pattern":"S","legs":"X"},"action":"harvest","summary":"good-harvest","bonus":0.04},{"rt":486.8999999985099,"stimulus":"\n                    <p><b>Action: <em>harvest</em></b></p>\n                    <p>This is the bee that you just saw.</p>\n                    <img src=\"bees-with-color/bee-A1DM.svg\" width=\"200\">\n                    <p><span class=\"greenText\"><b>Successful harvest!</b></span><br>Your pay has increased by $0.02. Your bonus pay is now $0.10.</p>\n            ","response":0,"trial_type":"html-button-response","trial_index":132,"time_elapsed":342619,"internal_node_id":"0.0-4.0-1.60","subject_id":"6175d16823c9e4175810882e","study_id":"60edd13110225f80f9f3709b","session_id":"6196c4a70a64387375c1e16b","condition":"contingent","relevant_dimensions":["wings","pattern"],"bee_group":{"antennae":"X","wings":"1","pattern":"S","legs":"X"},"bonus":0.04},{"rt":695.3999999985099,"stimulus":"bees-with-color/bee-B1DF.svg","response":1,"trial_type":"image-button-response","trial_index":133,"time_elapsed":343315,"internal_node_id":"0.0-4.0-0.61","subject_id":"6175d16823c9e4175810882e","study_id":"60edd13110225f80f9f3709b","session_id":"6196c4a70a64387375c1e16b","condition":"contingent","relevant_dimensions":["wings","pattern"],"bee_group":{"antennae":"X","wings":"1","pattern":"S","legs":"X"},"action":"avoid","summary":"bad-avoid","bonus":0.04},{"rt":702.5,"stimulus":"\n                    <p><b>Action: <em>avoid</em></b></p>\n                    <p>This is the bee that you just saw.</p>\n                    <img src=\"bees-with-color/bee-B1DF.svg\" width=\"200\">\n                    <p><br>Your bonus pay is unchanged, and remains at $0.10.</p>\n            ","response":0,"trial_type":"html-button-response","trial_index":134,"time_elapsed":344019,"internal_node_id":"0.0-4.0-1.61","subject_id":"6175d16823c9e4175810882e","study_id":"60edd13110225f80f9f3709b","session_id":"6196c4a70a64387375c1e16b","condition":"contingent","relevant_dimensions":["wings","pattern"],"bee_group":{"antennae":"X","wings":"1","pattern":"S","legs":"X"},"bonus":0.04},{"rt":231.29999999701977,"stimulus":"bees-with-color/bee-B2DF.svg","response":0,"trial_type":"image-button-response","trial_index":135,"time_elapsed":344251,"internal_node_id":"0.0-4.0-0.62","subject_id":"6175d16823c9e4175810882e","study_id":"60edd13110225f80f9f3709b","session_id":"6196c4a70a64387375c1e16b","condition":"contingent","relevant_dimensions":["wings","pattern"],"bee_group":{"antennae":"X","wings":"1","pattern":"S","legs":"X"},"action":"harvest","summary":"good-harvest","bonus":0.04},{"rt":606.8999999985099,"stimulus":"\n                    <p><b>Action: <em>harvest</em></b></p>\n                    <p>This is the bee that you just saw.</p>\n                    <img src=\"bees-with-color/bee-B2DF.svg\" width=\"200\">\n                    <p><span class=\"greenText\"><b>Successful harvest!</b></span><br>Your pay has increased by $0.02. Your bonus pay is now $0.12.</p>\n            ","response":0,"trial_type":"html-button-response","trial_index":136,"time_elapsed":344859,"internal_node_id":"0.0-4.0-1.62","subject_id":"6175d16823c9e4175810882e","study_id":"60edd13110225f80f9f3709b","session_id":"6196c4a70a64387375c1e16b","condition":"contingent","relevant_dimensions":["wings","pattern"],"bee_group":{"antennae":"X","wings":"1","pattern":"S","legs":"X"},"bonus":0.04},{"rt":319.1000000014901,"stimulus":"bees-with-color/bee-A2DF.svg","response":1,"trial_type":"image-button-response","trial_index":137,"time_elapsed":345179,"internal_node_id":"0.0-4.0-0.63","subject_id":"6175d16823c9e4175810882e","study_id":"60edd13110225f80f9f3709b","session_id":"6196c4a70a64387375c1e16b","condition":"contingent","relevant_dimensions":["wings","pattern"],"bee_group":{"antennae":"X","wings":"1","pattern":"S","legs":"X"},"action":"avoid","summary":"bad-avoid","bonus":0.04},{"rt":310.8999999985099,"stimulus":"\n                    <p><b>Action: <em>avoid</em></b></p>\n                    <p>This is the bee that you just saw.</p>\n                    <img src=\"bees-with-color/bee-A2DF.svg\" width=\"200\">\n                    <p><br>Your bonus pay is unchanged, and remains at $0.12.</p>\n            ","response":0,"trial_type":"html-button-response","trial_index":138,"time_elapsed":345491,"internal_node_id":"0.0-4.0-1.63","subject_id":"6175d16823c9e4175810882e","study_id":"60edd13110225f80f9f3709b","session_id":"6196c4a70a64387375c1e16b","condition":"contingent","relevant_dimensions":["wings","pattern"],"bee_group":{"antennae":"X","wings":"1","pattern":"S","legs":"X"},"bonus":0.04},{"rt":35980.70000000298,"stimulus":"You have completed the first part of this experiment.<br><br>You will now begin a shorter second part, in which you will receive no feedback.<br>The same rules regarding bonus pay apply.<br><br>Press any key to begin.","response":"n","trial_type":"html-keyboard-response","trial_index":139,"time_elapsed":381473,"internal_node_id":"0.0-5.0","subject_id":"6175d16823c9e4175810882e","study_id":"60edd13110225f80f9f3709b","session_id":"6196c4a70a64387375c1e16b","condition":"contingent","relevant_dimensions":["wings","pattern"],"bee_group":{"antennae":"X","wings":"1","pattern":"S","legs":"X"},"bonus":0.04},{"rt":2297.89999999851,"stimulus":"bees-with-color/bee-A1DM.svg","response":1,"trial_type":"image-button-response","trial_index":140,"time_elapsed":383779,"internal_node_id":"0.0-6.0-0.0","subject_id":"6175d16823c9e4175810882e","study_id":"60edd13110225f80f9f3709b","session_id":"6196c4a70a64387375c1e16b","condition":"contingent","relevant_dimensions":["wings","pattern"],"bee_group":{"antennae":"X","wings":"1","pattern":"S","legs":"X"},"bonus":0.04},{"rt":942.5,"stimulus":"bees-with-color/bee-B2SF.svg","response":1,"trial_type":"image-button-response","trial_index":141,"time_elapsed":384723,"internal_node_id":"0.0-6.0-0.1","subject_id":"6175d16823c9e4175810882e","study_id":"60edd13110225f80f9f3709b","session_id":"6196c4a70a64387375c1e16b","condition":"contingent","relevant_dimensions":["wings","pattern"],"bee_group":{"antennae":"X","wings":"1","pattern":"S","legs":"X"},"bonus":0.04},{"rt":510.1000000014901,"stimulus":"bees-with-color/bee-A2DM.svg","response":0,"trial_type":"image-button-response","trial_index":142,"time_elapsed":385234,"internal_node_id":"0.0-6.0-0.2","subject_id":"6175d16823c9e4175810882e","study_id":"60edd13110225f80f9f3709b","session_id":"6196c4a70a64387375c1e16b","condition":"contingent","relevant_dimensions":["wings","pattern"],"bee_group":{"antennae":"X","wings":"1","pattern":"S","legs":"X"},"bonus":0.04},{"rt":535,"stimulus":"bees-with-color/bee-A2SM.svg","response":1,"trial_type":"image-button-response","trial_index":143,"time_elapsed":385771,"internal_node_id":"0.0-6.0-0.3","subject_id":"6175d16823c9e4175810882e","study_id":"60edd13110225f80f9f3709b","session_id":"6196c4a70a64387375c1e16b","condition":"contingent","relevant_dimensions":["wings","pattern"],"bee_group":{"antennae":"X","wings":"1","pattern":"S","legs":"X"},"bonus":0.04},{"rt":311.5,"stimulus":"bees-with-color/bee-B2DM.svg","response":1,"trial_type":"image-button-response","trial_index":144,"time_elapsed":386083,"internal_node_id":"0.0-6.0-0.4","subject_id":"6175d16823c9e4175810882e","study_id":"60edd13110225f80f9f3709b","session_id":"6196c4a70a64387375c1e16b","condition":"contingent","relevant_dimensions":["wings","pattern"],"bee_group":{"antennae":"X","wings":"1","pattern":"S","legs":"X"},"bonus":0.04},{"rt":174.39999999850988,"stimulus":"bees-with-color/bee-A2DF.svg","response":1,"trial_type":"image-button-response","trial_index":145,"time_elapsed":386259,"internal_node_id":"0.0-6.0-0.5","subject_id":"6175d16823c9e4175810882e","study_id":"60edd13110225f80f9f3709b","session_id":"6196c4a70a64387375c1e16b","condition":"contingent","relevant_dimensions":["wings","pattern"],"bee_group":{"antennae":"X","wings":"1","pattern":"S","legs":"X"},"bonus":0.04},{"rt":334.20000000298023,"stimulus":"bees-with-color/bee-A1SM.svg","response":0,"trial_type":"image-button-response","trial_index":146,"time_elapsed":386595,"internal_node_id":"0.0-6.0-0.6","subject_id":"6175d16823c9e4175810882e","study_id":"60edd13110225f80f9f3709b","session_id":"6196c4a70a64387375c1e16b","condition":"contingent","relevant_dimensions":["wings","pattern"],"bee_group":{"antennae":"X","wings":"1","pattern":"S","legs":"X"},"bonus":0.04},{"rt":318.8999999985099,"stimulus":"bees-with-color/bee-B1SM.svg","response":1,"trial_type":"image-button-response","trial_index":147,"time_elapsed":386914,"internal_node_id":"0.0-6.0-0.7","subject_id":"6175d16823c9e4175810882e","study_id":"60edd13110225f80f9f3709b","session_id":"6196c4a70a64387375c1e16b","condition":"contingent","relevant_dimensions":["wings","pattern"],"bee_group":{"antennae":"X","wings":"1","pattern":"S","legs":"X"},"bonus":0.04},{"rt":223.29999999701977,"stimulus":"bees-with-color/bee-A2SF.svg","response":1,"trial_type":"image-button-response","trial_index":148,"time_elapsed":387139,"internal_node_id":"0.0-6.0-0.8","subject_id":"6175d16823c9e4175810882e","study_id":"60edd13110225f80f9f3709b","session_id":"6196c4a70a64387375c1e16b","condition":"contingent","relevant_dimensions":["wings","pattern"],"bee_group":{"antennae":"X","wings":"1","pattern":"S","legs":"X"},"bonus":0.04},{"rt":366.69999999552965,"stimulus":"bees-with-color/bee-B1SF.svg","response":1,"trial_type":"image-button-response","trial_index":149,"time_elapsed":387507,"internal_node_id":"0.0-6.0-0.9","subject_id":"6175d16823c9e4175810882e","study_id":"60edd13110225f80f9f3709b","session_id":"6196c4a70a64387375c1e16b","condition":"contingent","relevant_dimensions":["wings","pattern"],"bee_group":{"antennae":"X","wings":"1","pattern":"S","legs":"X"},"bonus":0.04},{"rt":126.30000000447035,"stimulus":"bees-with-color/bee-B2DF.svg","response":1,"trial_type":"image-button-response","trial_index":150,"time_elapsed":387635,"internal_node_id":"0.0-6.0-0.10","subject_id":"6175d16823c9e4175810882e","study_id":"60edd13110225f80f9f3709b","session_id":"6196c4a70a64387375c1e16b","condition":"contingent","relevant_dimensions":["wings","pattern"],"bee_group":{"antennae":"X","wings":"1","pattern":"S","legs":"X"},"bonus":0.04},{"rt":318.6000000014901,"stimulus":"bees-with-color/bee-B1DF.svg","response":0,"trial_type":"image-button-response","trial_index":151,"time_elapsed":387955,"internal_node_id":"0.0-6.0-0.11","subject_id":"6175d16823c9e4175810882e","study_id":"60edd13110225f80f9f3709b","session_id":"6196c4a70a64387375c1e16b","condition":"contingent","relevant_dimensions":["wings","pattern"],"bee_group":{"antennae":"X","wings":"1","pattern":"S","legs":"X"},"bonus":0.04},{"rt":374.3999999985099,"stimulus":"bees-with-color/bee-A1SF.svg","response":1,"trial_type":"image-button-response","trial_index":152,"time_elapsed":388331,"internal_node_id":"0.0-6.0-0.12","subject_id":"6175d16823c9e4175810882e","study_id":"60edd13110225f80f9f3709b","session_id":"6196c4a70a64387375c1e16b","condition":"contingent","relevant_dimensions":["wings","pattern"],"bee_group":{"antennae":"X","wings":"1","pattern":"S","legs":"X"},"bonus":0.04},{"rt":311.19999999552965,"stimulus":"bees-with-color/bee-B2SM.svg","response":0,"trial_type":"image-button-response","trial_index":153,"time_elapsed":388643,"internal_node_id":"0.0-6.0-0.13","subject_id":"6175d16823c9e4175810882e","study_id":"60edd13110225f80f9f3709b","session_id":"6196c4a70a64387375c1e16b","condition":"contingent","relevant_dimensions":["wings","pattern"],"bee_group":{"antennae":"X","wings":"1","pattern":"S","legs":"X"},"bonus":0.04},{"rt":286,"stimulus":"bees-with-color/bee-A1DF.svg","response":1,"trial_type":"image-button-response","trial_index":154,"time_elapsed":388930,"internal_node_id":"0.0-6.0-0.14","subject_id":"6175d16823c9e4175810882e","study_id":"60edd13110225f80f9f3709b","session_id":"6196c4a70a64387375c1e16b","condition":"contingent","relevant_dimensions":["wings","pattern"],"bee_group":{"antennae":"X","wings":"1","pattern":"S","legs":"X"},"bonus":0.04},{"rt":238.79999999701977,"stimulus":"bees-with-color/bee-B1DM.svg","response":1,"trial_type":"image-button-response","trial_index":155,"time_elapsed":389170,"internal_node_id":"0.0-6.0-0.15","subject_id":"6175d16823c9e4175810882e","study_id":"60edd13110225f80f9f3709b","session_id":"6196c4a70a64387375c1e16b","condition":"contingent","relevant_dimensions":["wings","pattern"],"bee_group":{"antennae":"X","wings":"1","pattern":"S","legs":"X"},"bonus":0.04},{"rt":319.80000000447035,"stimulus":"bees-with-color/bee-B2DM.svg","response":0,"trial_type":"image-button-response","trial_index":156,"time_elapsed":389491,"internal_node_id":"0.0-6.0-0.16","subject_id":"6175d16823c9e4175810882e","study_id":"60edd13110225f80f9f3709b","session_id":"6196c4a70a64387375c1e16b","condition":"contingent","relevant_dimensions":["wings","pattern"],"bee_group":{"antennae":"X","wings":"1","pattern":"S","legs":"X"},"bonus":0.04},{"rt":174.30000000447035,"stimulus":"bees-with-color/bee-A2DM.svg","response":0,"trial_type":"image-button-response","trial_index":157,"time_elapsed":389667,"internal_node_id":"0.0-6.0-0.17","subject_id":"6175d16823c9e4175810882e","study_id":"60edd13110225f80f9f3709b","session_id":"6196c4a70a64387375c1e16b","condition":"contingent","relevant_dimensions":["wings","pattern"],"bee_group":{"antennae":"X","wings":"1","pattern":"S","legs":"X"},"bonus":0.04},{"rt":310.8999999985099,"stimulus":"bees-with-color/bee-B2DF.svg","response":1,"trial_type":"image-button-response","trial_index":158,"time_elapsed":389979,"internal_node_id":"0.0-6.0-0.18","subject_id":"6175d16823c9e4175810882e","study_id":"60edd13110225f80f9f3709b","session_id":"6196c4a70a64387375c1e16b","condition":"contingent","relevant_dimensions":["wings","pattern"],"bee_group":{"antennae":"X","wings":"1","pattern":"S","legs":"X"},"bonus":0.04},{"rt":254.89999999850988,"stimulus":"bees-with-color/bee-A2SF.svg","response":1,"trial_type":"image-button-response","trial_index":159,"time_elapsed":390235,"internal_node_id":"0.0-6.0-0.19","subject_id":"6175d16823c9e4175810882e","study_id":"60edd13110225f80f9f3709b","session_id":"6196c4a70a64387375c1e16b","condition":"contingent","relevant_dimensions":["wings","pattern"],"bee_group":{"antennae":"X","wings":"1","pattern":"S","legs":"X"},"bonus":0.04},{"rt":296,"stimulus":"bees-with-color/bee-B1SF.svg","response":0,"trial_type":"image-button-response","trial_index":160,"time_elapsed":390532,"internal_node_id":"0.0-6.0-0.20","subject_id":"6175d16823c9e4175810882e","study_id":"60edd13110225f80f9f3709b","session_id":"6196c4a70a64387375c1e16b","condition":"contingent","relevant_dimensions":["wings","pattern"],"bee_group":{"antennae":"X","wings":"1","pattern":"S","legs":"X"},"bonus":0.04},{"rt":253.5,"stimulus":"bees-with-color/bee-A1SM.svg","response":1,"trial_type":"image-button-response","trial_index":161,"time_elapsed":390786,"internal_node_id":"0.0-6.0-0.21","subject_id":"6175d16823c9e4175810882e","study_id":"60edd13110225f80f9f3709b","session_id":"6196c4a70a64387375c1e16b","condition":"contingent","relevant_dimensions":["wings","pattern"],"bee_group":{"antennae":"X","wings":"1","pattern":"S","legs":"X"},"bonus":0.04},{"rt":415.1000000014901,"stimulus":"bees-with-color/bee-A2DF.svg","response":1,"trial_type":"image-button-response","trial_index":162,"time_elapsed":391203,"internal_node_id":"0.0-6.0-0.22","subject_id":"6175d16823c9e4175810882e","study_id":"60edd13110225f80f9f3709b","session_id":"6196c4a70a64387375c1e16b","condition":"contingent","relevant_dimensions":["wings","pattern"],"bee_group":{"antennae":"X","wings":"1","pattern":"S","legs":"X"},"bonus":0.04},{"rt":255.29999999701977,"stimulus":"bees-with-color/bee-B1DM.svg","response":0,"trial_type":"image-button-response","trial_index":163,"time_elapsed":391459,"internal_node_id":"0.0-6.0-0.23","subject_id":"6175d16823c9e4175810882e","study_id":"60edd13110225f80f9f3709b","session_id":"6196c4a70a64387375c1e16b","condition":"contingent","relevant_dimensions":["wings","pattern"],"bee_group":{"antennae":"X","wings":"1","pattern":"S","legs":"X"},"bonus":0.04},{"rt":294.19999999552965,"stimulus":"bees-with-color/bee-A1SF.svg","response":1,"trial_type":"image-button-response","trial_index":164,"time_elapsed":391754,"internal_node_id":"0.0-6.0-0.24","subject_id":"6175d16823c9e4175810882e","study_id":"60edd13110225f80f9f3709b","session_id":"6196c4a70a64387375c1e16b","condition":"contingent","relevant_dimensions":["wings","pattern"],"bee_group":{"antennae":"X","wings":"1","pattern":"S","legs":"X"},"bonus":0.04},{"rt":375.6000000014901,"stimulus":"bees-with-color/bee-B2SM.svg","response":1,"trial_type":"image-button-response","trial_index":165,"time_elapsed":392131,"internal_node_id":"0.0-6.0-0.25","subject_id":"6175d16823c9e4175810882e","study_id":"60edd13110225f80f9f3709b","session_id":"6196c4a70a64387375c1e16b","condition":"contingent","relevant_dimensions":["wings","pattern"],"bee_group":{"antennae":"X","wings":"1","pattern":"S","legs":"X"},"bonus":0.04},{"rt":806.8000000044703,"stimulus":"bees-with-color/bee-B1SM.svg","response":0,"trial_type":"image-button-response","trial_index":166,"time_elapsed":392939,"internal_node_id":"0.0-6.0-0.26","subject_id":"6175d16823c9e4175810882e","study_id":"60edd13110225f80f9f3709b","session_id":"6196c4a70a64387375c1e16b","condition":"contingent","relevant_dimensions":["wings","pattern"],"bee_group":{"antennae":"X","wings":"1","pattern":"S","legs":"X"},"bonus":0.04},{"rt":239.19999999552965,"stimul