[{"success":true,"trial_type":"fullscreen","trial_index":0,"time_elapsed":3517,"internal_node_id":"0.0-0.0","subject_id":"61717173748006894b2b54ff","study_id":"6197b3f67c2b5cd3b6d9596a","session_id":"619be31afa279ac60d2c7f1f","condition":"full-information","relevant_dimensions":["antennae","pattern"],"bee_group":{"antennae":"A","wings":"X","pattern":"S","legs":"X"},"bonus":0.8800000000000009},{"success":true,"timeout":false,"failed_images":[],"failed_audio":[],"failed_video":[],"trial_type":"preload","trial_index":1,"time_elapsed":3554,"internal_node_id":"0.0-1.0","subject_id":"61717173748006894b2b54ff","study_id":"6197b3f67c2b5cd3b6d9596a","session_id":"619be31afa279ac60d2c7f1f","condition":"full-information","relevant_dimensions":["antennae","pattern"],"bee_group":{"antennae":"A","wings":"X","pattern":"S","legs":"X"},"bonus":0.8800000000000009},{"rt":1507.3999999761581,"stimulus":"Welcome! Press any key to begin.","response":" ","trial_type":"html-keyboard-response","trial_index":2,"time_elapsed":5062,"internal_node_id":"0.0-2.0","subject_id":"61717173748006894b2b54ff","study_id":"6197b3f67c2b5cd3b6d9596a","session_id":"619be31afa279ac60d2c7f1f","condition":"full-information","relevant_dimensions":["antennae","pattern"],"bee_group":{"antennae":"A","wings":"X","pattern":"S","legs":"X"},"bonus":0.8800000000000009},{"view_history":[{"page_index":0,"viewing_time":1380.300000011921},{"page_index":1,"viewing_time":5863.899999976158},{"page_index":0,"viewing_time":1759},{"page_index":1,"viewing_time":410591.5},{"page_index":2,"viewing_time":1722.9000000357628},{"page_index":3,"viewing_time":28041.5},{"page_index":4,"viewing_time":27209.19999998808},{"page_index":5,"viewing_time":792.1999999880791},{"page_index":6,"viewing_time":1230},{"page_index":7,"viewing_time":849},{"page_index":8,"viewing_time":133},{"page_index":9,"viewing_time":304.30000001192093},{"page_index":10,"viewing_time":427.69999998807907},{"page_index":11,"viewing_time":1416.1000000238419},{"page_index":12,"viewing_time":3214},{"page_index":13,"viewing_time":688},{"page_index":14,"viewing_time":495}],"rt":486117.8000000119,"trial_type":"instructions","trial_index":3,"time_elapsed":491181,"internal_node_id":"0.0-3.0-0.0","subject_id":"61717173748006894b2b54ff","study_id":"6197b3f67c2b5cd3b6d9596a","session_id":"619be31afa279ac60d2c7f1f","condition":"full-information","relevant_dimensions":["antennae","pattern"],"bee_group":{"antennae":"A","wings":"X","pattern":"S","legs":"X"},"bonus":0.8800000000000009},{"rt":5559.199999988079,"response":{"Q0":["Two or six legs","Stinger or no stinger","Single or double wings","Antennae or no antennae"]},"question_order":[0],"trial_type":"survey-multi-select","trial_index":4,"time_elapsed":496744,"internal_node_id":"0.0-3.0-1.0","subject_id":"61717173748006894b2b54ff","study_id":"6197b3f67c2b5cd3b6d9596a","session_id":"619be31afa279ac60d2c7f1f","condition":"full-information","relevant_dimensions":["antennae","pattern"],"bee_group":{"antennae":"A","wings":"X","pattern":"S","legs":"X"},"correct":false,"bonus":0.8800000000000009},{"rt":7518.399999976158,"response":{"Q1":"No.","Q2":"Based on the four features of the bee.","Q3":"You learn if it was friendly or dangerous, but do not alter your bonus."},"question_order":[0,1,2],"trial_type":"survey-multi-choice","trial_index":5,"time_elapsed":504264,"internal_node_id":"0.0-3.0-2.0","subject_id":"61717173748006894b2b54ff","study_id":"6197b3f67c2b5cd3b6d9596a","session_id":"619be31afa279ac60d2c7f1f","condition":"full-information","relevant_dimensions":["antennae","pattern"],"bee_group":{"antennae":"A","wings":"X","pattern":"S","legs":"X"},"correct":true,"bonus":0.8800000000000009},{"rt":2453.699999988079,"stimulus":"<p>You did not answer all comprehension questions correctly.<br>Press <b>continue</b> to review the instructions again.</p>","response":0,"trial_type":"html-button-response","trial_index":6,"time_elapsed":506719,"internal_node_id":"0.0-3.0-3.0","subject_id":"61717173748006894b2b54ff","study_id":"6197b3f67c2b5cd3b6d9596a","session_id":"619be31afa279ac60d2c7f1f","condition":"full-information","relevant_dimensions":["antennae","pattern"],"bee_group":{"antennae":"A","wings":"X","pattern":"S","legs":"X"},"bonus":0.8800000000000009},{"view_history":[{"page_index":0,"viewing_time":1727},{"page_index":1,"viewing_time":5002},{"page_index":2,"viewing_time":874.0999999642372},{"page_index":3,"viewing_time":152325.90000003576},{"page_index":2,"viewing_time":587.0999999642372},{"page_index":1,"viewing_time":611.1000000238419},{"page_index":0,"viewing_time":1303.8999999761581},{"page_index":1,"viewing_time":23335.30000001192},{"page_index":2,"viewing_time":13297.600000023842},{"page_index":3,"viewing_time":15339.599999964237},{"page_index":4,"viewing_time":8168.200000047684},{"page_index":5,"viewing_time":17601.299999952316},{"page_index":6,"viewing_time":12369.100000023842},{"page_index":7,"viewing_time":3701.199999988079},{"page_index":8,"viewing_time":1208.9000000357628},{"page_index":9,"viewing_time":2336.099999964237},{"page_index":10,"viewing_time":823.9000000357628},{"page_index":9,"viewing_time":6650.199999988079},{"page_index":10,"viewing_time":2168},{"page_index":11,"viewing_time":7921},{"page_index":12,"viewing_time":3175.199999988079},{"page_index":13,"viewing_time":791.8999999761581},{"page_index":14,"viewing_time":974.1000000238419}],"rt":282292.89999997616,"trial_type":"instructions","trial_index":7,"time_elapsed":789012,"internal_node_id":"0.0-3.0-4.0-0.0","subject_id":"61717173748006894b2b54ff","study_id":"6197b3f67c2b5cd3b6d9596a","session_id":"619be31afa279ac60d2c7f1f","condition":"full-information","relevant_dimensions":["antennae","pattern"],"bee_group":{"antennae":"A","wings":"X","pattern":"S","legs":"X"},"bonus":0.8800000000000009},{"rt":53400.40000003576,"response":{"Q0":["Two or six legs","Stripes or spots on body","Single or double wings","Antennae or no antennae"]},"question_order":[0],"trial_type":"survey-multi-select","trial_index":8,"time_elapsed":842414,"internal_node_id":"0.0-3.0-4.0-1.0","subject_id":"61717173748006894b2b54ff","study_id":"6197b3f67c2b5cd3b6d9596a","session_id":"619be31afa279ac60d2c7f1f","condition":"full-information","relevant_dimensions":["antennae","pattern"],"bee_group":{"antennae":"A","wings":"X","pattern":"S","legs":"X"},"correct":true,"bonus":0.8800000000000009},{"rt":17461.100000023842,"response":{"Q1":"No.","Q2":"Based on the four features of the bee.","Q3":"You learn if it was friendly or dangerous, but do not alter your bonus."},"question_order":[0,1,2],"trial_type":"survey-multi-choice","trial_index":9,"time_elapsed":859876,"internal_node_id":"0.0-3.0-4.0-2.0","subject_id":"61717173748006894b2b54ff","study_id":"6197b3f67c2b5cd3b6d9596a","session_id":"619be31afa279ac60d2c7f1f","condition":"full-information","relevant_dimensions":["antennae","pattern"],"bee_group":{"antennae":"A","wings":"X","pattern":"S","legs":"X"},"correct":true,"bonus":0.8800000000000009},{"rt":1544.800000011921,"stimulus":"<p>Congrats, you got everything right<br>When you're ready, click the button below to continue to the experiment.</p>","response":0,"trial_type":"html-button-response","trial_index":10,"time_elapsed":861422,"internal_node_id":"0.0-3.0-4.0-3.0","subject_id":"61717173748006894b2b54ff","study_id":"6197b3f67c2b5cd3b6d9596a","session_id":"619be31afa279ac60d2c7f1f","condition":"full-information","relevant_dimensions":["antennae","pattern"],"bee_group":{"antennae":"A","wings":"X","pattern":"S","legs":"X"},"bonus":0.8800000000000009},{"rt":4277.5,"stimulus":"bees-with-color/bee-A2DF.svg","response":1,"trial_type":"image-button-response","trial_index":11,"time_elapsed":865701,"internal_node_id":"0.0-4.0-0.0","subject_id":"61717173748006894b2b54ff","study_id":"6197b3f67c2b5cd3b6d9596a","session_id":"619be31afa279ac60d2c7f1f","condition":"full-information","relevant_dimensions":["antennae","pattern"],"bee_group":{"antennae":"A","wings":"X","pattern":"S","legs":"X"},"action":"avoid","summary":"bad-avoid","bonus":0.8800000000000009},{"rt":4088.199999988079,"stimulus":"\n                    <p><b>Action: <em>avoid</em></b></p>\n                    <p>This is the bee that you just saw.</p>\n                    <img src=\"bees-with-color/bee-A2DF.svg\" width=\"200\">\n                    <p><span class=\"redText\">Bad choice,</span> the bee was friendly.<br>Your bonus pay is unchanged, and remains at $0.54.</p>\n            ","response":0,"trial_type":"html-button-response","trial_index":12,"time_elapsed":869791,"internal_node_id":"0.0-4.0-1.0","subject_id":"61717173748006894b2b54ff","study_id":"6197b3f67c2b5cd3b6d9596a","session_id":"619be31afa279ac60d2c7f1f","condition":"full-information","relevant_dimensions":["antennae","pattern"],"bee_group":{"antennae":"A","wings":"X","pattern":"S","legs":"X"},"bonus":0.8800000000000009},{"rt":3968.800000011921,"stimulus":"bees-with-color/bee-B1DF.svg","response":1,"trial_type":"image-button-response","trial_index":13,"time_elapsed":873761,"internal_node_id":"0.0-4.0-0.1","subject_id":"61717173748006894b2b54ff","study_id":"6197b3f67c2b5cd3b6d9596a","session_id":"619be31afa279ac60d2c7f1f","condition":"full-information","relevant_dimensions":["antennae","pattern"],"bee_group":{"antennae":"A","wings":"X","pattern":"S","legs":"X"},"action":"avoid","summary":"bad-avoid","bonus":0.8800000000000009},{"rt":1263.800000011921,"stimulus":"\n                    <p><b>Action: <em>avoid</em></b></p>\n                    <p>This is the bee that you just saw.</p>\n                    <img src=\"bees-with-color/bee-B1DF.svg\" width=\"200\">\n                    <p><span class=\"redText\">Bad choice,</span> the bee was friendly.<br>Your bonus pay is unchanged, and remains at $0.54.</p>\n            ","response":0,"trial_type":"html-button-response","trial_index":14,"time_elapsed":875026,"internal_node_id":"0.0-4.0-1.1","subject_id":"61717173748006894b2b54ff","study_id":"6197b3f67c2b5cd3b6d9596a","session_id":"619be31afa279ac60d2c7f1f","condition":"full-information","relevant_dimensions":["antennae","pattern"],"bee_group":{"antennae":"A","wings":"X","pattern":"S","legs":"X"},"bonus":0.8800000000000009},{"rt":1978.800000011921,"stimulus":"bees-with-color/bee-B2DM.svg","response":1,"trial_type":"image-button-response","trial_index":15,"time_elapsed":877006,"internal_node_id":"0.0-4.0-0.2","subject_id":"61717173748006894b2b54ff","study_id":"6197b3f67c2b5cd3b6d9596a","session_id":"619be31afa279ac60d2c7f1f","condition":"full-information","relevant_dimensions":["antennae","pattern"],"bee_group":{"antennae":"A","wings":"X","pattern":"S","legs":"X"},"action":"avoid","summary":"bad-avoid","bonus":0.8800000000000009},{"rt":900,"stimulus":"\n                    <p><b>Action: <em>avoid</em></b></p>\n                    <p>This is the bee that you just saw.</p>\n                    <img src=\"bees-with-color/bee-B2DM.svg\" width=\"200\">\n                    <p><span class=\"redText\">Bad choice,</span> the bee was friendly.<br>Your bonus pay is unchanged, and remains at $0.54.</p>\n            ","response":0,"trial_type":"html-button-response","trial_index":16,"time_elapsed":877907,"internal_node_id":"0.0-4.0-1.2","subject_id":"61717173748006894b2b54ff","study_id":"6197b3f67c2b5cd3b6d9596a","session_id":"619be31afa279ac60d2c7f1f","condition":"full-information","relevant_dimensions":["antennae","pattern"],"bee_group":{"antennae":"A","wings":"X","pattern":"S","legs":"X"},"bonus":0.8800000000000009},{"rt":1097.800000011921,"stimulus":"bees-with-color/bee-A2SM.svg","response":1,"trial_type":"image-button-response","trial_index":17,"time_elapsed":879006,"internal_node_id":"0.0-4.0-0.3","subject_id":"61717173748006894b2b54ff","study_id":"6197b3f67c2b5cd3b6d9596a","session_id":"619be31afa279ac60d2c7f1f","condition":"full-information","relevant_dimensions":["antennae","pattern"],"bee_group":{"antennae":"A","wings":"X","pattern":"S","legs":"X"},"action":"avoid","summary":"good-avoid","bonus":0.8800000000000009},{"rt":1659.2999999523163,"stimulus":"\n                    <p><b>Action: <em>avoid</em></b></p>\n                    <p>This is the bee that you just saw.</p>\n                    <img src=\"bees-with-color/bee-A2SM.svg\" width=\"200\">\n                    <p><span class=\"greenText\">Good choice!</span>  This bee would have stung you.<br>Your bonus pay is unchanged, and remains at $0.54.</p>\n            ","response":0,"trial_type":"html-button-response","trial_index":18,"time_elapsed":880667,"internal_node_id":"0.0-4.0-1.3","subject_id":"61717173748006894b2b54ff","study_id":"6197b3f67c2b5cd3b6d9596a","session_id":"619be31afa279ac60d2c7f1f","condition":"full-information","relevant_dimensions":["antennae","pattern"],"bee_group":{"antennae":"A","wings":"X","pattern":"S","legs":"X"},"bonus":0.8800000000000009},{"rt":1480.9000000357628,"stimulus":"bees-with-color/bee-B1SF.svg","response":1,"trial_type":"image-button-response","trial_index":19,"time_elapsed":882148,"internal_node_id":"0.0-4.0-0.4","subject_id":"61717173748006894b2b54ff","study_id":"6197b3f67c2b5cd3b6d9596a","session_id":"619be31afa279ac60d2c7f1f","condition":"full-information","relevant_dimensions":["antennae","pattern"],"bee_group":{"antennae":"A","wings":"X","pattern":"S","legs":"X"},"action":"avoid","summary":"bad-avoid","bonus":0.8800000000000009},{"rt":718.9000000357628,"stimulus":"\n                    <p><b>Action: <em>avoid</em></b></p>\n                    <p>This is the bee that you just saw.</p>\n                    <img src=\"bees-with-color/bee-B1SF.svg\" width=\"200\">\n                    <p><span class=\"redText\">Bad choice,</span> the bee was friendly.<br>Your bonus pay is unchanged, and remains at $0.54.</p>\n            ","response":0,"trial_type":"html-button-response","trial_index":20,"time_elapsed":882868,"internal_node_id":"0.0-4.0-1.4","subject_id":"61717173748006894b2b54ff","study_id":"6197b3f67c2b5cd3b6d9596a","session_id":"619be31afa279ac60d2c7f1f","condition":"full-information","relevant_dimensions":["antennae","pattern"],"bee_group":{"antennae":"A","wings":"X","pattern":"S","legs":"X"},"bonus":0.8800000000000009},{"rt":1872.300000011921,"stimulus":"bees-with-color/bee-B2SF.svg","response":1,"trial_type":"image-button-response","trial_index":21,"time_elapsed":884741,"internal_node_id":"0.0-4.0-0.5","subject_id":"61717173748006894b2b54ff","study_id":"6197b3f67c2b5cd3b6d9596a","session_id":"619be31afa279ac60d2c7f1f","condition":"full-information","relevant_dimensions":["antennae","pattern"],"bee_group":{"antennae":"A","wings":"X","pattern":"S","legs":"X"},"action":"avoid","summary":"bad-avoid","bonus":0.8800000000000009},{"rt":1885.1000000238419,"stimulus":"\n                    <p><b>Action: <em>avoid</em></b></p>\n                    <p>This is the bee that you just saw.</p>\n                    <img src=\"bees-with-color/bee-B2SF.svg\" width=\"200\">\n                    <p><span class=\"redText\">Bad choice,</span> the bee was friendly.<br>Your bonus pay is unchanged, and remains at $0.54.</p>\n            ","response":0,"trial_type":"html-button-response","trial_index":22,"time_elapsed":886627,"internal_node_id":"0.0-4.0-1.5","subject_id":"61717173748006894b2b54ff","study_id":"6197b3f67c2b5cd3b6d9596a","session_id":"619be31afa279ac60d2c7f1f","condition":"full-information","relevant_dimensions":["antennae","pattern"],"bee_group":{"antennae":"A","wings":"X","pattern":"S","legs":"X"},"bonus":0.8800000000000009},{"rt":1615.4000000357628,"stimulus":"bees-with-color/bee-A2SF.svg","response":0,"trial_type":"image-button-response","trial_index":23,"time_elapsed":888244,"internal_node_id":"0.0-4.0-0.6","subject_id":"61717173748006894b2b54ff","study_id":"6197b3f67c2b5cd3b6d9596a","session_id":"619be31afa279ac60d2c7f1f","condition":"full-information","relevant_dimensions":["antennae","pattern"],"bee_group":{"antennae":"A","wings":"X","pattern":"S","legs":"X"},"action":"harvest","summary":"bad-harvest","bonus":0.8800000000000009},{"rt":2072.199999988079,"stimulus":"\n                    <p><b>Action: <em>harvest</em></b></p>\n                    <p>This is the bee that you just saw.</p>\n                    <img src=\"bees-with-color/bee-A2SF.svg\" width=\"200\">\n                    <p><span class=\"redText\">Bad choice, the bee was angry.</span><br><b>You have been stung!</b><br>Your pay has been decreased by $0.10. Your bonus pay is now $0.44.</p>\n            ","response":0,"trial_type":"html-button-response","trial_index":24,"time_elapsed":890317,"internal_node_id":"0.0-4.0-1.6","subject_id":"61717173748006894b2b54ff","study_id":"6197b3f67c2b5cd3b6d9596a","session_id":"619be31afa279ac60d2c7f1f","condition":"full-information","relevant_dimensions":["antennae","pattern"],"bee_group":{"antennae":"A","wings":"X","pattern":"S","legs":"X"},"bonus":0.8800000000000009},{"rt":1497.8999999761581,"stimulus":"bees-with-color/bee-B2SM.svg","response":1,"trial_type":"image-button-response","trial_index":25,"time_elapsed":891817,"internal_node_id":"0.0-4.0-0.7","subject_id":"61717173748006894b2b54ff","study_id":"6197b3f67c2b5cd3b6d9596a","session_id":"619be31afa279ac60d2c7f1f","condition":"full-information","relevant_dimensions":["antennae","pattern"],"bee_group":{"antennae":"A","wings":"X","pattern":"S","legs":"X"},"action":"avoid","summary":"bad-avoid","bonus":0.8800000000000009},{"rt":852.9000000357628,"stimulus":"\n                    <p><b>Action: <em>avoid</em></b></p>\n                    <p>This is the bee that you just saw.</p>\n                    <img src=\"bees-with-color/bee-B2SM.svg\" width=\"200\">\n                    <p><span class=\"redText\">Bad choice,</span> the bee was friendly.<br>Your bonus pay is unchanged, and remains at $0.44.</p>\n            ","response":0,"trial_type":"html-button-response","trial_index":26,"time_elapsed":892670,"internal_node_id":"0.0-4.0-1.7","subject_id":"61717173748006894b2b54ff","study_id":"6197b3f67c2b5cd3b6d9596a","session_id":"619be31afa279ac60d2c7f1f","condition":"full-information","relevant_dimensions":["antennae","pattern"],"bee_group":{"antennae":"A","wings":"X","pattern":"S","legs":"X"},"bonus":0.8800000000000009},{"rt":1421.9000000357628,"stimulus":"bees-with-color/bee-A1DM.svg","response":1,"trial_type":"image-button-response","trial_index":27,"time_elapsed":894093,"internal_node_id":"0.0-4.0-0.8","subject_id":"61717173748006894b2b54ff","study_id":"6197b3f67c2b5cd3b6d9596a","session_id":"619be31afa279ac60d2c7f1f","condition":"full-information","relevant_dimensions":["antennae","pattern"],"bee_group":{"antennae":"A","wings":"X","pattern":"S","legs":"X"},"action":"avoid","summary":"bad-avoid","bonus":0.8800000000000009},{"rt":611.6999999880791,"stimulus":"\n                    <p><b>Action: <em>avoid</em></b></p>\n                    <p>This is the bee that you just saw.</p>\n                    <img src=\"bees-with-color/bee-A1DM.svg\" width=\"200\">\n                    <p><span class=\"redText\">Bad choice,</span> the bee was friendly.<br>Your bonus pay is unchanged, and remains at $0.44.</p>\n            ","response":0,"trial_type":"html-button-response","trial_index":28,"time_elapsed":894706,"internal_node_id":"0.0-4.0-1.8","subject_id":"61717173748006894b2b54ff","study_id":"6197b3f67c2b5cd3b6d9596a","session_id":"619be31afa279ac60d2c7f1f","condition":"full-information","relevant_dimensions":["antennae","pattern"],"bee_group":{"antennae":"A","wings":"X","pattern":"S","legs":"X"},"bonus":0.8800000000000009},{"rt":1095.300000011921,"stimulus":"bees-with-color/bee-B2DF.svg","response":0,"trial_type":"image-button-response","trial_index":29,"time_elapsed":895802,"internal_node_id":"0.0-4.0-0.9","subject_id":"61717173748006894b2b54ff","study_id":"6197b3f67c2b5cd3b6d9596a","session_id":"619be31afa279ac60d2c7f1f","condition":"full-information","relevant_dimensions":["antennae","pattern"],"bee_group":{"antennae":"A","wings":"X","pattern":"S","legs":"X"},"action":"harvest","summary":"good-harvest","bonus":0.8800000000000009},{"rt":800.0999999642372,"stimulus":"\n                    <p><b>Action: <em>harvest</em></b></p>\n                    <p>This is the bee that you just saw.</p>\n                    <img src=\"bees-with-color/bee-B2DF.svg\" width=\"200\">\n                    <p><span class=\"greenText\"><b>Successful harvest!</b></span><br>Your pay has increased by $0.02. Your bonus pay is now $0.46.</p>\n            ","response":0,"trial_type":"html-button-response","trial_index":30,"time_elapsed":896603,"internal_node_id":"0.0-4.0-1.9","subject_id":"61717173748006894b2b54ff","study_id":"6197b3f67c2b5cd3b6d9596a","session_id":"619be31afa279ac60d2c7f1f","condition":"full-information","relevant_dimensions":["antennae","pattern"],"bee_group":{"antennae":"A","wings":"X","pattern":"S","legs":"X"},"bonus":0.8800000000000009},{"rt":1123.699999988079,"stimulus":"bees-with-color/bee-A1SF.svg","response":1,"trial_type":"image-button-response","trial_index":31,"time_elapsed":897728,"internal_node_id":"0.0-4.0-0.10","subject_id":"61717173748006894b2b54ff","study_id":"6197b3f67c2b5cd3b6d9596a","session_id":"619be31afa279ac60d2c7f1f","condition":"full-information","relevant_dimensions":["antennae","pattern"],"bee_group":{"antennae":"A","wings":"X","pattern":"S","legs":"X"},"action":"avoid","summary":"good-avoid","bonus":0.8800000000000009},{"rt":703.0999999642372,"stimulus":"\n                    <p><b>Action: <em>avoid</em></b></p>\n                    <p>This is the bee that you just saw.</p>\n                    <img src=\"bees-with-color/bee-A1SF.svg\" width=\"200\">\n                    <p><span class=\"greenText\">Good choice!</span>  This bee would have stung you.<br>Your bonus pay is unchanged, and remains at $0.46.</p>\n            ","response":0,"trial_type":"html-button-response","trial_index":32,"time_elapsed":898432,"internal_node_id":"0.0-4.0-1.10","subject_id":"61717173748006894b2b54ff","study_id":"6197b3f67c2b5cd3b6d9596a","session_id":"619be31afa279ac60d2c7f1f","condition":"full-information","relevant_dimensions":["antennae","pattern"],"bee_group":{"antennae":"A","wings":"X","pattern":"S","legs":"X"},"bonus":0.8800000000000009},{"rt":933.2999999523163,"stimulus":"bees-with-color/bee-B1DM.svg","response":0,"trial_type":"image-button-response","trial_index":33,"time_elapsed":899366,"internal_node_id":"0.0-4.0-0.11","subject_id":"61717173748006894b2b54ff","study_id":"6197b3f67c2b5cd3b6d9596a","session_id":"619be31afa279ac60d2c7f1f","condition":"full-information","relevant_dimensions":["antennae","pattern"],"bee_group":{"antennae":"A","wings":"X","pattern":"S","legs":"X"},"action":"harvest","summary":"good-harvest","bonus":0.8800000000000009},{"rt":596.3000000119209,"stimulus":"\n                    <p><b>Action: <em>harvest</em></b></p>\n                    <p>This is the bee that you just saw.</p>\n                    <img src=\"bees-with-color/bee-B1DM.svg\" width=\"200\">\n                    <p><span class=\"greenText\"><b>Successful harvest!</b></span><br>Your pay has increased by $0.02. Your bonus pay is now $0.48.</p>\n            ","response":0,"trial_type":"html-button-response","trial_index":34,"time_elapsed":899964,"internal_node_id":"0.0-4.0-1.11","subject_id":"61717173748006894b2b54ff","study_id":"6197b3f67c2b5cd3b6d9596a","session_id":"619be31afa279ac60d2c7f1f","condition":"full-information","relevant_dimensions":["antennae","pattern"],"bee_group":{"antennae":"A","wings":"X","pattern":"S","legs":"X"},"bonus":0.8800000000000009},{"rt":1226,"stimulus":"bees-with-color/bee-A1DF.svg","response":0,"trial_type":"image-button-response","trial_index":35,"time_elapsed":901190,"internal_node_id":"0.0-4.0-0.12","subject_id":"61717173748006894b2b54ff","study_id":"6197b3f67c2b5cd3b6d9596a","session_id":"619be31afa279ac60d2c7f1f","condition":"full-information","relevant_dimensions":["antennae","pattern"],"bee_group":{"antennae":"A","wings":"X","pattern":"S","legs":"X"},"action":"harvest","summary":"good-harvest","bonus":0.8800000000000009},{"rt":574.1999999880791,"stimulus":"\n                    <p><b>Action: <em>harvest</em></b></p>\n                    <p>This is the bee that you just saw.</p>\n                    <img src=\"bees-with-color/bee-A1DF.svg\" width=\"200\">\n                    <p><span class=\"greenText\"><b>Successful harvest!</b></span><br>Your pay has increased by $0.02. Your bonus pay is now $0.50.</p>\n            ","response":0,"trial_type":"html-button-response","trial_index":36,"time_elapsed":901765,"internal_node_id":"0.0-4.0-1.12","subject_id":"61717173748006894b2b54ff","study_id":"6197b3f67c2b5cd3b6d9596a","session_id":"619be31afa279ac60d2c7f1f","condition":"full-information","relevant_dimensions":["antennae","pattern"],"bee_group":{"antennae":"A","wings":"X","pattern":"S","legs":"X"},"bonus":0.8800000000000009},{"rt":1059.300000011921,"stimulus":"bees-with-color/bee-A1SM.svg","response":1,"trial_type":"image-button-response","trial_index":37,"time_elapsed":902826,"internal_node_id":"0.0-4.0-0.13","subject_id":"61717173748006894b2b54ff","study_id":"6197b3f67c2b5cd3b6d9596a","session_id":"619be31afa279ac60d2c7f1f","condition":"full-information","relevant_dimensions":["antennae","pattern"],"bee_group":{"antennae":"A","wings":"X","pattern":"S","legs":"X"},"action":"avoid","summary":"good-avoid","bonus":0.8800000000000009},{"rt":570,"stimulus":"\n                    <p><b>Action: <em>avoid</em></b></p>\n                    <p>This is the bee that you just saw.</p>\n                    <img src=\"bees-with-color/bee-A1SM.svg\" width=\"200\">\n                    <p><span class=\"greenText\">Good choice!</span>  This bee would have stung you.<br>Your bonus pay is unchanged, and remains at $0.50.</p>\n            ","response":0,"trial_type":"html-button-response","trial_index":38,"time_elapsed":903396,"internal_node_id":"0.0-4.0-1.13","subject_id":"61717173748006894b2b54ff","study_id":"6197b3f67c2b5cd3b6d9596a","session_id":"619be31afa279ac60d2c7f1f","condition":"full-information","relevant_dimensions":["antennae","pattern"],"bee_group":{"antennae":"A","wings":"X","pattern":"S","legs":"X"},"bonus":0.8800000000000009},{"rt":1002.1999999880791,"stimulus":"bees-with-color/bee-B1SM.svg","response":1,"trial_type":"image-button-response","trial_index":39,"time_elapsed":904399,"internal_node_id":"0.0-4.0-0.14","subject_id":"61717173748006894b2b54ff","study_id":"6197b3f67c2b5cd3b6d9596a","session_id":"619be31afa279ac60d2c7f1f","condition":"full-information","relevant_dimensions":["antennae","pattern"],"bee_group":{"antennae":"A","wings":"X","pattern":"S","legs":"X"},"action":"avoid","summary":"bad-avoid","bonus":0.8800000000000009},{"rt":867.3000000119209,"stimulus":"\n                    <p><b>Action: <em>avoid</em></b></p>\n                    <p>This is the bee that you just saw.</p>\n                    <img src=\"bees-with-color/bee-B1SM.svg\" width=\"200\">\n                    <p><span class=\"redText\">Bad choice,</span> the bee was friendly.<br>Your bonus pay is unchanged, and remains at $0.50.</p>\n            ","response":0,"trial_type":"html-button-response","trial_index":40,"time_elapsed":905268,"internal_node_id":"0.0-4.0-1.14","subject_id":"61717173748006894b2b54ff","study_id":"6197b3f67c2b5cd3b6d9596a","session_id":"619be31afa279ac60d2c7f1f","condition":"full-information","relevant_dimensions":["antennae","pattern"],"bee_group":{"antennae":"A","wings":"X","pattern":"S","legs":"X"},"bonus":0.8800000000000009},{"rt":1561.199999988079,"stimulus":"bees-with-color/bee-A2DM.svg","response":0,"trial_type":"image-button-response","trial_index":41,"time_elapsed":906830,"internal_node_id":"0.0-4.0-0.15","subject_id":"61717173748006894b2b54ff","study_id":"6197b3f67c2b5cd3b6d9596a","session_id":"619be31afa279ac60d2c7f1f","condition":"full-information","relevant_dimensions":["antennae","pattern"],"bee_group":{"antennae":"A","wings":"X","pattern":"S","legs":"X"},"action":"harvest","summary":"good-harvest","bonus":0.8800000000000009},{"rt":575,"stimulus":"\n                    <p><b>Action: <em>harvest</em></b></p>\n                    <p>This is the bee that you just saw.</p>\n                    <img src=\"bees-with-color/bee-A2DM.svg\" width=\"200\">\n                    <p><span class=\"greenText\"><b>Successful harvest!</b></span><br>Your pay has increased by $0.02. Your bonus pay is now $0.52.</p>\n            ","response":0,"trial_type":"html-button-response","trial_index":42,"time_elapsed":907406,"internal_node_id":"0.0-4.0-1.15","subject_id":"61717173748006894b2b54ff","study_id":"6197b3f67c2b5cd3b6d9596a","session_id":"619be31afa279ac60d2c7f1f","condition":"full-information","relevant_dimensions":["antennae","pattern"],"bee_group":{"antennae":"A","wings":"X","pattern":"S","legs":"X"},"bonus":0.8800000000000009},{"rt":933.0999999642372,"stimulus":"bees-with-color/bee-A2SM.svg","response":1,"trial_type":"image-button-response","trial_index":43,"time_elapsed":908339,"internal_node_id":"0.0-4.0-0.16","subject_id":"61717173748006894b2b54ff","study_id":"6197b3f67c2b5cd3b6d9596a","session_id":"619be31afa279ac60d2c7f1f","condition":"full-information","relevant_dimensions":["antennae","pattern"],"bee_group":{"antennae":"A","wings":"X","pattern":"S","legs":"X"},"action":"avoid","summary":"good-avoid","bonus":0.8800000000000009},{"rt":512.3000000119209,"stimulus":"\n                    <p><b>Action: <em>avoid</em></b></p>\n                    <p>This is the bee that you just saw.</p>\n                    <img src=\"bees-with-color/bee-A2SM.svg\" width=\"200\">\n                    <p><span class=\"greenText\">Good choice!</span>  This bee would have stung you.<br>Your bonus pay is unchanged, and remains at $0.52.</p>\n            ","response":0,"trial_type":"html-button-response","trial_index":44,"time_elapsed":908853,"internal_node_id":"0.0-4.0-1.16","subject_id":"61717173748006894b2b54ff","study_id":"6197b3f67c2b5cd3b6d9596a","session_id":"619be31afa279ac60d2c7f1f","condition":"full-information","relevant_dimensions":["antennae","pattern"],"bee_group":{"antennae":"A","wings":"X","pattern":"S","legs":"X"},"bonus":0.8800000000000009},{"rt":845.1000000238419,"stimulus":"bees-with-color/bee-A1DM.svg","response":0,"trial_type":"image-button-response","trial_index":45,"time_elapsed":909698,"internal_node_id":"0.0-4.0-0.17","subject_id":"61717173748006894b2b54ff","study_id":"6197b3f67c2b5cd3b6d9596a","session_id":"619be31afa279ac60d2c7f1f","condition":"full-information","relevant_dimensions":["antennae","pattern"],"bee_group":{"antennae":"A","wings":"X","pattern":"S","legs":"X"},"action":"harvest","summary":"good-harvest","bonus":0.8800000000000009},{"rt":437.19999998807907,"stimulus":"\n                    <p><b>Action: <em>harvest</em></b></p>\n                    <p>This is the bee that you just saw.</p>\n                    <img src=\"bees-with-color/bee-A1DM.svg\" width=\"200\">\n                    <p><span class=\"greenText\"><b>Successful harvest!</b></span><br>Your pay has increased by $0.02. Your bonus pay is now $0.54.</p>\n            ","response":0,"trial_type":"html-button-response","trial_index":46,"time_elapsed":910136,"internal_node_id":"0.0-4.0-1.17","subject_id":"61717173748006894b2b54ff","study_id":"6197b3f67c2b5cd3b6d9596a","session_id":"619be31afa279ac60d2c7f1f","condition":"full-information","relevant_dimensions":["antennae","pattern"],"bee_group":{"antennae":"A","wings":"X","pattern":"S","legs":"X"},"bonus":0.8800000000000009},{"rt":1181.2999999523163,"stimulus":"bees-with-color/bee-B1DF.svg","response":1,"trial_type":"image-button-response","trial_index":47,"time_elapsed":911319,"internal_node_id":"0.0-4.0-0.18","subject_id":"61717173748006894b2b54ff","study_id":"6197b3f67c2b5cd3b6d9596a","session_id":"619be31afa279ac60d2c7f1f","condition":"full-information","relevant_dimensions":["antennae","pattern"],"bee_group":{"antennae":"A","wings":"X","pattern":"S","legs":"X"},"action":"avoid","summary":"bad-avoid","bonus":0.8800000000000009},{"rt":485.30000001192093,"stimulus":"\n                    <p><b>Action: <em>avoid</em></b></p>\n                    <p>This is the bee that you just saw.</p>\n                    <img src=\"bees-with-color/bee-B1DF.svg\" width=\"200\">\n                    <p><span class=\"redText\">Bad choice,</span> the bee was friendly.<br>Your bonus pay is unchanged, and remains at $0.54.</p>\n            ","response":0,"trial_type":"html-button-response","trial_index":48,"time_elapsed":911805,"internal_node_id":"0.0-4.0-1.18","subject_id":"61717173748006894b2b54ff","study_id":"6197b3f67c2b5cd3b6d9596a","session_id":"619be31afa279ac60d2c7f1f","condition":"full-information","relevant_dimensions":["antennae","pattern"],"bee_group":{"antennae":"A","wings":"X","pattern":"S","legs":"X"},"bonus":0.8800000000000009},{"rt":1047.300000011921,"stimulus":"bees-with-color/bee-A1SM.svg","response":1,"trial_type":"image-button-response","trial_index":49,"time_elapsed":912853,"internal_node_id":"0.0-4.0-0.19","subject_id":"61717173748006894b2b54ff","study_id":"6197b3f67c2b5cd3b6d9596a","session_id":"619be31afa279ac60d2c7f1f","condition":"full-information","relevant_dimensions":["antennae","pattern"],"bee_group":{"antennae":"A","wings":"X","pattern":"S","legs":"X"},"action":"avoid","summary":"good-avoid","bonus":0.8800000000000009},{"rt":423.5,"stimulus":"\n                    <p><b>Action: <em>avoid</em></b></p>\n                    <p>This is the bee that you just saw.</p>\n                    <img src=\"bees-with-color/bee-A1SM.svg\" width=\"200\">\n                    <p><span class=\"greenText\">Good choice!</span>  This bee would have stung you.<br>Your bonus pay is unchanged, and remains at $0.54.</p>\n            ","response":0,"trial_type":"html-button-response","trial_index":50,"time_elapsed":913278,"internal_node_id":"0.0-4.0-1.19","subject_id":"61717173748006894b2b54ff","study_id":"6197b3f67c2b5cd3b6d9596a","session_id":"619be31afa279ac60d2c7f1f","condition":"full-information","relevant_dimensions":["antennae","pattern"],"bee_group":{"antennae":"A","wings":"X","pattern":"S","legs":"X"},"bonus":0.8800000000000009},{"rt":1475.9000000357628,"stimulus":"bees-with-color/bee-B2DF.svg","response":0,"trial_type":"image-button-response","trial_index":51,"time_elapsed":914754,"internal_node_id":"0.0-4.0-0.20","subject_id":"61717173748006894b2b54ff","study_id":"6197b3f67c2b5cd3b6d9596a","session_id":"619be31afa279ac60d2c7f1f","condition":"full-information","relevant_dimensions":["antennae","pattern"],"bee_group":{"antennae":"A","wings":"X","pattern":"S","legs":"X"},"action":"harvest","summary":"good-harvest","bonus":0.8800000000000009},{"rt":441.10000002384186,"stimulus":"\n                    <p><b>Action: <em>harvest</em></b></p>\n                    <p>This is the bee that you just saw.</p>\n                    <img src=\"bees-with-color/bee-B2DF.svg\" width=\"200\">\n                    <p><span class=\"greenText\"><b>Successful harvest!</b></span><br>Your pay has increased by $0.02. Your bonus pay is now $0.56.</p>\n            ","response":0,"trial_type":"html-button-response","trial_index":52,"time_elapsed":915196,"internal_node_id":"0.0-4.0-1.20","subject_id":"61717173748006894b2b54ff","study_id":"6197b3f67c2b5cd3b6d9596a","session_id":"619be31afa279ac60d2c7f1f","condition":"full-information","relevant_dimensions":["antennae","pattern"],"bee_group":{"antennae":"A","wings":"X","pattern":"S","legs":"X"},"bonus":0.8800000000000009},{"rt":794.5999999642372,"stimulus":"bees-with-color/bee-B2SM.svg","response":1,"trial_type":"image-button-response","trial_index":53,"time_elapsed":915991,"internal_node_id":"0.0-4.0-0.21","subject_id":"61717173748006894b2b54ff","study_id":"6197b3f67c2b5cd3b6d9596a","session_id":"619be31afa279ac60d2c7f1f","condition":"full-information","relevant_dimensions":["antennae","pattern"],"bee_group":{"antennae":"A","wings":"X","pattern":"S","legs":"X"},"action":"avoid","summary":"bad-avoid","bonus":0.8800000000000009},{"rt":657.0999999642372,"stimulus":"\n                    <p><b>Action: <em>avoid</em></b></p>\n                    <p>This is the bee that you just saw.</p>\n                    <img src=\"bees-with-color/bee-B2SM.svg\" width=\"200\">\n                    <p><span class=\"redText\">Bad choice,</span> the bee was friendly.<br>Your bonus pay is unchanged, and remains at $0.56.</p>\n            ","response":0,"trial_type":"html-button-response","trial_index":54,"time_elapsed":916649,"internal_node_id":"0.0-4.0-1.21","subject_id":"61717173748006894b2b54ff","study_id":"6197b3f67c2b5cd3b6d9596a","session_id":"619be31afa279ac60d2c7f1f","condition":"full-information","relevant_dimensions":["antennae","pattern"],"bee_group":{"antennae":"A","wings":"X","pattern":"S","legs":"X"},"bonus":0.8800000000000009},{"rt":938.5,"stimulus":"bees-with-color/bee-B1SF.svg","response":1,"trial_type":"image-button-response","trial_index":55,"time_elapsed":917588,"internal_node_id":"0.0-4.0-0.22","subject_id":"61717173748006894b2b54ff","study_id":"6197b3f67c2b5cd3b6d9596a","session_id":"619be31afa279ac60d2c7f1f","condition":"full-information","relevant_dimensions":["antennae","pattern"],"bee_group":{"antennae":"A","wings":"X","pattern":"S","legs":"X"},"action":"avoid","summary":"bad-avoid","bonus":0.8800000000000009},{"rt":515,"stimulus":"\n                    <p><b>Action: <em>avoid</em></b></p>\n                    <p>This is the bee that you just saw.</p>\n                    <img src=\"bees-with-color/bee-B1SF.svg\" width=\"200\">\n                    <p><span class=\"redText\">Bad choice,</span> the bee was friendly.<br>Your bonus pay is unchanged, and remains at $0.56.</p>\n            ","response":0,"trial_type":"html-button-response","trial_index":56,"time_elapsed":918104,"internal_node_id":"0.0-4.0-1.22","subject_id":"61717173748006894b2b54ff","study_id":"6197b3f67c2b5cd3b6d9596a","session_id":"619be31afa279ac60d2c7f1f","condition":"full-information","relevant_dimensions":["antennae","pattern"],"bee_group":{"antennae":"A","wings":"X","pattern":"S","legs":"X"},"bonus":0.8800000000000009},{"rt":1410.2000000476837,"stimulus":"bees-with-color/bee-B2DM.svg","response":0,"trial_type":"image-button-response","trial_index":57,"time_elapsed":919515,"internal_node_id":"0.0-4.0-0.23","subject_id":"61717173748006894b2b54ff","study_id":"6197b3f67c2b5cd3b6d9596a","session_id":"619be31afa279ac60d2c7f1f","condition":"full-information","relevant_dimensions":["antennae","pattern"],"bee_group":{"antennae":"A","wings":"X","pattern":"S","legs":"X"},"action":"harvest","summary":"good-harvest","bonus":0.8800000000000009},{"rt":506.30000001192093,"stimulus":"\n                    <p><b>Action: <em>harvest</em></b></p>\n                    <p>This is the bee that you just saw.</p>\n                    <img src=\"bees-with-color/bee-B2DM.svg\" width=\"200\">\n                    <p><span class=\"greenText\"><b>Successful harvest!</b></span><br>Your pay has increased by $0.02. Your bonus pay is now $0.58.</p>\n            ","response":0,"trial_type":"html-button-response","trial_index":58,"time_elapsed":920022,"internal_node_id":"0.0-4.0-1.23","subject_id":"61717173748006894b2b54ff","study_id":"6197b3f67c2b5cd3b6d9596a","session_id":"619be31afa279ac60d2c7f1f","condition":"full-information","relevant_dimensions":["antennae","pattern"],"bee_group":{"antennae":"A","wings":"X","pattern":"S","legs":"X"},"bonus":0.8800000000000009},{"rt":914.1000000238419,"stimulus":"bees-with-color/bee-A2DM.svg","response":0,"trial_type":"image-button-response","trial_index":59,"time_elapsed":920937,"internal_node_id":"0.0-4.0-0.24","subject_id":"61717173748006894b2b54ff","study_id":"6197b3f67c2b5cd3b6d9596a","session_id":"619be31afa279ac60d2c7f1f","condition":"full-information","relevant_dimensions":["antennae","pattern"],"bee_group":{"antennae":"A","wings":"X","pattern":"S","legs":"X"},"action":"harvest","summary":"good-harvest","bonus":0.8800000000000009},{"rt":330.19999998807907,"stimulus":"\n                    <p><b>Action: <em>harvest</em></b></p>\n                    <p>This is the bee that you just saw.</p>\n                    <img src=\"bees-with-color/bee-A2DM.svg\" width=\"200\">\n                    <p><span class=\"greenText\"><b>Successful harvest!</b></span><br>Your pay has increased by $0.02. Your bonus pay is now $0.60.</p>\n            ","response":0,"trial_type":"html-button-response","trial_index":60,"time_elapsed":921268,"internal_node_id":"0.0-4.0-1.24","subject_id":"61717173748006894b2b54ff","study_id":"6197b3f67c2b5cd3b6d9596a","session_id":"619be31afa279ac60d2c7f1f","condition":"full-information","relevant_dimensions":["antennae","pattern"],"bee_group":{"antennae":"A","wings":"X","pattern":"S","legs":"X"},"bonus":0.8800000000000009},{"rt":852.3000000119209,"stimulus":"bees-with-color/bee-A1SF.svg","response":1,"trial_type":"image-button-response","trial_index":61,"time_elapsed":922121,"internal_node_id":"0.0-4.0-0.25","subject_id":"61717173748006894b2b54ff","study_id":"6197b3f67c2b5cd3b6d9596a","session_id":"619be31afa279ac60d2c7f1f","condition":"full-information","relevant_dimensions":["antennae","pattern"],"bee_group":{"antennae":"A","wings":"X","pattern":"S","legs":"X"},"action":"avoid","summary":"good-avoid","bonus":0.8800000000000009},{"rt":466.10000002384186,"stimulus":"\n                    <p><b>Action: <em>avoid</em></b></p>\n                    <p>This is the bee that you just saw.</p>\n                    <img src=\"bees-with-color/bee-A1SF.svg\" width=\"200\">\n                    <p><span class=\"greenText\">Good choice!</span>  This bee would have stung you.<br>Your bonus pay is unchanged, and remains at $0.60.</p>\n            ","response":0,"trial_type":"html-button-response","trial_index":62,"time_elapsed":922588,"internal_node_id":"0.0-4.0-1.25","subject_id":"61717173748006894b2b54ff","study_id":"6197b3f67c2b5cd3b6d9596a","session_id":"619be31afa279ac60d2c7f1f","condition":"full-information","relevant_dimensions":["antennae","pattern"],"bee_group":{"antennae":"A","wings":"X","pattern":"S","legs":"X"},"bonus":0.8800000000000009},{"rt":1925.199999988079,"stimulus":"bees-with-color/bee-B2SF.svg","response":1,"trial_type":"image-button-response","trial_index":63,"time_elapsed":924515,"internal_node_id":"0.0-4.0-0.26","subject_id":"61717173748006894b2b54ff","study_id":"6197b3f67c2b5cd3b6d9596a","session_id":"619be31afa279ac60d2c7f1f","condition":"full-information","relevant_dimensions":["antennae","pattern"],"bee_group":{"antennae":"A","wings":"X","pattern":"S","legs":"X"},"action":"avoid","summary":"bad-avoid","bonus":0.8800000000000009},{"rt":557,"stimulus":"\n                    <p><b>Action: <em>avoid</em></b></p>\n                    <p>This is the bee that you just saw.</p>\n                    <img src=\"bees-with-color/bee-B2SF.svg\" width=\"200\">\n                    <p><span class=\"redText\">Bad choice,</span> the bee was friendly.<br>Your bonus pay is unchanged, and remains at $0.60.</p>\n            ","response":0,"trial_type":"html-button-response","trial_index":64,"time_elapsed":925073,"internal_node_id":"0.0-4.0-1.26","subject_id":"61717173748006894b2b54ff","study_id":"6197b3f67c2b5cd3b6d9596a","session_id":"619be31afa279ac60d2c7f1f","condition":"full-information","relevant_dimensions":["antennae","pattern"],"bee_group":{"antennae":"A","wings":"X","pattern":"S","legs":"X"},"bonus":0.8800000000000009},{"rt":1325.1000000238419,"stimulus":"bees-with-color/bee-B1SM.svg","response":1,"trial_type":"image-button-response","trial_index":65,"time_elapsed":926398,"internal_node_id":"0.0-4.0-0.27","subject_id":"61717173748006894b2b54ff","study_id":"6197b3f67c2b5cd3b6d9596a","session_id":"619be31afa279ac60d2c7f1f","condition":"full-information","relevant_dimensions":["antennae","pattern"],"bee_group":{"antennae":"A","wings":"X","pattern":"S","legs":"X"},"action":"avoid","summary":"bad-avoid","bonus":0.8800000000000009},{"rt":457.2999999523163,"stimulus":"\n                    <p><b>Action: <em>avoid</em></b></p>\n                    <p>This is the bee that you just saw.</p>\n                    <img src=\"bees-with-color/bee-B1SM.svg\" width=\"200\">\n                    <p><span class=\"redText\">Bad choice,</span> the bee was friendly.<br>Your bonus pay is unchanged, and remains at $0.60.</p>\n            ","response":0,"trial_type":"html-button-response","trial_index":66,"time_elapsed":926856,"internal_node_id":"0.0-4.0-1.27","subject_id":"61717173748006894b2b54ff","study_id":"6197b3f67c2b5cd3b6d9596a","session_id":"619be31afa279ac60d2c7f1f","condition":"full-information","relevant_dimensions":["antennae","pattern"],"bee_group":{"antennae":"A","wings":"X","pattern":"S","legs":"X"},"bonus":0.8800000000000009},{"rt":1407.199999988079,"stimulus":"bees-with-color/bee-A2DF.svg","response":1,"trial_type":"image-button-response","trial_index":67,"time_elapsed":928264,"internal_node_id":"0.0-4.0-0.28","subject_id":"61717173748006894b2b54ff","study_id":"6197b3f67c2b5cd3b6d9596a","session_id":"619be31afa279ac60d2c7f1f","condition":"full-information","relevant_dimensions":["antennae","pattern"],"bee_group":{"antennae":"A","wings":"X","pattern":"S","legs":"X"},"action":"avoid","summary":"bad-avoid","bonus":0.8800000000000009},{"rt":467.19999998807907,"stimulus":"\n                    <p><b>Action: <em>avoid</em></b></p>\n                    <p>This is the bee that you just saw.</p>\n                    <img src=\"bees-with-color/bee-A2DF.svg\" width=\"200\">\n                    <p><span class=\"redText\">Bad choice,</span> the bee was friendly.<br>Your bonus pay is unchanged, and remains at $0.60.</p>\n            ","response":0,"trial_type":"html-button-response","trial_index":68,"time_elapsed":928732,"internal_node_id":"0.0-4.0-1.28","subject_id":"61717173748006894b2b54ff","study_id":"6197b3f67c2b5cd3b6d9596a","session_id":"619be31afa279ac60d2c7f1f","condition":"full-information","relevant_dimensions":["antennae","pattern"],"bee_group":{"antennae":"A","wings":"X","pattern":"S","legs":"X"},"bonus":0.8800000000000009},{"rt":1511.300000011921,"stimulus":"bees-with-color/bee-B1DM.svg","response":0,"trial_type":"image-button-response","trial_index":69,"time_elapsed":930244,"internal_node_id":"0.0-4.0-0.29","subject_id":"61717173748006894b2b54ff","study_id":"6197b3f67c2b5cd3b6d9596a","session_id":"619be31afa279ac60d2c7f1f","condition":"full-information","relevant_dimensions":["antennae","pattern"],"bee_group":{"antennae":"A","wings":"X","pattern":"S","legs":"X"},"action":"harvest","summary":"good-harvest","bonus":0.8800000000000009},{"rt":583.0999999642372,"stimulus":"\n                    <p><b>Action: <em>harvest</em></b></p>\n                    <p>This is the bee that you just saw.</p>\n                    <img src=\"bees-with-color/bee-B1DM.svg\" width=\"200\">\n                    <p><span class=\"greenText\"><b>Successful harvest!</b></span><br>Your pay has increased by $0.02. Your bonus pay is now $0.62.</p>\n            ","response":0,"trial_type":"html-button-response","trial_index":70,"time_elapsed":930828,"internal_node_id":"0.0-4.0-1.29","subject_id":"61717173748006894b2b54ff","study_id":"6197b3f67c2b5cd3b6d9596a","session_id":"619be31afa279ac60d2c7f1f","condition":"full-information","relevant_dimensions":["antennae","pattern"],"bee_group":{"antennae":"A","wings":"X","pattern":"S","legs":"X"},"bonus":0.8800000000000009},{"rt":953.4000000357628,"stimulus":"bees-with-color/bee-A2SF.svg","response":1,"trial_type":"image-button-response","trial_index":71,"time_elapsed":931782,"internal_node_id":"0.0-4.0-0.30","subject_id":"61717173748006894b2b54ff","study_id":"6197b3f67c2b5cd3b6d9596a","session_id":"619be31afa279ac60d2c7f1f","condition":"full-information","relevant_dimensions":["antennae","pattern"],"bee_group":{"antennae":"A","wings":"X","pattern":"S","legs":"X"},"action":"avoid","summary":"good-avoid","bonus":0.8800000000000009},{"rt":520.1999999880791,"stimulus":"\n                    <p><b>Action: <em>avoid</em></b></p>\n                    <p>This is the bee that you just saw.</p>\n                    <img src=\"bees-with-color/bee-A2SF.svg\" width=\"200\">\n                    <p><span class=\"greenText\">Good choice!</span>  This bee would have stung you.<br>Your bonus pay is unchanged, and remains at $0.62.</p>\n            ","response":0,"trial_type":"html-button-response","trial_index":72,"time_elapsed":932303,"internal_node_id":"0.0-4.0-1.30","subject_id":"61717173748006894b2b54ff","study_id":"6197b3f67c2b5cd3b6d9596a","session_id":"619be31afa279ac60d2c7f1f","condition":"full-information","relevant_dimensions":["antennae","pattern"],"bee_group":{"antennae":"A","wings":"X","pattern":"S","legs":"X"},"bonus":0.8800000000000009},{"rt":1003.3000000119209,"stimulus":"bees-with-color/bee-A1DF.svg","response":0,"trial_type":"image-button-response","trial_index":73,"time_elapsed":933307,"internal_node_id":"0.0-4.0-0.31","subject_id":"61717173748006894b2b54ff","study_id":"6197b3f67c2b5cd3b6d9596a","session_id":"619be31afa279ac60d2c7f1f","condition":"full-information","relevant_dimensions":["antennae","pattern"],"bee_group":{"antennae":"A","wings":"X","pattern":"S","legs":"X"},"action":"harvest","summary":"good-harvest","bonus":0.8800000000000009},{"rt":425.10000002384186,"stimulus":"\n                    <p><b>Action: <em>harvest</em></b></p>\n                    <p>This is the bee that you just saw.</p>\n                    <img src=\"bees-with-color/bee-A1DF.svg\" width=\"200\">\n                    <p><span class=\"greenText\"><b>Successful harvest!</b></span><br>Your pay has increased by $0.02. Your bonus pay is now $0.64.</p>\n            ","response":0,"trial_type":"html-button-response","trial_index":74,"time_elapsed":933734,"internal_node_id":"0.0-4.0-1.31","subject_id":"61717173748006894b2b54ff","study_id":"6197b3f67c2b5cd3b6d9596a","session_id":"619be31afa279ac60d2c7f1f","condition":"full-information","relevant_dimensions":["antennae","pattern"],"bee_group":{"antennae":"A","wings":"X","pattern":"S","legs":"X"},"bonus":0.8800000000000009},{"rt":739.2999999523163,"stimulus":"bees-with-color/bee-A1DF.svg","response":0,"trial_type":"image-button-response","trial_index":75,"time_elapsed":934473,"internal_node_id":"0.0-4.0-0.32","subject_id":"61717173748006894b2b54ff","study_id":"6197b3f67c2b5cd3b6d9596a","session_id":"619be31afa279ac60d2c7f1f","condition":"full-information","relevant_dimensions":["antennae","pattern"],"bee_group":{"antennae":"A","wings":"X","pattern":"S","legs":"X"},"action":"harvest","summary":"good-harvest","bonus":0.8800000000000009},{"rt":322.19999998807907,"stimulus":"\n                    <p><b>Action: <em>harvest</em></b></p>\n                    <p>This is the bee that you just saw.</p>\n                    <img src=\"bees-with-color/bee-A1DF.svg\" width=\"200\">\n                    <p><span class=\"greenText\"><b>Successful harvest!</b></span><br>Your pay has increased by $0.02. Your bonus pay is now $0.66.</p>\n            ","response":0,"trial_type":"html-button-response","trial_index":76,"time_elapsed":934797,"internal_node_id":"0.0-4.0-1.32","subject_id":"61717173748006894b2b54ff","study_id":"6197b3f67c2b5cd3b6d9596a","session_id":"619be31afa279ac60d2c7f1f","condition":"full-information","relevant_dimensions":["antennae","pattern"],"bee_group":{"antennae":"A","wings":"X","pattern":"S","legs":"X"},"bonus":0.8800000000000009},{"rt":855.1999999880791,"stimulus":"bees-with-color/bee-B1DM.svg","response":0,"trial_type":"image-button-response","trial_index":77,"time_elapsed":935653,"internal_node_id":"0.0-4.0-0.33","subject_id":"61717173748006894b2b54ff","study_id":"6197b3f67c2b5cd3b6d9596a","session_id":"619be31afa279ac60d2c7f1f","condition":"full-information","relevant_dimensions":["antennae","pattern"],"bee_group":{"antennae":"A","wings":"X","pattern":"S","legs":"X"},"action":"harvest","summary":"good-harvest","bonus":0.8800000000000009},{"rt":276.4000000357628,"stimulus":"\n                    <p><b>Action: <em>harvest</em></b></p>\n                    <p>This is the bee that you just saw.</p>\n                    <img src=\"bees-with-color/bee-B1DM.svg\" width=\"200\">\n                    <p><span class=\"greenText\"><b>Successful harvest!</b></span><br>Your pay has increased by $0.02. Your bonus pay is now $0.68.</p>\n            ","response":0,"trial_type":"html-button-response","trial_index":78,"time_elapsed":935930,"internal_node_id":"0.0-4.0-1.33","subject_id":"61717173748006894b2b54ff","study_id":"6197b3f67c2b5cd3b6d9596a","session_id":"619be31afa279ac60d2c7f1f","condition":"full-information","relevant_dimensions":["antennae","pattern"],"bee_group":{"antennae":"A","wings":"X","pattern":"S","legs":"X"},"bonus":0.8800000000000009},{"rt":1131.1000000238419,"stimulus":"bees-with-color/bee-B2SF.svg","response":1,"trial_type":"image-button-response","trial_index":79,"time_elapsed":937062,"internal_node_id":"0.0-4.0-0.34","subject_id":"61717173748006894b2b54ff","study_id":"6197b3f67c2b5cd3b6d9596a","session_id":"619be31afa279ac60d2c7f1f","condition":"full-information","relevant_dimensions":["antennae","pattern"],"bee_group":{"antennae":"A","wings":"X","pattern":"S","legs":"X"},"action":"avoid","summary":"bad-avoid","bonus":0.8800000000000009},{"rt":470.0999999642372,"stimulus":"\n                    <p><b>Action: <em>avoid</em></b></p>\n                    <p>This is the bee that you just saw.</p>\n                    <img src=\"bees-with-color/bee-B2SF.svg\" width=\"200\">\n                    <p><span class=\"redText\">Bad choice,</span> the bee was friendly.<br>Your bonus pay is unchanged, and remains at $0.68.</p>\n            ","response":0,"trial_type":"html-button-response","trial_index":80,"time_elapsed":937533,"internal_node_id":"0.0-4.0-1.34","subject_id":"61717173748006894b2b54ff","study_id":"6197b3f67c2b5cd3b6d9596a","session_id":"619be31afa279ac60d2c7f1f","condition":"full-information","relevant_dimensions":["antennae","pattern"],"bee_group":{"antennae":"A","wings":"X","pattern":"S","legs":"X"},"bonus":0.8800000000000009},{"rt":1493.2999999523163,"stimulus":"bees-with-color/bee-A1DM.svg","response":0,"trial_type":"image-button-response","trial_index":81,"time_elapsed":939027,"internal_node_id":"0.0-4.0-0.35","subject_id":"61717173748006894b2b54ff","study_id":"6197b3f67c2b5cd3b6d9596a","session_id":"619be31afa279ac60d2c7f1f","condition":"full-information","relevant_dimensions":["antennae","pattern"],"bee_group":{"antennae":"A","wings":"X","pattern":"S","legs":"X"},"action":"harvest","summary":"good-harvest","bonus":0.8800000000000009},{"rt":368.19999998807907,"stimulus":"\n                    <p><b>Action: <em>harvest</em></b></p>\n                    <p>This is the bee that you just saw.</p>\n                    <img src=\"bees-with-color/bee-A1DM.svg\" width=\"200\">\n                    <p><span class=\"greenText\"><b>Successful harvest!</b></span><br>Your pay has increased by $0.02. Your bonus pay is now $0.70.</p>\n            ","response":0,"trial_type":"html-button-response","trial_index":82,"time_elapsed":939396,"internal_node_id":"0.0-4.0-1.35","subject_id":"61717173748006894b2b54ff","study_id":"6197b3f67c2b5cd3b6d9596a","session_id":"619be31afa279ac60d2c7f1f","condition":"full-information","relevant_dimensions":["antennae","pattern"],"bee_group":{"antennae":"A","wings":"X","pattern":"S","legs":"X"},"bonus":0.8800000000000009},{"rt":949,"stimulus":"bees-with-color/bee-A2SF.svg","response":1,"trial_type":"image-button-response","trial_index":83,"time_elapsed":940346,"internal_node_id":"0.0-4.0-0.36","subject_id":"61717173748006894b2b54ff","study_id":"6197b3f67c2b5cd3b6d9596a","session_id":"619be31afa279ac60d2c7f1f","condition":"full-information","relevant_dimensions":["antennae","pattern"],"bee_group":{"antennae":"A","wings":"X","pattern":"S","legs":"X"},"action":"avoid","summary":"good-avoid","bonus":0.8800000000000009},{"rt":405.9000000357628,"stimulus":"\n                    <p><b>Action: <em>avoid</em></b></p>\n                    <p>This is the bee that you just saw.</p>\n                    <img src=\"bees-with-color/bee-A2SF.svg\" width=\"200\">\n                    <p><span class=\"greenText\">Good choice!</span>  This bee would have stung you.<br>Your bonus pay is unchanged, and remains at $0.70.</p>\n            ","response":0,"trial_type":"html-button-response","trial_index":84,"time_elapsed":940753,"internal_node_id":"0.0-4.0-1.36","subject_id":"61717173748006894b2b54ff","study_id":"6197b3f67c2b5cd3b6d9596a","session_id":"619be31afa279ac60d2c7f1f","condition":"full-information","relevant_dimensions":["antennae","pattern"],"bee_group":{"antennae":"A","wings":"X","pattern":"S","legs":"X"},"bonus":0.8800000000000009},{"rt":1015.3999999761581,"stimulus":"bees-with-color/bee-B2DF.svg","response":0,"trial_type":"image-button-response","trial_index":85,"time_elapsed":941769,"internal_node_id":"0.0-4.0-0.37","subject_id":"61717173748006894b2b54ff","study_id":"6197b3f67c2b5cd3b6d9596a","session_id":"619be31afa279ac60d2c7f1f","condition":"full-information","relevant_dimensions":["antennae","pattern"],"bee_group":{"antennae":"A","wings":"X","pattern":"S","legs":"X"},"action":"harvest","summary":"good-harvest","bonus":0.8800000000000009},{"rt":301.10000002384186,"stimulus":"\n                    <p><b>Action: <em>harvest</em></b></p>\n                    <p>This is the bee that you just saw.</p>\n                    <img src=\"bees-with-color/bee-B2DF.svg\" width=\"200\">\n                    <p><span class=\"greenText\"><b>Successful harvest!</b></span><br>Your pay has increased by $0.02. Your bonus pay is now $0.72.</p>\n            ","response":0,"trial_type":"html-button-response","trial_index":86,"time_elapsed":942071,"internal_node_id":"0.0-4.0-1.37","subject_id":"61717173748006894b2b54ff","study_id":"6197b3f67c2b5cd3b6d9596a","session_id":"619be31afa279ac60d2c7f1f","condition":"full-information","relevant_dimensions":["antennae","pattern"],"bee_group":{"antennae":"A","wings":"X","pattern":"S","legs":"X"},"bonus":0.8800000000000009},{"rt":1369.1000000238419,"stimulus":"bees-with-color/bee-A2SM.svg","response":0,"trial_type":"image-button-response","trial_index":87,"time_elapsed":943441,"internal_node_id":"0.0-4.0-0.38","subject_id":"61717173748006894b2b54ff","study_id":"6197b3f67c2b5cd3b6d9596a","session_id":"619be31afa279ac60d2c7f1f","condition":"full-information","relevant_dimensions":["antennae","pattern"],"bee_group":{"antennae":"A","wings":"X","pattern":"S","legs":"X"},"action":"harvest","summary":"bad-harvest","bonus":0.8800000000000009},{"rt":1480.9000000357628,"stimulus":"\n                    <p><b>Action: <em>harvest</em></b></p>\n                    <p>This is the bee that you just saw.</p>\n                    <img src=\"bees-with-color/bee-A2SM.svg\" width=\"200\">\n                    <p><span class=\"redText\">Bad choice, the bee was angry.</span><br><b>You have been stung!</b><br>Your pay has been decreased by $0.10. Your bonus pay is now $0.62.</p>\n            ","response":0,"trial_type":"html-button-response","trial_index":88,"time_elapsed":944923,"internal_node_id":"0.0-4.0-1.38","subject_id":"61717173748006894b2b54ff","study_id":"6197b3f67c2b5cd3b6d9596a","session_id":"619be31afa279ac60d2c7f1f","condition":"full-information","relevant_dimensions":["antennae","pattern"],"bee_group":{"antennae":"A","wings":"X","pattern":"S","legs":"X"},"bonus":0.8800000000000009},{"rt":1135.3999999761581,"stimulus":"bees-with-color/bee-B2DM.svg","response":0,"trial_type":"image-button-response","trial_index":89,"time_elapsed":946059,"internal_node_id":"0.0-4.0-0.39","subject_id":"61717173748006894b2b54ff","study_id":"6197b3f67c2b5cd3b6d9596a","session_id":"619be31afa279ac60d2c7f1f","condition":"full-information","relevant_dimensions":["antennae","pattern"],"bee_group":{"antennae":"A","wings":"X","pattern":"S","legs":"X"},"action":"harvest","summary":"good-harvest","bonus":0.8800000000000009},{"rt":357.30000001192093,"stimulus":"\n                    <p><b>Action: <em>harvest</em></b></p>\n                    <p>This is the bee that you just saw.</p>\n                    <img src=\"bees-with-color/bee-B2DM.svg\" width=\"200\">\n                    <p><span class=\"greenText\"><b>Successful harvest!</b></span><br>Your pay has increased by $0.02. Your bonus pay is now $0.64.</p>\n            ","response":0,"trial_type":"html-button-response","trial_index":90,"time_elapsed":946417,"internal_node_id":"0.0-4.0-1.39","subject_id":"61717173748006894b2b54ff","study_id":"6197b3f67c2b5cd3b6d9596a","session_id":"619be31afa279ac60d2c7f1f","condition":"full-information","relevant_dimensions":["antennae","pattern"],"bee_group":{"antennae":"A","wings":"X","pattern":"S","legs":"X"},"bonus":0.8800000000000009},{"rt":949.1999999880791,"stimulus":"bees-with-color/bee-B1SM.svg","response":1,"trial_type":"image-button-response","trial_index":91,"time_elapsed":947367,"internal_node_id":"0.0-4.0-0.40","subject_id":"61717173748006894b2b54ff","study_id":"6197b3f67c2b5cd3b6d9596a","session_id":"619be31afa279ac60d2c7f1f","condition":"full-information","relevant_dimensions":["antennae","pattern"],"bee_group":{"antennae":"A","wings":"X","pattern":"S","legs":"X"},"action":"avoid","summary":"bad-avoid","bonus":0.8800000000000009},{"rt":410.10000002384186,"stimulus":"\n                    <p><b>Action: <em>avoid</em></b></p>\n                    <p>This is the bee that you just saw.</p>\n                    <img src=\"bees-with-color/bee-B1SM.svg\" width=\"200\">\n                    <p><span class=\"redText\">Bad choice,</span> the bee was friendly.<br>Your bonus pay is unchanged, and remains at $0.64.</p>\n            ","response":0,"trial_type":"html-button-response","trial_index":92,"time_elapsed":947778,"internal_node_id":"0.0-4.0-1.40","subject_id":"61717173748006894b2b54ff","study_id":"6197b3f67c2b5cd3b6d9596a","session_id":"619be31afa279ac60d2c7f1f","condition":"full-information","relevant_dimensions":["antennae","pattern"],"bee_group":{"antennae":"A","wings":"X","pattern":"S","legs":"X"},"bonus":0.8800000000000009},{"rt":1383.3999999761581,"stimulus":"bees-with-color/bee-A1SM.svg","response":0,"trial_type":"image-button-response","trial_index":93,"time_elapsed":949162,"internal_node_id":"0.0-4.0-0.41","subject_id":"61717173748006894b2b54ff","study_id":"6197b3f67c2b5cd3b6d9596a","session_id":"619be31afa279ac60d2c7f1f","condition":"full-information","relevant_dimensions":["antennae","pattern"],"bee_group":{"antennae":"A","wings":"X","pattern":"S","legs":"X"},"action":"harvest","summary":"bad-harvest","bonus":0.8800000000000009},{"rt":527.2000000476837,"stimulus":"\n                    <p><b>Action: <em>harvest</em></b></p>\n                    <p>This is the bee that you just saw.</p>\n                    <img src=\"bees-with-color/bee-A1SM.svg\" width=\"200\">\n                    <p><span class=\"redText\">Bad choice, the bee was angry.</span><br><b>You have been stung!</b><br>Your pay has been decreased by $0.10. Your bonus pay is now $0.54.</p>\n            ","response":0,"trial_type":"html-button-response","trial_index":94,"time_elapsed":949690,"internal_node_id":"0.0-4.0-1.41","subject_id":"61717173748006894b2b54ff","study_id":"6197b3f67c2b5cd3b6d9596a","session_id":"619be31afa279ac60d2c7f1f","condition":"full-information","relevant_dimensions":["antennae","pattern"],"bee_group":{"antennae":"A","wings":"X","pattern":"S","legs":"X"},"bonus":0.8800000000000009},{"rt":1289.300000011921,"stimulus":"bees-with-color/bee-B2SM.svg","response":1,"trial_type":"image-button-response","trial_index":95,"time_elapsed":950980,"internal_node_id":"0.0-4.0-0.42","subject_id":"61717173748006894b2b54ff","study_id":"6197b3f67c2b5cd3b6d9596a","session_id":"619be31afa279ac60d2c7f1f","condition":"full-information","relevant_dimensions":["antennae","pattern"],"bee_group":{"antennae":"A","wings":"X","pattern":"S","legs":"X"},"action":"avoid","summary":"bad-avoid","bonus":0.8800000000000009},{"rt":1664.300000011921,"stimulus":"\n                    <p><b>Action: <em>avoid</em></b></p>\n                    <p>This is the bee that you just saw.</p>\n                    <img src=\"bees-with-color/bee-B2SM.svg\" width=\"200\">\n                    <p><span class=\"redText\">Bad choice,</span> the bee was friendly.<br>Your bonus pay is unchanged, and remains at $0.54.</p>\n            ","response":0,"trial_type":"html-button-response","trial_index":96,"time_elapsed":952645,"internal_node_id":"0.0-4.0-1.42","subject_id":"61717173748006894b2b54ff","study_id":"6197b3f67c2b5cd3b6d9596a","session_id":"619be31afa279ac60d2c7f1f","condition":"full-information","relevant_dimensions":["antennae","pattern"],"bee_group":{"antennae":"A","wings":"X","pattern":"S","legs":"X"},"bonus":0.8800000000000009},{"rt":1805.300000011921,"stimulus":"bees-with-color/bee-B1DF.svg","response":0,"trial_type":"image-button-response","trial_index":97,"time_elapsed":954451,"internal_node_id":"0.0-4.0-0.43","subject_id":"61717173748006894b2b54ff","study_id":"6197b3f67c2b5cd3b6d9596a","session_id":"619be31afa279ac60d2c7f1f","condition":"full-information","relevant_dimensions":["antennae","pattern"],"bee_group":{"antennae":"A","wings":"X","pattern":"S","legs":"X"},"action":"harvest","summary":"good-harvest","bonus":0.8800000000000009},{"rt":390.19999998807907,"stimulus":"\n                    <p><b>Action: <em>harvest</em></b></p>\n                    <p>This is the bee that you just saw.</p>\n                    <img src=\"bees-with-color/bee-B1DF.svg\" width=\"200\">\n                    <p><span class=\"greenText\"><b>Successful harvest!</b></span><br>Your pay has increased by $0.02. Your bonus pay is now $0.56.</p>\n            ","response":0,"trial_type":"html-button-response","trial_index":98,"time_elapsed":954842,"internal_node_id":"0.0-4.0-1.43","subject_id":"61717173748006894b2b54ff","study_id":"6197b3f67c2b5cd3b6d9596a","session_id":"619be31afa279ac60d2c7f1f","condition":"full-information","relevant_dimensions":["antennae","pattern"],"bee_group":{"antennae":"A","wings":"X","pattern":"S","legs":"X"},"bonus":0.8800000000000009},{"rt":854.3000000119209,"stimulus":"bees-with-color/bee-A1SF.svg","response":1,"trial_type":"image-button-response","trial_index":99,"time_elapsed":955697,"internal_node_id":"0.0-4.0-0.44","subject_id":"61717173748006894b2b54ff","study_id":"6197b3f67c2b5cd3b6d9596a","session_id":"619be31afa279ac60d2c7f1f","condition":"full-information","relevant_dimensions":["antennae","pattern"],"bee_group":{"antennae":"A","wings":"X","pattern":"S","legs":"X"},"action":"avoid","summary":"good-avoid","bonus":0.8800000000000009},{"rt":323.19999998807907,"stimulus":"\n                    <p><b>Action: <em>avoid</em></b></p>\n                    <p>This is the bee that you just saw.</p>\n                    <img src=\"bees-with-color/bee-A1SF.svg\" width=\"200\">\n                    <p><span class=\"greenText\">Good choice!</span>  This bee would have stung you.<br>Your bonus pay is unchanged, and remains at $0.56.</p>\n            ","response":0,"trial_type":"html-button-response","trial_index":100,"time_elapsed":956021,"internal_node_id":"0.0-4.0-1.44","subject_id":"61717173748006894b2b54ff","study_id":"6197b3f67c2b5cd3b6d9596a","session_id":"619be31afa279ac60d2c7f1f","condition":"full-information","relevant_dimensions":["antennae","pattern"],"bee_group":{"antennae":"A","wings":"X","pattern":"S","legs":"X"},"bonus":0.8800000000000009},{"rt":1217.2000000476837,"stimulus":"bees-with-color/bee-A2DM.svg","response":0,"trial_type":"image-button-response","trial_index":101,"time_elapsed":957239,"internal_node_id":"0.0-4.0-0.45","subject_id":"61717173748006894b2b54ff","study_id":"6197b3f67c2b5cd3b6d9596a","session_id":"619be31afa279ac60d2c7f1f","condition":"full-information","relevant_dimensions":["antennae","pattern"],"bee_group":{"antennae":"A","wings":"X","pattern":"S","legs":"X"},"action":"harvest","summary":"good-harvest","bonus":0.8800000000000009},{"rt":620.7000000476837,"stimulus":"\n                    <p><b>Action: <em>harvest</em></b></p>\n                    <p>This is the bee that you just saw.</p>\n                    <img src=\"bees-with-color/bee-A2DM.svg\" width=\"200\">\n                    <p><span class=\"greenText\"><b>Successful harvest!</b></span><br>Your pay has increased by $0.02. Your bonus pay is now $0.58.</p>\n            ","response":0,"trial_type":"html-button-response","trial_index":102,"time_elapsed":957860,"internal_node_id":"0.0-4.0-1.45","subject_id":"61717173748006894b2b54ff","study_id":"6197b3f67c2b5cd3b6d9596a","session_id":"619be31afa279ac60d2c7f1f","condition":"full-information","relevant_dimensions":["antennae","pattern"],"bee_group":{"antennae":"A","wings":"X","pattern":"S","legs":"X"},"bonus":0.8800000000000009},{"rt":1041.800000011921,"stimulus":"bees-with-color/bee-A2DF.svg","response":0,"trial_type":"image-button-response","trial_index":103,"time_elapsed":958903,"internal_node_id":"0.0-4.0-0.46","subject_id":"61717173748006894b2b54ff","study_id":"6197b3f67c2b5cd3b6d9596a","session_id":"619be31afa279ac60d2c7f1f","condition":"full-information","relevant_dimensions":["antennae","pattern"],"bee_group":{"antennae":"A","wings":"X","pattern":"S","legs":"X"},"action":"harvest","summary":"good-harvest","bonus":0.8800000000000009},{"rt":454,"stimulus":"\n                    <p><b>Action: <em>harvest</em></b></p>\n                    <p>This is the bee that you just saw.</p>\n                    <img src=\"bees-with-color/bee-A2DF.svg\" width=\"200\">\n                    <p><span class=\"greenText\"><b>Successful harvest!</b></span><br>Your pay has increased by $0.02. Your bonus pay is now $0.60.</p>\n            ","response":0,"trial_type":"html-button-response","trial_index":104,"time_elapsed":959358,"internal_node_id":"0.0-4.0-1.46","subject_id":"61717173748006894b2b54ff","study_id":"6197b3f67c2b5cd3b6d9596a","session_id":"619be31afa279ac60d2c7f1f","condition":"full-information","relevant_dimensions":["antennae","pattern"],"bee_group":{"antennae":"A","wings":"X","pattern":"S","legs":"X"},"bonus":0.8800000000000009},{"rt":1814.5,"stimulus":"bees-with-color/bee-B1SF.svg","response":1,"trial_type":"image-button-response","trial_index":105,"time_elapsed":961173,"internal_node_id":"0.0-4.0-0.47","subject_id":"61717173748006894b2b54ff","study_id":"6197b3f67c2b5cd3b6d9596a","session_id":"619be31afa279ac60d2c7f1f","condition":"full-information","relevant_dimensions":["antennae","pattern"],"bee_group":{"antennae":"A","wings":"X","pattern":"S","legs":"X"},"action":"avoid","summary":"bad-avoid","bonus":0.8800000000000009},{"rt":344.0999999642372,"stimulus":"\n                    <p><b>Action: <em>avoid</em></b></p>\n                    <p>This is the bee that you just saw.</p>\n                    <img src=\"bees-with-color/bee-B1SF.svg\" width=\"200\">\n                    <p><span class=\"redText\">Bad choice,</span> the bee was friendly.<br>Your bonus pay is unchanged, and remains at $0.60.</p>\n            ","response":0,"trial_type":"html-button-response","trial_index":106,"time_elapsed":961518,"internal_node_id":"0.0-4.0-1.47","subject_id":"61717173748006894b2b54ff","study_id":"6197b3f67c2b5cd3b6d9596a","session_id":"619be31afa279ac60d2c7f1f","condition":"full-information","relevant_dimensions":["antennae","pattern"],"bee_group":{"antennae":"A","wings":"X","pattern":"S","legs":"X"},"bonus":0.8800000000000009},{"rt":1538,"stimulus":"bees-with-color/bee-B2DM.svg","response":0,"trial_type":"image-button-response","trial_index":107,"time_elapsed":963057,"internal_node_id":"0.0-4.0-0.48","subject_id":"61717173748006894b2b54ff","study_id":"6197b3f67c2b5cd3b6d9596a","session_id":"619be31afa279ac60d2c7f1f","condition":"full-information","relevant_dimensions":["antennae","pattern"],"bee_group":{"antennae":"A","wings":"X","pattern":"S","legs":"X"},"action":"harvest","summary":"good-harvest","bonus":0.8800000000000009},{"rt":313.30000001192093,"stimulus":"\n                    <p><b>Action: <em>harvest</em></b></p>\n                    <p>This is the bee that you just saw.</p>\n                    <img src=\"bees-with-color/bee-B2DM.svg\" width=\"200\">\n                    <p><span class=\"greenText\"><b>Successful harvest!</b></span><br>Your pay has increased by $0.02. Your bonus pay is now $0.62.</p>\n            ","response":0,"trial_type":"html-button-response","trial_index":108,"time_elapsed":963371,"internal_node_id":"0.0-4.0-1.48","subject_id":"61717173748006894b2b54ff","study_id":"6197b3f67c2b5cd3b6d9596a","session_id":"619be31afa279ac60d2c7f1f","condition":"full-information","relevant_dimensions":["antennae","pattern"],"bee_group":{"antennae":"A","wings":"X","pattern":"S","legs":"X"},"bonus":0.8800000000000009},{"rt":1026.5,"stimulus":"bees-with-color/bee-A1DM.svg","response":0,"trial_type":"image-button-response","trial_index":109,"time_elapsed":964398,"internal_node_id":"0.0-4.0-0.49","subject_id":"61717173748006894b2b54ff","study_id":"6197b3f67c2b5cd3b6d9596a","session_id":"619be31afa279ac60d2c7f1f","condition":"full-information","relevant_dimensions":["antennae","pattern"],"bee_group":{"antennae":"A","wings":"X","pattern":"S","legs":"X"},"action":"harvest","summary":"good-harvest","bonus":0.8800000000000009},{"rt":260.7999999523163,"stimulus":"\n                    <p><b>Action: <em>harvest</em></b></p>\n                    <p>This is the bee that you just saw.</p>\n                    <img src=\"bees-with-color/bee-A1DM.svg\" width=\"200\">\n                    <p><span class=\"greenText\"><b>Successful harvest!</b></span><br>Your pay has increased by $0.02. Your bonus pay is now $0.64.</p>\n            ","response":0,"trial_type":"html-button-response","trial_index":110,"time_elapsed":964660,"internal_node_id":"0.0-4.0-1.49","subject_id":"61717173748006894b2b54ff","study_id":"6197b3f67c2b5cd3b6d9596a","session_id":"619be31afa279ac60d2c7f1f","condition":"full-information","relevant_dimensions":["antennae","pattern"],"bee_group":{"antennae":"A","wings":"X","pattern":"S","legs":"X"},"bonus":0.8800000000000009},{"rt":971.1000000238419,"stimulus":"bees-with-color/bee-A1SM.svg","response":1,"trial_type":"image-button-response","trial_index":111,"time_elapsed":965632,"internal_node_id":"0.0-4.0-0.50","subject_id":"61717173748006894b2b54ff","study_id":"6197b3f67c2b5cd3b6d9596a","session_id":"619be31afa279ac60d2c7f1f","condition":"full-information","relevant_dimensions":["antennae","pattern"],"bee_group":{"antennae":"A","wings":"X","pattern":"S","legs":"X"},"action":"avoid","summary":"good-avoid","bonus":0.8800000000000009},{"rt":355.5,"stimulus":"\n                    <p><b>Action: <em>avoid</em></b></p>\n                    <p>This is the bee that you just saw.</p>\n                    <img src=\"bees-with-color/bee-A1SM.svg\" width=\"200\">\n                    <p><span class=\"greenText\">Good choice!</span>  This bee would have stung you.<br>Your bonus pay is unchanged, and remains at $0.64.</p>\n            ","response":0,"trial_type":"html-button-response","trial_index":112,"time_elapsed":965988,"internal_node_id":"0.0-4.0-1.50","subject_id":"61717173748006894b2b54ff","study_id":"6197b3f67c2b5cd3b6d9596a","session_id":"619be31afa279ac60d2c7f1f","condition":"full-information","relevant_dimensions":["antennae","pattern"],"bee_group":{"antennae":"A","wings":"X","pattern":"S","legs":"X"},"bonus":0.8800000000000009},{"rt":1042.5,"stimulus":"bees-with-color/bee-A2SM.svg","response":1,"trial_type":"image-button-response","trial_index":113,"time_elapsed":967032,"internal_node_id":"0.0-4.0-0.51","subject_id":"61717173748006894b2b54ff","study_id":"6197b3f67c2b5cd3b6d9596a","session_id":"619be31afa279ac60d2c7f1f","condition":"full-information","relevant_dimensions":["antennae","pattern"],"bee_group":{"antennae":"A","wings":"X","pattern":"S","legs":"X"},"action":"avoid","summary":"good-avoid","bonus":0.8800000000000009},{"rt":350.19999998807907,"stimulus":"\n                    <p><b>Action: <em>avoid</em></b></p>\n                    <p>This is the bee that you just saw.</p>\n                    <img src=\"bees-with-color/bee-A2SM.svg\" width=\"200\">\n                    <p><span class=\"greenText\">Good choice!</span>  This bee would have stung you.<br>Your bonus pay is unchanged, and remains at $0.64.</p>\n            ","response":0,"trial_type":"html-button-response","trial_index":114,"time_elapsed":967383,"internal_node_id":"0.0-4.0-1.51","subject_id":"61717173748006894b2b54ff","study_id":"6197b3f67c2b5cd3b6d9596a","session_id":"619be31afa279ac60d2c7f1f","condition":"full-information","relevant_dimensions":["antennae","pattern"],"bee_group":{"antennae":"A","wings":"X","pattern":"S","legs":"X"},"bonus":0.8800000000000009},{"rt":1057.1000000238419,"stimulus":"bees-with-color/bee-A2DF.svg","response":0,"trial_type":"image-button-response","trial_index":115,"time_elapsed":968441,"internal_node_id":"0.0-4.0-0.52","subject_id":"61717173748006894b2b54ff","study_id":"6197b3f67c2b5cd3b6d9596a","session_id":"619be31afa279ac60d2c7f1f","condition":"full-information","relevant_dimensions":["antennae","pattern"],"bee_group":{"antennae":"A","wings":"X","pattern":"S","legs":"X"},"action":"harvest","summary":"good-harvest","bonus":0.8800000000000009},{"rt":335.19999998807907,"stimulus":"\n                    <p><b>Action: <em>harvest</em></b></p>\n                    <p>This is the bee that you just saw.</p>\n                    <img src=\"bees-with-color/bee-A2DF.svg\" width=\"200\">\n                    <p><span class=\"greenText\"><b>Successful harvest!</b></span><br>Your pay has increased by $0.02. Your bonus pay is now $0.66.</p>\n            ","response":0,"trial_type":"html-button-response","trial_index":116,"time_elapsed":968777,"internal_node_id":"0.0-4.0-1.52","subject_id":"61717173748006894b2b54ff","study_id":"6197b3f67c2b5cd3b6d9596a","session_id":"619be31afa279ac60d2c7f1f","condition":"full-information","relevant_dimensions":["antennae","pattern"],"bee_group":{"antennae":"A","wings":"X","pattern":"S","legs":"X"},"bonus":0.8800000000000009},{"rt":1287.6000000238419,"stimulus":"bees-with-color/bee-A2DM.svg","response":0,"trial_type":"image-button-response","trial_index":117,"time_elapsed":970065,"internal_node_id":"0.0-4.0-0.53","subject_id":"61717173748006894b2b54ff","study_id":"6197b3f67c2b5cd3b6d9596a","session_id":"619be31afa279ac60d2c7f1f","condition":"full-information","relevant_dimensions":["antennae","pattern"],"bee_group":{"antennae":"A","wings":"X","pattern":"S","legs":"X"},"action":"harvest","summary":"good-harvest","bonus":0.8800000000000009},{"rt":665.6999999880791,"stimulus":"\n                    <p><b>Action: <em>harvest</em></b></p>\n                    <p>This is the bee that you just saw.</p>\n                    <img src=\"bees-with-color/bee-A2DM.svg\" width=\"200\">\n                    <p><span class=\"greenText\"><b>Successful harvest!</b></span><br>Your pay has increased by $0.02. Your bonus pay is now $0.68.</p>\n            ","response":0,"trial_type":"html-button-response","trial_index":118,"time_elapsed":970731,"internal_node_id":"0.0-4.0-1.53","subject_id":"61717173748006894b2b54ff","study_id":"6197b3f67c2b5cd3b6d9596a","session_id":"619be31afa279ac60d2c7f1f","condition":"full-information","relevant_dimensions":["antennae","pattern"],"bee_group":{"antennae":"A","wings":"X","pattern":"S","legs":"X"},"bonus":0.8800000000000009},{"rt":2042.6000000238419,"stimulus":"bees-with-color/bee-B1DM.svg","response":1,"trial_type":"image-button-response","trial_index":119,"time_elapsed":972775,"internal_node_id":"0.0-4.0-0.54","subject_id":"61717173748006894b2b54ff","study_id":"6197b3f67c2b5cd3b6d9596a","session_id":"619be31afa279ac60d2c7f1f","condition":"full-information","relevant_dimensions":["antennae","pattern"],"bee_group":{"antennae":"A","wings":"X","pattern":"S","legs":"X"},"action":"avoid","summary":"bad-avoid","bonus":0.8800000000000009},{"rt":521.1000000238419,"stimulus":"\n                    <p><b>Action: <em>avoid</em></b></p>\n                    <p>This is the bee that you just saw.</p>\n                    <img src=\"bees-with-color/bee-B1DM.svg\" width=\"200\">\n                    <p><span class=\"redText\">Bad choice,</span> the bee was friendly.<br>Your bonus pay is unchanged, and remains at $0.68.</p>\n            ","response":0,"trial_type":"html-button-response","trial_index":120,"time_elapsed":973296,"internal_node_id":"0.0-4.0-1.54","subject_id":"61717173748006894b2b54ff","study_id":"6197b3f67c2b5cd3b6d9596a","session_id":"619be31afa279ac60d2c7f1f","condition":"full-information","relevant_dimensions":["antennae","pattern"],"bee_group":{"antennae":"A","wings":"X","pattern":"S","legs":"X"},"bonus":0.8800000000000009},{"rt":1213.3999999761581,"stimulus":"bees-with-color/bee-B2DF.svg","response":1,"trial_type":"image-button-response","trial_index":121,"time_elapsed":974511,"internal_node_id":"0.0-4.0-0.55","subject_id":"61717173748006894b2b54ff","study_id":"6197b3f67c2b5cd3b6d9596a","session_id":"619be31afa279ac60d2c7f1f","condition":"full-information","relevant_dimensions":["antennae","pattern"],"bee_group":{"antennae":"A","wings":"X","pattern":"S","legs":"X"},"action":"avoid","summary":"bad-avoid","bonus":0.8800000000000009},{"rt":377.19999998807907,"stimulus":"\n                    <p><b>Action: <em>avoid</em></b></p>\n                    <p>This is the bee that you just saw.</p>\n                    <img src=\"bees-with-color/bee-B2DF.svg\" width=\"200\">\n                    <p><span class=\"redText\">Bad choice,</span> the bee was friendly.<br>Your bonus pay is unchanged, and remains at $0.68.</p>\n            ","response":0,"trial_type":"html-button-response","trial_index":122,"time_elapsed":974889,"internal_node_id":"0.0-4.0-1.55","subject_id":"61717173748006894b2b54ff","study_id":"6197b3f67c2b5cd3b6d9596a","session_id":"619be31afa279ac60d2c7f1f","condition":"full-information","relevant_dimensions":["antennae","pattern"],"bee_group":{"antennae":"A","wings":"X","pattern":"S","legs":"X"},"bonus":0.8800000000000009},{"rt":856.3999999761581,"stimulus":"bees-with-color/bee-B2SF.svg","response":1,"trial_type":"image-button-response","trial_index":123,"time_elapsed":975746,"internal_node_id":"0.0-4.0-0.56","subject_id":"61717173748006894b2b54ff","study_id":"6197b3f67c2b5cd3b6d9596a","session_id":"619be31afa279ac60d2c7f1f","condition":"full-information","relevant_dimensions":["antennae","pattern"],"bee_group":{"antennae":"A","wings":"X","pattern":"S","legs":"X"},"action":"avoid","summary":"bad-avoid","bonus":0.8800000000000009},{"rt":373.10000002384186,"stimulus":"\n                    <p><b>Action: <em>avoid</em></b></p>\n                    <p>This is the bee that you just saw.</p>\n                    <img src=\"bees-with-color/bee-B2SF.svg\" width=\"200\">\n                    <p><span class=\"redText\">Bad choice,</span> the bee was friendly.<br>Your bonus pay is unchanged, and remains at $0.68.</p>\n            ","response":0,"trial_type":"html-button-response","trial_index":124,"time_elapsed":976120,"internal_node_id":"0.0-4.0-1.56","subject_id":"61717173748006894b2b54ff","study_id":"6197b3f67c2b5cd3b6d9596a","session_id":"619be31afa279ac60d2c7f1f","condition":"full-information","relevant_dimensions":["antennae","pattern"],"bee_group":{"antennae":"A","wings":"X","pattern":"S","legs":"X"},"bonus":0.8800000000000009},{"rt":1291.199999988079,"stimulus":"bees-with-color/bee-A2SF.svg","response":0,"trial_type":"image-button-response","trial_index":125,"time_elapsed":977412,"internal_node_id":"0.0-4.0-0.57","subject_id":"61717173748006894b2b54ff","study_id":"6197b3f67c2b5cd3b6d9596a","session_id":"619be31afa279ac60d2c7f1f","condition":"full-information","relevant_dimensions":["antennae","pattern"],"bee_group":{"antennae":"A","wings":"X","pattern":"S","legs":"X"},"action":"harvest","summary":"bad-harvest","bonus":0.8800000000000009},{"rt":287.30000001192093,"stimulus":"\n                    <p><b>Action: <em>harvest</em></b></p>\n                    <p>This is the bee that you just saw.</p>\n                    <img src=\"bees-with-color/bee-A2SF.svg\" width=\"200\">\n                    <p><span class=\"redText\">Bad choice, the bee was angry.</span><br><b>You have been stung!</b><br>Your pay has been decreased by $0.10. Your bonus pay is now $0.58.</p>\n            ","response":0,"trial_type":"html-button-response","trial_index":126,"time_elapsed":977700,"internal_node_id":"0.0-4.0-1.57","subject_id":"61717173748006894b2b54ff","study_id":"6197b3f67c2b5cd3b6d9596a","session_id":"619be31afa279ac60d2c7f1f","condition":"full-information","relevant_dimensions":["antennae","pattern"],"bee_group":{"antennae":"A","wings":"X","pattern":"S","legs":"X"},"bonus":0.8800000000000009},{"rt":1297.4000000357628,"stimulus":"bees-with-color/bee-B2SM.svg","response":0,"trial_type":"image-button-response","trial_index":127,"time_elapsed":978998,"internal_node_id":"0.0-4.0-0.58","subject_id":"61717173748006894b2b54ff","study_id":"6197b3f67c2b5cd3b6d9596a","session_id":"619be31afa279ac60d2c7f1f","condition":"full-information","relevant_dimensions":["antennae","pattern"],"bee_group":{"antennae":"A","wings":"X","pattern":"S","legs":"X"},"action":"harvest","summary":"good-harvest","bonus":0.8800000000000009},{"rt":520,"stimulus":"\n                    <p><b>Action: <em>harvest</em></b></p>\n                    <p>This is the bee that you just saw.</p>\n                    <img src=\"bees-with-color/bee-B2SM.svg\" width=\"200\">\n                    <p><span class=\"greenText\"><b>Successful harvest!</b></span><br>Your pay has increased by $0.02. Your bonus pay is now $0.60.</p>\n            ","response":0,"trial_type":"html-button-response","trial_index":128,"time_elapsed":979519,"internal_node_id":"0.0-4.0-1.58","subject_id":"61717173748006894b2b54ff","study_id":"6197b3f67c2b5cd3b6d9596a","session_id":"619be31afa279ac60d2c7f1f","condition":"full-information","relevant_dimensions":["antennae","pattern"],"bee_group":{"antennae":"A","wings":"X","pattern":"S","legs":"X"},"bonus":0.8800000000000009},{"rt":721.3000000119209,"stimulus":"bees-with-color/bee-A1DF.svg","response":0,"trial_type":"image-button-response","trial_index":129,"time_elapsed":980241,"internal_node_id":"0.0-4.0-0.59","subject_id":"61717173748006894b2b54ff","study_id":"6197b3f67c2b5cd3b6d9596a","session_id":"619be31afa279ac60d2c7f1f","condition":"full-information","relevant_dimensions":["antennae","pattern"],"bee_group":{"antennae":"A","wings":"X","pattern":"S","legs":"X"},"action":"harvest","summary":"good-harvest","bonus":0.8800000000000009},{"rt":424.0999999642372,"stimulus":"\n                    <p><b>Action: <em>harvest</em></b></p>\n                    <p>This is the bee that you just saw.</p>\n                    <img src=\"bees-with-color/bee-A1DF.svg\" width=\"200\">\n                    <p><span class=\"greenText\"><b>Successful harvest!</b></span><br>Your pay has increased by $0.02. Your bonus pay is now $0.62.</p>\n            ","response":0,"trial_type":"html-button-response","trial_index":130,"time_elapsed":980666,"internal_node_id":"0.0-4.0-1.59","subject_id":"61717173748006894b2b54ff","study_id":"6197b3f67c2b5cd3b6d9596a","session_id":"619be31afa279ac60d2c7f1f","condition":"full-information","relevant_dimensions":["antennae","pattern"],"bee_group":{"antennae":"A","wings":"X","pattern":"S","legs":"X"},"bonus":0.8800000000000009},{"rt":969.2999999523163,"stimulus":"bees-with-color/bee-A1SF.svg","response":1,"trial_type":"image-button-response","trial_index":131,"time_elapsed":981636,"internal_node_id":"0.0-4.0-0.60","subject_id":"61717173748006894b2b54ff","study_id":"6197b3f67c2b5cd3b6d9596a","session_id":"619be31afa279ac60d2c7f1f","condition":"full-information","relevant_dimensions":["antennae","pattern"],"bee_group":{"antennae":"A","wings":"X","pattern":"S","legs":"X"},"action":"avoid","summary":"good-avoid","bonus":0.8800000000000009},{"rt":411.39999997615814,"stimulus":"\n                    <p><b>Action: <em>avoid</em></b></p>\n                    <p>This is the bee that you just saw.</p>\n                    <img src=\"bees-with-color/bee-A1SF.svg\" width=\"200\">\n                    <p><span class=\"greenText\">Good choice!</span>  This bee would have stung you.<br>Your bonus pay is unchanged, and remains at $0.62.</p>\n            ","response":0,"trial_type":"html-button-response","trial_index":132,"time_elapsed":982048,"internal_node_id":"0.0-4.0-1.60","subject_id":"61717173748006894b2b54ff","study_id":"6197b3f67c2b5cd3b6d9596a","session_id":"619be31afa279ac60d2c7f1f","condition":"full-information","relevant_dimensions":["antennae","pattern"],"bee_group":{"antennae":"A","wings":"X","pattern":"S","legs":"X"},"bonus":0.8800000000000009},{"rt":1592.8999999761581,"stimulus":"bees-with-color/bee-B1SM.svg","response":0,"trial_type":"image-button-response","trial_index":133,"time_elapsed":983642,"internal_node_id":"0.0-4.0-0.61","subject_id":"61717173748006894b2b54ff","study_id":"6197b3f67c2b5cd3b6d9596a","session_id":"619be31afa279ac60d2c7f1f","condition":"full-information","relevant_dimensions":["antennae","pattern"],"bee_group":{"antennae":"A","wings":"X","pattern":"S","legs":"X"},"action":"harvest","summary":"good-harvest","bonus":0.8800000000000009},{"rt":368.2000000476837,"stimulus":"\n                    <p><b>Action: <em>harvest</em></b></p>\n                    <p>This is the bee that you just saw.</p>\n                    <img src=\"bees-with-color/bee-B1SM.svg\" width=\"200\">\n                    <p><span class=\"greenText\"><b>Successful harvest!</b></span><br>Your pay has increased by $0.02. Your bonus pay is now $0.64.</p>\n            ","response":0,"trial_type":"html-button-response","trial_index":134,"time_elapsed":984011,"internal_node_id":"0.0-4.0-1.61","subject_id":"61717173748006894b2b54ff","study_id":"6197b3f67c2b5cd3b6d9596a","session_id":"619be31afa279ac60d2c7f1f","condition":"full-information","relevant_dimensions":["antennae","pattern"],"bee_group":{"antennae":"A","wings":"X","pattern":"S","legs":"X"},"bonus":0.8800000000000009},{"rt":1626.1000000238419,"stimulus":"bees-with-color/bee-B1SF.svg","response":1,"trial_type":"image-button-response","trial_index":135,"time_elapsed":985638,"internal_node_id":"0.0-4.0-0.62","subject_id":"61717173748006894b2b54ff","study_id":"6197b3f67c2b5cd3b6d9596a","session_id":"619be31afa279ac60d2c7f1f","condition":"full-information","relevant_dimensions":["antennae","pattern"],"bee_group":{"antennae":"A","wings":"X","pattern":"S","legs":"X"},"action":"avoid","summary":"bad-avoid","bonus":0.8800000000000009},{"rt":555.1000000238419,"stimulus":"\n                    <p><b>Action: <em>avoid</em></b></p>\n                    <p>This is the bee that you just saw.</p>\n                    <img src=\"bees-with-color/bee-B1SF.svg\" width=\"200\">\n                    <p><span class=\"redText\">Bad choice,</span> the bee was friendly.<br>Your bonus pay is unchanged, and remains at $0.64.</p>\n            ","response":0,"trial_type":"html-button-response","trial_index":136,"time_elapsed":986194,"internal_node_id":"0.0-4.0-1.62","subject_id":"61717173748006894b2b54ff","study_id":"6197b3f67c2b5cd3b6d9596a","session_id":"619be31afa279ac60d2c7f1f","condition":"full-information","relevant_dimensions":["antennae","pattern"],"bee_group":{"antennae":"A","wings":"X","pattern":"S","legs":"X"},"bonus":0.8800000000000009},{"rt":1295.199999988079,"stimulus":"bees-with-color/bee-B1DF.svg","response":0,"trial_type":"image-button-response","trial_index":137,"time_elapsed":987490,"internal_node_id":"0.0-4.0-0.63","subject_id":"61717173748006894b2b54ff","study_id":"6197b3f67c2b5cd3b6d9596a","session_id":"619be31afa279ac60d2c7f1f","condition":"full-information","relevant_dimensions":["antennae","pattern"],"bee_group":{"antennae":"A","wings":"X","pattern":"S","legs":"X"},"action":"harvest","summary":"good-harvest","bonus":0.8800000000000009},{"rt":363.4000000357628,"stimulus":"\n                    <p><b>Action: <em>harvest</em></b></p>\n                    <p>This is the bee that you just saw.</p>\n                    <img src=\"bees-with-color/bee-B1DF.svg\" width=\"200\">\n                    <p><span class=\"greenText\"><b>Successful harvest!</b></span><br>Your pay has increased by $0.02. Your bonus pay is now $0.66.</p>\n            ","response":0,"trial_type":"html-button-response","trial_index":138,"time_elapsed":987854,"internal_node_id":"0.0-4.0-1.63","subject_id":"61717173748006894b2b54ff","study_id":"6197b3f67c2b5cd3b6d9596a","session_id":"619be31afa279ac60d2c7f1f","condition":"full-information","relevant_dimensions":["antennae","pattern"],"bee_group":{"antennae":"A","wings":"X","pattern":"S","legs":"X"},"bonus":0.8800000000000009},{"rt":2159.300000011921,"stimulus":"You have completed the first part of this experiment.<br><br>You will now begin a shorter second part, in which you will receive no feedback.<br>The same rules regarding bonus pay apply.<br><br>Press any key to begin.","response":" ","trial_type":"html-keyboard-response","trial_index":139,"time_elapsed":990014,"internal_node_id":"0.0-5.0","subject_id":"61717173748006894b2b54ff","study_id":"6197b3f67c2b5cd3b6d9596a","session_id":"619be31afa279ac60d2c7f1f","condition":"full-information","relevant_dimensions":["antennae","pattern"],"bee_group":{"antennae":"A","wings":"X","pattern":"S","legs":"X"},"bonus":0.8800000000000009},{"rt":5515.5,"stimulus":"bees-with-color/bee-A2SM.svg","response":1,"trial_type":"image-button-response","trial_index":140,"time_elapsed":995531,"internal_node_id":"0.0-6.0-0.0","subject_id":"61717173748006894b2b54ff","study_id":"6197b3f67c2b5cd3b6d9596a","session_id":"619be31afa279ac60d2c7f1f","condition":"full-information","relevant_dimensions":["antennae","pattern"],"bee_group":{"antennae":"A","wings":"X","pattern":"S","legs":"X"},"bonus":0.8800000000000009},{"rt":3608.199999988079,"stimulus":"bees-with-color/bee-B2SF.svg","response":1,"trial_type":"image-button-response","trial_index":141,"time_elapsed":999140,"internal_node_id":"0.0-6.0-0.1","subject_id":"61717173748006894b2b54ff","study_id":"6197b3f67c2b5cd3b6d9596a","session_id":"619be31afa279ac60d2c7f1f","condition":"full-information","relevant_dimensions":["antennae","pattern"],"bee_group":{"antennae":"A","wings":"X","pattern":"S","legs":"X"},"bonus":0.8800000000000009},{"rt":1124.199999988079,"stimulus":"bees-with-color/bee-B2DM.svg","response":0,"trial_type":"image-button-response","trial_index":142,"time_elapsed":1000265,"internal_node_id":"0.0-6.0-0.2","subject_id":"61717173748006894b2b54ff","study_id":"6197b3f67c2b5cd3b6d9596a","session_id":"619be31afa279ac60d2c7f1f","condition":"full-information","relevant_dimensions":["antennae","pattern"],"bee_group":{"antennae":"A","wings":"X","pattern":"S","legs":"X"},"bonus":0.8800000000000009},{"rt":1361.300000011921,"stimulus":"bees-with-color/bee-A1DF.svg","response":0,"trial_type":"image-button-response","trial_index":143,"time_elapsed":1001627,"internal_node_id":"0.0-6.0-0.3","subject_id":"61717173748006894b2b54ff","study_id":"6197b3f67c2b5cd3b6d9596a","session_id":"619be31afa279ac60d2c7f1f","condition":"full-information","relevant_dimensions":["antennae","pattern"],"bee_group":{"antennae":"A","wings":"X","pattern":"S","legs":"X"},"bonus":0.8800000000000009},{"rt":1433.199999988079,"stimulus":"bees-with-color/bee-A2DF.svg","response":0,"trial_type":"image-button-response","trial_index":144,"time_elapsed":1003061,"internal_node_id":"0.0-6.0-0.4","subject_id":"61717173748006894b2b54ff","study_id":"6197b3f67c2b5cd3b6d9596a","session_id":"619be31afa279ac60d2c7f1f","condition":"full-information","relevant_dimensions":["antennae","pattern"],"bee_group":{"antennae":"A","wings":"X","pattern":"S","legs":"X"},"bonus":0.8800000000000009},{"rt":910.3999999761581,"stimulus":"bees-with-color/bee-A2DM.svg","response":0,"trial_type":"image-button-response","trial_index":145,"time_elapsed":1003972,"internal_node_id":"0.0-6.0-0.5","subject_id":"61717173748006894b2b54ff","study_id":"6197b3f67c2b5cd3b6d9596a","session_id":"619be31afa279ac60d2c7f1f","condition":"full-information","relevant_dimensions":["antennae","pattern"],"bee_group":{"antennae":"A","wings":"X","pattern":"S","legs":"X"},"bonus":0.8800000000000009},{"rt":934.3000000119209,"stimulus":"bees-with-color/bee-A1SF.svg","response":1,"trial_type":"image-button-response","trial_index":146,"time_elapsed":1004907,"internal_node_id":"0.0-6.0-0.6","subject_id":"61717173748006894b2b54ff","study_id":"6197b3f67c2b5cd3b6d9596a","session_id":"619be31afa279ac60d2c7f1f","condition":"full-information","relevant_dimensions":["antennae","pattern"],"bee_group":{"antennae":"A","wings":"X","pattern":"S","legs":"X"},"bonus":0.8800000000000009},{"rt":7254.199999988079,"stimulus":"bees-with-color/bee-B2DF.svg","response":0,"trial_type":"image-button-response","trial_index":147,"time_elapsed":1012162,"internal_node_id":"0.0-6.0-0.7","subject_id":"61717173748006894b2b54ff","study_id":"6197b3f67c2b5cd3b6d9596a","session_id":"619be31afa279ac60d2c7f1f","condition":"full-information","relevant_dimensions":["antennae","pattern"],"bee_group":{"antennae":"A","wings":"X","pattern":"S","legs":"X"},"bonus":0.8800000000000009},{"rt":1737.5,"stimulus":"bees-with-color/bee-B1DM.svg","response":0,"trial_type":"image-button-response","trial_index":148,"time_elapsed":1013901,"internal_node_id":"0.0-6.0-0.8","subject_id":"61717173748006894b2b54ff","study_id":"6197b3f67c2b5cd3b6d9596a","session_id":"619be31afa279ac60d2c7f1f","condition":"full-information","relevant_dimensions":["antennae","pattern"],"bee_group":{"antennae":"A","wings":"X","pattern":"S","legs":"X"},"bonus":0.8800000000000009},{"rt":859.1000000238419,"stimulus":"bees-with-color/bee-B1SF.svg","response":1,"trial_type":"image-button-response","trial_index":149,"time_elapsed":1014761,"internal_node_id":"0.0-6.0-0.9","subject_id":"61717173748006894b2b54ff","study_id":"6197b3f67c2b5cd3b6d9596a","session_id":"619be31afa279ac60d2c7f1f","condition":"full-information","relevant_dimensions":["antennae","pattern"],"bee_group":{"antennae":"A","wings":"X","pattern":"S","legs":"X"},"bonus":0.8800000000000009},{"rt":1105.5999999642372,"stimulus":"bees-with-color/bee-A1DM.svg","response":0,"trial_type":"image-button-response","trial_index":150,"time_elapsed":1015867,"internal_node_id":"0.0-6.0-0.10","subject_id":"61717173748006894b2b54ff","study_id":"6197b3f67c2b5cd3b6d9596a","session_id":"619be31afa279ac60d2c7f1f","condition":"full-information","relevant_dimensions":["antennae","pattern"],"bee_group":{"antennae":"A","wings":"X","pattern":"S","legs":"X"},"bonus":0.8800000000000009},{"rt":2674.899999976158,"stimulus":"bees-with-color/bee-A2SF.svg","response":0,"trial_type":"image-button-response","trial_index":151,"time_elapsed":1018543,"internal_node_id":"0.0-6.0-0.11","subject_id":"61717173748006894b2b54ff","study_id":"6197b3f67c2b5cd3b6d9596a","session_id":"619be31afa279ac60d2c7f1f","condition":"full-information","relevant_dimensions":["antennae","pattern"],"bee_group":{"antennae":"A","wings":"X","pattern":"S","legs":"X"},"bonus":0.8800000000000009},{"rt":841.3999999761581,"stimulus":"bees-with-color/bee-B1DF.svg","response":0,"trial_type":"image-button-response","trial_index":152,"time_elapsed":1019385,"internal_node_id":"0.0-6.0-0.12","subject_id":"61717173748006894b2b54ff","study_id":"6197b3f67c2b5cd3b6d9596a","session_id":"619be31afa279ac60d2c7f1f","condition":"full-information","relevant_dimensions":["antennae","pattern"],"bee_group":{"antennae":"A","wings":"X","pattern":"S","legs":"X"},"bonus":0.8800000000000009},{"rt":1249.300000011921,"stimulus":"bees-with-color/bee-B2SM.svg","response":1,"trial_type":"image-button-response","trial_index":153,"time_elapsed":1020635,"internal_node_id":"0.0-6.0-0.13","subject_id":"61717173748006894b2b54ff","study_id":"6197b3f67c2b5cd3b6d9596a","session_id":"619be31afa279ac