[{"success":true,"trial_type":"fullscreen","trial_index":0,"time_elapsed":9742,"internal_node_id":"0.0-0.0","subject_id":"60f1c8b5565f8e5450c7cd2e","study_id":"6197b3f67c2b5cd3b6d9596a","session_id":"6197b8872dc3a9e4dd83b1da","condition":"contingent","relevant_dimensions":["antennae","legs"],"bee_group":{"antennae":"B","wings":"X","pattern":"X","legs":"M"},"bonus":0.8000000000000009},{"success":true,"timeout":false,"failed_images":[],"failed_audio":[],"failed_video":[],"trial_type":"preload","trial_index":1,"time_elapsed":14629,"internal_node_id":"0.0-1.0","subject_id":"60f1c8b5565f8e5450c7cd2e","study_id":"6197b3f67c2b5cd3b6d9596a","session_id":"6197b8872dc3a9e4dd83b1da","condition":"contingent","relevant_dimensions":["antennae","legs"],"bee_group":{"antennae":"B","wings":"X","pattern":"X","legs":"M"},"bonus":0.8000000000000009},{"rt":2736.3999996185303,"stimulus":"Welcome! Press any key to begin.","response":"arrowright","trial_type":"html-keyboard-response","trial_index":2,"time_elapsed":17368,"internal_node_id":"0.0-2.0","subject_id":"60f1c8b5565f8e5450c7cd2e","study_id":"6197b3f67c2b5cd3b6d9596a","session_id":"6197b8872dc3a9e4dd83b1da","condition":"contingent","relevant_dimensions":["antennae","legs"],"bee_group":{"antennae":"B","wings":"X","pattern":"X","legs":"M"},"bonus":0.8000000000000009},{"view_history":[{"page_index":0,"viewing_time":5922.699999809265},{"page_index":1,"viewing_time":15782.300000190735},{"page_index":2,"viewing_time":24183.199999809265},{"page_index":3,"viewing_time":16627.400000095367},{"page_index":4,"viewing_time":9625.900000095367},{"page_index":5,"viewing_time":15422.599999904633},{"page_index":6,"viewing_time":29539.900000095367},{"page_index":7,"viewing_time":19229},{"page_index":8,"viewing_time":13904.299999713898},{"page_index":9,"viewing_time":20888.5},{"page_index":10,"viewing_time":10225.099999904633},{"page_index":11,"viewing_time":21199.60000038147},{"page_index":12,"viewing_time":21706.699999809265},{"page_index":13,"viewing_time":1888.5999999046326},{"page_index":14,"viewing_time":3967.800000190735}],"rt":230114.09999990463,"trial_type":"instructions","trial_index":3,"time_elapsed":247483,"internal_node_id":"0.0-3.0-0.0","subject_id":"60f1c8b5565f8e5450c7cd2e","study_id":"6197b3f67c2b5cd3b6d9596a","session_id":"6197b8872dc3a9e4dd83b1da","condition":"contingent","relevant_dimensions":["antennae","legs"],"bee_group":{"antennae":"B","wings":"X","pattern":"X","legs":"M"},"bonus":0.8000000000000009},{"rt":19971.299999713898,"response":{"Q0":["Two or six legs","Stripes or spots on body","Single or double wings","Antennae or no antennae"]},"question_order":[0],"trial_type":"survey-multi-select","trial_index":4,"time_elapsed":267459,"internal_node_id":"0.0-3.0-1.0","subject_id":"60f1c8b5565f8e5450c7cd2e","study_id":"6197b3f67c2b5cd3b6d9596a","session_id":"6197b8872dc3a9e4dd83b1da","condition":"contingent","relevant_dimensions":["antennae","legs"],"bee_group":{"antennae":"B","wings":"X","pattern":"X","legs":"M"},"correct":true,"bonus":0.8000000000000009},{"rt":41354.7000002861,"response":{"Q1":"No.","Q2":"Based on the four features of the bee.","Q3":"You do not learn if it was friendly or dangerous, and do not alter your bonus."},"question_order":[0,1,2],"trial_type":"survey-multi-choice","trial_index":5,"time_elapsed":308816,"internal_node_id":"0.0-3.0-2.0","subject_id":"60f1c8b5565f8e5450c7cd2e","study_id":"6197b3f67c2b5cd3b6d9596a","session_id":"6197b8872dc3a9e4dd83b1da","condition":"contingent","relevant_dimensions":["antennae","legs"],"bee_group":{"antennae":"B","wings":"X","pattern":"X","legs":"M"},"correct":true,"bonus":0.8000000000000009},{"rt":59952.40000009537,"stimulus":"<p>Congrats, you got everything right<br>When you're ready, click the button below to continue to the experiment.</p>","response":0,"trial_type":"html-button-response","trial_index":6,"time_elapsed":368771,"internal_node_id":"0.0-3.0-3.0","subject_id":"60f1c8b5565f8e5450c7cd2e","study_id":"6197b3f67c2b5cd3b6d9596a","session_id":"6197b8872dc3a9e4dd83b1da","condition":"contingent","relevant_dimensions":["antennae","legs"],"bee_group":{"antennae":"B","wings":"X","pattern":"X","legs":"M"},"bonus":0.8000000000000009},{"rt":6775.5,"stimulus":"bees-with-color/bee-B1SF.svg","response":0,"trial_type":"image-button-response","trial_index":7,"time_elapsed":375550,"internal_node_id":"0.0-4.0-0.0","subject_id":"60f1c8b5565f8e5450c7cd2e","study_id":"6197b3f67c2b5cd3b6d9596a","session_id":"6197b8872dc3a9e4dd83b1da","condition":"contingent","relevant_dimensions":["antennae","legs"],"bee_group":{"antennae":"B","wings":"X","pattern":"X","legs":"M"},"action":"harvest","summary":"good-harvest","bonus":0.8000000000000009},{"rt":21162.300000190735,"stimulus":"\n                    <p><b>Action: <em>harvest</em></b></p>\n                    <p>This is the bee that you just saw.</p>\n                    <img src=\"bees-with-color/bee-B1SF.svg\" width=\"200\">\n                    <p><span class=\"greenText\"><b>Successful harvest!</b></span><br>Your pay has increased by $0.02. Your bonus pay is now $0.56.</p>\n            ","response":0,"trial_type":"html-button-response","trial_index":8,"time_elapsed":396980,"internal_node_id":"0.0-4.0-1.0","subject_id":"60f1c8b5565f8e5450c7cd2e","study_id":"6197b3f67c2b5cd3b6d9596a","session_id":"6197b8872dc3a9e4dd83b1da","condition":"contingent","relevant_dimensions":["antennae","legs"],"bee_group":{"antennae":"B","wings":"X","pattern":"X","legs":"M"},"bonus":0.8000000000000009},{"rt":10381,"stimulus":"bees-with-color/bee-A1DM.svg","response":1,"trial_type":"image-button-response","trial_index":9,"time_elapsed":407365,"internal_node_id":"0.0-4.0-0.1","subject_id":"60f1c8b5565f8e5450c7cd2e","study_id":"6197b3f67c2b5cd3b6d9596a","session_id":"6197b8872dc3a9e4dd83b1da","condition":"contingent","relevant_dimensions":["antennae","legs"],"bee_group":{"antennae":"B","wings":"X","pattern":"X","legs":"M"},"action":"avoid","summary":"bad-avoid","bonus":0.8000000000000009},{"rt":10318.900000095367,"stimulus":"\n                    <p><b>Action: <em>avoid</em></b></p>\n                    <p>This is the bee that you just saw.</p>\n                    <img src=\"bees-with-color/bee-A1DM.svg\" width=\"200\">\n                    <p><br>Your bonus pay is unchanged, and remains at $0.56.</p>\n            ","response":0,"trial_type":"html-button-response","trial_index":10,"time_elapsed":417687,"internal_node_id":"0.0-4.0-1.1","subject_id":"60f1c8b5565f8e5450c7cd2e","study_id":"6197b3f67c2b5cd3b6d9596a","session_id":"6197b8872dc3a9e4dd83b1da","condition":"contingent","relevant_dimensions":["antennae","legs"],"bee_group":{"antennae":"B","wings":"X","pattern":"X","legs":"M"},"bonus":0.8000000000000009},{"rt":11188.5,"stimulus":"bees-with-color/bee-B1DF.svg","response":0,"trial_type":"image-button-response","trial_index":11,"time_elapsed":428879,"internal_node_id":"0.0-4.0-0.2","subject_id":"60f1c8b5565f8e5450c7cd2e","study_id":"6197b3f67c2b5cd3b6d9596a","session_id":"6197b8872dc3a9e4dd83b1da","condition":"contingent","relevant_dimensions":["antennae","legs"],"bee_group":{"antennae":"B","wings":"X","pattern":"X","legs":"M"},"action":"harvest","summary":"good-harvest","bonus":0.8000000000000009},{"rt":15366.5,"stimulus":"\n                    <p><b>Action: <em>harvest</em></b></p>\n                    <p>This is the bee that you just saw.</p>\n                    <img src=\"bees-with-color/bee-B1DF.svg\" width=\"200\">\n                    <p><span class=\"greenText\"><b>Successful harvest!</b></span><br>Your pay has increased by $0.02. Your bonus pay is now $0.58.</p>\n            ","response":0,"trial_type":"html-button-response","trial_index":12,"time_elapsed":444248,"internal_node_id":"0.0-4.0-1.2","subject_id":"60f1c8b5565f8e5450c7cd2e","study_id":"6197b3f67c2b5cd3b6d9596a","session_id":"6197b8872dc3a9e4dd83b1da","condition":"contingent","relevant_dimensions":["antennae","legs"],"bee_group":{"antennae":"B","wings":"X","pattern":"X","legs":"M"},"bonus":0.8000000000000009},{"rt":15797.5,"stimulus":"bees-with-color/bee-A2SF.svg","response":0,"trial_type":"image-button-response","trial_index":13,"time_elapsed":460048,"internal_node_id":"0.0-4.0-0.3","subject_id":"60f1c8b5565f8e5450c7cd2e","study_id":"6197b3f67c2b5cd3b6d9596a","session_id":"6197b8872dc3a9e4dd83b1da","condition":"contingent","relevant_dimensions":["antennae","legs"],"bee_group":{"antennae":"B","wings":"X","pattern":"X","legs":"M"},"action":"harvest","summary":"good-harvest","bonus":0.8000000000000009},{"rt":7083.900000095367,"stimulus":"\n                    <p><b>Action: <em>harvest</em></b></p>\n                    <p>This is the bee that you just saw.</p>\n                    <img src=\"bees-with-color/bee-A2SF.svg\" width=\"200\">\n                    <p><span class=\"greenText\"><b>Successful harvest!</b></span><br>Your pay has increased by $0.02. Your bonus pay is now $0.60.</p>\n            ","response":0,"trial_type":"html-button-response","trial_index":14,"time_elapsed":467135,"internal_node_id":"0.0-4.0-1.3","subject_id":"60f1c8b5565f8e5450c7cd2e","study_id":"6197b3f67c2b5cd3b6d9596a","session_id":"6197b8872dc3a9e4dd83b1da","condition":"contingent","relevant_dimensions":["antennae","legs"],"bee_group":{"antennae":"B","wings":"X","pattern":"X","legs":"M"},"bonus":0.8000000000000009},{"rt":14992.5,"stimulus":"bees-with-color/bee-B1SM.svg","response":1,"trial_type":"image-button-response","trial_index":15,"time_elapsed":482130,"internal_node_id":"0.0-4.0-0.4","subject_id":"60f1c8b5565f8e5450c7cd2e","study_id":"6197b3f67c2b5cd3b6d9596a","session_id":"6197b8872dc3a9e4dd83b1da","condition":"contingent","relevant_dimensions":["antennae","legs"],"bee_group":{"antennae":"B","wings":"X","pattern":"X","legs":"M"},"action":"avoid","summary":"good-avoid","bonus":0.8000000000000009},{"rt":6941.400000095367,"stimulus":"\n                    <p><b>Action: <em>avoid</em></b></p>\n                    <p>This is the bee that you just saw.</p>\n                    <img src=\"bees-with-color/bee-B1SM.svg\" width=\"200\">\n                    <p><br>Your bonus pay is unchanged, and remains at $0.60.</p>\n            ","response":0,"trial_type":"html-button-response","trial_index":16,"time_elapsed":489073,"internal_node_id":"0.0-4.0-1.4","subject_id":"60f1c8b5565f8e5450c7cd2e","study_id":"6197b3f67c2b5cd3b6d9596a","session_id":"6197b8872dc3a9e4dd83b1da","condition":"contingent","relevant_dimensions":["antennae","legs"],"bee_group":{"antennae":"B","wings":"X","pattern":"X","legs":"M"},"bonus":0.8000000000000009},{"rt":10002.700000286102,"stimulus":"bees-with-color/bee-A1DF.svg","response":0,"trial_type":"image-button-response","trial_index":17,"time_elapsed":499078,"internal_node_id":"0.0-4.0-0.5","subject_id":"60f1c8b5565f8e5450c7cd2e","study_id":"6197b3f67c2b5cd3b6d9596a","session_id":"6197b8872dc3a9e4dd83b1da","condition":"contingent","relevant_dimensions":["antennae","legs"],"bee_group":{"antennae":"B","wings":"X","pattern":"X","legs":"M"},"action":"harvest","summary":"good-harvest","bonus":0.8000000000000009},{"rt":1934.2999997138977,"stimulus":"\n                    <p><b>Action: <em>harvest</em></b></p>\n                    <p>This is the bee that you just saw.</p>\n                    <img src=\"bees-with-color/bee-A1DF.svg\" width=\"200\">\n                    <p><span class=\"greenText\"><b>Successful harvest!</b></span><br>Your pay has increased by $0.02. Your bonus pay is now $0.62.</p>\n            ","response":0,"trial_type":"html-button-response","trial_index":18,"time_elapsed":501014,"internal_node_id":"0.0-4.0-1.5","subject_id":"60f1c8b5565f8e5450c7cd2e","study_id":"6197b3f67c2b5cd3b6d9596a","session_id":"6197b8872dc3a9e4dd83b1da","condition":"contingent","relevant_dimensions":["antennae","legs"],"bee_group":{"antennae":"B","wings":"X","pattern":"X","legs":"M"},"bonus":0.8000000000000009},{"rt":13633.699999809265,"stimulus":"bees-with-color/bee-B2SF.svg","response":1,"trial_type":"image-button-response","trial_index":19,"time_elapsed":514651,"internal_node_id":"0.0-4.0-0.6","subject_id":"60f1c8b5565f8e5450c7cd2e","study_id":"6197b3f67c2b5cd3b6d9596a","session_id":"6197b8872dc3a9e4dd83b1da","condition":"contingent","relevant_dimensions":["antennae","legs"],"bee_group":{"antennae":"B","wings":"X","pattern":"X","legs":"M"},"action":"avoid","summary":"bad-avoid","bonus":0.8000000000000009},{"rt":4982.89999961853,"stimulus":"\n                    <p><b>Action: <em>avoid</em></b></p>\n                    <p>This is the bee that you just saw.</p>\n                    <img src=\"bees-with-color/bee-B2SF.svg\" width=\"200\">\n                    <p><br>Your bonus pay is unchanged, and remains at $0.62.</p>\n            ","response":0,"trial_type":"html-button-response","trial_index":20,"time_elapsed":519635,"internal_node_id":"0.0-4.0-1.6","subject_id":"60f1c8b5565f8e5450c7cd2e","study_id":"6197b3f67c2b5cd3b6d9596a","session_id":"6197b8872dc3a9e4dd83b1da","condition":"contingent","relevant_dimensions":["antennae","legs"],"bee_group":{"antennae":"B","wings":"X","pattern":"X","legs":"M"},"bonus":0.8000000000000009},{"rt":20591.300000190735,"stimulus":"bees-with-color/bee-B2SM.svg","response":0,"trial_type":"image-button-response","trial_index":21,"time_elapsed":540229,"internal_node_id":"0.0-4.0-0.7","subject_id":"60f1c8b5565f8e5450c7cd2e","study_id":"6197b3f67c2b5cd3b6d9596a","session_id":"6197b8872dc3a9e4dd83b1da","condition":"contingent","relevant_dimensions":["antennae","legs"],"bee_group":{"antennae":"B","wings":"X","pattern":"X","legs":"M"},"action":"harvest","summary":"bad-harvest","bonus":0.8000000000000009},{"rt":8512,"stimulus":"\n                    <p><b>Action: <em>harvest</em></b></p>\n                    <p>This is the bee that you just saw.</p>\n                    <img src=\"bees-with-color/bee-B2SM.svg\" width=\"200\">\n                    <p><span class=\"redText\">Bad choice, the bee was angry.</span><br><b>You have been stung!</b><br>Your pay has been decreased by $0.10. Your bonus pay is now $0.52.</p>\n            ","response":0,"trial_type":"html-button-response","trial_index":22,"time_elapsed":548743,"internal_node_id":"0.0-4.0-1.7","subject_id":"60f1c8b5565f8e5450c7cd2e","study_id":"6197b3f67c2b5cd3b6d9596a","session_id":"6197b8872dc3a9e4dd83b1da","condition":"contingent","relevant_dimensions":["antennae","legs"],"bee_group":{"antennae":"B","wings":"X","pattern":"X","legs":"M"},"bonus":0.8000000000000009},{"rt":6975.900000095367,"stimulus":"bees-with-color/bee-B2DM.svg","response":1,"trial_type":"image-button-response","trial_index":23,"time_elapsed":555723,"internal_node_id":"0.0-4.0-0.8","subject_id":"60f1c8b5565f8e5450c7cd2e","study_id":"6197b3f67c2b5cd3b6d9596a","session_id":"6197b8872dc3a9e4dd83b1da","condition":"contingent","relevant_dimensions":["antennae","legs"],"bee_group":{"antennae":"B","wings":"X","pattern":"X","legs":"M"},"action":"avoid","summary":"good-avoid","bonus":0.8000000000000009},{"rt":2027.8999996185303,"stimulus":"\n                    <p><b>Action: <em>avoid</em></b></p>\n                    <p>This is the bee that you just saw.</p>\n                    <img src=\"bees-with-color/bee-B2DM.svg\" width=\"200\">\n                    <p><br>Your bonus pay is unchanged, and remains at $0.52.</p>\n            ","response":0,"trial_type":"html-button-response","trial_index":24,"time_elapsed":557752,"internal_node_id":"0.0-4.0-1.8","subject_id":"60f1c8b5565f8e5450c7cd2e","study_id":"6197b3f67c2b5cd3b6d9596a","session_id":"6197b8872dc3a9e4dd83b1da","condition":"contingent","relevant_dimensions":["antennae","legs"],"bee_group":{"antennae":"B","wings":"X","pattern":"X","legs":"M"},"bonus":0.8000000000000009},{"rt":12147.800000190735,"stimulus":"bees-with-color/bee-A2DF.svg","response":1,"trial_type":"image-button-response","trial_index":25,"time_elapsed":569902,"internal_node_id":"0.0-4.0-0.9","subject_id":"60f1c8b5565f8e5450c7cd2e","study_id":"6197b3f67c2b5cd3b6d9596a","session_id":"6197b8872dc3a9e4dd83b1da","condition":"contingent","relevant_dimensions":["antennae","legs"],"bee_group":{"antennae":"B","wings":"X","pattern":"X","legs":"M"},"action":"avoid","summary":"bad-avoid","bonus":0.8000000000000009},{"rt":1896.5,"stimulus":"\n                    <p><b>Action: <em>avoid</em></b></p>\n                    <p>This is the bee that you just saw.</p>\n                    <img src=\"bees-with-color/bee-A2DF.svg\" width=\"200\">\n                    <p><br>Your bonus pay is unchanged, and remains at $0.52.</p>\n            ","response":0,"trial_type":"html-button-response","trial_index":26,"time_elapsed":571801,"internal_node_id":"0.0-4.0-1.9","subject_id":"60f1c8b5565f8e5450c7cd2e","study_id":"6197b3f67c2b5cd3b6d9596a","session_id":"6197b8872dc3a9e4dd83b1da","condition":"contingent","relevant_dimensions":["antennae","legs"],"bee_group":{"antennae":"B","wings":"X","pattern":"X","legs":"M"},"bonus":0.8000000000000009},{"rt":7269.199999809265,"stimulus":"bees-with-color/bee-B2DF.svg","response":0,"trial_type":"image-button-response","trial_index":27,"time_elapsed":579073,"internal_node_id":"0.0-4.0-0.10","subject_id":"60f1c8b5565f8e5450c7cd2e","study_id":"6197b3f67c2b5cd3b6d9596a","session_id":"6197b8872dc3a9e4dd83b1da","condition":"contingent","relevant_dimensions":["antennae","legs"],"bee_group":{"antennae":"B","wings":"X","pattern":"X","legs":"M"},"action":"harvest","summary":"good-harvest","bonus":0.8000000000000009},{"rt":11770.699999809265,"stimulus":"\n                    <p><b>Action: <em>harvest</em></b></p>\n                    <p>This is the bee that you just saw.</p>\n                    <img src=\"bees-with-color/bee-B2DF.svg\" width=\"200\">\n                    <p><span class=\"greenText\"><b>Successful harvest!</b></span><br>Your pay has increased by $0.02. Your bonus pay is now $0.54.</p>\n            ","response":0,"trial_type":"html-button-response","trial_index":28,"time_elapsed":590846,"internal_node_id":"0.0-4.0-1.10","subject_id":"60f1c8b5565f8e5450c7cd2e","study_id":"6197b3f67c2b5cd3b6d9596a","session_id":"6197b8872dc3a9e4dd83b1da","condition":"contingent","relevant_dimensions":["antennae","legs"],"bee_group":{"antennae":"B","wings":"X","pattern":"X","legs":"M"},"bonus":0.8000000000000009},{"rt":12629.099999904633,"stimulus":"bees-with-color/bee-B1DM.svg","response":1,"trial_type":"image-button-response","trial_index":29,"time_elapsed":603478,"internal_node_id":"0.0-4.0-0.11","subject_id":"60f1c8b5565f8e5450c7cd2e","study_id":"6197b3f67c2b5cd3b6d9596a","session_id":"6197b8872dc3a9e4dd83b1da","condition":"contingent","relevant_dimensions":["antennae","legs"],"bee_group":{"antennae":"B","wings":"X","pattern":"X","legs":"M"},"action":"avoid","summary":"good-avoid","bonus":0.8000000000000009},{"rt":5034.5,"stimulus":"\n                    <p><b>Action: <em>avoid</em></b></p>\n                    <p>This is the bee that you just saw.</p>\n                    <img src=\"bees-with-color/bee-B1DM.svg\" width=\"200\">\n                    <p><br>Your bonus pay is unchanged, and remains at $0.54.</p>\n            ","response":0,"trial_type":"html-button-response","trial_index":30,"time_elapsed":608515,"internal_node_id":"0.0-4.0-1.11","subject_id":"60f1c8b5565f8e5450c7cd2e","study_id":"6197b3f67c2b5cd3b6d9596a","session_id":"6197b8872dc3a9e4dd83b1da","condition":"contingent","relevant_dimensions":["antennae","legs"],"bee_group":{"antennae":"B","wings":"X","pattern":"X","legs":"M"},"bonus":0.8000000000000009},{"rt":9642,"stimulus":"bees-with-color/bee-A2SM.svg","response":0,"trial_type":"image-button-response","trial_index":31,"time_elapsed":618159,"internal_node_id":"0.0-4.0-0.12","subject_id":"60f1c8b5565f8e5450c7cd2e","study_id":"6197b3f67c2b5cd3b6d9596a","session_id":"6197b8872dc3a9e4dd83b1da","condition":"contingent","relevant_dimensions":["antennae","legs"],"bee_group":{"antennae":"B","wings":"X","pattern":"X","legs":"M"},"action":"harvest","summary":"good-harvest","bonus":0.8000000000000009},{"rt":1966.8000001907349,"stimulus":"\n                    <p><b>Action: <em>harvest</em></b></p>\n                    <p>This is the bee that you just saw.</p>\n                    <img src=\"bees-with-color/bee-A2SM.svg\" width=\"200\">\n                    <p><span class=\"greenText\"><b>Successful harvest!</b></span><br>Your pay has increased by $0.02. Your bonus pay is now $0.56.</p>\n            ","response":0,"trial_type":"html-button-response","trial_index":32,"time_elapsed":620127,"internal_node_id":"0.0-4.0-1.12","subject_id":"60f1c8b5565f8e5450c7cd2e","study_id":"6197b3f67c2b5cd3b6d9596a","session_id":"6197b8872dc3a9e4dd83b1da","condition":"contingent","relevant_dimensions":["antennae","legs"],"bee_group":{"antennae":"B","wings":"X","pattern":"X","legs":"M"},"bonus":0.8000000000000009},{"rt":6511.300000190735,"stimulus":"bees-with-color/bee-A1SF.svg","response":1,"trial_type":"image-button-response","trial_index":33,"time_elapsed":626641,"internal_node_id":"0.0-4.0-0.13","subject_id":"60f1c8b5565f8e5450c7cd2e","study_id":"6197b3f67c2b5cd3b6d9596a","session_id":"6197b8872dc3a9e4dd83b1da","condition":"contingent","relevant_dimensions":["antennae","legs"],"bee_group":{"antennae":"B","wings":"X","pattern":"X","legs":"M"},"action":"avoid","summary":"bad-avoid","bonus":0.8000000000000009},{"rt":1554,"stimulus":"\n                    <p><b>Action: <em>avoid</em></b></p>\n                    <p>This is the bee that you just saw.</p>\n                    <img src=\"bees-with-color/bee-A1SF.svg\" width=\"200\">\n                    <p><br>Your bonus pay is unchanged, and remains at $0.56.</p>\n            ","response":0,"trial_type":"html-button-response","trial_index":34,"time_elapsed":628197,"internal_node_id":"0.0-4.0-1.13","subject_id":"60f1c8b5565f8e5450c7cd2e","study_id":"6197b3f67c2b5cd3b6d9596a","session_id":"6197b8872dc3a9e4dd83b1da","condition":"contingent","relevant_dimensions":["antennae","legs"],"bee_group":{"antennae":"B","wings":"X","pattern":"X","legs":"M"},"bonus":0.8000000000000009},{"rt":14021.300000190735,"stimulus":"bees-with-color/bee-A1SM.svg","response":0,"trial_type":"image-button-response","trial_index":35,"time_elapsed":642220,"internal_node_id":"0.0-4.0-0.14","subject_id":"60f1c8b5565f8e5450c7cd2e","study_id":"6197b3f67c2b5cd3b6d9596a","session_id":"6197b8872dc3a9e4dd83b1da","condition":"contingent","relevant_dimensions":["antennae","legs"],"bee_group":{"antennae":"B","wings":"X","pattern":"X","legs":"M"},"action":"harvest","summary":"good-harvest","bonus":0.8000000000000009},{"rt":5418.39999961853,"stimulus":"\n                    <p><b>Action: <em>harvest</em></b></p>\n                    <p>This is the bee that you just saw.</p>\n                    <img src=\"bees-with-color/bee-A1SM.svg\" width=\"200\">\n                    <p><span class=\"greenText\"><b>Successful harvest!</b></span><br>Your pay has increased by $0.02. Your bonus pay is now $0.58.</p>\n            ","response":0,"trial_type":"html-button-response","trial_index":36,"time_elapsed":647641,"internal_node_id":"0.0-4.0-1.14","subject_id":"60f1c8b5565f8e5450c7cd2e","study_id":"6197b3f67c2b5cd3b6d9596a","session_id":"6197b8872dc3a9e4dd83b1da","condition":"contingent","relevant_dimensions":["antennae","legs"],"bee_group":{"antennae":"B","wings":"X","pattern":"X","legs":"M"},"bonus":0.8000000000000009},{"rt":16780.199999809265,"stimulus":"bees-with-color/bee-A2DM.svg","response":1,"trial_type":"image-button-response","trial_index":37,"time_elapsed":664423,"internal_node_id":"0.0-4.0-0.15","subject_id":"60f1c8b5565f8e5450c7cd2e","study_id":"6197b3f67c2b5cd3b6d9596a","session_id":"6197b8872dc3a9e4dd83b1da","condition":"contingent","relevant_dimensions":["antennae","legs"],"bee_group":{"antennae":"B","wings":"X","pattern":"X","legs":"M"},"action":"avoid","summary":"bad-avoid","bonus":0.8000000000000009},{"rt":2118.2000002861023,"stimulus":"\n                    <p><b>Action: <em>avoid</em></b></p>\n                    <p>This is the bee that you just saw.</p>\n                    <img src=\"bees-with-color/bee-A2DM.svg\" width=\"200\">\n                    <p><br>Your bonus pay is unchanged, and remains at $0.58.</p>\n            ","response":0,"trial_type":"html-button-response","trial_index":38,"time_elapsed":666544,"internal_node_id":"0.0-4.0-1.15","subject_id":"60f1c8b5565f8e5450c7cd2e","study_id":"6197b3f67c2b5cd3b6d9596a","session_id":"6197b8872dc3a9e4dd83b1da","condition":"contingent","relevant_dimensions":["antennae","legs"],"bee_group":{"antennae":"B","wings":"X","pattern":"X","legs":"M"},"bonus":0.8000000000000009},{"rt":21366.10000038147,"stimulus":"bees-with-color/bee-B2SM.svg","response":1,"trial_type":"image-button-response","trial_index":39,"time_elapsed":687913,"internal_node_id":"0.0-4.0-0.16","subject_id":"60f1c8b5565f8e5450c7cd2e","study_id":"6197b3f67c2b5cd3b6d9596a","session_id":"6197b8872dc3a9e4dd83b1da","condition":"contingent","relevant_dimensions":["antennae","legs"],"bee_group":{"antennae":"B","wings":"X","pattern":"X","legs":"M"},"action":"avoid","summary":"good-avoid","bonus":0.8000000000000009},{"rt":1654,"stimulus":"\n                    <p><b>Action: <em>avoid</em></b></p>\n                    <p>This is the bee that you just saw.</p>\n                    <img src=\"bees-with-color/bee-B2SM.svg\" width=\"200\">\n                    <p><br>Your bonus pay is unchanged, and remains at $0.58.</p>\n            ","response":0,"trial_type":"html-button-response","trial_index":40,"time_elapsed":689569,"internal_node_id":"0.0-4.0-1.16","subject_id":"60f1c8b5565f8e5450c7cd2e","study_id":"6197b3f67c2b5cd3b6d9596a","session_id":"6197b8872dc3a9e4dd83b1da","condition":"contingent","relevant_dimensions":["antennae","legs"],"bee_group":{"antennae":"B","wings":"X","pattern":"X","legs":"M"},"bonus":0.8000000000000009},{"rt":1290.3000001907349,"stimulus":"bees-with-color/bee-B1SM.svg","response":0,"trial_type":"image-button-response","trial_index":41,"time_elapsed":690863,"internal_node_id":"0.0-4.0-0.17","subject_id":"60f1c8b5565f8e5450c7cd2e","study_id":"6197b3f67c2b5cd3b6d9596a","session_id":"6197b8872dc3a9e4dd83b1da","condition":"contingent","relevant_dimensions":["antennae","legs"],"bee_group":{"antennae":"B","wings":"X","pattern":"X","legs":"M"},"action":"harvest","summary":"bad-harvest","bonus":0.8000000000000009},{"rt":5852.200000286102,"stimulus":"\n                    <p><b>Action: <em>harvest</em></b></p>\n                    <p>This is the bee that you just saw.</p>\n                    <img src=\"bees-with-color/bee-B1SM.svg\" width=\"200\">\n                    <p><span class=\"redText\">Bad choice, the bee was angry.</span><br><b>You have been stung!</b><br>Your pay has been decreased by $0.10. Your bonus pay is now $0.48.</p>\n            ","response":0,"trial_type":"html-button-response","trial_index":42,"time_elapsed":696718,"internal_node_id":"0.0-4.0-1.17","subject_id":"60f1c8b5565f8e5450c7cd2e","study_id":"6197b3f67c2b5cd3b6d9596a","session_id":"6197b8872dc3a9e4dd83b1da","condition":"contingent","relevant_dimensions":["antennae","legs"],"bee_group":{"antennae":"B","wings":"X","pattern":"X","legs":"M"},"bonus":0.8000000000000009},{"rt":1440.6999998092651,"stimulus":"bees-with-color/bee-B1SF.svg","response":0,"trial_type":"image-button-response","trial_index":43,"time_elapsed":698162,"internal_node_id":"0.0-4.0-0.18","subject_id":"60f1c8b5565f8e5450c7cd2e","study_id":"6197b3f67c2b5cd3b6d9596a","session_id":"6197b8872dc3a9e4dd83b1da","condition":"contingent","relevant_dimensions":["antennae","legs"],"bee_group":{"antennae":"B","wings":"X","pattern":"X","legs":"M"},"action":"harvest","summary":"good-harvest","bonus":0.8000000000000009},{"rt":1652.5,"stimulus":"\n                    <p><b>Action: <em>harvest</em></b></p>\n                    <p>This is the bee that you just saw.</p>\n                    <img src=\"bees-with-color/bee-B1SF.svg\" width=\"200\">\n                    <p><span class=\"greenText\"><b>Successful harvest!</b></span><br>Your pay has increased by $0.02. Your bonus pay is now $0.50.</p>\n            ","response":0,"trial_type":"html-button-response","trial_index":44,"time_elapsed":699817,"internal_node_id":"0.0-4.0-1.18","subject_id":"60f1c8b5565f8e5450c7cd2e","study_id":"6197b3f67c2b5cd3b6d9596a","session_id":"6197b8872dc3a9e4dd83b1da","condition":"contingent","relevant_dimensions":["antennae","legs"],"bee_group":{"antennae":"B","wings":"X","pattern":"X","legs":"M"},"bonus":0.8000000000000009},{"rt":9051.199999809265,"stimulus":"bees-with-color/bee-B2DF.svg","response":0,"trial_type":"image-button-response","trial_index":45,"time_elapsed":708871,"internal_node_id":"0.0-4.0-0.19","subject_id":"60f1c8b5565f8e5450c7cd2e","study_id":"6197b3f67c2b5cd3b6d9596a","session_id":"6197b8872dc3a9e4dd83b1da","condition":"contingent","relevant_dimensions":["antennae","legs"],"bee_group":{"antennae":"B","wings":"X","pattern":"X","legs":"M"},"action":"harvest","summary":"good-harvest","bonus":0.8000000000000009},{"rt":1452.2000002861023,"stimulus":"\n                    <p><b>Action: <em>harvest</em></b></p>\n                    <p>This is the bee that you just saw.</p>\n                    <img src=\"bees-with-color/bee-B2DF.svg\" width=\"200\">\n                    <p><span class=\"greenText\"><b>Successful harvest!</b></span><br>Your pay has increased by $0.02. Your bonus pay is now $0.52.</p>\n            ","response":0,"trial_type":"html-button-response","trial_index":46,"time_elapsed":710326,"internal_node_id":"0.0-4.0-1.19","subject_id":"60f1c8b5565f8e5450c7cd2e","study_id":"6197b3f67c2b5cd3b6d9596a","session_id":"6197b8872dc3a9e4dd83b1da","condition":"contingent","relevant_dimensions":["antennae","legs"],"bee_group":{"antennae":"B","wings":"X","pattern":"X","legs":"M"},"bonus":0.8000000000000009},{"rt":12625.5,"stimulus":"bees-with-color/bee-A2SF.svg","response":0,"trial_type":"image-button-response","trial_index":47,"time_elapsed":722954,"internal_node_id":"0.0-4.0-0.20","subject_id":"60f1c8b5565f8e5450c7cd2e","study_id":"6197b3f67c2b5cd3b6d9596a","session_id":"6197b8872dc3a9e4dd83b1da","condition":"contingent","relevant_dimensions":["antennae","legs"],"bee_group":{"antennae":"B","wings":"X","pattern":"X","legs":"M"},"action":"harvest","summary":"good-harvest","bonus":0.8000000000000009},{"rt":1404.4000000953674,"stimulus":"\n                    <p><b>Action: <em>harvest</em></b></p>\n                    <p>This is the bee that you just saw.</p>\n                    <img src=\"bees-with-color/bee-A2SF.svg\" width=\"200\">\n                    <p><span class=\"greenText\"><b>Successful harvest!</b></span><br>Your pay has increased by $0.02. Your bonus pay is now $0.54.</p>\n            ","response":0,"trial_type":"html-button-response","trial_index":48,"time_elapsed":724361,"internal_node_id":"0.0-4.0-1.20","subject_id":"60f1c8b5565f8e5450c7cd2e","study_id":"6197b3f67c2b5cd3b6d9596a","session_id":"6197b8872dc3a9e4dd83b1da","condition":"contingent","relevant_dimensions":["antennae","legs"],"bee_group":{"antennae":"B","wings":"X","pattern":"X","legs":"M"},"bonus":0.8000000000000009},{"rt":16186.400000095367,"stimulus":"bees-with-color/bee-A1SM.svg","response":0,"trial_type":"image-button-response","trial_index":49,"time_elapsed":740550,"internal_node_id":"0.0-4.0-0.21","subject_id":"60f1c8b5565f8e5450c7cd2e","study_id":"6197b3f67c2b5cd3b6d9596a","session_id":"6197b8872dc3a9e4dd83b1da","condition":"contingent","relevant_dimensions":["antennae","legs"],"bee_group":{"antennae":"B","wings":"X","pattern":"X","legs":"M"},"action":"harvest","summary":"good-harvest","bonus":0.8000000000000009},{"rt":1361.0999999046326,"stimulus":"\n                    <p><b>Action: <em>harvest</em></b></p>\n                    <p>This is the bee that you just saw.</p>\n                    <img src=\"bees-with-color/bee-A1SM.svg\" width=\"200\">\n                    <p><span class=\"greenText\"><b>Successful harvest!</b></span><br>Your pay has increased by $0.02. Your bonus pay is now $0.56.</p>\n            ","response":0,"trial_type":"html-button-response","trial_index":50,"time_elapsed":741914,"internal_node_id":"0.0-4.0-1.21","subject_id":"60f1c8b5565f8e5450c7cd2e","study_id":"6197b3f67c2b5cd3b6d9596a","session_id":"6197b8872dc3a9e4dd83b1da","condition":"contingent","relevant_dimensions":["antennae","legs"],"bee_group":{"antennae":"B","wings":"X","pattern":"X","legs":"M"},"bonus":0.8000000000000009},{"rt":13742.099999904633,"stimulus":"bees-with-color/bee-A1DF.svg","response":1,"trial_type":"image-button-response","trial_index":51,"time_elapsed":755658,"internal_node_id":"0.0-4.0-0.22","subject_id":"60f1c8b5565f8e5450c7cd2e","study_id":"6197b3f67c2b5cd3b6d9596a","session_id":"6197b8872dc3a9e4dd83b1da","condition":"contingent","relevant_dimensions":["antennae","legs"],"bee_group":{"antennae":"B","wings":"X","pattern":"X","legs":"M"},"action":"avoid","summary":"bad-avoid","bonus":0.8000000000000009},{"rt":3504.6000003814697,"stimulus":"\n                    <p><b>Action: <em>avoid</em></b></p>\n                    <p>This is the bee that you just saw.</p>\n                    <img src=\"bees-with-color/bee-A1DF.svg\" width=\"200\">\n                    <p><br>Your bonus pay is unchanged, and remains at $0.56.</p>\n            ","response":0,"trial_type":"html-button-response","trial_index":52,"time_elapsed":759164,"internal_node_id":"0.0-4.0-1.22","subject_id":"60f1c8b5565f8e5450c7cd2e","study_id":"6197b3f67c2b5cd3b6d9596a","session_id":"6197b8872dc3a9e4dd83b1da","condition":"contingent","relevant_dimensions":["antennae","legs"],"bee_group":{"antennae":"B","wings":"X","pattern":"X","legs":"M"},"bonus":0.8000000000000009},{"rt":12309.700000286102,"stimulus":"bees-with-color/bee-B2SF.svg","response":0,"trial_type":"image-button-response","trial_index":53,"time_elapsed":771477,"internal_node_id":"0.0-4.0-0.23","subject_id":"60f1c8b5565f8e5450c7cd2e","study_id":"6197b3f67c2b5cd3b6d9596a","session_id":"6197b8872dc3a9e4dd83b1da","condition":"contingent","relevant_dimensions":["antennae","legs"],"bee_group":{"antennae":"B","wings":"X","pattern":"X","legs":"M"},"action":"harvest","summary":"good-harvest","bonus":0.8000000000000009},{"rt":5419.099999904633,"stimulus":"\n                    <p><b>Action: <em>harvest</em></b></p>\n                    <p>This is the bee that you just saw.</p>\n                    <img src=\"bees-with-color/bee-B2SF.svg\" width=\"200\">\n                    <p><span class=\"greenText\"><b>Successful harvest!</b></span><br>Your pay has increased by $0.02. Your bonus pay is now $0.58.</p>\n            ","response":0,"trial_type":"html-button-response","trial_index":54,"time_elapsed":776898,"internal_node_id":"0.0-4.0-1.23","subject_id":"60f1c8b5565f8e5450c7cd2e","study_id":"6197b3f67c2b5cd3b6d9596a","session_id":"6197b8872dc3a9e4dd83b1da","condition":"contingent","relevant_dimensions":["antennae","legs"],"bee_group":{"antennae":"B","wings":"X","pattern":"X","legs":"M"},"bonus":0.8000000000000009},{"rt":4921,"stimulus":"bees-with-color/bee-B1DM.svg","response":0,"trial_type":"image-button-response","trial_index":55,"time_elapsed":781821,"internal_node_id":"0.0-4.0-0.24","subject_id":"60f1c8b5565f8e5450c7cd2e","study_id":"6197b3f67c2b5cd3b6d9596a","session_id":"6197b8872dc3a9e4dd83b1da","condition":"contingent","relevant_dimensions":["antennae","legs"],"bee_group":{"antennae":"B","wings":"X","pattern":"X","legs":"M"},"action":"harvest","summary":"bad-harvest","bonus":0.8000000000000009},{"rt":5706.800000190735,"stimulus":"\n                    <p><b>Action: <em>harvest</em></b></p>\n                    <p>This is the bee that you just saw.</p>\n                    <img src=\"bees-with-color/bee-B1DM.svg\" width=\"200\">\n                    <p><span class=\"redText\">Bad choice, the bee was angry.</span><br><b>You have been stung!</b><br>Your pay has been decreased by $0.10. Your bonus pay is now $0.48.</p>\n            ","response":0,"trial_type":"html-button-response","trial_index":56,"time_elapsed":787530,"internal_node_id":"0.0-4.0-1.24","subject_id":"60f1c8b5565f8e5450c7cd2e","study_id":"6197b3f67c2b5cd3b6d9596a","session_id":"6197b8872dc3a9e4dd83b1da","condition":"contingent","relevant_dimensions":["antennae","legs"],"bee_group":{"antennae":"B","wings":"X","pattern":"X","legs":"M"},"bonus":0.8000000000000009},{"rt":2198.9000000953674,"stimulus":"bees-with-color/bee-A2SM.svg","response":0,"trial_type":"image-button-response","trial_index":57,"time_elapsed":789732,"internal_node_id":"0.0-4.0-0.25","subject_id":"60f1c8b5565f8e5450c7cd2e","study_id":"6197b3f67c2b5cd3b6d9596a","session_id":"6197b8872dc3a9e4dd83b1da","condition":"contingent","relevant_dimensions":["antennae","legs"],"bee_group":{"antennae":"B","wings":"X","pattern":"X","legs":"M"},"action":"harvest","summary":"good-harvest","bonus":0.8000000000000009},{"rt":9244.5,"stimulus":"\n                    <p><b>Action: <em>harvest</em></b></p>\n                    <p>This is the bee that you just saw.</p>\n                    <img src=\"bees-with-color/bee-A2SM.svg\" width=\"200\">\n                    <p><span class=\"greenText\"><b>Successful harvest!</b></span><br>Your pay has increased by $0.02. Your bonus pay is now $0.50.</p>\n            ","response":0,"trial_type":"html-button-response","trial_index":58,"time_elapsed":798978,"internal_node_id":"0.0-4.0-1.25","subject_id":"60f1c8b5565f8e5450c7cd2e","study_id":"6197b3f67c2b5cd3b6d9596a","session_id":"6197b8872dc3a9e4dd83b1da","condition":"contingent","relevant_dimensions":["antennae","legs"],"bee_group":{"antennae":"B","wings":"X","pattern":"X","legs":"M"},"bonus":0.8000000000000009},{"rt":1825.7000002861023,"stimulus":"bees-with-color/bee-B2DM.svg","response":1,"trial_type":"image-button-response","trial_index":59,"time_elapsed":800807,"internal_node_id":"0.0-4.0-0.26","subject_id":"60f1c8b5565f8e5450c7cd2e","study_id":"6197b3f67c2b5cd3b6d9596a","session_id":"6197b8872dc3a9e4dd83b1da","condition":"contingent","relevant_dimensions":["antennae","legs"],"bee_group":{"antennae":"B","wings":"X","pattern":"X","legs":"M"},"action":"avoid","summary":"good-avoid","bonus":0.8000000000000009},{"rt":1310.6999998092651,"stimulus":"\n                    <p><b>Action: <em>avoid</em></b></p>\n                    <p>This is the bee that you just saw.</p>\n                    <img src=\"bees-with-color/bee-B2DM.svg\" width=\"200\">\n                    <p><br>Your bonus pay is unchanged, and remains at $0.50.</p>\n            ","response":0,"trial_type":"html-button-response","trial_index":60,"time_elapsed":802121,"internal_node_id":"0.0-4.0-1.26","subject_id":"60f1c8b5565f8e5450c7cd2e","study_id":"6197b3f67c2b5cd3b6d9596a","session_id":"6197b8872dc3a9e4dd83b1da","condition":"contingent","relevant_dimensions":["antennae","legs"],"bee_group":{"antennae":"B","wings":"X","pattern":"X","legs":"M"},"bonus":0.8000000000000009},{"rt":4148.099999904633,"stimulus":"bees-with-color/bee-A1SF.svg","response":0,"trial_type":"image-button-response","trial_index":61,"time_elapsed":806271,"internal_node_id":"0.0-4.0-0.27","subject_id":"60f1c8b5565f8e5450c7cd2e","study_id":"6197b3f67c2b5cd3b6d9596a","session_id":"6197b8872dc3a9e4dd83b1da","condition":"contingent","relevant_dimensions":["antennae","legs"],"bee_group":{"antennae":"B","wings":"X","pattern":"X","legs":"M"},"action":"harvest","summary":"good-harvest","bonus":0.8000000000000009},{"rt":1047.5,"stimulus":"\n                    <p><b>Action: <em>harvest</em></b></p>\n                    <p>This is the bee that you just saw.</p>\n                    <img src=\"bees-with-color/bee-A1SF.svg\" width=\"200\">\n                    <p><span class=\"greenText\"><b>Successful harvest!</b></span><br>Your pay has increased by $0.02. Your bonus pay is now $0.52.</p>\n            ","response":0,"trial_type":"html-button-response","trial_index":62,"time_elapsed":807321,"internal_node_id":"0.0-4.0-1.27","subject_id":"60f1c8b5565f8e5450c7cd2e","study_id":"6197b3f67c2b5cd3b6d9596a","session_id":"6197b8872dc3a9e4dd83b1da","condition":"contingent","relevant_dimensions":["antennae","legs"],"bee_group":{"antennae":"B","wings":"X","pattern":"X","legs":"M"},"bonus":0.8000000000000009},{"rt":10547.800000190735,"stimulus":"bees-with-color/bee-A1DM.svg","response":1,"trial_type":"image-button-response","trial_index":63,"time_elapsed":817871,"internal_node_id":"0.0-4.0-0.28","subject_id":"60f1c8b5565f8e5450c7cd2e","study_id":"6197b3f67c2b5cd3b6d9596a","session_id":"6197b8872dc3a9e4dd83b1da","condition":"contingent","relevant_dimensions":["antennae","legs"],"bee_group":{"antennae":"B","wings":"X","pattern":"X","legs":"M"},"action":"avoid","summary":"bad-avoid","bonus":0.8000000000000009},{"rt":1613.3000001907349,"stimulus":"\n                    <p><b>Action: <em>avoid</em></b></p>\n                    <p>This is the bee that you just saw.</p>\n                    <img src=\"bees-with-color/bee-A1DM.svg\" width=\"200\">\n                    <p><br>Your bonus pay is unchanged, and remains at $0.52.</p>\n            ","response":0,"trial_type":"html-button-response","trial_index":64,"time_elapsed":819486,"internal_node_id":"0.0-4.0-1.28","subject_id":"60f1c8b5565f8e5450c7cd2e","study_id":"6197b3f67c2b5cd3b6d9596a","session_id":"6197b8872dc3a9e4dd83b1da","condition":"contingent","relevant_dimensions":["antennae","legs"],"bee_group":{"antennae":"B","wings":"X","pattern":"X","legs":"M"},"bonus":0.8000000000000009},{"rt":2098.300000190735,"stimulus":"bees-with-color/bee-B1DF.svg","response":0,"trial_type":"image-button-response","trial_index":65,"time_elapsed":821587,"internal_node_id":"0.0-4.0-0.29","subject_id":"60f1c8b5565f8e5450c7cd2e","study_id":"6197b3f67c2b5cd3b6d9596a","session_id":"6197b8872dc3a9e4dd83b1da","condition":"contingent","relevant_dimensions":["antennae","legs"],"bee_group":{"antennae":"B","wings":"X","pattern":"X","legs":"M"},"action":"harvest","summary":"good-harvest","bonus":0.8000000000000009},{"rt":1582.1999998092651,"stimulus":"\n                    <p><b>Action: <em>harvest</em></b></p>\n                    <p>This is the bee that you just saw.</p>\n                    <img src=\"bees-with-color/bee-B1DF.svg\" width=\"200\">\n                    <p><span class=\"greenText\"><b>Successful harvest!</b></span><br>Your pay has increased by $0.02. Your bonus pay is now $0.54.</p>\n            ","response":0,"trial_type":"html-button-response","trial_index":66,"time_elapsed":823171,"internal_node_id":"0.0-4.0-1.29","subject_id":"60f1c8b5565f8e5450c7cd2e","study_id":"6197b3f67c2b5cd3b6d9596a","session_id":"6197b8872dc3a9e4dd83b1da","condition":"contingent","relevant_dimensions":["antennae","legs"],"bee_group":{"antennae":"B","wings":"X","pattern":"X","legs":"M"},"bonus":0.8000000000000009},{"rt":24854.199999809265,"stimulus":"bees-with-color/bee-A2DM.svg","response":1,"trial_type":"image-button-response","trial_index":67,"time_elapsed":848028,"internal_node_id":"0.0-4.0-0.30","subject_id":"60f1c8b5565f8e5450c7cd2e","study_id":"6197b3f67c2b5cd3b6d9596a","session_id":"6197b8872dc3a9e4dd83b1da","condition":"contingent","relevant_dimensions":["antennae","legs"],"bee_group":{"antennae":"B","wings":"X","pattern":"X","legs":"M"},"action":"avoid","summary":"bad-avoid","bonus":0.8000000000000009},{"rt":3299,"stimulus":"\n                    <p><b>Action: <em>avoid</em></b></p>\n                    <p>This is the bee that you just saw.</p>\n                    <img src=\"bees-with-color/bee-A2DM.svg\" width=\"200\">\n                    <p><br>Your bonus pay is unchanged, and remains at $0.54.</p>\n            ","response":0,"trial_type":"html-button-response","trial_index":68,"time_elapsed":851329,"internal_node_id":"0.0-4.0-1.30","subject_id":"60f1c8b5565f8e5450c7cd2e","study_id":"6197b3f67c2b5cd3b6d9596a","session_id":"6197b8872dc3a9e4dd83b1da","condition":"contingent","relevant_dimensions":["antennae","legs"],"bee_group":{"antennae":"B","wings":"X","pattern":"X","legs":"M"},"bonus":0.8000000000000009},{"rt":5722.89999961853,"stimulus":"bees-with-color/bee-A2DF.svg","response":0,"trial_type":"image-button-response","trial_index":69,"time_elapsed":857055,"internal_node_id":"0.0-4.0-0.31","subject_id":"60f1c8b5565f8e5450c7cd2e","study_id":"6197b3f67c2b5cd3b6d9596a","session_id":"6197b8872dc3a9e4dd83b1da","condition":"contingent","relevant_dimensions":["antennae","legs"],"bee_group":{"antennae":"B","wings":"X","pattern":"X","legs":"M"},"action":"harvest","summary":"good-harvest","bonus":0.8000000000000009},{"rt":1473.1999998092651,"stimulus":"\n                    <p><b>Action: <em>harvest</em></b></p>\n                    <p>This is the bee that you just saw.</p>\n                    <img src=\"bees-with-color/bee-A2DF.svg\" width=\"200\">\n                    <p><span class=\"greenText\"><b>Successful harvest!</b></span><br>Your pay has increased by $0.02. Your bonus pay is now $0.56.</p>\n            ","response":0,"trial_type":"html-button-response","trial_index":70,"time_elapsed":858530,"internal_node_id":"0.0-4.0-1.31","subject_id":"60f1c8b5565f8e5450c7cd2e","study_id":"6197b3f67c2b5cd3b6d9596a","session_id":"6197b8872dc3a9e4dd83b1da","condition":"contingent","relevant_dimensions":["antennae","legs"],"bee_group":{"antennae":"B","wings":"X","pattern":"X","legs":"M"},"bonus":0.8000000000000009},{"rt":3024.4000000953674,"stimulus":"bees-with-color/bee-A2DF.svg","response":1,"trial_type":"image-button-response","trial_index":71,"time_elapsed":861557,"internal_node_id":"0.0-4.0-0.32","subject_id":"60f1c8b5565f8e5450c7cd2e","study_id":"6197b3f67c2b5cd3b6d9596a","session_id":"6197b8872dc3a9e4dd83b1da","condition":"contingent","relevant_dimensions":["antennae","legs"],"bee_group":{"antennae":"B","wings":"X","pattern":"X","legs":"M"},"action":"avoid","summary":"bad-avoid","bonus":0.8000000000000009},{"rt":1224.2999997138977,"stimulus":"\n                    <p><b>Action: <em>avoid</em></b></p>\n                    <p>This is the bee that you just saw.</p>\n                    <img src=\"bees-with-color/bee-A2DF.svg\" width=\"200\">\n                    <p><br>Your bonus pay is unchanged, and remains at $0.56.</p>\n            ","response":0,"trial_type":"html-button-response","trial_index":72,"time_elapsed":862783,"internal_node_id":"0.0-4.0-1.32","subject_id":"60f1c8b5565f8e5450c7cd2e","study_id":"6197b3f67c2b5cd3b6d9596a","session_id":"6197b8872dc3a9e4dd83b1da","condition":"contingent","relevant_dimensions":["antennae","legs"],"bee_group":{"antennae":"B","wings":"X","pattern":"X","legs":"M"},"bonus":0.8000000000000009},{"rt":15392.800000190735,"stimulus":"bees-with-color/bee-A2DM.svg","response":1,"trial_type":"image-button-response","trial_index":73,"time_elapsed":878177,"internal_node_id":"0.0-4.0-0.33","subject_id":"60f1c8b5565f8e5450c7cd2e","study_id":"6197b3f67c2b5cd3b6d9596a","session_id":"6197b8872dc3a9e4dd83b1da","condition":"contingent","relevant_dimensions":["antennae","legs"],"bee_group":{"antennae":"B","wings":"X","pattern":"X","legs":"M"},"action":"avoid","summary":"bad-avoid","bonus":0.8000000000000009},{"rt":2169.199999809265,"stimulus":"\n                    <p><b>Action: <em>avoid</em></b></p>\n                    <p>This is the bee that you just saw.</p>\n                    <img src=\"bees-with-color/bee-A2DM.svg\" width=\"200\">\n                    <p><br>Your bonus pay is unchanged, and remains at $0.56.</p>\n            ","response":0,"trial_type":"html-button-response","trial_index":74,"time_elapsed":880348,"internal_node_id":"0.0-4.0-1.33","subject_id":"60f1c8b5565f8e5450c7cd2e","study_id":"6197b3f67c2b5cd3b6d9596a","session_id":"6197b8872dc3a9e4dd83b1da","condition":"contingent","relevant_dimensions":["antennae","legs"],"bee_group":{"antennae":"B","wings":"X","pattern":"X","legs":"M"},"bonus":0.8000000000000009},{"rt":1977.8999996185303,"stimulus":"bees-with-color/bee-A1SM.svg","response":0,"trial_type":"image-button-response","trial_index":75,"time_elapsed":882328,"internal_node_id":"0.0-4.0-0.34","subject_id":"60f1c8b5565f8e5450c7cd2e","study_id":"6197b3f67c2b5cd3b6d9596a","session_id":"6197b8872dc3a9e4dd83b1da","condition":"contingent","relevant_dimensions":["antennae","legs"],"bee_group":{"antennae":"B","wings":"X","pattern":"X","legs":"M"},"action":"harvest","summary":"good-harvest","bonus":0.8000000000000009},{"rt":967.3999996185303,"stimulus":"\n                    <p><b>Action: <em>harvest</em></b></p>\n                    <p>This is the bee that you just saw.</p>\n                    <img src=\"bees-with-color/bee-A1SM.svg\" width=\"200\">\n                    <p><span class=\"greenText\"><b>Successful harvest!</b></span><br>Your pay has increased by $0.02. Your bonus pay is now $0.58.</p>\n            ","response":0,"trial_type":"html-button-response","trial_index":76,"time_elapsed":883298,"internal_node_id":"0.0-4.0-1.34","subject_id":"60f1c8b5565f8e5450c7cd2e","study_id":"6197b3f67c2b5cd3b6d9596a","session_id":"6197b8872dc3a9e4dd83b1da","condition":"contingent","relevant_dimensions":["antennae","legs"],"bee_group":{"antennae":"B","wings":"X","pattern":"X","legs":"M"},"bonus":0.8000000000000009},{"rt":2139.300000190735,"stimulus":"bees-with-color/bee-B1DF.svg","response":0,"trial_type":"image-button-response","trial_index":77,"time_elapsed":885439,"internal_node_id":"0.0-4.0-0.35","subject_id":"60f1c8b5565f8e5450c7cd2e","study_id":"6197b3f67c2b5cd3b6d9596a","session_id":"6197b8872dc3a9e4dd83b1da","condition":"contingent","relevant_dimensions":["antennae","legs"],"bee_group":{"antennae":"B","wings":"X","pattern":"X","legs":"M"},"action":"harvest","summary":"good-harvest","bonus":0.8000000000000009},{"rt":946.7000002861023,"stimulus":"\n                    <p><b>Action: <em>harvest</em></b></p>\n                    <p>This is the bee that you just saw.</p>\n                    <img src=\"bees-with-color/bee-B1DF.svg\" width=\"200\">\n                    <p><span class=\"greenText\"><b>Successful harvest!</b></span><br>Your pay has increased by $0.02. Your bonus pay is now $0.60.</p>\n            ","response":0,"trial_type":"html-button-response","trial_index":78,"time_elapsed":886388,"internal_node_id":"0.0-4.0-1.35","subject_id":"60f1c8b5565f8e5450c7cd2e","study_id":"6197b3f67c2b5cd3b6d9596a","session_id":"6197b8872dc3a9e4dd83b1da","condition":"contingent","relevant_dimensions":["antennae","legs"],"bee_group":{"antennae":"B","wings":"X","pattern":"X","legs":"M"},"bonus":0.8000000000000009},{"rt":1451.2000002861023,"stimulus":"bees-with-color/bee-A1DM.svg","response":1,"trial_type":"image-button-response","trial_index":79,"time_elapsed":887843,"internal_node_id":"0.0-4.0-0.36","subject_id":"60f1c8b5565f8e5450c7cd2e","study_id":"6197b3f67c2b5cd3b6d9596a","session_id":"6197b8872dc3a9e4dd83b1da","condition":"contingent","relevant_dimensions":["antennae","legs"],"bee_group":{"antennae":"B","wings":"X","pattern":"X","legs":"M"},"action":"avoid","summary":"bad-avoid","bonus":0.8000000000000009},{"rt":916,"stimulus":"\n                    <p><b>Action: <em>avoid</em></b></p>\n                    <p>This is the bee that you just saw.</p>\n                    <img src=\"bees-with-color/bee-A1DM.svg\" width=\"200\">\n                    <p><br>Your bonus pay is unchanged, and remains at $0.60.</p>\n            ","response":0,"trial_type":"html-button-response","trial_index":80,"time_elapsed":888761,"internal_node_id":"0.0-4.0-1.36","subject_id":"60f1c8b5565f8e5450c7cd2e","study_id":"6197b3f67c2b5cd3b6d9596a","session_id":"6197b8872dc3a9e4dd83b1da","condition":"contingent","relevant_dimensions":["antennae","legs"],"bee_group":{"antennae":"B","wings":"X","pattern":"X","legs":"M"},"bonus":0.8000000000000009},{"rt":1705.6999998092651,"stimulus":"bees-with-color/bee-B1SM.svg","response":0,"trial_type":"image-button-response","trial_index":81,"time_elapsed":890469,"internal_node_id":"0.0-4.0-0.37","subject_id":"60f1c8b5565f8e5450c7cd2e","study_id":"6197b3f67c2b5cd3b6d9596a","session_id":"6197b8872dc3a9e4dd83b1da","condition":"contingent","relevant_dimensions":["antennae","legs"],"bee_group":{"antennae":"B","wings":"X","pattern":"X","legs":"M"},"action":"harvest","summary":"bad-harvest","bonus":0.8000000000000009},{"rt":1048.7000002861023,"stimulus":"\n                    <p><b>Action: <em>harvest</em></b></p>\n                    <p>This is the bee that you just saw.</p>\n                    <img src=\"bees-with-color/bee-B1SM.svg\" width=\"200\">\n                    <p><span class=\"redText\">Bad choice, the bee was angry.</span><br><b>You have been stung!</b><br>Your pay has been decreased by $0.10. Your bonus pay is now $0.50.</p>\n            ","response":0,"trial_type":"html-button-response","trial_index":82,"time_elapsed":891520,"internal_node_id":"0.0-4.0-1.37","subject_id":"60f1c8b5565f8e5450c7cd2e","study_id":"6197b3f67c2b5cd3b6d9596a","session_id":"6197b8872dc3a9e4dd83b1da","condition":"contingent","relevant_dimensions":["antennae","legs"],"bee_group":{"antennae":"B","wings":"X","pattern":"X","legs":"M"},"bonus":0.8000000000000009},{"rt":1613.5,"stimulus":"bees-with-color/bee-B2SF.svg","response":0,"trial_type":"image-button-response","trial_index":83,"time_elapsed":893135,"internal_node_id":"0.0-4.0-0.38","subject_id":"60f1c8b5565f8e5450c7cd2e","study_id":"6197b3f67c2b5cd3b6d9596a","session_id":"6197b8872dc3a9e4dd83b1da","condition":"contingent","relevant_dimensions":["antennae","legs"],"bee_group":{"antennae":"B","wings":"X","pattern":"X","legs":"M"},"action":"harvest","summary":"good-harvest","bonus":0.8000000000000009},{"rt":917.1999998092651,"stimulus":"\n                    <p><b>Action: <em>harvest</em></b></p>\n                    <p>This is the bee that you just saw.</p>\n                    <img src=\"bees-with-color/bee-B2SF.svg\" width=\"200\">\n                    <p><span class=\"greenText\"><b>Successful harvest!</b></span><br>Your pay has increased by $0.02. Your bonus pay is now $0.52.</p>\n            ","response":0,"trial_type":"html-button-response","trial_index":84,"time_elapsed":894054,"internal_node_id":"0.0-4.0-1.38","subject_id":"60f1c8b5565f8e5450c7cd2e","study_id":"6197b3f67c2b5cd3b6d9596a","session_id":"6197b8872dc3a9e4dd83b1da","condition":"contingent","relevant_dimensions":["antennae","legs"],"bee_group":{"antennae":"B","wings":"X","pattern":"X","legs":"M"},"bonus":0.8000000000000009},{"rt":15157.900000095367,"stimulus":"bees-with-color/bee-B2DM.svg","response":1,"trial_type":"image-button-response","trial_index":85,"time_elapsed":909214,"internal_node_id":"0.0-4.0-0.39","subject_id":"60f1c8b5565f8e5450c7cd2e","study_id":"6197b3f67c2b5cd3b6d9596a","session_id":"6197b8872dc3a9e4dd83b1da","condition":"contingent","relevant_dimensions":["antennae","legs"],"bee_group":{"antennae":"B","wings":"X","pattern":"X","legs":"M"},"action":"avoid","summary":"good-avoid","bonus":0.8000000000000009},{"rt":2930.9000000953674,"stimulus":"\n                    <p><b>Action: <em>avoid</em></b></p>\n                    <p>This is the bee that you just saw.</p>\n                    <img src=\"bees-with-color/bee-B2DM.svg\" width=\"200\">\n                    <p><br>Your bonus pay is unchanged, and remains at $0.52.</p>\n            ","response":0,"trial_type":"html-button-response","trial_index":86,"time_elapsed":912148,"internal_node_id":"0.0-4.0-1.39","subject_id":"60f1c8b5565f8e5450c7cd2e","study_id":"6197b3f67c2b5cd3b6d9596a","session_id":"6197b8872dc3a9e4dd83b1da","condition":"contingent","relevant_dimensions":["antennae","legs"],"bee_group":{"antennae":"B","wings":"X","pattern":"X","legs":"M"},"bonus":0.8000000000000009},{"rt":1261.7000002861023,"stimulus":"bees-with-color/bee-B1SF.svg","response":0,"trial_type":"image-button-response","trial_index":87,"time_elapsed":913412,"internal_node_id":"0.0-4.0-0.40","subject_id":"60f1c8b5565f8e5450c7cd2e","study_id":"6197b3f67c2b5cd3b6d9596a","session_id":"6197b8872dc3a9e4dd83b1da","condition":"contingent","relevant_dimensions":["antennae","legs"],"bee_group":{"antennae":"B","wings":"X","pattern":"X","legs":"M"},"action":"harvest","summary":"good-harvest","bonus":0.8000000000000009},{"rt":1501.3000001907349,"stimulus":"\n                    <p><b>Action: <em>harvest</em></b></p>\n                    <p>This is the bee that you just saw.</p>\n                    <img src=\"bees-with-color/bee-B1SF.svg\" width=\"200\">\n                    <p><span class=\"greenText\"><b>Successful harvest!</b></span><br>Your pay has increased by $0.02. Your bonus pay is now $0.54.</p>\n            ","response":0,"trial_type":"html-button-response","trial_index":88,"time_elapsed":914915,"internal_node_id":"0.0-4.0-1.40","subject_id":"60f1c8b5565f8e5450c7cd2e","study_id":"6197b3f67c2b5cd3b6d9596a","session_id":"6197b8872dc3a9e4dd83b1da","condition":"contingent","relevant_dimensions":["antennae","legs"],"bee_group":{"antennae":"B","wings":"X","pattern":"X","legs":"M"},"bonus":0.8000000000000009},{"rt":12531.799999713898,"stimulus":"bees-with-color/bee-B2SM.svg","response":1,"trial_type":"image-button-response","trial_index":89,"time_elapsed":927450,"internal_node_id":"0.0-4.0-0.41","subject_id":"60f1c8b5565f8e5450c7cd2e","study_id":"6197b3f67c2b5cd3b6d9596a","session_id":"6197b8872dc3a9e4dd83b1da","condition":"contingent","relevant_dimensions":["antennae","legs"],"bee_group":{"antennae":"B","wings":"X","pattern":"X","legs":"M"},"action":"avoid","summary":"good-avoid","bonus":0.8000000000000009},{"rt":2045.6000003814697,"stimulus":"\n                    <p><b>Action: <em>avoid</em></b></p>\n                    <p>This is the bee that you just saw.</p>\n                    <img src=\"bees-with-color/bee-B2SM.svg\" width=\"200\">\n                    <p><br>Your bonus pay is unchanged, and remains at $0.54.</p>\n            ","response":0,"trial_type":"html-button-response","trial_index":90,"time_elapsed":929499,"internal_node_id":"0.0-4.0-1.41","subject_id":"60f1c8b5565f8e5450c7cd2e","study_id":"6197b3f67c2b5cd3b6d9596a","session_id":"6197b8872dc3a9e4dd83b1da","condition":"contingent","relevant_dimensions":["antennae","legs"],"bee_group":{"antennae":"B","wings":"X","pattern":"X","legs":"M"},"bonus":0.8000000000000009},{"rt":5631.89999961853,"stimulus":"bees-with-color/bee-A2SM.svg","response":0,"trial_type":"image-button-response","trial_index":91,"time_elapsed":935135,"internal_node_id":"0.0-4.0-0.42","subject_id":"60f1c8b5565f8e5450c7cd2e","study_id":"6197b3f67c2b5cd3b6d9596a","session_id":"6197b8872dc3a9e4dd83b1da","condition":"contingent","relevant_dimensions":["antennae","legs"],"bee_group":{"antennae":"B","wings":"X","pattern":"X","legs":"M"},"action":"harvest","summary":"good-harvest","bonus":0.8000000000000009},{"rt":1524,"stimulus":"\n                    <p><b>Action: <em>harvest</em></b></p>\n                    <p>This is the bee that you just saw.</p>\n                    <img src=\"bees-with-color/bee-A2SM.svg\" width=\"200\">\n                    <p><span class=\"greenText\"><b>Successful harvest!</b></span><br>Your pay has increased by $0.02. Your bonus pay is now $0.56.</p>\n            ","response":0,"trial_type":"html-button-response","trial_index":92,"time_elapsed":936661,"internal_node_id":"0.0-4.0-1.42","subject_id":"60f1c8b5565f8e5450c7cd2e","study_id":"6197b3f67c2b5cd3b6d9596a","session_id":"6197b8872dc3a9e4dd83b1da","condition":"contingent","relevant_dimensions":["antennae","legs"],"bee_group":{"antennae":"B","wings":"X","pattern":"X","legs":"M"},"bonus":0.8000000000000009},{"rt":20130.599999904633,"stimulus":"bees-with-color/bee-A1DF.svg","response":1,"trial_type":"image-button-response","trial_index":93,"time_elapsed":956793,"internal_node_id":"0.0-4.0-0.43","subject_id":"60f1c8b5565f8e5450c7cd2e","study_id":"6197b3f67c2b5cd3b6d9596a","session_id":"6197b8872dc3a9e4dd83b1da","condition":"contingent","relevant_dimensions":["antennae","legs"],"bee_group":{"antennae":"B","wings":"X","pattern":"X","legs":"M"},"action":"avoid","summary":"bad-avoid","bonus":0.8000000000000009},{"rt":2109.9000000953674,"stimulus":"\n                    <p><b>Action: <em>avoid</em></b></p>\n                    <p>This is the bee that you just saw.</p>\n                    <img src=\"bees-with-color/bee-A1DF.svg\" width=\"200\">\n                    <p><br>Your bonus pay is unchanged, and remains at $0.56.</p>\n            ","response":0,"trial_type":"html-button-response","trial_index":94,"time_elapsed":958905,"internal_node_id":"0.0-4.0-1.43","subject_id":"60f1c8b5565f8e5450c7cd2e","study_id":"6197b3f67c2b5cd3b6d9596a","session_id":"6197b8872dc3a9e4dd83b1da","condition":"contingent","relevant_dimensions":["antennae","legs"],"bee_group":{"antennae":"B","wings":"X","pattern":"X","legs":"M"},"bonus":0.8000000000000009},{"rt":9061.199999809265,"stimulus":"bees-with-color/bee-B1DM.svg","response":1,"trial_type":"image-button-response","trial_index":95,"time_elapsed":967968,"internal_node_id":"0.0-4.0-0.44","subject_id":"60f1c8b5565f8e5450c7cd2e","study_id":"6197b3f67c2b5cd3b6d9596a","session_id":"6197b8872dc3a9e4dd83b1da","condition":"contingent","relevant_dimensions":["antennae","legs"],"bee_group":{"antennae":"B","wings":"X","pattern":"X","legs":"M"},"action":"avoid","summary":"good-avoid","bonus":0.8000000000000009},{"rt":1523.1999998092651,"stimulus":"\n                    <p><b>Action: <em>avoid</em></b></p>\n                    <p>This is the bee that you just saw.</p>\n                    <img src=\"bees-with-color/bee-B1DM.svg\" width=\"200\">\n                    <p><br>Your bonus pay is unchanged, and remains at $0.56.</p>\n            ","response":0,"trial_type":"html-button-response","trial_index":96,"time_elapsed":969493,"internal_node_id":"0.0-4.0-1.44","subject_id":"60f1c8b5565f8e5450c7cd2e","study_id":"6197b3f67c2b5cd3b6d9596a","session_id":"6197b8872dc3a9e4dd83b1da","condition":"contingent","relevant_dimensions":["antennae","legs"],"bee_group":{"antennae":"B","wings":"X","pattern":"X","legs":"M"},"bonus":0.8000000000000009},{"rt":9200.39999961853,"stimulus":"bees-with-color/bee-B2DF.svg","response":0,"trial_type":"image-button-response","trial_index":97,"time_elapsed":978696,"internal_node_id":"0.0-4.0-0.45","subject_id":"60f1c8b5565f8e5450c7cd2e","study_id":"6197b3f67c2b5cd3b6d9596a","session_id":"6197b8872dc3a9e4dd83b1da","condition":"contingent","relevant_dimensions":["antennae","legs"],"bee_group":{"antennae":"B","wings":"X","pattern":"X","legs":"M"},"action":"harvest","summary":"good-harvest","bonus":0.8000000000000009},{"rt":1938.5,"stimulus":"\n                    <p><b>Action: <em>harvest</em></b></p>\n                    <p>This is the bee that you just saw.</p>\n                    <img src=\"bees-with-color/bee-B2DF.svg\" width=\"200\">\n                    <p><span class=\"greenText\"><b>Successful harvest!</b></span><br>Your pay has increased by $0.02. Your bonus pay is now $0.58.</p>\n            ","response":0,"trial_type":"html-button-response","trial_index":98,"time_elapsed":980636,"internal_node_id":"0.0-4.0-1.45","subject_id":"60f1c8b5565f8e5450c7cd2e","study_id":"6197b3f67c2b5cd3b6d9596a","session_id":"6197b8872dc3a9e4dd83b1da","condition":"contingent","relevant_dimensions":["antennae","legs"],"bee_group":{"antennae":"B","wings":"X","pattern":"X","legs":"M"},"bonus":0.8000000000000009},{"rt":6181.099999904633,"stimulus":"bees-with-color/bee-A2SF.svg","response":0,"trial_type":"image-button-response","trial_index":99,"time_elapsed":986820,"internal_node_id":"0.0-4.0-0.46","subject_id":"60f1c8b5565f8e5450c7cd2e","study_id":"6197b3f67c2b5cd3b6d9596a","session_id":"6197b8872dc3a9e4dd83b1da","condition":"contingent","relevant_dimensions":["antennae","legs"],"bee_group":{"antennae":"B","wings":"X","pattern":"X","legs":"M"},"action":"harvest","summary":"good-harvest","bonus":0.8000000000000009},{"rt":4901.900000095367,"stimulus":"\n                    <p><b>Action: <em>harvest</em></b></p>\n                    <p>This is the bee that you just saw.</p>\n                    <img src=\"bees-with-color/bee-A2SF.svg\" width=\"200\">\n                    <p><span class=\"greenText\"><b>Successful harvest!</b></span><br>Your pay has increased by $0.02. Your bonus pay is now $0.60.</p>\n            ","response":0,"trial_type":"html-button-response","trial_index":100,"time_elapsed":991724,"internal_node_id":"0.0-4.0-1.46","subject_id":"60f1c8b5565f8e5450c7cd2e","study_id":"6197b3f67c2b5cd3b6d9596a","session_id":"6197b8872dc3a9e4dd83b1da","condition":"contingent","relevant_dimensions":["antennae","legs"],"bee_group":{"antennae":"B","wings":"X","pattern":"X","legs":"M"},"bonus":0.8000000000000009},{"rt":10158.099999904633,"stimulus":"bees-with-color/bee-A1SF.svg","response":1,"trial_type":"image-button-response","trial_index":101,"time_elapsed":1001885,"internal_node_id":"0.0-4.0-0.47","subject_id":"60f1c8b5565f8e5450c7cd2e","study_id":"6197b3f67c2b5cd3b6d9596a","session_id":"6197b8872dc3a9e4dd83b1da","condition":"contingent","relevant_dimensions":["antennae","legs"],"bee_group":{"antennae":"B","wings":"X","pattern":"X","legs":"M"},"action":"avoid","summary":"bad-avoid","bonus":0.8000000000000009},{"rt":2845.699999809265,"stimulus":"\n                    <p><b>Action: <em>avoid</em></b></p>\n                    <p>This is the bee that you just saw.</p>\n                    <img src=\"bees-with-color/bee-A1SF.svg\" width=\"200\">\n                    <p><br>Your bonus pay is unchanged, and remains at $0.60.</p>\n            ","response":0,"trial_type":"html-button-response","trial_index":102,"time_elapsed":1004732,"internal_node_id":"0.0-4.0-1.47","subject_id":"60f1c8b5565f8e5450c7cd2e","study_id":"6197b3f67c2b5cd3b6d9596a","session_id":"6197b8872dc3a9e4dd83b1da","condition":"contingent","relevant_dimensions":["antennae","legs"],"bee_group":{"antennae":"B","wings":"X","pattern":"X","legs":"M"},"bonus":0.8000000000000009},{"rt":8501.900000095367,"stimulus":"bees-with-color/bee-A1DF.svg","response":1,"trial_type":"image-button-response","trial_index":103,"time_elapsed":1013236,"internal_node_id":"0.0-4.0-0.48","subject_id":"60f1c8b5565f8e5450c7cd2e","study_id":"6197b3f67c2b5cd3b6d9596a","session_id":"6197b8872dc3a9e4dd83b1da","condition":"contingent","relevant_dimensions":["antennae","legs"],"bee_group":{"antennae":"B","wings":"X","pattern":"X","legs":"M"},"action":"avoid","summary":"bad-avoid","bonus":0.8000000000000009},{"rt":1504.1999998092651,"stimulus":"\n                    <p><b>Action: <em>avoid</em></b></p>\n                    <p>This is the bee that you just saw.</p>\n                    <img src=\"bees-with-color/bee-A1DF.svg\" width=\"200\">\n                    <p><br>Your bonus pay is unchanged, and remains at $0.60.</p>\n            ","response":0,"trial_type":"html-button-response","trial_index":104,"time_elapsed":1014742,"internal_node_id":"0.0-4.0-1.48","subject_id":"60f1c8b5565f8e5450c7cd2e","study_id":"6197b3f67c2b5cd3b6d9596a","session_id":"6197b8872dc3a9e4dd83b1da","condition":"contingent","relevant_dimensions":["antennae","legs"],"bee_group":{"antennae":"B","wings":"X","pattern":"X","legs":"M"},"bonus":0.8000000000000009},{"rt":4453.199999809265,"stimulus":"bees-with-color/bee-B2SM.svg","response":1,"trial_type":"image-button-response","trial_index":105,"time_elapsed":1019198,"internal_node_id":"0.0-4.0-0.49","subject_id":"60f1c8b5565f8e5450c7cd2e","study_id":"6197b3f67c2b5cd3b6d9596a","session_id":"6197b8872dc3a9e4dd83b1da","condition":"contingent","relevant_dimensions":["antennae","legs"],"bee_group":{"antennae":"B","wings":"X","pattern":"X","legs":"M"},"action":"avoid","summary":"good-avoid","bonus":0.8000000000000009},{"rt":1523.7999997138977,"stimulus":"\n                    <p><b>Action: <em>avoid</em></b></p>\n                    <p>This is the bee that you just saw.</p>\n                    <img src=\"bees-with-color/bee-B2SM.svg\" width=\"200\">\n                    <p><br>Your bonus pay is unchanged, and remains at $0.60.</p>\n            ","response":0,"trial_type":"html-button-response","trial_index":106,"time_elapsed":1020723,"internal_node_id":"0.0-4.0-1.49","subject_id":"60f1c8b5565f8e5450c7cd2e","study_id":"6197b3f67c2b5cd3b6d9596a","session_id":"6197b8872dc3a9e4dd83b1da","condition":"contingent","relevant_dimensions":["antennae","legs"],"bee_group":{"antennae":"B","wings":"X","pattern":"X","legs":"M"},"bonus":0.8000000000000009},{"rt":7825.400000095367,"stimulus":"bees-with-color/bee-B1SF.svg","response":0,"trial_type":"image-button-response","trial_index":107,"time_elapsed":1028551,"internal_node_id":"0.0-4.0-0.50","subject_id":"60f1c8b5565f8e5450c7cd2e","study_id":"6197b3f67c2b5cd3b6d9596a","session_id":"6197b8872dc3a9e4dd83b1da","condition":"contingent","relevant_dimensions":["antennae","legs"],"bee_group":{"antennae":"B","wings":"X","pattern":"X","legs":"M"},"action":"harvest","summary":"good-harvest","bonus":0.8000000000000009},{"rt":1502.5,"stimulus":"\n                    <p><b>Action: <em>harvest</em></b></p>\n                    <p>This is the bee that you just saw.</p>\n                    <img src=\"bees-with-color/bee-B1SF.svg\" width=\"200\">\n                    <p><span class=\"greenText\"><b>Successful harvest!</b></span><br>Your pay has increased by $0.02. Your bonus pay is now $0.62.</p>\n            ","response":0,"trial_type":"html-button-response","trial_index":108,"time_elapsed":1030056,"internal_node_id":"0.0-4.0-1.50","subject_id":"60f1c8b5565f8e5450c7cd2e","study_id":"6197b3f67c2b5cd3b6d9596a","session_id":"6197b8872dc3a9e4dd83b1da","condition":"contingent","relevant_dimensions":["antennae","legs"],"bee_group":{"antennae":"B","wings":"X","pattern":"X","legs":"M"},"bonus":0.8000000000000009},{"rt":7123.599999904633,"stimulus":"bees-with-color/bee-B2SF.svg","response":1,"trial_type":"image-button-response","trial_index":109,"time_elapsed":1037182,"internal_node_id":"0.0-4.0-0.51","subject_id":"60f1c8b5565f8e5450c7cd2e","study_id":"6197b3f67c2b5cd3b6d9596a","session_id":"6197b8872dc3a9e4dd83b1da","condition":"contingent","relevant_dimensions":["antennae","legs"],"bee_group":{"antennae":"B","wings":"X","pattern":"X","legs":"M"},"action":"avoid","summary":"bad-avoid","bonus":0.8000000000000009},{"rt":1432.8000001907349,"stimulus":"\n                    <p><b>Action: <em>avoid</em></b></p>\n                    <p>This is the bee that you just saw.</p>\n                    <img src=\"bees-with-color/bee-B2SF.svg\" width=\"200\">\n                    <p><br>Your bonus pay is unchanged, and remains at $0.62.</p>\n            ","response":0,"trial_type":"html-button-response","trial_index":110,"time_elapsed":1038618,"internal_node_id":"0.0-4.0-1.51","subject_id":"60f1c8b5565f8e5450c7cd2e","study_id":"6197b3f67c2b5cd3b6d9596a","session_id":"6197b8872dc3a9e4dd83b1da","condition":"contingent","relevant_dimensions":["antennae","legs"],"bee_group":{"antennae":"B","wings":"X","pattern":"X","legs":"M"},"bonus":0.8000000000000009},{"rt":6426.300000190735,"stimulus":"bees-with-color/bee-B1DF.svg","response":0,"trial_type":"image-button-response","trial_index":111,"time_elapsed":1045048,"internal_node_id":"0.0-4.0-0.52","subject_id":"60f1c8b5565f8e5450c7cd2e","study_id":"6197b3f67c2b5cd3b6d9596a","session_id":"6197b8872dc3a9e4dd83b1da","condition":"contingent","relevant_dimensions":["antennae","legs"],"bee_group":{"antennae":"B","wings":"X","pattern":"X","legs":"M"},"action":"harvest","summary":"good-harvest","bonus":0.8000000000000009},{"rt":2593.3999996185303,"stimulus":"\n                    <p><b>Action: <em>harvest</em></b></p>\n                    <p>This is the bee that you just saw.</p>\n                    <img src=\"bees-with-color/bee-B1DF.svg\" width=\"200\">\n                    <p><span class=\"greenText\"><b>Successful harvest!</b></span><br>Your pay has increased by $0.02. Your bonus pay is now $0.64.</p>\n            ","response":0,"trial_type":"html-button-response","trial_index":112,"time_elapsed":1047643,"internal_node_id":"0.0-4.0-1.52","subject_id":"60f1c8b5565f8e5450c7cd2e","study_id":"6197b3f67c2b5cd3b6d9596a","session_id":"6197b8872dc3a9e4dd83b1da","condition":"contingent","relevant_dimensions":["antennae","legs"],"bee_group":{"antennae":"B","wings":"X","pattern":"X","legs":"M"},"bonus":0.8000000000000009},{"rt":20211,"stimulus":"bees-with-color/bee-B2DM.svg","response":1,"trial_type":"image-button-response","trial_index":113,"time_elapsed":1067856,"internal_node_id":"0.0-4.0-0.53","subject_id":"60f1c8b5565f8e5450c7cd2e","study_id":"6197b3f67c2b5cd3b6d9596a","session_id":"6197b8872dc3a9e4dd83b1da","condition":"contingent","relevant_dimensions":["antennae","legs"],"bee_group":{"antennae":"B","wings":"X","pattern":"X","legs":"M"},"action":"avoid","summary":"good-avoid","bonus":0.8000000000000009},{"rt":1593.0999999046326,"stimulus":"\n                    <p><b>Action: <em>avoid</em></b></p>\n                    <p>This is the bee that you just saw.</p>\n                    <img src=\"bees-with-color/bee-B2DM.svg\" width=\"200\">\n                    <p><br>Your bonus pay is unchanged, and remains at $0.64.</p>\n            ","response":0,"trial_type":"html-button-response","trial_index":114,"time_elapsed":1069451,"internal_node_id":"0.0-4.0-1.53","subject_id":"60f1c8b5565f8e5450c7cd2e","study_id":"6197b3f67c2b5cd3b6d9596a","session_id":"6197b8872dc3a9e4dd83b1da","condition":"contingent","relevant_dimensions":["antennae","legs"],"bee_group":{"antennae":"B","wings":"X","pattern":"X","legs":"M"},"bonus":0.8000000000000009},{"rt":7536.799999713898,"stimulus":"bees-with-color/bee-A2SF.svg","response":0,"trial_type":"image-button-response","trial_index":115,"time_elapsed":1076991,"internal_node_id":"0.0-4.0-0.54","subject_id":"60f1c8b5565f8e5450c7cd2e","study_id":"6197b3f67c2b5cd3b6d9596a","session_id":"6197b8872dc3a9e4dd83b1da","condition":"contingent","relevant_dimensions":["antennae","legs"],"bee_group":{"antennae":"B","wings":"X","pattern":"X","legs":"M"},"action":"harvest","summary":"good-harvest","bonus":0.8000000000000009},{"rt":1551.0999999046326,"stimulus":"\n                    <p><b>Action: <em>harvest</em></b></p>\n                    <p>This is the bee that you just saw.</p>\n                    <img src=\"bees-with-color/bee-A2SF.svg\" width=\"200\">\n                    <p><span class=\"greenText\"><b>Successful harvest!</b></span><br>Your pay has increased by $0.02. Your bonus pay is now $0.66.</p>\n            ","response":0,"trial_type":"html-button-response","trial_index":116,"time_elapsed":1078545,"internal_node_id":"0.0-4.0-1.54","subject_id":"60f1c8b5565f8e5450c7cd2e","study_id":"6197b3f67c2b5cd3b6d9596a","session_id":"6197b8872dc3a9e4dd83b1da","condition":"contingent","relevant_dimensions":["antennae","legs"],"bee_group":{"antennae":"B","wings":"X","pattern":"X","legs":"M"},"bonus":0.8000000000000009},{"rt":11182.700000286102,"stimulus":"bees-with-color/bee-A2DF.svg","response":1,"trial_type":"image-button-response","trial_index":117,"time_elapsed":1089730,"internal_node_id":"0.0-4.0-0.55","subject_id":"60f1c8b5565f8e5450c7cd2e","study_id":"6197b3f67c2b5cd3b6d9596a","session_id":"6197b8872dc3a9e4dd83b1da","condition":"contingent","relevant_dimensions":["antennae","legs"],"bee_group":{"antennae":"B","wings":"X","pattern":"X","legs":"M"},"action":"avoid","summary":"bad-avoid","bonus":0.8000000000000009},{"rt":2311.2000002861023,"stimulus":"\n                    <p><b>Action: <em>avoid</em></b></p>\n                    <p>This is the bee that you just saw.</p>\n                    <img src=\"bees-with-color/bee-A2DF.svg\" width=\"200\">\n                    <p><br>Your bonus pay is unchanged, and remains at $0.66.</p>\n            ","response":0,"trial_type":"html-button-response","trial_index":118,"time_elapsed":1092044,"internal_node_id":"0.0-4.0-1.55","subject_id":"60f1c8b5565f8e5450c7cd2e","study_id":"6197b3f67c2b5cd3b6d9596a","session_id":"6197b8872dc3a9e4dd83b1da","condition":"contingent","relevant_dimensions":["antennae","legs"],"bee_group":{"antennae":"B","wings":"X","pattern":"X","legs":"M"},"bonus":0.8000000000000009},{"rt":26544.300000190735,"stimulus":"bees-with-color/bee-A1SM.svg","response":0,"trial_type":"image-button-response","trial_index":119,"time_elapsed":1118591,"internal_node_id":"0.0-4.0-0.56","subject_id":"60f1c8b5565f8e5450c7cd2e","study_id":"6197b3f67c2b5cd3b6d9596a","session_id":"6197b8872dc3a9e4dd83b1da","condition":"contingent","relevant_dimensions":["antennae","legs"],"bee_group":{"antennae":"B","wings":"X","pattern":"X","legs":"M"},"action":"harvest","summary":"good-harvest","bonus":0.8000000000000009},{"rt":6949.800000190735,"stimulus":"\n                    <p><b>Action: <em>harvest</em></b></p>\n                    <p>This is the bee that you just saw.</p>\n                    <img src=\"bees-with-color/bee-A1SM.svg\" width=\"200\">\n                    <p><span class=\"greenText\"><b>Successful harvest!</b></span><br>Your pay has increased by $0.02. Your bonus pay is now $0.68.</p>\n            ","response":0,"trial_type":"html-button-response","trial_index":120,"time_elapsed":1125543,"internal_node_id":"0.0-4.0-1.56","subject_id":"60f1c8b5565f8e5450c7cd2e","study_id":"6197b3f67c2b5cd3b6d9596a","session_id":"6197b8872dc3a9e4dd83b1da","condition":"contingent","relevant_dimensions":["antennae","legs"],"bee_group":{"antennae":"B","wings":"X","pattern":"X","legs":"M"},"bonus":0.8000000000000009},{"rt":16279.799999713898,"stimulus":"bees-with-color/bee-A1DM.svg","response":1,"trial_type":"image-button-response","trial_index":121,"time_elapsed":1141826,"internal_node_id":"0.0-4.0-0.57","subject_id":"60f1c8b5565f8e5450c7cd2e","study_id":"6197b3f67c2b5cd3b6d9596a","session_id":"6197b8872dc3a9e4dd83b1da","condition":"contingent","relevant_dimensions":["antennae","legs"],"bee_group":{"antennae":"B","wings":"X","pattern":"X","legs":"M"},"action":"avoid","summary":"bad-avoid","bonus":0.8000000000000009},{"rt":3234.0999999046326,"stimulus":"\n                    <p><b>Action: <em>avoid</em></b></p>\n                    <p>This is the bee that you just saw.</p>\n                    <img src=\"bees-with-color/bee-A1DM.svg\" width=\"200\">\n                    <p><br>Your bonus pay is unchanged, and remains at $0.68.</p>\n            ","response":0,"trial_type":"html-button-response","trial_index":122,"time_elapsed":1145062,"internal_node_id":"0.0-4.0-1.57","subject_id":"60f1c8b5565f8e5450c7cd2e","study_id":"6197b3f67c2b5cd3b6d9596a","session_id":"6197b8872dc3a9e4dd83b1da","condition":"contingent","relevant_dimensions":["antennae","legs"],"bee_group":{"antennae":"B","wings":"X","pattern":"X","legs":"M"},"bonus":0.8000000000000009},{"rt":9592.099999904633,"stimulus":"bees-with-color/bee-B1DM.svg","response":0,"trial_type":"image-button-response","trial_index":123,"time_elapsed":1154656,"internal_node_id":"0.0-4.0-0.58","subject_id":"60f1c8b5565f8e5450c7cd2e","study_id":"6197b3f67c2b5cd3b6d9596a","session_id":"6197b8872dc3a9e4dd83b1da","condition":"contingent","relevant_dimensions":["antennae","legs"],"bee_group":{"antennae":"B","wings":"X","pattern":"X","legs":"M"},"action":"harvest","summary":"bad-harvest","bonus":0.8000000000000009},{"rt":2997.5,"stimulus":"\n                    <p><b>Action: <em>harvest</em></b></p>\n                    <p>This is the bee that you just saw.</p>\n                    <img src=\"bees-with-color/bee-B1DM.svg\" width=\"200\">\n                    <p><span class=\"redText\">Bad choice, the bee was angry.</span><br><b>You have been stung!</b><br>Your pay has been decreased by $0.10. Your bonus pay is now $0.58.</p>\n            ","response":0,"trial_type":"html-button-response","trial_index":124,"time_elapsed":1157655,"internal_node_id":"0.0-4.0-1.58","subject_id":"60f1c8b5565f8e5450c7cd2e","study_id":"6197b3f67c2b5cd3b6d9596a","session_id":"6197b8872dc3a9e4dd83b1da","condition":"contingent","relevant_dimensions":["antennae","legs"],"bee_group":{"antennae":"B","wings":"X","pattern":"X","legs":"M"},"bonus":0.8000000000000009},{"rt":12751.099999904633,"stimulus":"bees-with-color/bee-A2SM.svg","response":0,"trial_type":"image-button-response","trial_index":125,"time_elapsed":1170408,"internal_node_id":"0.0-4.0-0.59","subject_id":"60f1c8b5565f8e5450c7cd2e","study_id":"6197b3f67c2b5cd3b6d9596a","session_id":"6197b8872dc3a9e4dd83b1da","condition":"contingent","relevant_dimensions":["antennae","legs"],"bee_group":{"antennae":"B","wings":"X","pattern":"X","legs":"M"},"action":"harvest","summary":"good-harvest","bonus":0.8000000000000009},{"rt":1300.6999998092651,"stimulus":"\n                    <p><b>Action: <em>harvest</em></b></p>\n                    <p>This is the bee that you just saw.</p>\n                    <img src=\"bees-with-color/bee-A2SM.svg\" width=\"200\">\n                    <p><span class=\"greenText\"><b>Successful harvest!</b></span><br>Your pay has increased by $0.02. Your bonus pay is now $0.60.</p>\n            ","response":0,"trial_type":"html-button-response","trial_index":126,"time_elapsed":1171710,"internal_node_id":"0.0-4.0-1.59","subject_id":"60f1c8b5565f8e5450c7cd2e","study_id":"6197b3f67c2b5cd3b6d9596a","session_id":"6197b8872dc3a9e4dd83b1da","condition":"contingent","relevant_dimensions":["antennae","legs"],"bee_group":{"antennae":"B","wings":"X","pattern":"X","legs":"M"},"bonus":0.8000000000000009},{"rt":21497.5,"stimulus":"bees-with-color/bee-A1SF.svg","response":1,"trial_type":"image-button-response","trial_index":127,"time_elapsed":1193210,"internal_node_id":"0.0-4.0-0.60","subject_id":"60f1c8b5565f8e5450c7cd2e","study_id":"6197b3f67c2b5cd3b6d9596a","session_id":"6197b8872dc3a9e4dd83b1da","condition":"contingent","relevant_dimensions":["antennae","legs"],"bee_group":{"antennae":"B","wings":"X","pattern":"X","legs":"M"},"action":"avoid","summary":"bad-avoid","bonus":0.8000000000000009},{"rt":1580.4000000953674,"stimulus":"\n                    <p><b>Action: <em>avoid</em></b></p>\n                    <p>This is the bee that you just saw.</p>\n                    <img src=\"bees-with-color/bee-A1SF.svg\" width=\"200\">\n                    <p><br>Your bonus pay is unchanged, and remains at $0.60.</p>\n            ","response":0,"trial_type":"html-button-response","trial_index":128,"time_elapsed":1194792,"internal_node_id":"0.0-4.0-1.60","subject_id":"60f1c8b5565f8e5450c7cd2e","study_id":"6197b3f67c2b5cd3b6d9596a","session_id":"6197b8872dc3a9e4dd83b1da","condition":"contingent","relevant_dimensions":["antennae","legs"],"bee_group":{"antennae":"B","wings":"X","pattern":"X","legs":"M"},"bonus":0.8000000000000009},{"rt":14677.400000095367,"stimulus":"bees-with-color/bee-A2DM.svg","response":1,"trial_type":"image-button-response","trial_index":129,"time_elapsed":1209471,"internal_node_id":"0.0-4.0-0.61","subject_id":"60f1c8b5565f8e5450c7cd2e","study_id":"6197b3f67c2b5cd3b6d9596a","session_id":"6197b8872dc3a9e4dd83b1da","condition":"contingent","relevant_dimensions":["antennae","legs"],"bee_group":{"antennae":"B","wings":"X","pattern":"X","legs":"M"},"action":"avoid","summary":"bad-avoid","bonus":0.8000000000000009},{"rt":1796.3000001907349,"stimulus":"\n                    <p><b>Action: <em>avoid</em></b></p>\n                    <p>This is the bee that you just saw.</p>\n                    <img src=\"bees-with-color/bee-A2DM.svg\" width=\"200\">\n                    <p><br>Your bonus pay is unchanged, and remains at $0.60.</p>\n            ","response":0,"trial_type":"html-button-response","trial_index":130,"time_elapsed":1211269,"internal_node_id":"0.0-4.0-1.61","subject_id":"60f1c8b5565f8e5450c7cd2e","study_id":"6197b3f67c2b5cd3b6d9596a","session_id":"6197b8872dc3a9e4dd83b1da","condition":"contingent","relevant_dimensions":["antennae","legs"],"bee_group":{"antennae":"B","wings":"X","pattern":"X","legs":"M"},"bonus":0.8000000000000009},{"rt":9689.5,"stimulus":"bees-with-color/bee-B2DF.svg","response":0,"trial_type":"image-button-response","trial_index":131,"time_elapsed":1220961,"internal_node_id":"0.0-4.0-0.62","subject_id":"60f1c8b5565f8e5450c7cd2e","study_id":"6197b3f67c2b5cd3b6d9596a","session_id":"6197b8872dc3a9e4dd83b1da","condition":"contingent","relevant_dimensions":["antennae","legs"],"bee_group":{"antennae":"B","wings":"X","pattern":"X","legs":"M"},"action":"harvest","summary":"good-harvest","bonus":0.8000000000000009},{"rt":2331.300000190735,"stimulus":"\n                    <p><b>Action: <em>harvest</em></b></p>\n                    <p>This is the bee that you just saw.</p>\n                    <img src=\"bees-with-color/bee-B2DF.svg\" width=\"200\">\n                    <p><span class=\"greenText\"><b>Successful harvest!</b></span><br>Your pay has increased by $0.02. Your bonus pay is now $0.62.</p>\n            ","response":0,"trial_type":"html-button-response","trial_index":132,"time_elapsed":1223294,"internal_node_id":"0.0-4.0-1.62","subject_id":"60f1c8b5565f8e5450c7cd2e","study_id":"6197b3f67c2b5cd3b6d9596a","session_id":"6197b8872dc3a9e4dd83b1da","condition":"contingent","relevant_dimensions":["antennae","legs"],"bee_group":{"antennae":"B","wings":"X","pattern":"X","legs":"M"},"bonus":0.8000000000000009},{"rt":18962.800000190735,"stimulus":"bees-with-color/bee-B1SM.svg","response":1,"trial_type":"image-button-response","trial_index":133,"time_elapsed":1242259,"internal_node_id":"0.0-4.0-0.63","subject_id":"60f1c8b5565f8e5450c7cd2e","study_id":"6197b3f67c2b5cd3b6d9596a","session_id":"6197b8872dc3a9e4dd83b1da","condition":"contingent","relevant_dimensions":["antennae","legs"],"bee_group":{"antennae":"B","wings":"X","pattern":"X","legs":"M"},"action":"avoid","summary":"good-avoid","bonus":0.8000000000000009},{"rt":1593.4000000953674,"stimulus":"\n                    <p><b>Action: <em>avoid</em></b></p>\n                    <p>This is the bee that you just saw.</p>\n                    <img src=\"bees-with-color/bee-B1SM.svg\" width=\"200\">\n                    <p><br>Your bonus pay is unchanged, and remains at $0.62.</p>\n            ","response":0,"trial_type":"html-button-response","trial_index":134,"time_elapsed":1243855,"internal_node_id":"0.0-4.0-1.63","subject_id":"60f1c8b5565f8e5450c7cd2e","study_id":"6197b3f67c2b5cd3b6d9596a","session_id":"6197b8872dc3a9e4dd83b1da","condition":"contingent","relevant_dimensions":["antennae","legs"],"bee_group":{"antennae":"B","wings":"X","pattern":"X","legs":"M"},"bonus":0.8000000000000009},{"rt":12570.599999904633,"stimulus":"You have completed the first part of this experiment.<br><br>You will now begin a shorter second part, in which you will receive no feedback.<br>The same rules regarding bonus pay apply.<br><br>Press any key to begin.","response":"arrowright","trial_type":"html-keyboard-response","trial_index":135,"time_elapsed":1256429,"internal_node_id":"0.0-5.0","subject_id":"60f1c8b5565f8e5450c7cd2e","study_id":"6197b3f67c2b5cd3b6d9596a","session_id":"6197b8872dc3a9e4dd83b1da","condition":"contingent","relevant_dimensions":["antennae","legs"],"bee_group":{"antennae":"B","wings":"X","pattern":"X","legs":"M"},"bonus":0.8000000000000009},{"rt":14760.400000095367,"stimulus":"bees-with-color/bee-A1DF.svg","response":1,"trial_type":"image-button-response","trial_index":136,"time_elapsed":1271203,"internal_node_id":"0.0-6.0-0.0","subject_id":"60f1c8b5565f8e5450c7cd2e","study_id":"6197b3f67c2b5cd3b6d9596a","session_id":"6197b8872dc3a9e4dd83b1da","condition":"contingent","relevant_dimensions":["antennae","legs"],"bee_group":{"antennae":"B","wings":"X","pattern":"X","legs":"M"},"bonus":0.8000000000000009},{"rt":3373.8999996185303,"stimulus":"bees-with-color/bee-A2SM.svg","response":0,"trial_type":"image-button-response","trial_index":137,"time_elapsed":1274580,"internal_node_id":"0.0-6.0-0.1","subject_id":"60f1c8b5565f8e5450c7cd2e","study_id":"6197b3f67c2b5cd3b6d9596a","session_id":"6197b8872dc3a9e4dd83b1da","condition":"contingent","relevant_dimensions":["antennae","legs"],"bee_group":{"antennae":"B","wings":"X","pattern":"X","legs":"M"},"bonus":0.8000000000000009},{"rt":20357.199999809265,"stimulus":"bees-with-color/bee-A1SF.svg","response":0,"trial_type":"image-button-response","trial_index":138,"time_elapsed":1294940,"internal_node_id":"0.0-6.0-0.2","subject_id":"60f1c8b5565f8e5450c7cd2e","study_id":"6197b3f67c2b5cd3b6d9596a","session_id":"6197b8872dc3a9e4dd83b1da","condition":"contingent","relevant_dimensions":["antennae","legs"],"bee_group":{"antennae":"B","wings":"X","pattern":"X","legs":"M"},"bonus":0.8000000000000009},{"rt":4511.5,"stimulus":"bees-with-color/bee-A1DM.svg","response":1,"trial_type":"image-button-response","trial_index":139,"time_elapsed":1299456,"internal_node_id":"0.0-6.0-0.3","subject_id":"60f1c8b5565f8e5450c7cd2e","study_id":"6197b3f67c2b5cd3b6d9596a","session_id":"6197b8872dc3a9e4dd83b1da","condition":"contingent","relevant_dimensions":["antennae","legs"],"bee_group":{"antennae":"B","wings":"X","pattern":"X","legs":"M"},"bonus":0.8000000000000009},{"rt":13739,"stimulus":"bees-with-color/bee-B1DM.svg","response":1,"trial_type":"image-button-response","trial_index":140,"time_elapsed":1313198,"internal_node_id":"0.0-6.0-0.4","subject_id":"60f1c8b5565f8e5450c7cd2e","study_id":"6197b3f67c2b5cd3b6d9596a","session_id":"6197b8872dc3a9e4dd83b1da","condition":"contingent","relevant_dimensions":["antennae","legs"],"bee_group":{"antennae":"B","wings":"X","pattern":"X","legs":"M"},"bonus":0.8000000000000009},{"rt":15735.799999713898,"stimulus":"bees-with-color/bee-B2SF.svg","response":0,"trial_type":"image-button-response","trial_index":141,"time_elapsed":1328937,"internal_node_id":"0.0-6.0-0.5","subject_id":"60f1c8b5565f8e5450c7cd2e","study_id":"6197b3f67c2b5cd3b6d9596a","session_id":"6197b8872dc3a9e4dd83b1da","condition":"contingent","relevant_dimensions":["antennae","legs"],"bee_group":{"antennae":"B","wings":"X","pattern":"X","legs":"M"},"bonus":0.8000000000000009},{"rt":18930.400000095367,"stimulus":"bees-with-color/bee-B1SF.svg","response":0,"trial_type":"image-button-response","trial_index":142,"time_elapsed":1347872,"internal_node_id":"0.0-6.0-0.6","subject_id":"60f1c8b5565f8e5450c7cd2e","study_id":"6197b3f67c2b5cd3b6d9596a","session_id":"6197b8872dc3a9e4dd83b1da","condition":"contingent","relevant_dimensions":["antennae","legs"],"bee_group":{"antennae":"B","wings":"X","pattern":"X","legs":"M"},"bonus":0.8000000000000009},{"rt":16433.39999961853,"stimulus":"bees-with-color/bee-B2SM.svg","response":1,"trial_type":"image-button-response","trial_index":143,"time_elapsed":1364309,"internal_node_id":"0.0-6.0-0.7","subject_id":"60f1c8b5565f8e5450c7cd2e","study_id":"6197b3f67c2b5cd3b6d9596a","session_id":"6197b8872dc3a9e4dd83b1da","condition":"contingent","relevant_dimensions":["antennae","legs"],"bee_group":{"antennae":"B","wings":"X","pattern":"X","legs":"M"},"bonus":0.8000000000000009},{"rt":12217.200000286102,"stimulus":"bees-with-color/bee-B2DF.svg","response":0,"trial_type":"image-button-response","trial_index":144,"time_elapsed":1376530,"internal_node_id":"0.0-6.0-0.8","subject_id":"60f1c8b5565f8e5450c7cd2e","study_id":"6197b3f67c2b5cd3b6d9596a","session_id":"6197b8872dc3a9e4dd83b1da","condition":"contingent","relevant_dimensions":["antennae","legs"],"bee_group":{"antennae":"B","wings":"X","pattern":"X","legs":"M"},"bonus":0.8000000000000009},{"rt":25636.299999713898,"stimulus":"bees-with-color/bee-A1SM.svg","response":0,"trial_type":"image-button-response","trial_index":145,"time_elapsed":1402170,"internal_node_id":"0.0-6.0-0.9","subject_id":"60f1c8b5565f8e5450c7cd2e","study_id":"6197b3f67c2b5cd3b6d9596a","session_id":"6197b8872dc3a9e4dd83b1da","condition":"contingent","relevant_dimensions":["antennae","legs"],"bee_group":{"antennae":"B","wings":"X","pattern":"X","legs":"M"},"bonus":0.8000000000000009},{"rt":4213.900000095367,"stimulus":"bees-with-color/bee-B1SM.svg","response":1,"trial_type":"image-button-response","trial_index":146,"time_elapsed":1406387,"internal_node_id":"0.0-6.0-0.10","subject_id":"60f1c8b5565f8e5450c7cd2e","study_id":"6197b3f67c2b5cd3b6d9596a","session_id":"6197b8872dc3a9e4dd83b1da","condition":"contingent","relevant_dimensions":["antennae","legs"],"bee_group":{"antennae":"B","wings":"X","pattern":"X","legs":"M"},"bonus":0.8000000000000009},{"rt":18198.900000095367,"stimulus":"bees-with-color/bee-A2DF.svg","response":1,"trial_type":"image-button-response","trial_index":147,"time_elapsed":1424589,"internal_node_id":"0.0-6.0-0.11","subject_id":"60f1c8b5565f8e5450c7cd2e","study_id":"6197b3f67c2b5cd3b6d9596a","session_id":"6197b8872dc3a9e4dd83b1da","condition":"contingent","relevant_dimensions":["antennae","legs"],"bee_group":{"antennae":"B","wings":"X","pattern":"X","legs":"M"},"bonus":0.8000000000000009},{"rt":4171.300000190735,"stimulus":"bees-with-color/bee-B2DM.svg","response":1,"trial_type":"image-button-response","trial_index":148,"time_elapsed":1428764,"internal_node_id":"0.0-6.0-0.12","subject_id":"60f1c8b5565f8e5450c7cd2e","study_id":"6197b3f67c2b5cd3b6d9596a","session_id":"6197b8872dc3a9e4dd83b1da","condition":"contingent","relevant_dimensions":["antennae","legs"],"bee_group":{"antennae":"B","wings":"X","pattern":"X","legs":"M"},"bonus":0.8000000000000009},{"rt":1172,"stimulus":"bees-with-color/bee-A2DM.svg","response":1,"trial_type":"image-button-response","trial_index":149,"time_elapsed":1429939,"internal_node_id":"0.0-6.0-0.13","subject_id":"60f1c8b5565f8e5450c7cd2e","study_id":"6197b3f67c2b5cd3b6d9596a","session_id":"6197b8872dc3a9e4dd83b1da","condition":"contingent","relevant_dimensions":["antennae","legs"],"bee_group":{"antennae":"B","wings":"X","pattern":"X","legs":"M"},"bonus":0.8000000000000009},{"rt":7155.799999713898,"stimulus":"bees-with-color/bee-B1DF.svg","response":0,"trial_type":"image-button-response","trial_index":150,"time_elapsed":1437097,"internal_node_id":"0.0-6.0-0.14","subject_id":"60f1c8b5565f8e5450c7cd2e","study_id":"6197b3f67c2b5cd3b6d9596a","session_id":"6197b8872dc3a9e4dd83b1da","condition":"contingent","relevant_dimensions":["antennae","legs"],"bee_group":{"antennae":"B","wings":"X","pattern":"X","legs":"M"},"bonus":0.8000000000000009},{"rt":6284.799999713898,"stimulus":"bees-with-color/bee-A2SF.svg","response":0,"trial_type":"image-button-response","trial_index":151,"time_elapsed":1443384,"internal_node_id":"0.0-6.0-0.15","subject_id":"60f1c8b5565f8e5450c7cd2e","study_id":"6197b3f67c2b5cd3b6d9596a","session_id":"6197b8872dc3a9e4dd83b1da","condition":"contingent","relevant_dimensions":["antennae","legs"],"bee_group":{"antennae":"B","wings":"X","pattern":"X","legs":"M"},"bonus":0.8000000000000009},{"rt":6340.699999809265,"stimulus":"bees-with-color/bee-B2DF.svg","response":0,"trial_type":"image-button-response","trial_index":152,"time_elapsed":1449727,"internal_node_id":"0.0-6.0-0.16","subject_id":"60f1c8b5565f8e5450c7cd2e","study_id":"6197b3f67c2b5cd3b6d9596a","session_id":"6197b8872dc3a9e4dd83b1da","condition":"contingent","relevant_dimensions":["antennae","legs"],"bee_group":{"antennae":"B","wings":"X","pattern":"X","legs":"M"},"bonus":0.8000000000000009},{"rt":1837.1999998092651,"stimulus":"bees-with-color/bee-A2DF.svg","response":1,"trial_type":"image-button-response","trial_index":153,"time_elapsed":1451567,"internal_node_id":"0.0-6.0-0.17","subject_id":"60f1c8b5565f8e5450c7cd2e","study_id":"6197b3f67c2b5cd3b6d9596a","session_id":"6197b8872dc3a9e4dd83b1da","condition":"contingent","relevant_dimensions":["antennae","legs"],"bee_group":{"antennae":"B","wings":"X","pattern":"X","legs":"M"},"bonus":0.8000000000000009},{"rt":8083.599999904633,"stimulus":"bees-with-color/bee-B1DM.svg","response":1,"trial_type":"image-button-response","trial_index":154,"time_elapsed":1459652,"internal_node_id":"0.0-6.0-0.18","subject_id":"60f1c8b5565f8e5450c7cd2e","study_id":"6197b3f67c2b5cd3b6d9596a","session_id":"6197b8872dc3a9e4dd83b1da","condition":"contingent","relevant_dimensions":["antennae","legs"],"bee_group":{"antennae":"B","wings":"X","pattern":"X","legs":"M"},"bonus":0.8000000000000009},{"rt":7962.900000095367,"stimulus":"bees-with-color/bee-A1SM.svg","response":0,"trial_type":"image-button-response","trial_index":155,"time_elapsed":1467618,"internal_node_id":"0.0-6.0-0.19","subject_id":"60f1c8b5565f8e5450c7cd2e","study_id":"6197b3f67c2b5cd3b6d9596a","session_id":"6197b8872dc3a9e4dd83b1da","condition":"contingent","relevant_dimensions":["antennae","legs"],"bee_group":{"antennae":"B","wings":"X","pattern":"X","legs":"M"},"bonus":0.8000000000000009},{"rt":2118.5,"stimulus":"bees-with-color/bee-B2DM.svg","response":1,"trial_type":"image-button-response","trial_index":156,"time_elapsed":1469739,"internal_node_id":"0.0-6.0-0.20","subject_id":"60f1c8b5565f8e5450c7cd2e","study_id":"6197b3f67c2b5cd3b6d9596a","session_id":"6197b8872dc3a9e4dd83b1da","condition":"contingent","relevant_dimensions":["antennae","legs"],"bee_group":{"antennae":"B","wings":"X","pattern":"X","legs":"M"},"bonus":0.8000000000000009},{"rt":4805.800000190735,"stimulus":"bees-with-color/bee-A2SF.svg","response":0,"trial_type":"image-button-response","trial_index":157,"time_elapsed":1474548,"internal_node_id":"0.0-6.0-0.21","subject_id":"60f1c8b5565f8e5450c7cd2e","study_id":"6197b3f67c2b5cd3b6d9596a","session_id":"6197b8872dc3a9e4dd83b1da","condition":"contingent","relevant_dimensions":["antennae","legs"],"bee_group":{"antennae":"B","wings":"X","pattern":"X","legs":"M"},"bonus":0.8000000000000009},{"rt":1574,"stimulus":"bees-with-color/bee-A2DM.svg","response":1,"trial_type":"image-button-response","trial_index":158,"time_elapsed":1476124,"internal_node_id":"0.0-6.0-0.22","subject_id":"60f1c8b5565f8e5450c7cd2e","study_id":"6197b3f67c2b5cd3b6d9596a","session_id":"6197b8872dc3a9e4dd83b1da","condition":"contingent","relevant_dimensions":["antennae","legs"],"bee_group":{"antennae":"B","wings":"X","pattern":"X","legs":"M"},"bonus":0.8000000000000009},{"rt":14980.5,"stimulus":"bees-with-color/bee-B1DF.svg","response":0,"trial_type":"image-button-response","trial_index":159,"time_elapsed":1491107,"internal_node_id":"0.0-6.0-0.23","subject_id":"60f1c8b5565f8e5450c7cd2e","study_id":"6197b3f67c2b5cd3b6d9596a","session_id":"6197b8872dc3a9e4dd83b1da","condition":"contingent","relevant_dimensions":["antennae","legs"],"bee_group":{"antennae":"B","wings":"X","pattern":"X","legs":"M"},"bonus":0.8000000000000009},{"rt":3895.800000190735,"stimulus":"bees-with-color/bee-A1SF.svg","response":1,"trial_type":"image-button-response","trial_index":160,"time_elapsed":1495006,"internal_node_id":"0.0-6.0-0.24","subject_id":"60f1c8b5565f8e5450c7cd2e","study_id":"6197b3f67c2b5cd3b6d9596a","session_id":"6197b8872dc3a9e4dd83b1da","condition":"contingent","relevant_dimensions":["antennae","legs"],"bee_group":{"antennae":"B","wings":"X","pattern":"X","legs":"M"},"bonus":0.8000000000000009},{"rt":5040.800000190735,"stimulus":"bees-with-color/bee-B1SM.svg","response":0,"trial_type":"image-button-response","trial_index":161,"time_elapsed":1500049,"internal_node_id":"0.0-6.0-0.25","subject_id":"60f1c8b5565f8e5450c7cd2e","study_id":"6197b3f67c2b5cd3b6d9596a","session_id":"6197b8872dc3a9e4dd83b1da","condition":"contingent","relevant_dimensions":["antennae","legs"],"bee_group":{"antennae":"B","wings":"X","pattern":"X","legs":"M"},"bonus":0.8000000000000009},{"rt":15895,"stimulus":"bees-with-color/bee-A1DF.svg","response":1,"trial_type":"image-button-response","trial_index":162,"time_elapsed":1515947,"internal_node_id":"0.0-6.0-0.26","subject_id":"60f1c8b5565f8e5450c7cd2e","study_id":"6197b3f67c2b5cd3b6d9596a","session_id":"6197b8872dc3a9e4dd83b1da","condition":"contingent","relevant_dimensions":["antennae","legs"],"bee_group":{"antennae":"B","wings":"X","pattern":"X","legs":"M"},"bonus":0.8000000000000009},{"rt":7916.400000095367,"stimulus":"bees-with-color/bee-B2SM.svg","response":1,"trial_type":"image-button-response","trial_index":163,"time_elapsed":1523866,"internal_node_id":"0.0-6.0-0.27","subject_id":"60f1c8b5565f8e5450c7cd2e","study_id":"6197b3f67c2b5cd3b6d9596a","session_id":"6197b8872dc3a9e4dd83b1da","condition":"contingent","relevant_dimensions":["antennae","legs"],"bee_group":{"antennae":"B","wings":"X","pattern"