[{"success":true,"trial_type":"fullscreen","trial_index":0,"time_elapsed":2620,"internal_node_id":"0.0-0.0","subject_id":"5f95851e2fb47e3ec706b95f","study_id":"6197b3f67c2b5cd3b6d9596a","session_id":"619be78715fd5ba89a3a7321","condition":"contingent","relevant_dimensions":["wings","legs"],"bee_group":{"antennae":"X","wings":"2","pattern":"X","legs":"F"},"bonus":0.9200000000000009},{"success":true,"timeout":false,"failed_images":[],"failed_audio":[],"failed_video":[],"trial_type":"preload","trial_index":1,"time_elapsed":4251,"internal_node_id":"0.0-1.0","subject_id":"5f95851e2fb47e3ec706b95f","study_id":"6197b3f67c2b5cd3b6d9596a","session_id":"619be78715fd5ba89a3a7321","condition":"contingent","relevant_dimensions":["wings","legs"],"bee_group":{"antennae":"X","wings":"2","pattern":"X","legs":"F"},"bonus":0.9200000000000009},{"rt":5832.700000047684,"stimulus":"Welcome! Press any key to begin.","response":" ","trial_type":"html-keyboard-response","trial_index":2,"time_elapsed":10085,"internal_node_id":"0.0-2.0","subject_id":"5f95851e2fb47e3ec706b95f","study_id":"6197b3f67c2b5cd3b6d9596a","session_id":"619be78715fd5ba89a3a7321","condition":"contingent","relevant_dimensions":["wings","legs"],"bee_group":{"antennae":"X","wings":"2","pattern":"X","legs":"F"},"bonus":0.9200000000000009},{"view_history":[{"page_index":0,"viewing_time":4900.800000011921},{"page_index":1,"viewing_time":20151.899999976158},{"page_index":2,"viewing_time":6968.100000023842},{"page_index":3,"viewing_time":1672},{"page_index":2,"viewing_time":8688.5},{"page_index":3,"viewing_time":15255.5},{"page_index":4,"viewing_time":7512},{"page_index":5,"viewing_time":8319.899999976158},{"page_index":6,"viewing_time":7392.200000047684},{"page_index":7,"viewing_time":3280.099999964237},{"page_index":6,"viewing_time":19399.900000035763},{"page_index":7,"viewing_time":2344},{"page_index":8,"viewing_time":1927.8999999761581},{"page_index":7,"viewing_time":1400},{"page_index":8,"viewing_time":7024},{"page_index":9,"viewing_time":4136},{"page_index":8,"viewing_time":408},{"page_index":7,"viewing_time":471.89999997615814},{"page_index":8,"viewing_time":664.1000000238419},{"page_index":9,"viewing_time":1591.8999999761581},{"page_index":10,"viewing_time":2168.100000023842},{"page_index":11,"viewing_time":7287.800000011921},{"page_index":12,"viewing_time":6056.199999988079},{"page_index":13,"viewing_time":992},{"page_index":14,"viewing_time":2015.8999999761581}],"rt":142029,"trial_type":"instructions","trial_index":3,"time_elapsed":152115,"internal_node_id":"0.0-3.0-0.0","subject_id":"5f95851e2fb47e3ec706b95f","study_id":"6197b3f67c2b5cd3b6d9596a","session_id":"619be78715fd5ba89a3a7321","condition":"contingent","relevant_dimensions":["wings","legs"],"bee_group":{"antennae":"X","wings":"2","pattern":"X","legs":"F"},"bonus":0.9200000000000009},{"rt":22530.600000023842,"response":{"Q0":["Stripes or spots on body","Single or double wings","Antennae or no antennae"]},"question_order":[0],"trial_type":"survey-multi-select","trial_index":4,"time_elapsed":174671,"internal_node_id":"0.0-3.0-1.0","subject_id":"5f95851e2fb47e3ec706b95f","study_id":"6197b3f67c2b5cd3b6d9596a","session_id":"619be78715fd5ba89a3a7321","condition":"contingent","relevant_dimensions":["wings","legs"],"bee_group":{"antennae":"X","wings":"2","pattern":"X","legs":"F"},"correct":false,"bonus":0.9200000000000009},{"rt":17898.399999976158,"response":{"Q1":"No.","Q2":"Based on the four features of the bee.","Q3":"You do not learn if it was friendly or dangerous, and do not alter your bonus."},"question_order":[0,1,2],"trial_type":"survey-multi-choice","trial_index":5,"time_elapsed":192571,"internal_node_id":"0.0-3.0-2.0","subject_id":"5f95851e2fb47e3ec706b95f","study_id":"6197b3f67c2b5cd3b6d9596a","session_id":"619be78715fd5ba89a3a7321","condition":"contingent","relevant_dimensions":["wings","legs"],"bee_group":{"antennae":"X","wings":"2","pattern":"X","legs":"F"},"correct":true,"bonus":0.9200000000000009},{"rt":2462.400000035763,"stimulus":"<p>You did not answer all comprehension questions correctly.<br>Press <b>continue</b> to review the instructions again.</p>","response":0,"trial_type":"html-button-response","trial_index":6,"time_elapsed":195034,"internal_node_id":"0.0-3.0-3.0","subject_id":"5f95851e2fb47e3ec706b95f","study_id":"6197b3f67c2b5cd3b6d9596a","session_id":"619be78715fd5ba89a3a7321","condition":"contingent","relevant_dimensions":["wings","legs"],"bee_group":{"antennae":"X","wings":"2","pattern":"X","legs":"F"},"bonus":0.9200000000000009},{"view_history":[{"page_index":0,"viewing_time":2750.900000035763},{"page_index":1,"viewing_time":1695.8999999761581},{"page_index":2,"viewing_time":2288},{"page_index":3,"viewing_time":1536},{"page_index":4,"viewing_time":5888.100000023842},{"page_index":5,"viewing_time":1055.7999999523163},{"page_index":6,"viewing_time":1328.2000000476837},{"page_index":7,"viewing_time":3200},{"page_index":8,"viewing_time":183.89999997615814},{"page_index":9,"viewing_time":200.10000002384186},{"page_index":10,"viewing_time":192},{"page_index":11,"viewing_time":927.8999999761581},{"page_index":12,"viewing_time":1088},{"page_index":13,"viewing_time":1000.1999999880791},{"page_index":14,"viewing_time":735.8000000119209}],"rt":24071,"trial_type":"instructions","trial_index":7,"time_elapsed":219106,"internal_node_id":"0.0-3.0-4.0-0.0","subject_id":"5f95851e2fb47e3ec706b95f","study_id":"6197b3f67c2b5cd3b6d9596a","session_id":"619be78715fd5ba89a3a7321","condition":"contingent","relevant_dimensions":["wings","legs"],"bee_group":{"antennae":"X","wings":"2","pattern":"X","legs":"F"},"bonus":0.9200000000000009},{"rt":6485.899999976158,"response":{"Q0":["Two or six legs","Stripes or spots on body","Single or double wings","Antennae or no antennae"]},"question_order":[0],"trial_type":"survey-multi-select","trial_index":8,"time_elapsed":225595,"internal_node_id":"0.0-3.0-4.0-1.0","subject_id":"5f95851e2fb47e3ec706b95f","study_id":"6197b3f67c2b5cd3b6d9596a","session_id":"619be78715fd5ba89a3a7321","condition":"contingent","relevant_dimensions":["wings","legs"],"bee_group":{"antennae":"X","wings":"2","pattern":"X","legs":"F"},"correct":true,"bonus":0.9200000000000009},{"rt":7735,"response":{"Q1":"No.","Q2":"Based on the four features of the bee.","Q3":"You do not learn if it was friendly or dangerous, and do not alter your bonus."},"question_order":[0,1,2],"trial_type":"survey-multi-choice","trial_index":9,"time_elapsed":233331,"internal_node_id":"0.0-3.0-4.0-2.0","subject_id":"5f95851e2fb47e3ec706b95f","study_id":"6197b3f67c2b5cd3b6d9596a","session_id":"619be78715fd5ba89a3a7321","condition":"contingent","relevant_dimensions":["wings","legs"],"bee_group":{"antennae":"X","wings":"2","pattern":"X","legs":"F"},"correct":true,"bonus":0.9200000000000009},{"rt":2046.3999999761581,"stimulus":"<p>Congrats, you got everything right<br>When you're ready, click the button below to continue to the experiment.</p>","response":0,"trial_type":"html-button-response","trial_index":10,"time_elapsed":235378,"internal_node_id":"0.0-3.0-4.0-3.0","subject_id":"5f95851e2fb47e3ec706b95f","study_id":"6197b3f67c2b5cd3b6d9596a","session_id":"619be78715fd5ba89a3a7321","condition":"contingent","relevant_dimensions":["wings","legs"],"bee_group":{"antennae":"X","wings":"2","pattern":"X","legs":"F"},"bonus":0.9200000000000009},{"rt":35478.30000001192,"stimulus":"bees-with-color/bee-A1SM.svg","response":0,"trial_type":"image-button-response","trial_index":11,"time_elapsed":270858,"internal_node_id":"0.0-4.0-0.0","subject_id":"5f95851e2fb47e3ec706b95f","study_id":"6197b3f67c2b5cd3b6d9596a","session_id":"619be78715fd5ba89a3a7321","condition":"contingent","relevant_dimensions":["wings","legs"],"bee_group":{"antennae":"X","wings":"2","pattern":"X","legs":"F"},"action":"harvest","summary":"good-harvest","bonus":0.9200000000000009},{"rt":10917.800000011921,"stimulus":"\n                    <p><b>Action: <em>harvest</em></b></p>\n                    <p>This is the bee that you just saw.</p>\n                    <img src=\"bees-with-color/bee-A1SM.svg\" width=\"200\">\n                    <p><span class=\"greenText\"><b>Successful harvest!</b></span><br>Your pay has increased by $0.02. Your bonus pay is now $0.56.</p>\n            ","response":0,"trial_type":"html-button-response","trial_index":12,"time_elapsed":281778,"internal_node_id":"0.0-4.0-1.0","subject_id":"5f95851e2fb47e3ec706b95f","study_id":"6197b3f67c2b5cd3b6d9596a","session_id":"619be78715fd5ba89a3a7321","condition":"contingent","relevant_dimensions":["wings","legs"],"bee_group":{"antennae":"X","wings":"2","pattern":"X","legs":"F"},"bonus":0.9200000000000009},{"rt":15286.399999976158,"stimulus":"bees-with-color/bee-B1DM.svg","response":1,"trial_type":"image-button-response","trial_index":13,"time_elapsed":297066,"internal_node_id":"0.0-4.0-0.1","subject_id":"5f95851e2fb47e3ec706b95f","study_id":"6197b3f67c2b5cd3b6d9596a","session_id":"619be78715fd5ba89a3a7321","condition":"contingent","relevant_dimensions":["wings","legs"],"bee_group":{"antennae":"X","wings":"2","pattern":"X","legs":"F"},"action":"avoid","summary":"bad-avoid","bonus":0.9200000000000009},{"rt":10331.199999988079,"stimulus":"\n                    <p><b>Action: <em>avoid</em></b></p>\n                    <p>This is the bee that you just saw.</p>\n                    <img src=\"bees-with-color/bee-B1DM.svg\" width=\"200\">\n                    <p><br>Your bonus pay is unchanged, and remains at $0.56.</p>\n            ","response":0,"trial_type":"html-button-response","trial_index":14,"time_elapsed":307402,"internal_node_id":"0.0-4.0-1.1","subject_id":"5f95851e2fb47e3ec706b95f","study_id":"6197b3f67c2b5cd3b6d9596a","session_id":"619be78715fd5ba89a3a7321","condition":"contingent","relevant_dimensions":["wings","legs"],"bee_group":{"antennae":"X","wings":"2","pattern":"X","legs":"F"},"bonus":0.9200000000000009},{"rt":49526.700000047684,"stimulus":"bees-with-color/bee-A2DF.svg","response":0,"trial_type":"image-button-response","trial_index":15,"time_elapsed":356930,"internal_node_id":"0.0-4.0-0.2","subject_id":"5f95851e2fb47e3ec706b95f","study_id":"6197b3f67c2b5cd3b6d9596a","session_id":"619be78715fd5ba89a3a7321","condition":"contingent","relevant_dimensions":["wings","legs"],"bee_group":{"antennae":"X","wings":"2","pattern":"X","legs":"F"},"action":"harvest","summary":"bad-harvest","bonus":0.9200000000000009},{"rt":5974.699999988079,"stimulus":"\n                    <p><b>Action: <em>harvest</em></b></p>\n                    <p>This is the bee that you just saw.</p>\n                    <img src=\"bees-with-color/bee-A2DF.svg\" width=\"200\">\n                    <p><span class=\"redText\">Bad choice, the bee was angry.</span><br><b>You have been stung!</b><br>Your pay has been decreased by $0.10. Your bonus pay is now $0.46.</p>\n            ","response":0,"trial_type":"html-button-response","trial_index":16,"time_elapsed":362906,"internal_node_id":"0.0-4.0-1.2","subject_id":"5f95851e2fb47e3ec706b95f","study_id":"6197b3f67c2b5cd3b6d9596a","session_id":"619be78715fd5ba89a3a7321","condition":"contingent","relevant_dimensions":["wings","legs"],"bee_group":{"antennae":"X","wings":"2","pattern":"X","legs":"F"},"bonus":0.9200000000000009},{"rt":6070.799999952316,"stimulus":"bees-with-color/bee-B1SM.svg","response":0,"trial_type":"image-button-response","trial_index":17,"time_elapsed":368978,"internal_node_id":"0.0-4.0-0.3","subject_id":"5f95851e2fb47e3ec706b95f","study_id":"6197b3f67c2b5cd3b6d9596a","session_id":"619be78715fd5ba89a3a7321","condition":"contingent","relevant_dimensions":["wings","legs"],"bee_group":{"antennae":"X","wings":"2","pattern":"X","legs":"F"},"action":"harvest","summary":"good-harvest","bonus":0.9200000000000009},{"rt":2191,"stimulus":"\n                    <p><b>Action: <em>harvest</em></b></p>\n                    <p>This is the bee that you just saw.</p>\n                    <img src=\"bees-with-color/bee-B1SM.svg\" width=\"200\">\n                    <p><span class=\"greenText\"><b>Successful harvest!</b></span><br>Your pay has increased by $0.02. Your bonus pay is now $0.48.</p>\n            ","response":0,"trial_type":"html-button-response","trial_index":18,"time_elapsed":371170,"internal_node_id":"0.0-4.0-1.3","subject_id":"5f95851e2fb47e3ec706b95f","study_id":"6197b3f67c2b5cd3b6d9596a","session_id":"619be78715fd5ba89a3a7321","condition":"contingent","relevant_dimensions":["wings","legs"],"bee_group":{"antennae":"X","wings":"2","pattern":"X","legs":"F"},"bonus":0.9200000000000009},{"rt":21742.899999976158,"stimulus":"bees-with-color/bee-B2DM.svg","response":0,"trial_type":"image-button-response","trial_index":19,"time_elapsed":392914,"internal_node_id":"0.0-4.0-0.4","subject_id":"5f95851e2fb47e3ec706b95f","study_id":"6197b3f67c2b5cd3b6d9596a","session_id":"619be78715fd5ba89a3a7321","condition":"contingent","relevant_dimensions":["wings","legs"],"bee_group":{"antennae":"X","wings":"2","pattern":"X","legs":"F"},"action":"harvest","summary":"good-harvest","bonus":0.9200000000000009},{"rt":2054.800000011921,"stimulus":"\n                    <p><b>Action: <em>harvest</em></b></p>\n                    <p>This is the bee that you just saw.</p>\n                    <img src=\"bees-with-color/bee-B2DM.svg\" width=\"200\">\n                    <p><span class=\"greenText\"><b>Successful harvest!</b></span><br>Your pay has increased by $0.02. Your bonus pay is now $0.50.</p>\n            ","response":0,"trial_type":"html-button-response","trial_index":20,"time_elapsed":394970,"internal_node_id":"0.0-4.0-1.4","subject_id":"5f95851e2fb47e3ec706b95f","study_id":"6197b3f67c2b5cd3b6d9596a","session_id":"619be78715fd5ba89a3a7321","condition":"contingent","relevant_dimensions":["wings","legs"],"bee_group":{"antennae":"X","wings":"2","pattern":"X","legs":"F"},"bonus":0.9200000000000009},{"rt":23230.900000035763,"stimulus":"bees-with-color/bee-B2SM.svg","response":0,"trial_type":"image-button-response","trial_index":21,"time_elapsed":418202,"internal_node_id":"0.0-4.0-0.5","subject_id":"5f95851e2fb47e3ec706b95f","study_id":"6197b3f67c2b5cd3b6d9596a","session_id":"619be78715fd5ba89a3a7321","condition":"contingent","relevant_dimensions":["wings","legs"],"bee_group":{"antennae":"X","wings":"2","pattern":"X","legs":"F"},"action":"harvest","summary":"good-harvest","bonus":0.9200000000000009},{"rt":8455,"stimulus":"\n                    <p><b>Action: <em>harvest</em></b></p>\n                    <p>This is the bee that you just saw.</p>\n                    <img src=\"bees-with-color/bee-B2SM.svg\" width=\"200\">\n                    <p><span class=\"greenText\"><b>Successful harvest!</b></span><br>Your pay has increased by $0.02. Your bonus pay is now $0.52.</p>\n            ","response":0,"trial_type":"html-button-response","trial_index":22,"time_elapsed":426658,"internal_node_id":"0.0-4.0-1.5","subject_id":"5f95851e2fb47e3ec706b95f","study_id":"6197b3f67c2b5cd3b6d9596a","session_id":"619be78715fd5ba89a3a7321","condition":"contingent","relevant_dimensions":["wings","legs"],"bee_group":{"antennae":"X","wings":"2","pattern":"X","legs":"F"},"bonus":0.9200000000000009},{"rt":36918.39999997616,"stimulus":"bees-with-color/bee-A1SF.svg","response":0,"trial_type":"image-button-response","trial_index":23,"time_elapsed":463578,"internal_node_id":"0.0-4.0-0.6","subject_id":"5f95851e2fb47e3ec706b95f","study_id":"6197b3f67c2b5cd3b6d9596a","session_id":"619be78715fd5ba89a3a7321","condition":"contingent","relevant_dimensions":["wings","legs"],"bee_group":{"antennae":"X","wings":"2","pattern":"X","legs":"F"},"action":"harvest","summary":"good-harvest","bonus":0.9200000000000009},{"rt":2918.899999976158,"stimulus":"\n                    <p><b>Action: <em>harvest</em></b></p>\n                    <p>This is the bee that you just saw.</p>\n                    <img src=\"bees-with-color/bee-A1SF.svg\" width=\"200\">\n                    <p><span class=\"greenText\"><b>Successful harvest!</b></span><br>Your pay has increased by $0.02. Your bonus pay is now $0.54.</p>\n            ","response":0,"trial_type":"html-button-response","trial_index":24,"time_elapsed":466498,"internal_node_id":"0.0-4.0-1.6","subject_id":"5f95851e2fb47e3ec706b95f","study_id":"6197b3f67c2b5cd3b6d9596a","session_id":"619be78715fd5ba89a3a7321","condition":"contingent","relevant_dimensions":["wings","legs"],"bee_group":{"antennae":"X","wings":"2","pattern":"X","legs":"F"},"bonus":0.9200000000000009},{"rt":25111,"stimulus":"bees-with-color/bee-A2SF.svg","response":0,"trial_type":"image-button-response","trial_index":25,"time_elapsed":491611,"internal_node_id":"0.0-4.0-0.7","subject_id":"5f95851e2fb47e3ec706b95f","study_id":"6197b3f67c2b5cd3b6d9596a","session_id":"619be78715fd5ba89a3a7321","condition":"contingent","relevant_dimensions":["wings","legs"],"bee_group":{"antennae":"X","wings":"2","pattern":"X","legs":"F"},"action":"harvest","summary":"bad-harvest","bonus":0.9200000000000009},{"rt":11278.700000047684,"stimulus":"\n                    <p><b>Action: <em>harvest</em></b></p>\n                    <p>This is the bee that you just saw.</p>\n                    <img src=\"bees-with-color/bee-A2SF.svg\" width=\"200\">\n                    <p><span class=\"redText\">Bad choice, the bee was angry.</span><br><b>You have been stung!</b><br>Your pay has been decreased by $0.10. Your bonus pay is now $0.44.</p>\n            ","response":0,"trial_type":"html-button-response","trial_index":26,"time_elapsed":502890,"internal_node_id":"0.0-4.0-1.7","subject_id":"5f95851e2fb47e3ec706b95f","study_id":"6197b3f67c2b5cd3b6d9596a","session_id":"619be78715fd5ba89a3a7321","condition":"contingent","relevant_dimensions":["wings","legs"],"bee_group":{"antennae":"X","wings":"2","pattern":"X","legs":"F"},"bonus":0.9200000000000009},{"rt":21174.5,"stimulus":"bees-with-color/bee-A2DM.svg","response":0,"trial_type":"image-button-response","trial_index":27,"time_elapsed":524066,"internal_node_id":"0.0-4.0-0.8","subject_id":"5f95851e2fb47e3ec706b95f","study_id":"6197b3f67c2b5cd3b6d9596a","session_id":"619be78715fd5ba89a3a7321","condition":"contingent","relevant_dimensions":["wings","legs"],"bee_group":{"antennae":"X","wings":"2","pattern":"X","legs":"F"},"action":"harvest","summary":"good-harvest","bonus":0.9200000000000009},{"rt":3126.899999976158,"stimulus":"\n                    <p><b>Action: <em>harvest</em></b></p>\n                    <p>This is the bee that you just saw.</p>\n                    <img src=\"bees-with-color/bee-A2DM.svg\" width=\"200\">\n                    <p><span class=\"greenText\"><b>Successful harvest!</b></span><br>Your pay has increased by $0.02. Your bonus pay is now $0.46.</p>\n            ","response":0,"trial_type":"html-button-response","trial_index":28,"time_elapsed":527194,"internal_node_id":"0.0-4.0-1.8","subject_id":"5f95851e2fb47e3ec706b95f","study_id":"6197b3f67c2b5cd3b6d9596a","session_id":"619be78715fd5ba89a3a7321","condition":"contingent","relevant_dimensions":["wings","legs"],"bee_group":{"antennae":"X","wings":"2","pattern":"X","legs":"F"},"bonus":0.9200000000000009},{"rt":17614.899999976158,"stimulus":"bees-with-color/bee-A1DF.svg","response":1,"trial_type":"image-button-response","trial_index":29,"time_elapsed":544810,"internal_node_id":"0.0-4.0-0.9","subject_id":"5f95851e2fb47e3ec706b95f","study_id":"6197b3f67c2b5cd3b6d9596a","session_id":"619be78715fd5ba89a3a7321","condition":"contingent","relevant_dimensions":["wings","legs"],"bee_group":{"antennae":"X","wings":"2","pattern":"X","legs":"F"},"action":"avoid","summary":"bad-avoid","bonus":0.9200000000000009},{"rt":1630.7000000476837,"stimulus":"\n                    <p><b>Action: <em>avoid</em></b></p>\n                    <p>This is the bee that you just saw.</p>\n                    <img src=\"bees-with-color/bee-A1DF.svg\" width=\"200\">\n                    <p><br>Your bonus pay is unchanged, and remains at $0.46.</p>\n            ","response":0,"trial_type":"html-button-response","trial_index":30,"time_elapsed":546442,"internal_node_id":"0.0-4.0-1.9","subject_id":"5f95851e2fb47e3ec706b95f","study_id":"6197b3f67c2b5cd3b6d9596a","session_id":"619be78715fd5ba89a3a7321","condition":"contingent","relevant_dimensions":["wings","legs"],"bee_group":{"antennae":"X","wings":"2","pattern":"X","legs":"F"},"bonus":0.9200000000000009},{"rt":17998.700000047684,"stimulus":"bees-with-color/bee-B2DF.svg","response":1,"trial_type":"image-button-response","trial_index":31,"time_elapsed":564442,"internal_node_id":"0.0-4.0-0.10","subject_id":"5f95851e2fb47e3ec706b95f","study_id":"6197b3f67c2b5cd3b6d9596a","session_id":"619be78715fd5ba89a3a7321","condition":"contingent","relevant_dimensions":["wings","legs"],"bee_group":{"antennae":"X","wings":"2","pattern":"X","legs":"F"},"action":"avoid","summary":"good-avoid","bonus":0.9200000000000009},{"rt":1063.300000011921,"stimulus":"\n                    <p><b>Action: <em>avoid</em></b></p>\n                    <p>This is the bee that you just saw.</p>\n                    <img src=\"bees-with-color/bee-B2DF.svg\" width=\"200\">\n                    <p><br>Your bonus pay is unchanged, and remains at $0.46.</p>\n            ","response":0,"trial_type":"html-button-response","trial_index":32,"time_elapsed":565507,"internal_node_id":"0.0-4.0-1.10","subject_id":"5f95851e2fb47e3ec706b95f","study_id":"6197b3f67c2b5cd3b6d9596a","session_id":"619be78715fd5ba89a3a7321","condition":"contingent","relevant_dimensions":["wings","legs"],"bee_group":{"antennae":"X","wings":"2","pattern":"X","legs":"F"},"bonus":0.9200000000000009},{"rt":7174.100000023842,"stimulus":"bees-with-color/bee-A2SM.svg","response":0,"trial_type":"image-button-response","trial_index":33,"time_elapsed":572682,"internal_node_id":"0.0-4.0-0.11","subject_id":"5f95851e2fb47e3ec706b95f","study_id":"6197b3f67c2b5cd3b6d9596a","session_id":"619be78715fd5ba89a3a7321","condition":"contingent","relevant_dimensions":["wings","legs"],"bee_group":{"antennae":"X","wings":"2","pattern":"X","legs":"F"},"action":"harvest","summary":"good-harvest","bonus":0.9200000000000009},{"rt":798.9000000357628,"stimulus":"\n                    <p><b>Action: <em>harvest</em></b></p>\n                    <p>This is the bee that you just saw.</p>\n                    <img src=\"bees-with-color/bee-A2SM.svg\" width=\"200\">\n                    <p><span class=\"greenText\"><b>Successful harvest!</b></span><br>Your pay has increased by $0.02. Your bonus pay is now $0.48.</p>\n            ","response":0,"trial_type":"html-button-response","trial_index":34,"time_elapsed":573482,"internal_node_id":"0.0-4.0-1.11","subject_id":"5f95851e2fb47e3ec706b95f","study_id":"6197b3f67c2b5cd3b6d9596a","session_id":"619be78715fd5ba89a3a7321","condition":"contingent","relevant_dimensions":["wings","legs"],"bee_group":{"antennae":"X","wings":"2","pattern":"X","legs":"F"},"bonus":0.9200000000000009},{"rt":9990.800000011921,"stimulus":"bees-with-color/bee-B2SF.svg","response":1,"trial_type":"image-button-response","trial_index":35,"time_elapsed":583474,"internal_node_id":"0.0-4.0-0.12","subject_id":"5f95851e2fb47e3ec706b95f","study_id":"6197b3f67c2b5cd3b6d9596a","session_id":"619be78715fd5ba89a3a7321","condition":"contingent","relevant_dimensions":["wings","legs"],"bee_group":{"antennae":"X","wings":"2","pattern":"X","legs":"F"},"action":"avoid","summary":"good-avoid","bonus":0.9200000000000009},{"rt":1047,"stimulus":"\n                    <p><b>Action: <em>avoid</em></b></p>\n                    <p>This is the bee that you just saw.</p>\n                    <img src=\"bees-with-color/bee-B2SF.svg\" width=\"200\">\n                    <p><br>Your bonus pay is unchanged, and remains at $0.48.</p>\n            ","response":0,"trial_type":"html-button-response","trial_index":36,"time_elapsed":584522,"internal_node_id":"0.0-4.0-1.12","subject_id":"5f95851e2fb47e3ec706b95f","study_id":"6197b3f67c2b5cd3b6d9596a","session_id":"619be78715fd5ba89a3a7321","condition":"contingent","relevant_dimensions":["wings","legs"],"bee_group":{"antennae":"X","wings":"2","pattern":"X","legs":"F"},"bonus":0.9200000000000009},{"rt":26446.600000023842,"stimulus":"bees-with-color/bee-B1DF.svg","response":0,"trial_type":"image-button-response","trial_index":37,"time_elapsed":610970,"internal_node_id":"0.0-4.0-0.13","subject_id":"5f95851e2fb47e3ec706b95f","study_id":"6197b3f67c2b5cd3b6d9596a","session_id":"619be78715fd5ba89a3a7321","condition":"contingent","relevant_dimensions":["wings","legs"],"bee_group":{"antennae":"X","wings":"2","pattern":"X","legs":"F"},"action":"harvest","summary":"good-harvest","bonus":0.9200000000000009},{"rt":4998.800000011921,"stimulus":"\n                    <p><b>Action: <em>harvest</em></b></p>\n                    <p>This is the bee that you just saw.</p>\n                    <img src=\"bees-with-color/bee-B1DF.svg\" width=\"200\">\n                    <p><span class=\"greenText\"><b>Successful harvest!</b></span><br>Your pay has increased by $0.02. Your bonus pay is now $0.50.</p>\n            ","response":0,"trial_type":"html-button-response","trial_index":38,"time_elapsed":615970,"internal_node_id":"0.0-4.0-1.13","subject_id":"5f95851e2fb47e3ec706b95f","study_id":"6197b3f67c2b5cd3b6d9596a","session_id":"619be78715fd5ba89a3a7321","condition":"contingent","relevant_dimensions":["wings","legs"],"bee_group":{"antennae":"X","wings":"2","pattern":"X","legs":"F"},"bonus":0.9200000000000009},{"rt":16398.399999976158,"stimulus":"bees-with-color/bee-B1SF.svg","response":1,"trial_type":"image-button-response","trial_index":39,"time_elapsed":632370,"internal_node_id":"0.0-4.0-0.14","subject_id":"5f95851e2fb47e3ec706b95f","study_id":"6197b3f67c2b5cd3b6d9596a","session_id":"619be78715fd5ba89a3a7321","condition":"contingent","relevant_dimensions":["wings","legs"],"bee_group":{"antennae":"X","wings":"2","pattern":"X","legs":"F"},"action":"avoid","summary":"bad-avoid","bonus":0.9200000000000009},{"rt":9334.800000011921,"stimulus":"\n                    <p><b>Action: <em>avoid</em></b></p>\n                    <p>This is the bee that you just saw.</p>\n                    <img src=\"bees-with-color/bee-B1SF.svg\" width=\"200\">\n                    <p><br>Your bonus pay is unchanged, and remains at $0.50.</p>\n            ","response":0,"trial_type":"html-button-response","trial_index":40,"time_elapsed":641707,"internal_node_id":"0.0-4.0-1.14","subject_id":"5f95851e2fb47e3ec706b95f","study_id":"6197b3f67c2b5cd3b6d9596a","session_id":"619be78715fd5ba89a3a7321","condition":"contingent","relevant_dimensions":["wings","legs"],"bee_group":{"antennae":"X","wings":"2","pattern":"X","legs":"F"},"bonus":0.9200000000000009},{"rt":15758.199999988079,"stimulus":"bees-with-color/bee-A1DM.svg","response":0,"trial_type":"image-button-response","trial_index":41,"time_elapsed":657466,"internal_node_id":"0.0-4.0-0.15","subject_id":"5f95851e2fb47e3ec706b95f","study_id":"6197b3f67c2b5cd3b6d9596a","session_id":"619be78715fd5ba89a3a7321","condition":"contingent","relevant_dimensions":["wings","legs"],"bee_group":{"antennae":"X","wings":"2","pattern":"X","legs":"F"},"action":"harvest","summary":"good-harvest","bonus":0.9200000000000009},{"rt":5750.899999976158,"stimulus":"\n                    <p><b>Action: <em>harvest</em></b></p>\n                    <p>This is the bee that you just saw.</p>\n                    <img src=\"bees-with-color/bee-A1DM.svg\" width=\"200\">\n                    <p><span class=\"greenText\"><b>Successful harvest!</b></span><br>Your pay has increased by $0.02. Your bonus pay is now $0.52.</p>\n            ","response":0,"trial_type":"html-button-response","trial_index":42,"time_elapsed":663218,"internal_node_id":"0.0-4.0-1.15","subject_id":"5f95851e2fb47e3ec706b95f","study_id":"6197b3f67c2b5cd3b6d9596a","session_id":"619be78715fd5ba89a3a7321","condition":"contingent","relevant_dimensions":["wings","legs"],"bee_group":{"antennae":"X","wings":"2","pattern":"X","legs":"F"},"bonus":0.9200000000000009},{"rt":5142.800000011921,"stimulus":"bees-with-color/bee-B1DF.svg","response":0,"trial_type":"image-button-response","trial_index":43,"time_elapsed":668362,"internal_node_id":"0.0-4.0-0.16","subject_id":"5f95851e2fb47e3ec706b95f","study_id":"6197b3f67c2b5cd3b6d9596a","session_id":"619be78715fd5ba89a3a7321","condition":"contingent","relevant_dimensions":["wings","legs"],"bee_group":{"antennae":"X","wings":"2","pattern":"X","legs":"F"},"action":"harvest","summary":"good-harvest","bonus":0.9200000000000009},{"rt":727.1000000238419,"stimulus":"\n                    <p><b>Action: <em>harvest</em></b></p>\n                    <p>This is the bee that you just saw.</p>\n                    <img src=\"bees-with-color/bee-B1DF.svg\" width=\"200\">\n                    <p><span class=\"greenText\"><b>Successful harvest!</b></span><br>Your pay has increased by $0.02. Your bonus pay is now $0.54.</p>\n            ","response":0,"trial_type":"html-button-response","trial_index":44,"time_elapsed":669090,"internal_node_id":"0.0-4.0-1.16","subject_id":"5f95851e2fb47e3ec706b95f","study_id":"6197b3f67c2b5cd3b6d9596a","session_id":"619be78715fd5ba89a3a7321","condition":"contingent","relevant_dimensions":["wings","legs"],"bee_group":{"antennae":"X","wings":"2","pattern":"X","legs":"F"},"bonus":0.9200000000000009},{"rt":10127.100000023842,"stimulus":"bees-with-color/bee-B2SM.svg","response":0,"trial_type":"image-button-response","trial_index":45,"time_elapsed":679218,"internal_node_id":"0.0-4.0-0.17","subject_id":"5f95851e2fb47e3ec706b95f","study_id":"6197b3f67c2b5cd3b6d9596a","session_id":"619be78715fd5ba89a3a7321","condition":"contingent","relevant_dimensions":["wings","legs"],"bee_group":{"antennae":"X","wings":"2","pattern":"X","legs":"F"},"action":"harvest","summary":"good-harvest","bonus":0.9200000000000009},{"rt":639.1000000238419,"stimulus":"\n                    <p><b>Action: <em>harvest</em></b></p>\n                    <p>This is the bee that you just saw.</p>\n                    <img src=\"bees-with-color/bee-B2SM.svg\" width=\"200\">\n                    <p><span class=\"greenText\"><b>Successful harvest!</b></span><br>Your pay has increased by $0.02. Your bonus pay is now $0.56.</p>\n            ","response":0,"trial_type":"html-button-response","trial_index":46,"time_elapsed":679858,"internal_node_id":"0.0-4.0-1.17","subject_id":"5f95851e2fb47e3ec706b95f","study_id":"6197b3f67c2b5cd3b6d9596a","session_id":"619be78715fd5ba89a3a7321","condition":"contingent","relevant_dimensions":["wings","legs"],"bee_group":{"antennae":"X","wings":"2","pattern":"X","legs":"F"},"bonus":0.9200000000000009},{"rt":6534.800000011921,"stimulus":"bees-with-color/bee-B1DM.svg","response":0,"trial_type":"image-button-response","trial_index":47,"time_elapsed":686394,"internal_node_id":"0.0-4.0-0.18","subject_id":"5f95851e2fb47e3ec706b95f","study_id":"6197b3f67c2b5cd3b6d9596a","session_id":"619be78715fd5ba89a3a7321","condition":"contingent","relevant_dimensions":["wings","legs"],"bee_group":{"antennae":"X","wings":"2","pattern":"X","legs":"F"},"action":"harvest","summary":"good-harvest","bonus":0.9200000000000009},{"rt":743.2000000476837,"stimulus":"\n                    <p><b>Action: <em>harvest</em></b></p>\n                    <p>This is the bee that you just saw.</p>\n                    <img src=\"bees-with-color/bee-B1DM.svg\" width=\"200\">\n                    <p><span class=\"greenText\"><b>Successful harvest!</b></span><br>Your pay has increased by $0.02. Your bonus pay is now $0.58.</p>\n            ","response":0,"trial_type":"html-button-response","trial_index":48,"time_elapsed":687138,"internal_node_id":"0.0-4.0-1.18","subject_id":"5f95851e2fb47e3ec706b95f","study_id":"6197b3f67c2b5cd3b6d9596a","session_id":"619be78715fd5ba89a3a7321","condition":"contingent","relevant_dimensions":["wings","legs"],"bee_group":{"antennae":"X","wings":"2","pattern":"X","legs":"F"},"bonus":0.9200000000000009},{"rt":27870.899999976158,"stimulus":"bees-with-color/bee-A2SM.svg","response":1,"trial_type":"image-button-response","trial_index":49,"time_elapsed":715010,"internal_node_id":"0.0-4.0-0.19","subject_id":"5f95851e2fb47e3ec706b95f","study_id":"6197b3f67c2b5cd3b6d9596a","session_id":"619be78715fd5ba89a3a7321","condition":"contingent","relevant_dimensions":["wings","legs"],"bee_group":{"antennae":"X","wings":"2","pattern":"X","legs":"F"},"action":"avoid","summary":"bad-avoid","bonus":0.9200000000000009},{"rt":2255,"stimulus":"\n                    <p><b>Action: <em>avoid</em></b></p>\n                    <p>This is the bee that you just saw.</p>\n                    <img src=\"bees-with-color/bee-A2SM.svg\" width=\"200\">\n                    <p><br>Your bonus pay is unchanged, and remains at $0.58.</p>\n            ","response":0,"trial_type":"html-button-response","trial_index":50,"time_elapsed":717266,"internal_node_id":"0.0-4.0-1.19","subject_id":"5f95851e2fb47e3ec706b95f","study_id":"6197b3f67c2b5cd3b6d9596a","session_id":"619be78715fd5ba89a3a7321","condition":"contingent","relevant_dimensions":["wings","legs"],"bee_group":{"antennae":"X","wings":"2","pattern":"X","legs":"F"},"bonus":0.9200000000000009},{"rt":11855,"stimulus":"bees-with-color/bee-A1DF.svg","response":0,"trial_type":"image-button-response","trial_index":51,"time_elapsed":729122,"internal_node_id":"0.0-4.0-0.20","subject_id":"5f95851e2fb47e3ec706b95f","study_id":"6197b3f67c2b5cd3b6d9596a","session_id":"619be78715fd5ba89a3a7321","condition":"contingent","relevant_dimensions":["wings","legs"],"bee_group":{"antennae":"X","wings":"2","pattern":"X","legs":"F"},"action":"harvest","summary":"good-harvest","bonus":0.9200000000000009},{"rt":2031.1000000238419,"stimulus":"\n                    <p><b>Action: <em>harvest</em></b></p>\n                    <p>This is the bee that you just saw.</p>\n                    <img src=\"bees-with-color/bee-A1DF.svg\" width=\"200\">\n                    <p><span class=\"greenText\"><b>Successful harvest!</b></span><br>Your pay has increased by $0.02. Your bonus pay is now $0.60.</p>\n            ","response":0,"trial_type":"html-button-response","trial_index":52,"time_elapsed":731154,"internal_node_id":"0.0-4.0-1.20","subject_id":"5f95851e2fb47e3ec706b95f","study_id":"6197b3f67c2b5cd3b6d9596a","session_id":"619be78715fd5ba89a3a7321","condition":"contingent","relevant_dimensions":["wings","legs"],"bee_group":{"antennae":"X","wings":"2","pattern":"X","legs":"F"},"bonus":0.9200000000000009},{"rt":11374.800000011921,"stimulus":"bees-with-color/bee-A1SF.svg","response":0,"trial_type":"image-button-response","trial_index":53,"time_elapsed":742530,"internal_node_id":"0.0-4.0-0.21","subject_id":"5f95851e2fb47e3ec706b95f","study_id":"6197b3f67c2b5cd3b6d9596a","session_id":"619be78715fd5ba89a3a7321","condition":"contingent","relevant_dimensions":["wings","legs"],"bee_group":{"antennae":"X","wings":"2","pattern":"X","legs":"F"},"action":"harvest","summary":"good-harvest","bonus":0.9200000000000009},{"rt":870.9000000357628,"stimulus":"\n                    <p><b>Action: <em>harvest</em></b></p>\n                    <p>This is the bee that you just saw.</p>\n                    <img src=\"bees-with-color/bee-A1SF.svg\" width=\"200\">\n                    <p><span class=\"greenText\"><b>Successful harvest!</b></span><br>Your pay has increased by $0.02. Your bonus pay is now $0.62.</p>\n            ","response":0,"trial_type":"html-button-response","trial_index":54,"time_elapsed":743402,"internal_node_id":"0.0-4.0-1.21","subject_id":"5f95851e2fb47e3ec706b95f","study_id":"6197b3f67c2b5cd3b6d9596a","session_id":"619be78715fd5ba89a3a7321","condition":"contingent","relevant_dimensions":["wings","legs"],"bee_group":{"antennae":"X","wings":"2","pattern":"X","legs":"F"},"bonus":0.9200000000000009},{"rt":7438.800000011921,"stimulus":"bees-with-color/bee-B2SF.svg","response":1,"trial_type":"image-button-response","trial_index":55,"time_elapsed":750842,"internal_node_id":"0.0-4.0-0.22","subject_id":"5f95851e2fb47e3ec706b95f","study_id":"6197b3f67c2b5cd3b6d9596a","session_id":"619be78715fd5ba89a3a7321","condition":"contingent","relevant_dimensions":["wings","legs"],"bee_group":{"antennae":"X","wings":"2","pattern":"X","legs":"F"},"action":"avoid","summary":"good-avoid","bonus":0.9200000000000009},{"rt":975,"stimulus":"\n                    <p><b>Action: <em>avoid</em></b></p>\n                    <p>This is the bee that you just saw.</p>\n                    <img src=\"bees-with-color/bee-B2SF.svg\" width=\"200\">\n                    <p><br>Your bonus pay is unchanged, and remains at $0.62.</p>\n            ","response":0,"trial_type":"html-button-response","trial_index":56,"time_elapsed":751818,"internal_node_id":"0.0-4.0-1.22","subject_id":"5f95851e2fb47e3ec706b95f","study_id":"6197b3f67c2b5cd3b6d9596a","session_id":"619be78715fd5ba89a3a7321","condition":"contingent","relevant_dimensions":["wings","legs"],"bee_group":{"antennae":"X","wings":"2","pattern":"X","legs":"F"},"bonus":0.9200000000000009},{"rt":12470.800000011921,"stimulus":"bees-with-color/bee-B2DF.svg","response":1,"trial_type":"image-button-response","trial_index":57,"time_elapsed":764290,"internal_node_id":"0.0-4.0-0.23","subject_id":"5f95851e2fb47e3ec706b95f","study_id":"6197b3f67c2b5cd3b6d9596a","session_id":"619be78715fd5ba89a3a7321","condition":"contingent","relevant_dimensions":["wings","legs"],"bee_group":{"antennae":"X","wings":"2","pattern":"X","legs":"F"},"action":"avoid","summary":"good-avoid","bonus":0.9200000000000009},{"rt":951,"stimulus":"\n                    <p><b>Action: <em>avoid</em></b></p>\n                    <p>This is the bee that you just saw.</p>\n                    <img src=\"bees-with-color/bee-B2DF.svg\" width=\"200\">\n                    <p><br>Your bonus pay is unchanged, and remains at $0.62.</p>\n            ","response":0,"trial_type":"html-button-response","trial_index":58,"time_elapsed":765242,"internal_node_id":"0.0-4.0-1.23","subject_id":"5f95851e2fb47e3ec706b95f","study_id":"6197b3f67c2b5cd3b6d9596a","session_id":"619be78715fd5ba89a3a7321","condition":"contingent","relevant_dimensions":["wings","legs"],"bee_group":{"antennae":"X","wings":"2","pattern":"X","legs":"F"},"bonus":0.9200000000000009},{"rt":12966.900000035763,"stimulus":"bees-with-color/bee-A2SF.svg","response":1,"trial_type":"image-button-response","trial_index":59,"time_elapsed":778211,"internal_node_id":"0.0-4.0-0.24","subject_id":"5f95851e2fb47e3ec706b95f","study_id":"6197b3f67c2b5cd3b6d9596a","session_id":"619be78715fd5ba89a3a7321","condition":"contingent","relevant_dimensions":["wings","legs"],"bee_group":{"antennae":"X","wings":"2","pattern":"X","legs":"F"},"action":"avoid","summary":"good-avoid","bonus":0.9200000000000009},{"rt":1063,"stimulus":"\n                    <p><b>Action: <em>avoid</em></b></p>\n                    <p>This is the bee that you just saw.</p>\n                    <img src=\"bees-with-color/bee-A2SF.svg\" width=\"200\">\n                    <p><br>Your bonus pay is unchanged, and remains at $0.62.</p>\n            ","response":0,"trial_type":"html-button-response","trial_index":60,"time_elapsed":779275,"internal_node_id":"0.0-4.0-1.24","subject_id":"5f95851e2fb47e3ec706b95f","study_id":"6197b3f67c2b5cd3b6d9596a","session_id":"619be78715fd5ba89a3a7321","condition":"contingent","relevant_dimensions":["wings","legs"],"bee_group":{"antennae":"X","wings":"2","pattern":"X","legs":"F"},"bonus":0.9200000000000009},{"rt":19430.599999964237,"stimulus":"bees-with-color/bee-B1SM.svg","response":0,"trial_type":"image-button-response","trial_index":61,"time_elapsed":798707,"internal_node_id":"0.0-4.0-0.25","subject_id":"5f95851e2fb47e3ec706b95f","study_id":"6197b3f67c2b5cd3b6d9596a","session_id":"619be78715fd5ba89a3a7321","condition":"contingent","relevant_dimensions":["wings","legs"],"bee_group":{"antennae":"X","wings":"2","pattern":"X","legs":"F"},"action":"harvest","summary":"good-harvest","bonus":0.9200000000000009},{"rt":12078.800000011921,"stimulus":"\n                    <p><b>Action: <em>harvest</em></b></p>\n                    <p>This is the bee that you just saw.</p>\n                    <img src=\"bees-with-color/bee-B1SM.svg\" width=\"200\">\n                    <p><span class=\"greenText\"><b>Successful harvest!</b></span><br>Your pay has increased by $0.02. Your bonus pay is now $0.64.</p>\n            ","response":0,"trial_type":"html-button-response","trial_index":62,"time_elapsed":810786,"internal_node_id":"0.0-4.0-1.25","subject_id":"5f95851e2fb47e3ec706b95f","study_id":"6197b3f67c2b5cd3b6d9596a","session_id":"619be78715fd5ba89a3a7321","condition":"contingent","relevant_dimensions":["wings","legs"],"bee_group":{"antennae":"X","wings":"2","pattern":"X","legs":"F"},"bonus":0.9200000000000009},{"rt":10910.699999988079,"stimulus":"bees-with-color/bee-B1SF.svg","response":1,"trial_type":"image-button-response","trial_index":63,"time_elapsed":821699,"internal_node_id":"0.0-4.0-0.26","subject_id":"5f95851e2fb47e3ec706b95f","study_id":"6197b3f67c2b5cd3b6d9596a","session_id":"619be78715fd5ba89a3a7321","condition":"contingent","relevant_dimensions":["wings","legs"],"bee_group":{"antennae":"X","wings":"2","pattern":"X","legs":"F"},"action":"avoid","summary":"bad-avoid","bonus":0.9200000000000009},{"rt":918.8999999761581,"stimulus":"\n                    <p><b>Action: <em>avoid</em></b></p>\n                    <p>This is the bee that you just saw.</p>\n                    <img src=\"bees-with-color/bee-B1SF.svg\" width=\"200\">\n                    <p><br>Your bonus pay is unchanged, and remains at $0.64.</p>\n            ","response":0,"trial_type":"html-button-response","trial_index":64,"time_elapsed":822619,"internal_node_id":"0.0-4.0-1.26","subject_id":"5f95851e2fb47e3ec706b95f","study_id":"6197b3f67c2b5cd3b6d9596a","session_id":"619be78715fd5ba89a3a7321","condition":"contingent","relevant_dimensions":["wings","legs"],"bee_group":{"antennae":"X","wings":"2","pattern":"X","legs":"F"},"bonus":0.9200000000000009},{"rt":11286.800000011921,"stimulus":"bees-with-color/bee-A1DM.svg","response":0,"trial_type":"image-button-response","trial_index":65,"time_elapsed":833907,"internal_node_id":"0.0-4.0-0.27","subject_id":"5f95851e2fb47e3ec706b95f","study_id":"6197b3f67c2b5cd3b6d9596a","session_id":"619be78715fd5ba89a3a7321","condition":"contingent","relevant_dimensions":["wings","legs"],"bee_group":{"antennae":"X","wings":"2","pattern":"X","legs":"F"},"action":"harvest","summary":"good-harvest","bonus":0.9200000000000009},{"rt":926.8999999761581,"stimulus":"\n                    <p><b>Action: <em>harvest</em></b></p>\n                    <p>This is the bee that you just saw.</p>\n                    <img src=\"bees-with-color/bee-A1DM.svg\" width=\"200\">\n                    <p><span class=\"greenText\"><b>Successful harvest!</b></span><br>Your pay has increased by $0.02. Your bonus pay is now $0.66.</p>\n            ","response":0,"trial_type":"html-button-response","trial_index":66,"time_elapsed":834835,"internal_node_id":"0.0-4.0-1.27","subject_id":"5f95851e2fb47e3ec706b95f","study_id":"6197b3f67c2b5cd3b6d9596a","session_id":"619be78715fd5ba89a3a7321","condition":"contingent","relevant_dimensions":["wings","legs"],"bee_group":{"antennae":"X","wings":"2","pattern":"X","legs":"F"},"bonus":0.9200000000000009},{"rt":8142.400000035763,"stimulus":"bees-with-color/bee-A2DF.svg","response":1,"trial_type":"image-button-response","trial_index":67,"time_elapsed":842979,"internal_node_id":"0.0-4.0-0.28","subject_id":"5f95851e2fb47e3ec706b95f","study_id":"6197b3f67c2b5cd3b6d9596a","session_id":"619be78715fd5ba89a3a7321","condition":"contingent","relevant_dimensions":["wings","legs"],"bee_group":{"antennae":"X","wings":"2","pattern":"X","legs":"F"},"action":"avoid","summary":"good-avoid","bonus":0.9200000000000009},{"rt":1207,"stimulus":"\n                    <p><b>Action: <em>avoid</em></b></p>\n                    <p>This is the bee that you just saw.</p>\n                    <img src=\"bees-with-color/bee-A2DF.svg\" width=\"200\">\n                    <p><br>Your bonus pay is unchanged, and remains at $0.66.</p>\n            ","response":0,"trial_type":"html-button-response","trial_index":68,"time_elapsed":844187,"internal_node_id":"0.0-4.0-1.28","subject_id":"5f95851e2fb47e3ec706b95f","study_id":"6197b3f67c2b5cd3b6d9596a","session_id":"619be78715fd5ba89a3a7321","condition":"contingent","relevant_dimensions":["wings","legs"],"bee_group":{"antennae":"X","wings":"2","pattern":"X","legs":"F"},"bonus":0.9200000000000009},{"rt":6862.599999964237,"stimulus":"bees-with-color/bee-B2DM.svg","response":0,"trial_type":"image-button-response","trial_index":69,"time_elapsed":851051,"internal_node_id":"0.0-4.0-0.29","subject_id":"5f95851e2fb47e3ec706b95f","study_id":"6197b3f67c2b5cd3b6d9596a","session_id":"619be78715fd5ba89a3a7321","condition":"contingent","relevant_dimensions":["wings","legs"],"bee_group":{"antennae":"X","wings":"2","pattern":"X","legs":"F"},"action":"harvest","summary":"good-harvest","bonus":0.9200000000000009},{"rt":814.8000000119209,"stimulus":"\n                    <p><b>Action: <em>harvest</em></b></p>\n                    <p>This is the bee that you just saw.</p>\n                    <img src=\"bees-with-color/bee-B2DM.svg\" width=\"200\">\n                    <p><span class=\"greenText\"><b>Successful harvest!</b></span><br>Your pay has increased by $0.02. Your bonus pay is now $0.68.</p>\n            ","response":0,"trial_type":"html-button-response","trial_index":70,"time_elapsed":851867,"internal_node_id":"0.0-4.0-1.29","subject_id":"5f95851e2fb47e3ec706b95f","study_id":"6197b3f67c2b5cd3b6d9596a","session_id":"619be78715fd5ba89a3a7321","condition":"contingent","relevant_dimensions":["wings","legs"],"bee_group":{"antennae":"X","wings":"2","pattern":"X","legs":"F"},"bonus":0.9200000000000009},{"rt":4494.800000011921,"stimulus":"bees-with-color/bee-A1SM.svg","response":0,"trial_type":"image-button-response","trial_index":71,"time_elapsed":856363,"internal_node_id":"0.0-4.0-0.30","subject_id":"5f95851e2fb47e3ec706b95f","study_id":"6197b3f67c2b5cd3b6d9596a","session_id":"619be78715fd5ba89a3a7321","condition":"contingent","relevant_dimensions":["wings","legs"],"bee_group":{"antennae":"X","wings":"2","pattern":"X","legs":"F"},"action":"harvest","summary":"good-harvest","bonus":0.9200000000000009},{"rt":1006.9000000357628,"stimulus":"\n                    <p><b>Action: <em>harvest</em></b></p>\n                    <p>This is the bee that you just saw.</p>\n                    <img src=\"bees-with-color/bee-A1SM.svg\" width=\"200\">\n                    <p><span class=\"greenText\"><b>Successful harvest!</b></span><br>Your pay has increased by $0.02. Your bonus pay is now $0.70.</p>\n            ","response":0,"trial_type":"html-button-response","trial_index":72,"time_elapsed":857371,"internal_node_id":"0.0-4.0-1.30","subject_id":"5f95851e2fb47e3ec706b95f","study_id":"6197b3f67c2b5cd3b6d9596a","session_id":"619be78715fd5ba89a3a7321","condition":"contingent","relevant_dimensions":["wings","legs"],"bee_group":{"antennae":"X","wings":"2","pattern":"X","legs":"F"},"bonus":0.9200000000000009},{"rt":15638.800000011921,"stimulus":"bees-with-color/bee-A2DM.svg","response":1,"trial_type":"image-button-response","trial_index":73,"time_elapsed":873011,"internal_node_id":"0.0-4.0-0.31","subject_id":"5f95851e2fb47e3ec706b95f","study_id":"6197b3f67c2b5cd3b6d9596a","session_id":"619be78715fd5ba89a3a7321","condition":"contingent","relevant_dimensions":["wings","legs"],"bee_group":{"antennae":"X","wings":"2","pattern":"X","legs":"F"},"action":"avoid","summary":"bad-avoid","bonus":0.9200000000000009},{"rt":966.9000000357628,"stimulus":"\n                    <p><b>Action: <em>avoid</em></b></p>\n                    <p>This is the bee that you just saw.</p>\n                    <img src=\"bees-with-color/bee-A2DM.svg\" width=\"200\">\n                    <p><br>Your bonus pay is unchanged, and remains at $0.70.</p>\n            ","response":0,"trial_type":"html-button-response","trial_index":74,"time_elapsed":873979,"internal_node_id":"0.0-4.0-1.31","subject_id":"5f95851e2fb47e3ec706b95f","study_id":"6197b3f67c2b5cd3b6d9596a","session_id":"619be78715fd5ba89a3a7321","condition":"contingent","relevant_dimensions":["wings","legs"],"bee_group":{"antennae":"X","wings":"2","pattern":"X","legs":"F"},"bonus":0.9200000000000009},{"rt":5998.900000035763,"stimulus":"bees-with-color/bee-A1SM.svg","response":0,"trial_type":"image-button-response","trial_index":75,"time_elapsed":879979,"internal_node_id":"0.0-4.0-0.32","subject_id":"5f95851e2fb47e3ec706b95f","study_id":"6197b3f67c2b5cd3b6d9596a","session_id":"619be78715fd5ba89a3a7321","condition":"contingent","relevant_dimensions":["wings","legs"],"bee_group":{"antennae":"X","wings":"2","pattern":"X","legs":"F"},"action":"harvest","summary":"good-harvest","bonus":0.9200000000000009},{"rt":975.1999999880791,"stimulus":"\n                    <p><b>Action: <em>harvest</em></b></p>\n                    <p>This is the bee that you just saw.</p>\n                    <img src=\"bees-with-color/bee-A1SM.svg\" width=\"200\">\n                    <p><span class=\"greenText\"><b>Successful harvest!</b></span><br>Your pay has increased by $0.02. Your bonus pay is now $0.72.</p>\n            ","response":0,"trial_type":"html-button-response","trial_index":76,"time_elapsed":880955,"internal_node_id":"0.0-4.0-1.32","subject_id":"5f95851e2fb47e3ec706b95f","study_id":"6197b3f67c2b5cd3b6d9596a","session_id":"619be78715fd5ba89a3a7321","condition":"contingent","relevant_dimensions":["wings","legs"],"bee_group":{"antennae":"X","wings":"2","pattern":"X","legs":"F"},"bonus":0.9200000000000009},{"rt":7263.199999988079,"stimulus":"bees-with-color/bee-B1DM.svg","response":0,"trial_type":"image-button-response","trial_index":77,"time_elapsed":888219,"internal_node_id":"0.0-4.0-0.33","subject_id":"5f95851e2fb47e3ec706b95f","study_id":"6197b3f67c2b5cd3b6d9596a","session_id":"619be78715fd5ba89a3a7321","condition":"contingent","relevant_dimensions":["wings","legs"],"bee_group":{"antennae":"X","wings":"2","pattern":"X","legs":"F"},"action":"harvest","summary":"good-harvest","bonus":0.9200000000000009},{"rt":830.8999999761581,"stimulus":"\n                    <p><b>Action: <em>harvest</em></b></p>\n                    <p>This is the bee that you just saw.</p>\n                    <img src=\"bees-with-color/bee-B1DM.svg\" width=\"200\">\n                    <p><span class=\"greenText\"><b>Successful harvest!</b></span><br>Your pay has increased by $0.02. Your bonus pay is now $0.74.</p>\n            ","response":0,"trial_type":"html-button-response","trial_index":78,"time_elapsed":889051,"internal_node_id":"0.0-4.0-1.33","subject_id":"5f95851e2fb47e3ec706b95f","study_id":"6197b3f67c2b5cd3b6d9596a","session_id":"619be78715fd5ba89a3a7321","condition":"contingent","relevant_dimensions":["wings","legs"],"bee_group":{"antennae":"X","wings":"2","pattern":"X","legs":"F"},"bonus":0.9200000000000009},{"rt":15262.699999988079,"stimulus":"bees-with-color/bee-B1SM.svg","response":1,"trial_type":"image-button-response","trial_index":79,"time_elapsed":904315,"internal_node_id":"0.0-4.0-0.34","subject_id":"5f95851e2fb47e3ec706b95f","study_id":"6197b3f67c2b5cd3b6d9596a","session_id":"619be78715fd5ba89a3a7321","condition":"contingent","relevant_dimensions":["wings","legs"],"bee_group":{"antennae":"X","wings":"2","pattern":"X","legs":"F"},"action":"avoid","summary":"bad-avoid","bonus":0.9200000000000009},{"rt":759,"stimulus":"\n                    <p><b>Action: <em>avoid</em></b></p>\n                    <p>This is the bee that you just saw.</p>\n                    <img src=\"bees-with-color/bee-B1SM.svg\" width=\"200\">\n                    <p><br>Your bonus pay is unchanged, and remains at $0.74.</p>\n            ","response":0,"trial_type":"html-button-response","trial_index":80,"time_elapsed":905075,"internal_node_id":"0.0-4.0-1.34","subject_id":"5f95851e2fb47e3ec706b95f","study_id":"6197b3f67c2b5cd3b6d9596a","session_id":"619be78715fd5ba89a3a7321","condition":"contingent","relevant_dimensions":["wings","legs"],"bee_group":{"antennae":"X","wings":"2","pattern":"X","legs":"F"},"bonus":0.9200000000000009},{"rt":16510.80000001192,"stimulus":"bees-with-color/bee-B1SF.svg","response":1,"trial_type":"image-button-response","trial_index":81,"time_elapsed":921587,"internal_node_id":"0.0-4.0-0.35","subject_id":"5f95851e2fb47e3ec706b95f","study_id":"6197b3f67c2b5cd3b6d9596a","session_id":"619be78715fd5ba89a3a7321","condition":"contingent","relevant_dimensions":["wings","legs"],"bee_group":{"antennae":"X","wings":"2","pattern":"X","legs":"F"},"action":"avoid","summary":"bad-avoid","bonus":0.9200000000000009},{"rt":838.9000000357628,"stimulus":"\n                    <p><b>Action: <em>avoid</em></b></p>\n                    <p>This is the bee that you just saw.</p>\n                    <img src=\"bees-with-color/bee-B1SF.svg\" width=\"200\">\n                    <p><br>Your bonus pay is unchanged, and remains at $0.74.</p>\n            ","response":0,"trial_type":"html-button-response","trial_index":82,"time_elapsed":922427,"internal_node_id":"0.0-4.0-1.35","subject_id":"5f95851e2fb47e3ec706b95f","study_id":"6197b3f67c2b5cd3b6d9596a","session_id":"619be78715fd5ba89a3a7321","condition":"contingent","relevant_dimensions":["wings","legs"],"bee_group":{"antennae":"X","wings":"2","pattern":"X","legs":"F"},"bonus":0.9200000000000009},{"rt":9486.800000011921,"stimulus":"bees-with-color/bee-A2SF.svg","response":1,"trial_type":"image-button-response","trial_index":83,"time_elapsed":931915,"internal_node_id":"0.0-4.0-0.36","subject_id":"5f95851e2fb47e3ec706b95f","study_id":"6197b3f67c2b5cd3b6d9596a","session_id":"619be78715fd5ba89a3a7321","condition":"contingent","relevant_dimensions":["wings","legs"],"bee_group":{"antennae":"X","wings":"2","pattern":"X","legs":"F"},"action":"avoid","summary":"good-avoid","bonus":0.9200000000000009},{"rt":918.6999999880791,"stimulus":"\n                    <p><b>Action: <em>avoid</em></b></p>\n                    <p>This is the bee that you just saw.</p>\n                    <img src=\"bees-with-color/bee-A2SF.svg\" width=\"200\">\n                    <p><br>Your bonus pay is unchanged, and remains at $0.74.</p>\n            ","response":0,"trial_type":"html-button-response","trial_index":84,"time_elapsed":932835,"internal_node_id":"0.0-4.0-1.36","subject_id":"5f95851e2fb47e3ec706b95f","study_id":"6197b3f67c2b5cd3b6d9596a","session_id":"619be78715fd5ba89a3a7321","condition":"contingent","relevant_dimensions":["wings","legs"],"bee_group":{"antennae":"X","wings":"2","pattern":"X","legs":"F"},"bonus":0.9200000000000009},{"rt":9207.099999964237,"stimulus":"bees-with-color/bee-B2DM.svg","response":0,"trial_type":"image-button-response","trial_index":85,"time_elapsed":942044,"internal_node_id":"0.0-4.0-0.37","subject_id":"5f95851e2fb47e3ec706b95f","study_id":"6197b3f67c2b5cd3b6d9596a","session_id":"619be78715fd5ba89a3a7321","condition":"contingent","relevant_dimensions":["wings","legs"],"bee_group":{"antennae":"X","wings":"2","pattern":"X","legs":"F"},"action":"harvest","summary":"good-harvest","bonus":0.9200000000000009},{"rt":934.3000000119209,"stimulus":"\n                    <p><b>Action: <em>harvest</em></b></p>\n                    <p>This is the bee that you just saw.</p>\n                    <img src=\"bees-with-color/bee-B2DM.svg\" width=\"200\">\n                    <p><span class=\"greenText\"><b>Successful harvest!</b></span><br>Your pay has increased by $0.02. Your bonus pay is now $0.76.</p>\n            ","response":0,"trial_type":"html-button-response","trial_index":86,"time_elapsed":942979,"internal_node_id":"0.0-4.0-1.37","subject_id":"5f95851e2fb47e3ec706b95f","study_id":"6197b3f67c2b5cd3b6d9596a","session_id":"619be78715fd5ba89a3a7321","condition":"contingent","relevant_dimensions":["wings","legs"],"bee_group":{"antennae":"X","wings":"2","pattern":"X","legs":"F"},"bonus":0.9200000000000009},{"rt":5534.800000011921,"stimulus":"bees-with-color/bee-B2DF.svg","response":1,"trial_type":"image-button-response","trial_index":87,"time_elapsed":948515,"internal_node_id":"0.0-4.0-0.38","subject_id":"5f95851e2fb47e3ec706b95f","study_id":"6197b3f67c2b5cd3b6d9596a","session_id":"619be78715fd5ba89a3a7321","condition":"contingent","relevant_dimensions":["wings","legs"],"bee_group":{"antennae":"X","wings":"2","pattern":"X","legs":"F"},"action":"avoid","summary":"good-avoid","bonus":0.9200000000000009},{"rt":1039.0999999642372,"stimulus":"\n                    <p><b>Action: <em>avoid</em></b></p>\n                    <p>This is the bee that you just saw.</p>\n                    <img src=\"bees-with-color/bee-B2DF.svg\" width=\"200\">\n                    <p><br>Your bonus pay is unchanged, and remains at $0.76.</p>\n            ","response":0,"trial_type":"html-button-response","trial_index":88,"time_elapsed":949555,"internal_node_id":"0.0-4.0-1.38","subject_id":"5f95851e2fb47e3ec706b95f","study_id":"6197b3f67c2b5cd3b6d9596a","session_id":"619be78715fd5ba89a3a7321","condition":"contingent","relevant_dimensions":["wings","legs"],"bee_group":{"antennae":"X","wings":"2","pattern":"X","legs":"F"},"bonus":0.9200000000000009},{"rt":30766.30000001192,"stimulus":"bees-with-color/bee-A1DF.svg","response":0,"trial_type":"image-button-response","trial_index":89,"time_elapsed":980322,"internal_node_id":"0.0-4.0-0.39","subject_id":"5f95851e2fb47e3ec706b95f","study_id":"6197b3f67c2b5cd3b6d9596a","session_id":"619be78715fd5ba89a3a7321","condition":"contingent","relevant_dimensions":["wings","legs"],"bee_group":{"antennae":"X","wings":"2","pattern":"X","legs":"F"},"action":"harvest","summary":"good-harvest","bonus":0.9200000000000009},{"rt":7790.899999976158,"stimulus":"\n                    <p><b>Action: <em>harvest</em></b></p>\n                    <p>This is the bee that you just saw.</p>\n                    <img src=\"bees-with-color/bee-A1DF.svg\" width=\"200\">\n                    <p><span class=\"greenText\"><b>Successful harvest!</b></span><br>Your pay has increased by $0.02. Your bonus pay is now $0.78.</p>\n            ","response":0,"trial_type":"html-button-response","trial_index":90,"time_elapsed":988114,"internal_node_id":"0.0-4.0-1.39","subject_id":"5f95851e2fb47e3ec706b95f","study_id":"6197b3f67c2b5cd3b6d9596a","session_id":"619be78715fd5ba89a3a7321","condition":"contingent","relevant_dimensions":["wings","legs"],"bee_group":{"antennae":"X","wings":"2","pattern":"X","legs":"F"},"bonus":0.9200000000000009},{"rt":14470.899999976158,"stimulus":"bees-with-color/bee-B2SM.svg","response":0,"trial_type":"image-button-response","trial_index":91,"time_elapsed":1002586,"internal_node_id":"0.0-4.0-0.40","subject_id":"5f95851e2fb47e3ec706b95f","study_id":"6197b3f67c2b5cd3b6d9596a","session_id":"619be78715fd5ba89a3a7321","condition":"contingent","relevant_dimensions":["wings","legs"],"bee_group":{"antennae":"X","wings":"2","pattern":"X","legs":"F"},"action":"harvest","summary":"good-harvest","bonus":0.9200000000000009},{"rt":1070.9000000357628,"stimulus":"\n                    <p><b>Action: <em>harvest</em></b></p>\n                    <p>This is the bee that you just saw.</p>\n                    <img src=\"bees-with-color/bee-B2SM.svg\" width=\"200\">\n                    <p><span class=\"greenText\"><b>Successful harvest!</b></span><br>Your pay has increased by $0.02. Your bonus pay is now $0.80.</p>\n            ","response":0,"trial_type":"html-button-response","trial_index":92,"time_elapsed":1003658,"internal_node_id":"0.0-4.0-1.40","subject_id":"5f95851e2fb47e3ec706b95f","study_id":"6197b3f67c2b5cd3b6d9596a","session_id":"619be78715fd5ba89a3a7321","condition":"contingent","relevant_dimensions":["wings","legs"],"bee_group":{"antennae":"X","wings":"2","pattern":"X","legs":"F"},"bonus":0.9200000000000009},{"rt":8942.600000023842,"stimulus":"bees-with-color/bee-A1SF.svg","response":0,"trial_type":"image-button-response","trial_index":93,"time_elapsed":1012602,"internal_node_id":"0.0-4.0-0.41","subject_id":"5f95851e2fb47e3ec706b95f","study_id":"6197b3f67c2b5cd3b6d9596a","session_id":"619be78715fd5ba89a3a7321","condition":"contingent","relevant_dimensions":["wings","legs"],"bee_group":{"antennae":"X","wings":"2","pattern":"X","legs":"F"},"action":"harvest","summary":"good-harvest","bonus":0.9200000000000009},{"rt":671,"stimulus":"\n                    <p><b>Action: <em>harvest</em></b></p>\n                    <p>This is the bee that you just saw.</p>\n                    <img src=\"bees-with-color/bee-A1SF.svg\" width=\"200\">\n                    <p><span class=\"greenText\"><b>Successful harvest!</b></span><br>Your pay has increased by $0.02. Your bonus pay is now $0.82.</p>\n            ","response":0,"trial_type":"html-button-response","trial_index":94,"time_elapsed":1013274,"internal_node_id":"0.0-4.0-1.41","subject_id":"5f95851e2fb47e3ec706b95f","study_id":"6197b3f67c2b5cd3b6d9596a","session_id":"619be78715fd5ba89a3a7321","condition":"contingent","relevant_dimensions":["wings","legs"],"bee_group":{"antennae":"X","wings":"2","pattern":"X","legs":"F"},"bonus":0.9200000000000009},{"rt":9054.599999964237,"stimulus":"bees-with-color/bee-B2SF.svg","response":1,"trial_type":"image-button-response","trial_index":95,"time_elapsed":1022330,"internal_node_id":"0.0-4.0-0.42","subject_id":"5f95851e2fb47e3ec706b95f","study_id":"6197b3f67c2b5cd3b6d9596a","session_id":"619be78715fd5ba89a3a7321","condition":"contingent","relevant_dimensions":["wings","legs"],"bee_group":{"antennae":"X","wings":"2","pattern":"X","legs":"F"},"action":"avoid","summary":"good-avoid","bonus":0.9200000000000009},{"rt":854.8999999761581,"stimulus":"\n                    <p><b>Action: <em>avoid</em></b></p>\n                    <p>This is the bee that you just saw.</p>\n                    <img src=\"bees-with-color/bee-B2SF.svg\" width=\"200\">\n                    <p><br>Your bonus pay is unchanged, and remains at $0.82.</p>\n            ","response":0,"trial_type":"html-button-response","trial_index":96,"time_elapsed":1023186,"internal_node_id":"0.0-4.0-1.42","subject_id":"5f95851e2fb47e3ec706b95f","study_id":"6197b3f67c2b5cd3b6d9596a","session_id":"619be78715fd5ba89a3a7321","condition":"contingent","relevant_dimensions":["wings","legs"],"bee_group":{"antennae":"X","wings":"2","pattern":"X","legs":"F"},"bonus":0.9200000000000009},{"rt":14710.699999988079,"stimulus":"bees-with-color/bee-B1DF.svg","response":0,"trial_type":"image-button-response","trial_index":97,"time_elapsed":1037898,"internal_node_id":"0.0-4.0-0.43","subject_id":"5f95851e2fb47e3ec706b95f","study_id":"6197b3f67c2b5cd3b6d9596a","session_id":"619be78715fd5ba89a3a7321","condition":"contingent","relevant_dimensions":["wings","legs"],"bee_group":{"antennae":"X","wings":"2","pattern":"X","legs":"F"},"action":"harvest","summary":"good-harvest","bonus":0.9200000000000009},{"rt":806.8000000119209,"stimulus":"\n                    <p><b>Action: <em>harvest</em></b></p>\n                    <p>This is the bee that you just saw.</p>\n                    <img src=\"bees-with-color/bee-B1DF.svg\" width=\"200\">\n                    <p><span class=\"greenText\"><b>Successful harvest!</b></span><br>Your pay has increased by $0.02. Your bonus pay is now $0.84.</p>\n            ","response":0,"trial_type":"html-button-response","trial_index":98,"time_elapsed":1038706,"internal_node_id":"0.0-4.0-1.43","subject_id":"5f95851e2fb47e3ec706b95f","study_id":"6197b3f67c2b5cd3b6d9596a","session_id":"619be78715fd5ba89a3a7321","condition":"contingent","relevant_dimensions":["wings","legs"],"bee_group":{"antennae":"X","wings":"2","pattern":"X","legs":"F"},"bonus":0.9200000000000009},{"rt":13838.5,"stimulus":"bees-with-color/bee-A2DF.svg","response":1,"trial_type":"image-button-response","trial_index":99,"time_elapsed":1052546,"internal_node_id":"0.0-4.0-0.44","subject_id":"5f95851e2fb47e3ec706b95f","study_id":"6197b3f67c2b5cd3b6d9596a","session_id":"619be78715fd5ba89a3a7321","condition":"contingent","relevant_dimensions":["wings","legs"],"bee_group":{"antennae":"X","wings":"2","pattern":"X","legs":"F"},"action":"avoid","summary":"good-avoid","bonus":0.9200000000000009},{"rt":790.9000000357628,"stimulus":"\n                    <p><b>Action: <em>avoid</em></b></p>\n                    <p>This is the bee that you just saw.</p>\n                    <img src=\"bees-with-color/bee-A2DF.svg\" width=\"200\">\n                    <p><br>Your bonus pay is unchanged, and remains at $0.84.</p>\n            ","response":0,"trial_type":"html-button-response","trial_index":100,"time_elapsed":1053338,"internal_node_id":"0.0-4.0-1.44","subject_id":"5f95851e2fb47e3ec706b95f","study_id":"6197b3f67c2b5cd3b6d9596a","session_id":"619be78715fd5ba89a3a7321","condition":"contingent","relevant_dimensions":["wings","legs"],"bee_group":{"antennae":"X","wings":"2","pattern":"X","legs":"F"},"bonus":0.9200000000000009},{"rt":27662.69999998808,"stimulus":"bees-with-color/bee-A2DM.svg","response":1,"trial_type":"image-button-response","trial_index":101,"time_elapsed":1081002,"internal_node_id":"0.0-4.0-0.45","subject_id":"5f95851e2fb47e3ec706b95f","study_id":"6197b3f67c2b5cd3b6d9596a","session_id":"619be78715fd5ba89a3a7321","condition":"contingent","relevant_dimensions":["wings","legs"],"bee_group":{"antennae":"X","wings":"2","pattern":"X","legs":"F"},"action":"avoid","summary":"bad-avoid","bonus":0.9200000000000009},{"rt":2278.199999988079,"stimulus":"\n                    <p><b>Action: <em>avoid</em></b></p>\n                    <p>This is the bee that you just saw.</p>\n                    <img src=\"bees-with-color/bee-A2DM.svg\" width=\"200\">\n                    <p><br>Your bonus pay is unchanged, and remains at $0.84.</p>\n            ","response":0,"trial_type":"html-button-response","trial_index":102,"time_elapsed":1083282,"internal_node_id":"0.0-4.0-1.45","subject_id":"5f95851e2fb47e3ec706b95f","study_id":"6197b3f67c2b5cd3b6d9596a","session_id":"619be78715fd5ba89a3a7321","condition":"contingent","relevant_dimensions":["wings","legs"],"bee_group":{"antennae":"X","wings":"2","pattern":"X","legs":"F"},"bonus":0.9200000000000009},{"rt":43230.69999998808,"stimulus":"bees-with-color/bee-A1DM.svg","response":0,"trial_type":"image-button-response","trial_index":103,"time_elapsed":1126514,"internal_node_id":"0.0-4.0-0.46","subject_id":"5f95851e2fb47e3ec706b95f","study_id":"6197b3f67c2b5cd3b6d9596a","session_id":"619be78715fd5ba89a3a7321","condition":"contingent","relevant_dimensions":["wings","legs"],"bee_group":{"antennae":"X","wings":"2","pattern":"X","legs":"F"},"action":"harvest","summary":"good-harvest","bonus":0.9200000000000009},{"rt":2711.199999988079,"stimulus":"\n                    <p><b>Action: <em>harvest</em></b></p>\n                    <p>This is the bee that you just saw.</p>\n                    <img src=\"bees-with-color/bee-A1DM.svg\" width=\"200\">\n                    <p><span class=\"greenText\"><b>Successful harvest!</b></span><br>Your pay has increased by $0.02. Your bonus pay is now $0.86.</p>\n            ","response":0,"trial_type":"html-button-response","trial_index":104,"time_elapsed":1129227,"internal_node_id":"0.0-4.0-1.46","subject_id":"5f95851e2fb47e3ec706b95f","study_id":"6197b3f67c2b5cd3b6d9596a","session_id":"619be78715fd5ba89a3a7321","condition":"contingent","relevant_dimensions":["wings","legs"],"bee_group":{"antennae":"X","wings":"2","pattern":"X","legs":"F"},"bonus":0.9200000000000009},{"rt":7126.699999988079,"stimulus":"bees-with-color/bee-A2SM.svg","response":1,"trial_type":"image-button-response","trial_index":105,"time_elapsed":1136354,"internal_node_id":"0.0-4.0-0.47","subject_id":"5f95851e2fb47e3ec706b95f","study_id":"6197b3f67c2b5cd3b6d9596a","session_id":"619be78715fd5ba89a3a7321","condition":"contingent","relevant_dimensions":["wings","legs"],"bee_group":{"antennae":"X","wings":"2","pattern":"X","legs":"F"},"action":"avoid","summary":"bad-avoid","bonus":0.9200000000000009},{"rt":879.1000000238419,"stimulus":"\n                    <p><b>Action: <em>avoid</em></b></p>\n                    <p>This is the bee that you just saw.</p>\n                    <img src=\"bees-with-color/bee-A2SM.svg\" width=\"200\">\n                    <p><br>Your bonus pay is unchanged, and remains at $0.86.</p>\n            ","response":0,"trial_type":"html-button-response","trial_index":106,"time_elapsed":1137234,"internal_node_id":"0.0-4.0-1.47","subject_id":"5f95851e2fb47e3ec706b95f","study_id":"6197b3f67c2b5cd3b6d9596a","session_id":"619be78715fd5ba89a3a7321","condition":"contingent","relevant_dimensions":["wings","legs"],"bee_group":{"antennae":"X","wings":"2","pattern":"X","legs":"F"},"bonus":0.9200000000000009},{"rt":9942.900000035763,"stimulus":"bees-with-color/bee-B2SM.svg","response":0,"trial_type":"image-button-response","trial_index":107,"time_elapsed":1147178,"internal_node_id":"0.0-4.0-0.48","subject_id":"5f95851e2fb47e3ec706b95f","study_id":"6197b3f67c2b5cd3b6d9596a","session_id":"619be78715fd5ba89a3a7321","condition":"contingent","relevant_dimensions":["wings","legs"],"bee_group":{"antennae":"X","wings":"2","pattern":"X","legs":"F"},"action":"harvest","summary":"good-harvest","bonus":0.9200000000000009},{"rt":1727,"stimulus":"\n                    <p><b>Action: <em>harvest</em></b></p>\n                    <p>This is the bee that you just saw.</p>\n                    <img src=\"bees-with-color/bee-B2SM.svg\" width=\"200\">\n                    <p><span class=\"greenText\"><b>Successful harvest!</b></span><br>Your pay has increased by $0.02. Your bonus pay is now $0.88.</p>\n            ","response":0,"trial_type":"html-button-response","trial_index":108,"time_elapsed":1148906,"internal_node_id":"0.0-4.0-1.48","subject_id":"5f95851e2fb47e3ec706b95f","study_id":"6197b3f67c2b5cd3b6d9596a","session_id":"619be78715fd5ba89a3a7321","condition":"contingent","relevant_dimensions":["wings","legs"],"bee_group":{"antennae":"X","wings":"2","pattern":"X","legs":"F"},"bonus":0.9200000000000009},{"rt":18942.900000035763,"stimulus":"bees-with-color/bee-A1DM.svg","response":0,"trial_type":"image-button-response","trial_index":109,"time_elapsed":1167850,"internal_node_id":"0.0-4.0-0.49","subject_id":"5f95851e2fb47e3ec706b95f","study_id":"6197b3f67c2b5cd3b6d9596a","session_id":"619be78715fd5ba89a3a7321","condition":"contingent","relevant_dimensions":["wings","legs"],"bee_group":{"antennae":"X","wings":"2","pattern":"X","legs":"F"},"action":"harvest","summary":"good-harvest","bonus":0.9200000000000009},{"rt":775.1999999880791,"stimulus":"\n                    <p><b>Action: <em>harvest</em></b></p>\n                    <p>This is the bee that you just saw.</p>\n                    <img src=\"bees-with-color/bee-A1DM.svg\" width=\"200\">\n                    <p><span class=\"greenText\"><b>Successful harvest!</b></span><br>Your pay has increased by $0.02. Your bonus pay is now $0.90.</p>\n            ","response":0,"trial_type":"html-button-response","trial_index":110,"time_elapsed":1168626,"internal_node_id":"0.0-4.0-1.49","subject_id":"5f95851e2fb47e3ec706b95f","study_id":"6197b3f67c2b5cd3b6d9596a","session_id":"619be78715fd5ba89a3a7321","condition":"contingent","relevant_dimensions":["wings","legs"],"bee_group":{"antennae":"X","wings":"2","pattern":"X","legs":"F"},"bonus":0.9200000000000009},{"rt":12631,"stimulus":"bees-with-color/bee-A2SM.svg","response":1,"trial_type":"image-button-response","trial_index":111,"time_elapsed":1181258,"internal_node_id":"0.0-4.0-0.50","subject_id":"5f95851e2fb47e3ec706b95f","study_id":"6197b3f67c2b5cd3b6d9596a","session_id":"619be78715fd5ba89a3a7321","condition":"contingent","relevant_dimensions":["wings","legs"],"bee_group":{"antennae":"X","wings":"2","pattern":"X","legs":"F"},"action":"avoid","summary":"bad-avoid","bonus":0.9200000000000009},{"rt":1031,"stimulus":"\n                    <p><b>Action: <em>avoid</em></b></p>\n                    <p>This is the bee that you just saw.</p>\n                    <img src=\"bees-with-color/bee-A2SM.svg\" width=\"200\">\n                    <p><br>Your bonus pay is unchanged, and remains at $0.90.</p>\n            ","response":0,"trial_type":"html-button-response","trial_index":112,"time_elapsed":1182290,"internal_node_id":"0.0-4.0-1.50","subject_id":"5f95851e2fb47e3ec706b95f","study_id":"6197b3f67c2b5cd3b6d9596a","session_id":"619be78715fd5ba89a3a7321","condition":"contingent","relevant_dimensions":["wings","legs"],"bee_group":{"antennae":"X","wings":"2","pattern":"X","legs":"F"},"bonus":0.9200000000000009},{"rt":15278.899999976158,"stimulus":"bees-with-color/bee-A1SF.svg","response":0,"trial_type":"image-button-response","trial_index":113,"time_elapsed":1197570,"internal_node_id":"0.0-4.0-0.51","subject_id":"5f95851e2fb47e3ec706b95f","study_id":"6197b3f67c2b5cd3b6d9596a","session_id":"619be78715fd5ba89a3a7321","condition":"contingent","relevant_dimensions":["wings","legs"],"bee_group":{"antennae":"X","wings":"2","pattern":"X","legs":"F"},"action":"harvest","summary":"good-harvest","bonus":0.9200000000000009},{"rt":1087.199999988079,"stimulus":"\n                    <p><b>Action: <em>harvest</em></b></p>\n                    <p>This is the bee that you just saw.</p>\n                    <img src=\"bees-with-color/bee-A1SF.svg\" width=\"200\">\n                    <p><span class=\"greenText\"><b>Successful harvest!</b></span><br>Your pay has increased by $0.02. Your bonus pay is now $0.92.</p>\n            ","response":0,"trial_type":"html-button-response","trial_index":114,"time_elapsed":1198658,"internal_node_id":"0.0-4.0-1.51","subject_id":"5f95851e2fb47e3ec706b95f","study_id":"6197b3f67c2b5cd3b6d9596a","session_id":"619be78715fd5ba89a3a7321","condition":"contingent","relevant_dimensions":["wings","legs"],"bee_group":{"antennae":"X","wings":"2","pattern":"X","legs":"F"},"bonus":0.9200000000000009},{"rt":11782.800000011921,"stimulus":"bees-with-color/bee-B2DM.svg","response":0,"trial_type":"image-button-response","trial_index":115,"time_elapsed":1210442,"internal_node_id":"0.0-4.0-0.52","subject_id":"5f95851e2fb47e3ec706b95f","study_id":"6197b3f67c2b5cd3b6d9596a","session_id":"619be78715fd5ba89a3a7321","condition":"contingent","relevant_dimensions":["wings","legs"],"bee_group":{"antennae":"X","wings":"2","pattern":"X","legs":"F"},"action":"harvest","summary":"good-harvest","bonus":0.9200000000000009},{"rt":670.8999999761581,"stimulus":"\n                    <p><b>Action: <em>harvest</em></b></p>\n                    <p>This is the bee that you just saw.</p>\n                    <img src=\"bees-with-color/bee-B2DM.svg\" width=\"200\">\n                    <p><span class=\"greenText\"><b>Successful harvest!</b></span><br>Your pay has increased by $0.02. Your bonus pay is now $0.94.</p>\n            ","response":0,"trial_type":"html-button-response","trial_index":116,"time_elapsed":1211114,"internal_node_id":"0.0-4.0-1.52","subject_id":"5f95851e2fb47e3ec706b95f","study_id":"6197b3f67c2b5cd3b6d9596a","session_id":"619be78715fd5ba89a3a7321","condition":"contingent","relevant_dimensions":["wings","legs"],"bee_group":{"antennae":"X","wings":"2","pattern":"X","legs":"F"},"bonus":0.9200000000000009},{"rt":10302.899999976158,"stimulus":"bees-with-color/bee-A2SF.svg","response":1,"trial_type":"image-button-response","trial_index":117,"time_elapsed":1221418,"internal_node_id":"0.0-4.0-0.53","subject_id":"5f95851e2fb47e3ec706b95f","study_id":"6197b3f67c2b5cd3b6d9596a","session_id":"619be78715fd5ba89a3a7321","condition":"contingent","relevant_dimensions":["wings","legs"],"bee_group":{"antennae":"X","wings":"2","pattern":"X","legs":"F"},"action":"avoid","summary":"good-avoid","bonus":0.9200000000000009},{"rt":631.1000000238419,"stimulus":"\n                    <p><b>Action: <em>avoid</em></b></p>\n                    <p>This is the bee that you just saw.</p>\n                    <img src=\"bees-with-color/bee-A2SF.svg\" width=\"200\">\n                    <p><br>Your bonus pay is unchanged, and remains at $0.94.</p>\n            ","response":0,"trial_type":"html-button-response","trial_index":118,"time_elapsed":1222050,"internal_node_id":"0.0-4.0-1.53","subject_id":"5f95851e2fb47e3ec706b95f","study_id":"6197b3f67c2b5cd3b6d9596a","session_id":"619be78715fd5ba89a3a7321","condition":"contingent","relevant_dimensions":["wings","legs"],"bee_group":{"antennae":"X","wings":"2","pattern":"X","legs":"F"},"bonus":0.9200000000000009},{"rt":15022.600000023842,"stimulus":"bees-with-color/bee-B1DF.svg","response":0,"trial_type":"image-button-response","trial_index":119,"time_elapsed":1237075,"internal_node_id":"0.0-4.0-0.54","subject_id":"5f95851e2fb47e3ec706b95f","study_id":"6197b3f67c2b5cd3b6d9596a","session_id":"619be78715fd5ba89a3a7321","condition":"contingent","relevant_dimensions":["wings","legs"],"bee_group":{"antennae":"X","wings":"2","pattern":"X","legs":"F"},"action":"harvest","summary":"good-harvest","bonus":0.9200000000000009},{"rt":871.0999999642372,"stimulus":"\n                    <p><b>Action: <em>harvest</em></b></p>\n                    <p>This is the bee that you just saw.</p>\n                    <img src=\"bees-with-color/bee-B1DF.svg\" width=\"200\">\n                    <p><span class=\"greenText\"><b>Successful harvest!</b></span><br>Your pay has increased by $0.02. Your bonus pay is now $0.96.</p>\n            ","response":0,"trial_type":"html-button-response","trial_index":120,"time_elapsed":1237947,"internal_node_id":"0.0-4.0-1.54","subject_id":"5f95851e2fb47e3ec706b95f","study_id":"6197b3f67c2b5cd3b6d9596a","session_id":"619be78715fd5ba89a3a7321","condition":"contingent","relevant_dimensions":["wings","legs"],"bee_group":{"antennae":"X","wings":"2","pattern":"X","legs":"F"},"bonus":0.9200000000000009},{"rt":12190.699999988079,"stimulus":"bees-with-color/bee-A2DF.svg","response":1,"trial_type":"image-button-response","trial_index":121,"time_elapsed":1250139,"internal_node_id":"0.0-4.0-0.55","subject_id":"5f95851e2fb47e3ec706b95f","study_id":"6197b3f67c2b5cd3b6d9596a","session_id":"619be78715fd5ba89a3a7321","condition":"contingent","relevant_dimensions":["wings","legs"],"bee_group":{"antennae":"X","wings":"2","pattern":"X","legs":"F"},"action":"avoid","summary":"good-avoid","bonus":0.9200000000000009},{"rt":623.0999999642372,"stimulus":"\n                    <p><b>Action: <em>avoid</em></b></p>\n                    <p>This is the bee that you just saw.</p>\n                    <img src=\"bees-with-color/bee-A2DF.svg\" width=\"200\">\n                    <p><br>Your bonus pay is unchanged, and remains at $0.96.</p>\n            ","response":0,"trial_type":"html-button-response","trial_index":122,"time_elapsed":1250763,"internal_node_id":"0.0-4.0-1.55","subject_id":"5f95851e2fb47e3ec706b95f","study_id":"6197b3f67c2b5cd3b6d9596a","session_id":"619be78715fd5ba89a3a7321","condition":"contingent","relevant_dimensions":["wings","legs"],"bee_group":{"antennae":"X","wings":"2","pattern":"X","legs":"F"},"bonus":0.9200000000000009},{"rt":3534.400000035763,"stimulus":"bees-with-color/bee-A1SM.svg","response":0,"trial_type":"image-button-response","trial_index":123,"time_elapsed":1254299,"internal_node_id":"0.0-4.0-0.56","subject_id":"5f95851e2fb47e3ec706b95f","study_id":"6197b3f67c2b5cd3b6d9596a","session_id":"619be78715fd5ba89a3a7321","condition":"contingent","relevant_dimensions":["wings","legs"],"bee_group":{"antennae":"X","wings":"2","pattern":"X","legs":"F"},"action":"harvest","summary":"good-harvest","bonus":0.9200000000000009},{"rt":734.9000000357628,"stimulus":"\n                    <p><b>Action: <em>harvest</em></b></p>\n                    <p>This is the bee that you just saw.</p>\n                    <img src=\"bees-with-color/bee-A1SM.svg\" width=\"200\">\n                    <p><span class=\"greenText\"><b>Successful harvest!</b></span><br>Your pay has increased by $0.02. Your bonus pay is now $0.98.</p>\n            ","response":0,"trial_type":"html-button-response","trial_index":124,"time_elapsed":1255035,"internal_node_id":"0.0-4.0-1.56","subject_id":"5f95851e2fb47e3ec706b95f","study_id":"6197b3f67c2b5cd3b6d9596a","session_id":"619be78715fd5ba89a3a7321","condition":"contingent","relevant_dimensions":["wings","legs"],"bee_group":{"antennae":"X","wings":"2","pattern":"X","legs":"F"},"bonus":0.9200000000000009},{"rt":15302.800000011921,"stimulus":"bees-with-color/bee-A2DM.svg","response":1,"trial_type":"image-button-response","trial_index":125,"time_elapsed":1270339,"internal_node_id":"0.0-4.0-0.57","subject_id":"5f95851e2fb47e3ec706b95f","study_id":"6197b3f67c2b5cd3b6d9596a","session_id":"619be78715fd5ba89a3a7321","condition":"contingent","relevant_dimensions":["wings","legs"],"bee_group":{"antennae":"X","wings":"2","pattern":"X","legs":"F"},"action":"avoid","summary":"bad-avoid","bonus":0.9200000000000009},{"rt":719,"stimulus":"\n                    <p><b>Action: <em>avoid</em></b></p>\n                    <p>This is the bee that you just saw.</p>\n                    <img src=\"bees-with-color/bee-A2DM.svg\" width=\"200\">\n                    <p><br>Your bonus pay is unchanged, and remains at $0.98.</p>\n            ","response":0,"trial_type":"html-button-response","trial_index":126,"time_elapsed":1271059,"internal_node_id":"0.0-4.0-1.57","subject_id":"5f95851e2fb47e3ec706b95f","study_id":"6197b3f67c2b5cd3b6d9596a","session_id":"619be78715fd5ba89a3a7321","condition":"contingent","relevant_dimensions":["wings","legs"],"bee_group":{"antennae":"X","wings":"2","pattern":"X","legs":"F"},"bonus":0.9200000000000009},{"rt":19038.69999998808,"stimulus":"bees-with-color/bee-B1SM.svg","response":0,"trial_type":"image-button-response","trial_index":127,"time_elapsed":1290099,"internal_node_id":"0.0-4.0-0.58","subject_id":"5f95851e2fb47e3ec706b95f","study_id":"6197b3f67c2b5cd3b6d9596a","session_id":"619be78715fd5ba89a3a7321","condition":"contingent","relevant_dimensions":["wings","legs"],"bee_group":{"antennae":"X","wings":"2","pattern":"X","legs":"F"},"action":"harvest","summary":"good-harvest","bonus":0.9200000000000009},{"rt":1022.8000000119209,"stimulus":"\n                    <p><b>Action: <em>harvest</em></b></p>\n                    <p>This is the bee that you just saw.</p>\n                    <img src=\"bees-with-color/bee-B1SM.svg\" width=\"200\">\n                    <p><span class=\"greenText\"><b>Successful harvest!</b></span><br>Your pay has increased by $0.02. Your bonus pay is now $1.00.</p>\n            ","response":0,"trial_type":"html-button-response","trial_index":128,"time_elapsed":1291123,"internal_node_id":"0.0-4.0-1.58","subject_id":"5f95851e2fb47e3ec706b95f","study_id":"6197b3f67c2b5cd3b6d9596a","session_id":"619be78715fd5ba89a3a7321","condition":"contingent","relevant_dimensions":["wings","legs"],"bee_group":{"antennae":"X","wings":"2","pattern":"X","legs":"F"},"bonus":0.9200000000000009},{"rt":12591,"stimulus":"bees-with-color/bee-B2SF.svg","response":1,"trial_type":"image-button-response","trial_index":129,"time_elapsed":1303715,"internal_node_id":"0.0-4.0-0.59","subject_id":"5f95851e2fb47e3ec706b95f","study_id":"6197b3f67c2b5cd3b6d9596a","session_id":"619be78715fd5ba89a3a7321","condition":"contingent","relevant_dimensions":["wings","legs"],"bee_group":{"antennae":"X","wings":"2","pattern":"X","legs":"F"},"action":"avoid","summary":"good-avoid","bonus":0.9200000000000009},{"rt":870.6999999880791,"stimulus":"\n                    <p><b>Action: <em>avoid</em></b></p>\n                    <p>This is the bee that you just saw.</p>\n                    <img src=\"bees-with-color/bee-B2SF.svg\" width=\"200\">\n                    <p><br>Your bonus pay is unchanged, and remains at $1.00.</p>\n            ","response":0,"trial_type":"html-button-response","trial_index":130,"time_elapsed":1304586,"internal_node_id":"0.0-4.0-1.59","subject_id":"5f95851e2fb47e3ec706b95f","study_id":"6197b3f67c2b5cd3b6d9596a","session_id":"619be78715fd5ba89a3a7321","condition":"contingent","relevant_dimensions":["wings","legs"],"bee_group":{"antennae":"X","wings":"2","pattern":"X","legs":"F"},"bonus":0.9200000000000009},{"rt":22838.69999998808,"stimulus":"bees-with-color/bee-A1DF.svg","response":0,"trial_type":"image-button-response","trial_index":131,"time_elapsed":1327427,"internal_node_id":"0.0-4.0-0.60","subject_id":"5f95851e2fb47e3ec706b95f","study_id":"6197b3f67c2b5cd3b6d9596a","session_id":"619be78715fd5ba89a3a7321","condition":"contingent","relevant_dimensions":["wings","legs"],"bee_group":{"antennae":"X","wings":"2","pattern":"X","legs":"F"},"action":"harvest","summary":"good-harvest","bonus":0.9200000000000009},{"rt":878.8000000119209,"stimulus":"\n                    <p><b>Action: <em>harvest</em></b></p>\n                    <p>This is the bee that you just saw.</p>\n                    <img src=\"bees-with-color/bee-A1DF.svg\" width=\"200\">\n                    <p><span class=\"greenText\"><b>Successful harvest!</b></span><br>Your pay has increased by $0.02. Your bonus pay is now $1.02.</p>\n            ","response":0,"trial_type":"html-button-response","trial_index":132,"time_elapsed":1328307,"internal_node_id":"0.0-4.0-1.60","subject_id":"5f95851e2fb47e3ec706b95f","study_id":"6197b3f67c2b5cd3b6d9596a","session_id":"619be78715fd5ba89a3a7321","condition":"contingent","relevant_dimensions":["wings","legs"],"bee_group":{"antennae":"X","wings":"2","pattern":"X","legs":"F"},"bonus":0.9200000000000009},{"rt":6510.5,"stimulus":"bees-with-color/bee-B1DM.svg","response":0,"trial_type":"image-button-response","trial_index":133,"time_elapsed":1334819,"internal_node_id":"0.0-4.0-0.61","subject_id":"5f95851e2fb47e3ec706b95f","study_id":"6197b3f67c2b5cd3b6d9596a","session_id":"619be78715fd5ba89a3a7321","condition":"contingent","relevant_dimensions":["wings","legs"],"bee_group":{"antennae":"X","wings":"2","pattern":"X","legs":"F"},"action":"harvest","summary":"good-harvest","bonus":0.9200000000000009},{"rt":734.8999999761581,"stimulus":"\n                    <p><b>Action: <em>harvest</em></b></p>\n                    <p>This is the bee that you just saw.</p>\n                    <img src=\"bees-with-color/bee-B1DM.svg\" width=\"200\">\n                    <p><span class=\"greenText\"><b>Successful harvest!</b></span><br>Your pay has increased by $0.02. Your bonus pay is now $1.04.</p>\n            ","response":0,"trial_type":"html-button-response","trial_index":134,"time_elapsed":1335555,"internal_node_id":"0.0-4.0-1.61","subject_id":"5f95851e2fb47e3ec706b95f","study_id":"6197b3f67c2b5cd3b6d9596a","session_id":"619be78715fd5ba89a3a7321","condition":"contingent","relevant_dimensions":["wings","legs"],"bee_group":{"antennae":"X","wings":"2","pattern":"X","legs":"F"},"bonus":0.9200000000000009},{"rt":18926.600000023842,"stimulus":"bees-with-color/bee-B2DF.svg","response":1,"trial_type":"image-button-response","trial_index":135,"time_elapsed":1354483,"internal_node_id":"0.0-4.0-0.62","subject_id":"5f95851e2fb47e3ec706b95f","study_id":"6197b3f67c2b5cd3b6d9596a","session_id":"619be78715fd5ba89a3a7321","condition":"contingent","relevant_dimensions":["wings","legs"],"bee_group":{"antennae":"X","wings":"2","pattern":"X","legs":"F"},"action":"avoid","summary":"good-avoid","bonus":0.9200000000000009},{"rt":782.5,"stimulus":"\n                    <p><b>Action: <em>avoid</em></b></p>\n                    <p>This is the bee that you just saw.</p>\n                    <img src=\"bees-with-color/bee-B2DF.svg\" width=\"200\">\n                    <p><br>Your bonus pay is unchanged, and remains at $1.04.</p>\n            ","response":0,"trial_type":"html-button-response","trial_index":136,"time_elapsed":1355267,"internal_node_id":"0.0-4.0-1.62","subject_id":"5f95851e2fb47e3ec706b95f","study_id":"6197b3f67c2b5cd3b6d9596a","session_id":"619be78715fd5ba89a3a7321","condition":"contingent","relevant_dimensions":["wings","legs"],"bee_group":{"antennae":"X","wings":"2","pattern":"X","legs":"F"},"bonus":0.9200000000000009},{"rt":7998.799999952316,"stimulus":"bees-with-color/bee-B1SF.svg","response":1,"trial_type":"image-button-response","trial_index":137,"time_elapsed":1363267,"internal_node_id":"0.0-4.0-0.63","subject_id":"5f95851e2fb47e3ec706b95f","study_id":"6197b3f67c2b5cd3b6d9596a","session_id":"619be78715fd5ba89a3a7321","condition":"contingent","relevant_dimensions":["wings","legs"],"bee_group":{"antennae":"X","wings":"2","pattern":"X","legs":"F"},"action":"avoid","summary":"bad-avoid","bonus":0.9200000000000009},{"rt":902.8999999761581,"stimulus":"\n                    <p><b>Action: <em>avoid</em></b></p>\n                    <p>This is the bee that you just saw.</p>\n                    <img src=\"bees-with-color/bee-B1SF.svg\" width=\"200\">\n                    <p><br>Your bonus pay is unchanged, and remains at $1.04.</p>\n            ","response":0,"trial_type":"html-button-response","trial_index":138,"time_elapsed":1364171,"internal_node_id":"0.0-4.0-1.63","subject_id":"5f95851e2fb47e3ec706b95f","study_id":"6197b3f67c2b5cd3b6d9596a","session_id":"619be78715fd5ba89a3a7321","condition":"contingent","relevant_dimensions":["wings","legs"],"bee_group":{"antennae":"X","wings":"2","pattern":"X","legs":"F"},"bonus":0.9200000000000009},{"rt":12448.5,"stimulus":"You have completed the first part of this experiment.<br><br>You will now begin a shorter second part, in which you will receive no feedback.<br>The same rules regarding bonus pay apply.<br><br>Press any key to begin.","response":" ","trial_type":"html-keyboard-response","trial_index":139,"time_elapsed":1376620,"internal_node_id":"0.0-5.0","subject_id":"5f95851e2fb47e3ec706b95f","study_id":"6197b3f67c2b5cd3b6d9596a","session_id":"619be78715fd5ba89a3a7321","condition":"contingent","relevant_dimensions":["wings","legs"],"bee_group":{"antennae":"X","wings":"2","pattern":"X","legs":"F"},"bonus":0.9200000000000009},{"rt":50101.39999997616,"stimulus":"bees-with-color/bee-B1DF.svg","response":0,"trial_type":"image-button-response","trial_index":140,"time_elapsed":1426731,"internal_node_id":"0.0-6.0-0.0","subject_id":"5f95851e2fb47e3ec706b95f","study_id":"6197b3f67c2b5cd3b6d9596a","session_id":"619be78715fd5ba89a3a7321","condition":"contingent","relevant_dimensions":["wings","legs"],"bee_group":{"antennae":"X","wings":"2","pattern":"X","legs":"F"},"bonus":0.9200000000000009},{"rt":14070,"stimulus":"bees-with-color/bee-B2SF.svg","response":0,"trial_type":"image-button-response","trial_index":141,"time_elapsed":1440803,"internal_node_id":"0.0-6.0-0.1","subject_id":"5f95851e2fb47e3ec706b95f","study_id":"6197b3f67c2b5cd3b6d9596a","session_id":"619be78715fd5ba89a3a7321","condition":"contingent","relevant_dimensions":["wings","legs"],"bee_group":{"antennae":"X","wings":"2","pattern":"X","legs":"F"},"bonus":0.9200000000000009},{"rt":1414.3999999761581,"stimulus":"bees-with-color/bee-A2SF.svg","response":1,"trial_type":"image-button-response","trial_index":142,"time_elapsed":1442219,"internal_node_id":"0.0-6.0-0.2","subject_id":"5f95851e2fb47e3ec706b95f","study_id":"6197b3f67c2b5cd3b6d9596a","session_id":"619be78715fd5ba89a3a7321","condition":"contingent","relevant_dimensions":["wings","legs"],"bee_group":{"antennae":"X","wings":"2","pattern":"X","legs":"F"},"bonus":0.9200000000000009},{"rt":1510.699999988079,"stimulus":"bees-with-color/bee-B2DM.svg","response":0,"trial_type":"image-button-response","trial_index":143,"time_elapsed":1443731,"internal_node_id":"0.0-6.0-0.3","subject_id":"5f95851e2fb47e3ec706b95f","study_id":"6197b3f67c2b5cd3b6d9596a","session_id":"619be78715fd5ba89a3a7321","condition":"contingent","relevant_dimensions":["wings","legs"],"bee_group":{"antennae":"X","wings":"2","pattern":"X","legs":"F"},"bonus":0.9200000000000009},{"rt":646.6999999880791,"stimulus":"bees-with-color/bee-A1SF.svg","response":0,"trial_type":"image-button-response","trial_index":144,"time_elapsed":1444379,"internal_node_id":"0.0-6.0-0.4","subject_id":"5f95851e2fb47e3ec706b95f","study_id":"6197b3f67c2b5cd3b6d9596a","session_id":"619be78715fd5ba89a3a7321","condition":"contingent","relevant_dimensions":["wings","legs"],"bee_group":{"antennae":"X","wings":"2","pattern":"X","legs":"F"},"bonus":0.9200000000000009},{"rt":1606.8999999761581,"stimulus":"bees-with-color/bee-B1SF.svg","response":1,"trial_type":"image-button-response","trial_index":145,"time_elapsed":1445987,"internal_node_id":"0.0-6.0-0.5","subject_id":"5f95851e2fb47e3ec706b95f","study_id":"6197b3f67c2b5cd3b6d9596a","session_id":"619be78715fd5ba89a3a7321","condition":"contingent","relevant_dimensions":["wings","legs"],"bee_group":{"antennae":"X","wings":"2","pattern":"X","legs":"F"},"bonus":0.9200000000000009},{"rt":1206.5999999642372,"stimulus":"bees-with-color/bee-A2DM.svg","response":1,"trial_type":"image-button-response","trial_index":146,"time_elapsed":1447195,"internal_node_id":"0.0-6.0-0.6","subject_id":"5f95851e2fb47e3ec706b95f","study_id":"6197b3f67c2b5cd3b6d9596a","session_id":"619be78715fd5ba89a3a7321","condition":"contingent","relevant_dimensions":["wings","legs"],"bee_group":{"antennae":"X","wings":"2","pattern":"X","legs":"F"},"bonus":0.9200000000000009},{"rt":1614.800000011921,"stimulus":"bees-with-color/bee-A1DF.svg","response":0,"trial_type":"image-button-response","trial_index":147,"time_elapsed":1448811,"internal_node_id":"0.0-6.0-0.7","subject_id":"5f95851e2fb47e3ec706b95f","study_id":"6197b3f67c2b5cd3b6d9596a","session_id":"619be78715fd5ba89a3a7321","condition":"contingent","relevant_dimensions":["wings","legs"],"bee_group":{"antennae":"X","wings":"2","pattern":"X","legs":"F"},"bonus":0.9200000000000009},{"rt":126.29999995231628,"stimulus":"bees-with-color/bee-B2DF.svg","response":0,"trial_type":"image-button-response","trial_index":148,"time_elapsed":1448939,"internal_node_id":"0.0-6.0-0.8","subject_id":"5f95851e2fb47e3ec706b95f","study_id":"6197b3f67c2b5cd3b6d9596a","session_id":"619be78715fd5ba89a3a7321","condition":"contingent","relevant_dimensions":["wings","legs"],"bee_group":{"antennae":"X","wings":"2","pattern":"X","legs":"F"},"bonus":0.9200000000000009},{"rt":1070.7999999523163,"stimulus":"bees-with-color/bee-A2DF.svg","response":1,"trial_type":"image-button-response","trial_index":149,"time_elapsed":1450011,"internal_node_id":"0.0-6.0-0.9","subject_id":"5f95851e2fb47e3ec706b95f","study_id":"6197b3f67c2b5cd3b6d9596a","session_id":"619be78715fd5ba89a3a7321","condition":"contingent","relevant_dimensions":["wings","legs"],"bee_group":{"antennae":"X","wings":"2","pattern":"X","legs":"F"},"bonus":0.9200000000000009},{"rt":406.5999999642372,"stimulus":"bees-with-color/bee-A1DM.svg","response":1,"trial_type":"image-button-response","trial_index":150,"time_elapsed":1450419,"internal_node_id":"0.0-6.0-0.10","subject_id":"5f95851e2fb47e3ec706b95f","study_id":"6197b3f67c2b5cd3b6d9596a","session_id":"619be78715fd5ba89a3a7321","condition":"contingent","relevant_dimensions":["wings","legs"],"bee_group":{"antennae":"X","wings":"2","pattern":"X","legs":"F"},"bonus":0.9200000000000009},{"rt":134.60000002384186,"stimulus":"bees-with-color/bee-B1DM.svg","response":1,"trial_type":"image-button-response","trial_index":151,"time_elapsed":1450555,"internal_node_id":"0.0-6.0-0.11","subject_id":"5f95851e2fb47e3ec706b95f","study_id":"6197b3f67c2b5cd3b6d9596a","session_id":"619be78715fd5ba89a3a7321","condition":"contingent","relevant_dimensions":["wings","legs"],"bee_group":{"antennae":"X","wings":"2","pattern":"X","legs":"F"},"bonus":0.9200000000000009},{"rt":1190.699999988079,"stimulus":"bees-with-color/bee-A1SM.svg","response":0,"trial_type":"image-button-response","trial_index":152,"time_elapsed":1451747,"internal_node_id":"0.0-6.0-0.12","subject_id":"5f95851e2fb47e3ec706b95f","study_id":"6197b3f67c2b5cd3b6d9596a","session_id":"619be78715fd5ba89a3a7321","condition":"contingent","relevant_dimensions":["wings","legs"],"bee_group":{"antennae":"X","wings":"2","pattern":"X","legs":"F"},"bonus":0.9200000000000009},{"rt":862.6999999880791,"stimulus":"bees-with-color/bee-B2SM.svg","response":0,"trial_type":"image-button-response","trial_index":153,"time_elapsed":1452611,"internal_node_id":"0.0-6.0-0.13","subject_id":"5f95851e2fb47e3ec706b95f","study_id":"6197b3f67c2b5cd3b6d9596a","session_id":"619be78715fd5ba89a3a7321","condition":"contingent","relevant_dimensions":["wings","legs"],"bee_group":{"antennae":"X","wings":"2","pattern":"X","legs":"F"},"bonus":0.9200000000000009},{"rt":110.5,"stimulus":"bees-with-color/bee-A2SM.svg","response":0,"trial_type":"image-button-response","trial_index":154,"time_elapsed":1452723,"internal_node_id":"0.0-6.0-0.14","subject_id":"5f95851e2fb47e3ec706b95f","study_id":"6197b3f67c2b5cd3b6d9596a","session_id":"619be78715fd5ba89a3a7321","condition":"contingent","relevant_dimensions":["wings","legs"],"bee_group":{"antennae":"X","wings":"2","pattern":"X","legs":"F"},"bonus":0.9200000000000009},{"rt":302.7999999523163,"stimulus":"bees-with-color/bee-B1SM.svg","response":1,"trial_type":"image-button-response","trial_index":155,"time_elapsed":1453027,"internal_node_id":"0.0-6.0-0.15","subject_id":"5f95851e2fb47e3ec706b95f","study_id":"6197b3f67c2b5cd3b6d9596a","session_id":"619be78715fd5ba89a3a7321","condition":"contingent","relevant_dimensions":["wings","legs"],"bee_group":{"antennae":"X","wings":"2","pattern":"X","legs":"F"},"bonus":0.9200000000000009},{"rt":150.80000001192093,"stimulus":"bees-with-color/bee-A1DM.svg","response":1,"trial_type":"image-button-response","trial_index":156,"time_elapsed":1453179,"internal_node_id":"0.0-6.0-0.16","subject_id":"5f95851e2fb47e3ec706b95f","study_id":"6197b3f67c2b5cd3b6d9596a","session_id":"619be78715fd5ba89a3a7321","condition":"contingent","relevant_dimensions":["wings","legs"],"bee_group":{"antennae":"X","wings":"2","pattern":"X","legs":"F"},"bonus":0.9200000000000009},{"rt":2391.099999964237,"stimulus":"bees-with-color/bee-B2DF.svg","response":0,"trial_type":"image-button-response","trial_index":157,"time_elapsed":1455571,"internal_node_id":"0.0-6.0-0.17","subject_id":"5f95851e2fb47e3ec706b95f","study_id":"6197b3f67c2b5cd3b6d9596a","session_id":"619be78715fd5ba89a3a7321","condition":"contingent","relevant_dimensions":["wings","legs"],"bee_group":{"antennae":"X","wings":"2","pattern":"X","legs":"F"},"bonus":0.9200000000000009},{"rt":1407,"stimulus":"bees-with-color/bee-B1SM.svg","response":0,"trial_type":"image-button-response","trial_index":158,"time_elapsed":1456979,"internal_node_id":"0.0-6.0-0.18","subject_id":"5f95851e2fb47e3ec706b95f","study_id":"6197b3f67c2b5cd3b6d9596a","session_id":"619be78715fd5ba89a3a7321","condition":"contingent","relevant_dimensions":["wings","legs"],"bee_group":{"antennae":"X","wings":"2","pattern":"X","legs":"F"},"bonus":0.9200000000000009},{"rt":910.6999999880791,"stimulus":"bees-with-color/bee-A2DM.svg","response":1,"trial_type":"image-button-response","trial_index":159,"time_elapsed":1457891,"internal_node_id":"0.0-6.0-0.19","subject_id":"5f95851e2fb47e3ec706b95f","study_id":"6197b3f67c2b5cd3b6d9596a","session_id":"619be78715fd5ba89a3a7321","condition":"contingent","relevant_dimensions":["wings","legs"],"bee_group":{"antennae":"X","wings":"2","pattern":"X","legs":"F"},"bonus":0.9200000000000009},{"rt":127,"stimulus":"bees-with-color/bee-A2SF.svg","response":1,"trial_type":"image-button-response","trial_index":160,"time_elapsed":1458019,"internal_node_id":"0.0-6.0-0.20","subject_id":"5f95851e2fb47e3ec706b95f","study_id":"6197b3f67c2b5cd3b6d9596a","session_id":"619be78715fd5ba89a3a7321","condition":"contingent","relevant_dimensions":["wings","legs"],"bee_group":{"antennae":"X","wings":"2","pattern":"X","legs":"F"},"bonus":0.9200000000000009},{"rt":1278.5,"stimulus":"bees-with-color/bee-A1DF.svg","response":0,"trial_type":"image-button-response","trial_index":161,"time_elapsed":1459299,"internal_node_id":"0.0-6.0-0.21","subject_id":"5f95851e2fb47e3ec706b95f","study_id":"6197b3f67c2b5cd3b6d9596a","session_id":"619be78715fd5ba89a3a7321","condition":"contingent","relevant_dimensions":["wings","legs"],"be