[{"success":true,"trial_type":"fullscreen","trial_index":0,"time_elapsed":6302,"internal_node_id":"0.0-0.0","subject_id":"602ad4a0805527185ca10247","study_id":"6197b3f67c2b5cd3b6d9596a","session_id":"619be32672ec4e4222f633d5","condition":"contingent","relevant_dimensions":["antennae","wings"],"bee_group":{"antennae":"B","wings":"1","pattern":"X","legs":"X"},"bonus":1.3200000000000007},{"success":true,"timeout":false,"failed_images":[],"failed_audio":[],"failed_video":[],"trial_type":"preload","trial_index":1,"time_elapsed":8554,"internal_node_id":"0.0-1.0","subject_id":"602ad4a0805527185ca10247","study_id":"6197b3f67c2b5cd3b6d9596a","session_id":"619be32672ec4e4222f633d5","condition":"contingent","relevant_dimensions":["antennae","wings"],"bee_group":{"antennae":"B","wings":"1","pattern":"X","legs":"X"},"bonus":1.3200000000000007},{"rt":1863.2000000011176,"stimulus":"Welcome! Press any key to begin.","response":"arrowleft","trial_type":"html-keyboard-response","trial_index":2,"time_elapsed":10419,"internal_node_id":"0.0-2.0","subject_id":"602ad4a0805527185ca10247","study_id":"6197b3f67c2b5cd3b6d9596a","session_id":"619be32672ec4e4222f633d5","condition":"contingent","relevant_dimensions":["antennae","wings"],"bee_group":{"antennae":"B","wings":"1","pattern":"X","legs":"X"},"bonus":1.3200000000000007},{"view_history":[{"page_index":0,"viewing_time":7001.0999999996275},{"page_index":1,"viewing_time":11540.400000000373},{"page_index":2,"viewing_time":8037.5999999996275},{"page_index":3,"viewing_time":16627.900000000373},{"page_index":4,"viewing_time":5515.0999999996275},{"page_index":3,"viewing_time":767.4000000003725},{"page_index":2,"viewing_time":2123.5},{"page_index":3,"viewing_time":10622.099999999627},{"page_index":4,"viewing_time":1290.9000000003725},{"page_index":5,"viewing_time":4812.0999999996275},{"page_index":6,"viewing_time":6199.300000000745},{"page_index":7,"viewing_time":9789.199999999255},{"page_index":6,"viewing_time":7631.4000000003725},{"page_index":7,"viewing_time":993},{"page_index":8,"viewing_time":4527},{"page_index":9,"viewing_time":2886.300000000745},{"page_index":10,"viewing_time":1849.5999999996275},{"page_index":11,"viewing_time":7846},{"page_index":12,"viewing_time":8292.900000000373},{"page_index":13,"viewing_time":1077.8999999985099},{"page_index":14,"viewing_time":2729.10000000149}],"rt":122160,"trial_type":"instructions","trial_index":3,"time_elapsed":132580,"internal_node_id":"0.0-3.0-0.0","subject_id":"602ad4a0805527185ca10247","study_id":"6197b3f67c2b5cd3b6d9596a","session_id":"619be32672ec4e4222f633d5","condition":"contingent","relevant_dimensions":["antennae","wings"],"bee_group":{"antennae":"B","wings":"1","pattern":"X","legs":"X"},"bonus":1.3200000000000007},{"rt":13477.200000001118,"response":{"Q0":["Two or six legs","Stripes or spots on body","Single or double wings","Antennae or no antennae"]},"question_order":[0],"trial_type":"survey-multi-select","trial_index":4,"time_elapsed":146059,"internal_node_id":"0.0-3.0-1.0","subject_id":"602ad4a0805527185ca10247","study_id":"6197b3f67c2b5cd3b6d9596a","session_id":"619be32672ec4e4222f633d5","condition":"contingent","relevant_dimensions":["antennae","wings"],"bee_group":{"antennae":"B","wings":"1","pattern":"X","legs":"X"},"correct":true,"bonus":1.3200000000000007},{"rt":31046,"response":{"Q1":"No.","Q2":"Based on the four features of the bee.","Q3":"You do not learn if it was friendly or dangerous, and do not alter your bonus."},"question_order":[0,1,2],"trial_type":"survey-multi-choice","trial_index":5,"time_elapsed":177108,"internal_node_id":"0.0-3.0-2.0","subject_id":"602ad4a0805527185ca10247","study_id":"6197b3f67c2b5cd3b6d9596a","session_id":"619be32672ec4e4222f633d5","condition":"contingent","relevant_dimensions":["antennae","wings"],"bee_group":{"antennae":"B","wings":"1","pattern":"X","legs":"X"},"correct":true,"bonus":1.3200000000000007},{"rt":2827.7999999988824,"stimulus":"<p>Congrats, you got everything right<br>When you're ready, click the button below to continue to the experiment.</p>","response":0,"trial_type":"html-button-response","trial_index":6,"time_elapsed":179938,"internal_node_id":"0.0-3.0-3.0","subject_id":"602ad4a0805527185ca10247","study_id":"6197b3f67c2b5cd3b6d9596a","session_id":"619be32672ec4e4222f633d5","condition":"contingent","relevant_dimensions":["antennae","wings"],"bee_group":{"antennae":"B","wings":"1","pattern":"X","legs":"X"},"bonus":1.3200000000000007},{"rt":5947.800000000745,"stimulus":"bees-with-color/bee-A1SF.svg","response":0,"trial_type":"image-button-response","trial_index":7,"time_elapsed":185887,"internal_node_id":"0.0-4.0-0.0","subject_id":"602ad4a0805527185ca10247","study_id":"6197b3f67c2b5cd3b6d9596a","session_id":"619be32672ec4e4222f633d5","condition":"contingent","relevant_dimensions":["antennae","wings"],"bee_group":{"antennae":"B","wings":"1","pattern":"X","legs":"X"},"action":"harvest","summary":"good-harvest","bonus":1.3200000000000007},{"rt":6056.5,"stimulus":"\n                    <p><b>Action: <em>harvest</em></b></p>\n                    <p>This is the bee that you just saw.</p>\n                    <img src=\"bees-with-color/bee-A1SF.svg\" width=\"200\">\n                    <p><span class=\"greenText\"><b>Successful harvest!</b></span><br>Your pay has increased by $0.02. Your bonus pay is now $0.56.</p>\n            ","response":0,"trial_type":"html-button-response","trial_index":8,"time_elapsed":191952,"internal_node_id":"0.0-4.0-1.0","subject_id":"602ad4a0805527185ca10247","study_id":"6197b3f67c2b5cd3b6d9596a","session_id":"619be32672ec4e4222f633d5","condition":"contingent","relevant_dimensions":["antennae","wings"],"bee_group":{"antennae":"B","wings":"1","pattern":"X","legs":"X"},"bonus":1.3200000000000007},{"rt":5218.5999999996275,"stimulus":"bees-with-color/bee-B1SF.svg","response":0,"trial_type":"image-button-response","trial_index":9,"time_elapsed":197172,"internal_node_id":"0.0-4.0-0.1","subject_id":"602ad4a0805527185ca10247","study_id":"6197b3f67c2b5cd3b6d9596a","session_id":"619be32672ec4e4222f633d5","condition":"contingent","relevant_dimensions":["antennae","wings"],"bee_group":{"antennae":"B","wings":"1","pattern":"X","legs":"X"},"action":"harvest","summary":"bad-harvest","bonus":1.3200000000000007},{"rt":6714.9000000003725,"stimulus":"\n                    <p><b>Action: <em>harvest</em></b></p>\n                    <p>This is the bee that you just saw.</p>\n                    <img src=\"bees-with-color/bee-B1SF.svg\" width=\"200\">\n                    <p><span class=\"redText\">Bad choice, the bee was angry.</span><br><b>You have been stung!</b><br>Your pay has been decreased by $0.10. Your bonus pay is now $0.46.</p>\n            ","response":0,"trial_type":"html-button-response","trial_index":10,"time_elapsed":203888,"internal_node_id":"0.0-4.0-1.1","subject_id":"602ad4a0805527185ca10247","study_id":"6197b3f67c2b5cd3b6d9596a","session_id":"619be32672ec4e4222f633d5","condition":"contingent","relevant_dimensions":["antennae","wings"],"bee_group":{"antennae":"B","wings":"1","pattern":"X","legs":"X"},"bonus":1.3200000000000007},{"rt":2301.800000000745,"stimulus":"bees-with-color/bee-A2SM.svg","response":0,"trial_type":"image-button-response","trial_index":11,"time_elapsed":206191,"internal_node_id":"0.0-4.0-0.2","subject_id":"602ad4a0805527185ca10247","study_id":"6197b3f67c2b5cd3b6d9596a","session_id":"619be32672ec4e4222f633d5","condition":"contingent","relevant_dimensions":["antennae","wings"],"bee_group":{"antennae":"B","wings":"1","pattern":"X","legs":"X"},"action":"harvest","summary":"good-harvest","bonus":1.3200000000000007},{"rt":1441.4000000003725,"stimulus":"\n                    <p><b>Action: <em>harvest</em></b></p>\n                    <p>This is the bee that you just saw.</p>\n                    <img src=\"bees-with-color/bee-A2SM.svg\" width=\"200\">\n                    <p><span class=\"greenText\"><b>Successful harvest!</b></span><br>Your pay has increased by $0.02. Your bonus pay is now $0.48.</p>\n            ","response":0,"trial_type":"html-button-response","trial_index":12,"time_elapsed":207634,"internal_node_id":"0.0-4.0-1.2","subject_id":"602ad4a0805527185ca10247","study_id":"6197b3f67c2b5cd3b6d9596a","session_id":"619be32672ec4e4222f633d5","condition":"contingent","relevant_dimensions":["antennae","wings"],"bee_group":{"antennae":"B","wings":"1","pattern":"X","legs":"X"},"bonus":1.3200000000000007},{"rt":1437.0999999996275,"stimulus":"bees-with-color/bee-A2SF.svg","response":0,"trial_type":"image-button-response","trial_index":13,"time_elapsed":209071,"internal_node_id":"0.0-4.0-0.3","subject_id":"602ad4a0805527185ca10247","study_id":"6197b3f67c2b5cd3b6d9596a","session_id":"619be32672ec4e4222f633d5","condition":"contingent","relevant_dimensions":["antennae","wings"],"bee_group":{"antennae":"B","wings":"1","pattern":"X","legs":"X"},"action":"harvest","summary":"good-harvest","bonus":1.3200000000000007},{"rt":775.2000000011176,"stimulus":"\n                    <p><b>Action: <em>harvest</em></b></p>\n                    <p>This is the bee that you just saw.</p>\n                    <img src=\"bees-with-color/bee-A2SF.svg\" width=\"200\">\n                    <p><span class=\"greenText\"><b>Successful harvest!</b></span><br>Your pay has increased by $0.02. Your bonus pay is now $0.50.</p>\n            ","response":0,"trial_type":"html-button-response","trial_index":14,"time_elapsed":209847,"internal_node_id":"0.0-4.0-1.3","subject_id":"602ad4a0805527185ca10247","study_id":"6197b3f67c2b5cd3b6d9596a","session_id":"619be32672ec4e4222f633d5","condition":"contingent","relevant_dimensions":["antennae","wings"],"bee_group":{"antennae":"B","wings":"1","pattern":"X","legs":"X"},"bonus":1.3200000000000007},{"rt":1132.699999999255,"stimulus":"bees-with-color/bee-B1SM.svg","response":1,"trial_type":"image-button-response","trial_index":15,"time_elapsed":210981,"internal_node_id":"0.0-4.0-0.4","subject_id":"602ad4a0805527185ca10247","study_id":"6197b3f67c2b5cd3b6d9596a","session_id":"619be32672ec4e4222f633d5","condition":"contingent","relevant_dimensions":["antennae","wings"],"bee_group":{"antennae":"B","wings":"1","pattern":"X","legs":"X"},"action":"avoid","summary":"good-avoid","bonus":1.3200000000000007},{"rt":3014.699999999255,"stimulus":"\n                    <p><b>Action: <em>avoid</em></b></p>\n                    <p>This is the bee that you just saw.</p>\n                    <img src=\"bees-with-color/bee-B1SM.svg\" width=\"200\">\n                    <p><br>Your bonus pay is unchanged, and remains at $0.50.</p>\n            ","response":0,"trial_type":"html-button-response","trial_index":16,"time_elapsed":213996,"internal_node_id":"0.0-4.0-1.4","subject_id":"602ad4a0805527185ca10247","study_id":"6197b3f67c2b5cd3b6d9596a","session_id":"619be32672ec4e4222f633d5","condition":"contingent","relevant_dimensions":["antennae","wings"],"bee_group":{"antennae":"B","wings":"1","pattern":"X","legs":"X"},"bonus":1.3200000000000007},{"rt":1234.2000000011176,"stimulus":"bees-with-color/bee-B2SF.svg","response":1,"trial_type":"image-button-response","trial_index":17,"time_elapsed":215231,"internal_node_id":"0.0-4.0-0.5","subject_id":"602ad4a0805527185ca10247","study_id":"6197b3f67c2b5cd3b6d9596a","session_id":"619be32672ec4e4222f633d5","condition":"contingent","relevant_dimensions":["antennae","wings"],"bee_group":{"antennae":"B","wings":"1","pattern":"X","legs":"X"},"action":"avoid","summary":"bad-avoid","bonus":1.3200000000000007},{"rt":602.1000000014901,"stimulus":"\n                    <p><b>Action: <em>avoid</em></b></p>\n                    <p>This is the bee that you just saw.</p>\n                    <img src=\"bees-with-color/bee-B2SF.svg\" width=\"200\">\n                    <p><br>Your bonus pay is unchanged, and remains at $0.50.</p>\n            ","response":0,"trial_type":"html-button-response","trial_index":18,"time_elapsed":215834,"internal_node_id":"0.0-4.0-1.5","subject_id":"602ad4a0805527185ca10247","study_id":"6197b3f67c2b5cd3b6d9596a","session_id":"619be32672ec4e4222f633d5","condition":"contingent","relevant_dimensions":["antennae","wings"],"bee_group":{"antennae":"B","wings":"1","pattern":"X","legs":"X"},"bonus":1.3200000000000007},{"rt":1038.9000000003725,"stimulus":"bees-with-color/bee-A2DF.svg","response":0,"trial_type":"image-button-response","trial_index":19,"time_elapsed":216874,"internal_node_id":"0.0-4.0-0.6","subject_id":"602ad4a0805527185ca10247","study_id":"6197b3f67c2b5cd3b6d9596a","session_id":"619be32672ec4e4222f633d5","condition":"contingent","relevant_dimensions":["antennae","wings"],"bee_group":{"antennae":"B","wings":"1","pattern":"X","legs":"X"},"action":"harvest","summary":"good-harvest","bonus":1.3200000000000007},{"rt":902.5,"stimulus":"\n                    <p><b>Action: <em>harvest</em></b></p>\n                    <p>This is the bee that you just saw.</p>\n                    <img src=\"bees-with-color/bee-A2DF.svg\" width=\"200\">\n                    <p><span class=\"greenText\"><b>Successful harvest!</b></span><br>Your pay has increased by $0.02. Your bonus pay is now $0.52.</p>\n            ","response":0,"trial_type":"html-button-response","trial_index":20,"time_elapsed":217777,"internal_node_id":"0.0-4.0-1.6","subject_id":"602ad4a0805527185ca10247","study_id":"6197b3f67c2b5cd3b6d9596a","session_id":"619be32672ec4e4222f633d5","condition":"contingent","relevant_dimensions":["antennae","wings"],"bee_group":{"antennae":"B","wings":"1","pattern":"X","legs":"X"},"bonus":1.3200000000000007},{"rt":976.0999999996275,"stimulus":"bees-with-color/bee-B2DF.svg","response":1,"trial_type":"image-button-response","trial_index":21,"time_elapsed":218754,"internal_node_id":"0.0-4.0-0.7","subject_id":"602ad4a0805527185ca10247","study_id":"6197b3f67c2b5cd3b6d9596a","session_id":"619be32672ec4e4222f633d5","condition":"contingent","relevant_dimensions":["antennae","wings"],"bee_group":{"antennae":"B","wings":"1","pattern":"X","legs":"X"},"action":"avoid","summary":"bad-avoid","bonus":1.3200000000000007},{"rt":810.1999999992549,"stimulus":"\n                    <p><b>Action: <em>avoid</em></b></p>\n                    <p>This is the bee that you just saw.</p>\n                    <img src=\"bees-with-color/bee-B2DF.svg\" width=\"200\">\n                    <p><br>Your bonus pay is unchanged, and remains at $0.52.</p>\n            ","response":0,"trial_type":"html-button-response","trial_index":22,"time_elapsed":219565,"internal_node_id":"0.0-4.0-1.7","subject_id":"602ad4a0805527185ca10247","study_id":"6197b3f67c2b5cd3b6d9596a","session_id":"619be32672ec4e4222f633d5","condition":"contingent","relevant_dimensions":["antennae","wings"],"bee_group":{"antennae":"B","wings":"1","pattern":"X","legs":"X"},"bonus":1.3200000000000007},{"rt":829.0999999996275,"stimulus":"bees-with-color/bee-A1SM.svg","response":0,"trial_type":"image-button-response","trial_index":23,"time_elapsed":220395,"internal_node_id":"0.0-4.0-0.8","subject_id":"602ad4a0805527185ca10247","study_id":"6197b3f67c2b5cd3b6d9596a","session_id":"619be32672ec4e4222f633d5","condition":"contingent","relevant_dimensions":["antennae","wings"],"bee_group":{"antennae":"B","wings":"1","pattern":"X","legs":"X"},"action":"harvest","summary":"good-harvest","bonus":1.3200000000000007},{"rt":854.0999999996275,"stimulus":"\n                    <p><b>Action: <em>harvest</em></b></p>\n                    <p>This is the bee that you just saw.</p>\n                    <img src=\"bees-with-color/bee-A1SM.svg\" width=\"200\">\n                    <p><span class=\"greenText\"><b>Successful harvest!</b></span><br>Your pay has increased by $0.02. Your bonus pay is now $0.54.</p>\n            ","response":0,"trial_type":"html-button-response","trial_index":24,"time_elapsed":221250,"internal_node_id":"0.0-4.0-1.8","subject_id":"602ad4a0805527185ca10247","study_id":"6197b3f67c2b5cd3b6d9596a","session_id":"619be32672ec4e4222f633d5","condition":"contingent","relevant_dimensions":["antennae","wings"],"bee_group":{"antennae":"B","wings":"1","pattern":"X","legs":"X"},"bonus":1.3200000000000007},{"rt":1187.300000000745,"stimulus":"bees-with-color/bee-A1DM.svg","response":0,"trial_type":"image-button-response","trial_index":25,"time_elapsed":222438,"internal_node_id":"0.0-4.0-0.9","subject_id":"602ad4a0805527185ca10247","study_id":"6197b3f67c2b5cd3b6d9596a","session_id":"619be32672ec4e4222f633d5","condition":"contingent","relevant_dimensions":["antennae","wings"],"bee_group":{"antennae":"B","wings":"1","pattern":"X","legs":"X"},"action":"harvest","summary":"good-harvest","bonus":1.3200000000000007},{"rt":859.5,"stimulus":"\n                    <p><b>Action: <em>harvest</em></b></p>\n                    <p>This is the bee that you just saw.</p>\n                    <img src=\"bees-with-color/bee-A1DM.svg\" width=\"200\">\n                    <p><span class=\"greenText\"><b>Successful harvest!</b></span><br>Your pay has increased by $0.02. Your bonus pay is now $0.56.</p>\n            ","response":0,"trial_type":"html-button-response","trial_index":26,"time_elapsed":223299,"internal_node_id":"0.0-4.0-1.9","subject_id":"602ad4a0805527185ca10247","study_id":"6197b3f67c2b5cd3b6d9596a","session_id":"619be32672ec4e4222f633d5","condition":"contingent","relevant_dimensions":["antennae","wings"],"bee_group":{"antennae":"B","wings":"1","pattern":"X","legs":"X"},"bonus":1.3200000000000007},{"rt":929.8000000007451,"stimulus":"bees-with-color/bee-B1DM.svg","response":1,"trial_type":"image-button-response","trial_index":27,"time_elapsed":224229,"internal_node_id":"0.0-4.0-0.10","subject_id":"602ad4a0805527185ca10247","study_id":"6197b3f67c2b5cd3b6d9596a","session_id":"619be32672ec4e4222f633d5","condition":"contingent","relevant_dimensions":["antennae","wings"],"bee_group":{"antennae":"B","wings":"1","pattern":"X","legs":"X"},"action":"avoid","summary":"good-avoid","bonus":1.3200000000000007},{"rt":1024.2000000011176,"stimulus":"\n                    <p><b>Action: <em>avoid</em></b></p>\n                    <p>This is the bee that you just saw.</p>\n                    <img src=\"bees-with-color/bee-B1DM.svg\" width=\"200\">\n                    <p><br>Your bonus pay is unchanged, and remains at $0.56.</p>\n            ","response":0,"trial_type":"html-button-response","trial_index":28,"time_elapsed":225254,"internal_node_id":"0.0-4.0-1.10","subject_id":"602ad4a0805527185ca10247","study_id":"6197b3f67c2b5cd3b6d9596a","session_id":"619be32672ec4e4222f633d5","condition":"contingent","relevant_dimensions":["antennae","wings"],"bee_group":{"antennae":"B","wings":"1","pattern":"X","legs":"X"},"bonus":1.3200000000000007},{"rt":1005.3000000007451,"stimulus":"bees-with-color/bee-B2DM.svg","response":1,"trial_type":"image-button-response","trial_index":29,"time_elapsed":226260,"internal_node_id":"0.0-4.0-0.11","subject_id":"602ad4a0805527185ca10247","study_id":"6197b3f67c2b5cd3b6d9596a","session_id":"619be32672ec4e4222f633d5","condition":"contingent","relevant_dimensions":["antennae","wings"],"bee_group":{"antennae":"B","wings":"1","pattern":"X","legs":"X"},"action":"avoid","summary":"bad-avoid","bonus":1.3200000000000007},{"rt":1059.2000000011176,"stimulus":"\n                    <p><b>Action: <em>avoid</em></b></p>\n                    <p>This is the bee that you just saw.</p>\n                    <img src=\"bees-with-color/bee-B2DM.svg\" width=\"200\">\n                    <p><br>Your bonus pay is unchanged, and remains at $0.56.</p>\n            ","response":0,"trial_type":"html-button-response","trial_index":30,"time_elapsed":227320,"internal_node_id":"0.0-4.0-1.11","subject_id":"602ad4a0805527185ca10247","study_id":"6197b3f67c2b5cd3b6d9596a","session_id":"619be32672ec4e4222f633d5","condition":"contingent","relevant_dimensions":["antennae","wings"],"bee_group":{"antennae":"B","wings":"1","pattern":"X","legs":"X"},"bonus":1.3200000000000007},{"rt":1198.199999999255,"stimulus":"bees-with-color/bee-A1DF.svg","response":0,"trial_type":"image-button-response","trial_index":31,"time_elapsed":228519,"internal_node_id":"0.0-4.0-0.12","subject_id":"602ad4a0805527185ca10247","study_id":"6197b3f67c2b5cd3b6d9596a","session_id":"619be32672ec4e4222f633d5","condition":"contingent","relevant_dimensions":["antennae","wings"],"bee_group":{"antennae":"B","wings":"1","pattern":"X","legs":"X"},"action":"harvest","summary":"good-harvest","bonus":1.3200000000000007},{"rt":1013,"stimulus":"\n                    <p><b>Action: <em>harvest</em></b></p>\n                    <p>This is the bee that you just saw.</p>\n                    <img src=\"bees-with-color/bee-A1DF.svg\" width=\"200\">\n                    <p><span class=\"greenText\"><b>Successful harvest!</b></span><br>Your pay has increased by $0.02. Your bonus pay is now $0.58.</p>\n            ","response":0,"trial_type":"html-button-response","trial_index":32,"time_elapsed":229533,"internal_node_id":"0.0-4.0-1.12","subject_id":"602ad4a0805527185ca10247","study_id":"6197b3f67c2b5cd3b6d9596a","session_id":"619be32672ec4e4222f633d5","condition":"contingent","relevant_dimensions":["antennae","wings"],"bee_group":{"antennae":"B","wings":"1","pattern":"X","legs":"X"},"bonus":1.3200000000000007},{"rt":878.5,"stimulus":"bees-with-color/bee-B1DF.svg","response":1,"trial_type":"image-button-response","trial_index":33,"time_elapsed":230412,"internal_node_id":"0.0-4.0-0.13","subject_id":"602ad4a0805527185ca10247","study_id":"6197b3f67c2b5cd3b6d9596a","session_id":"619be32672ec4e4222f633d5","condition":"contingent","relevant_dimensions":["antennae","wings"],"bee_group":{"antennae":"B","wings":"1","pattern":"X","legs":"X"},"action":"avoid","summary":"good-avoid","bonus":1.3200000000000007},{"rt":490.09999999962747,"stimulus":"\n                    <p><b>Action: <em>avoid</em></b></p>\n                    <p>This is the bee that you just saw.</p>\n                    <img src=\"bees-with-color/bee-B1DF.svg\" width=\"200\">\n                    <p><br>Your bonus pay is unchanged, and remains at $0.58.</p>\n            ","response":0,"trial_type":"html-button-response","trial_index":34,"time_elapsed":230903,"internal_node_id":"0.0-4.0-1.13","subject_id":"602ad4a0805527185ca10247","study_id":"6197b3f67c2b5cd3b6d9596a","session_id":"619be32672ec4e4222f633d5","condition":"contingent","relevant_dimensions":["antennae","wings"],"bee_group":{"antennae":"B","wings":"1","pattern":"X","legs":"X"},"bonus":1.3200000000000007},{"rt":866.5,"stimulus":"bees-with-color/bee-B2SM.svg","response":1,"trial_type":"image-button-response","trial_index":35,"time_elapsed":231770,"internal_node_id":"0.0-4.0-0.14","subject_id":"602ad4a0805527185ca10247","study_id":"6197b3f67c2b5cd3b6d9596a","session_id":"619be32672ec4e4222f633d5","condition":"contingent","relevant_dimensions":["antennae","wings"],"bee_group":{"antennae":"B","wings":"1","pattern":"X","legs":"X"},"action":"avoid","summary":"bad-avoid","bonus":1.3200000000000007},{"rt":535.4000000003725,"stimulus":"\n                    <p><b>Action: <em>avoid</em></b></p>\n                    <p>This is the bee that you just saw.</p>\n                    <img src=\"bees-with-color/bee-B2SM.svg\" width=\"200\">\n                    <p><br>Your bonus pay is unchanged, and remains at $0.58.</p>\n            ","response":0,"trial_type":"html-button-response","trial_index":36,"time_elapsed":232306,"internal_node_id":"0.0-4.0-1.14","subject_id":"602ad4a0805527185ca10247","study_id":"6197b3f67c2b5cd3b6d9596a","session_id":"619be32672ec4e4222f633d5","condition":"contingent","relevant_dimensions":["antennae","wings"],"bee_group":{"antennae":"B","wings":"1","pattern":"X","legs":"X"},"bonus":1.3200000000000007},{"rt":705.4000000003725,"stimulus":"bees-with-color/bee-A2DM.svg","response":0,"trial_type":"image-button-response","trial_index":37,"time_elapsed":233012,"internal_node_id":"0.0-4.0-0.15","subject_id":"602ad4a0805527185ca10247","study_id":"6197b3f67c2b5cd3b6d9596a","session_id":"619be32672ec4e4222f633d5","condition":"contingent","relevant_dimensions":["antennae","wings"],"bee_group":{"antennae":"B","wings":"1","pattern":"X","legs":"X"},"action":"harvest","summary":"good-harvest","bonus":1.3200000000000007},{"rt":886.1999999992549,"stimulus":"\n                    <p><b>Action: <em>harvest</em></b></p>\n                    <p>This is the bee that you just saw.</p>\n                    <img src=\"bees-with-color/bee-A2DM.svg\" width=\"200\">\n                    <p><span class=\"greenText\"><b>Successful harvest!</b></span><br>Your pay has increased by $0.02. Your bonus pay is now $0.60.</p>\n            ","response":0,"trial_type":"html-button-response","trial_index":38,"time_elapsed":233899,"internal_node_id":"0.0-4.0-1.15","subject_id":"602ad4a0805527185ca10247","study_id":"6197b3f67c2b5cd3b6d9596a","session_id":"619be32672ec4e4222f633d5","condition":"contingent","relevant_dimensions":["antennae","wings"],"bee_group":{"antennae":"B","wings":"1","pattern":"X","legs":"X"},"bonus":1.3200000000000007},{"rt":674.5,"stimulus":"bees-with-color/bee-A2DM.svg","response":0,"trial_type":"image-button-response","trial_index":39,"time_elapsed":234574,"internal_node_id":"0.0-4.0-0.16","subject_id":"602ad4a0805527185ca10247","study_id":"6197b3f67c2b5cd3b6d9596a","session_id":"619be32672ec4e4222f633d5","condition":"contingent","relevant_dimensions":["antennae","wings"],"bee_group":{"antennae":"B","wings":"1","pattern":"X","legs":"X"},"action":"harvest","summary":"good-harvest","bonus":1.3200000000000007},{"rt":600.2999999988824,"stimulus":"\n                    <p><b>Action: <em>harvest</em></b></p>\n                    <p>This is the bee that you just saw.</p>\n                    <img src=\"bees-with-color/bee-A2DM.svg\" width=\"200\">\n                    <p><span class=\"greenText\"><b>Successful harvest!</b></span><br>Your pay has increased by $0.02. Your bonus pay is now $0.62.</p>\n            ","response":0,"trial_type":"html-button-response","trial_index":40,"time_elapsed":235175,"internal_node_id":"0.0-4.0-1.16","subject_id":"602ad4a0805527185ca10247","study_id":"6197b3f67c2b5cd3b6d9596a","session_id":"619be32672ec4e4222f633d5","condition":"contingent","relevant_dimensions":["antennae","wings"],"bee_group":{"antennae":"B","wings":"1","pattern":"X","legs":"X"},"bonus":1.3200000000000007},{"rt":678.1999999992549,"stimulus":"bees-with-color/bee-A2SF.svg","response":0,"trial_type":"image-button-response","trial_index":41,"time_elapsed":235854,"internal_node_id":"0.0-4.0-0.17","subject_id":"602ad4a0805527185ca10247","study_id":"6197b3f67c2b5cd3b6d9596a","session_id":"619be32672ec4e4222f633d5","condition":"contingent","relevant_dimensions":["antennae","wings"],"bee_group":{"antennae":"B","wings":"1","pattern":"X","legs":"X"},"action":"harvest","summary":"good-harvest","bonus":1.3200000000000007},{"rt":915.5,"stimulus":"\n                    <p><b>Action: <em>harvest</em></b></p>\n                    <p>This is the bee that you just saw.</p>\n                    <img src=\"bees-with-color/bee-A2SF.svg\" width=\"200\">\n                    <p><span class=\"greenText\"><b>Successful harvest!</b></span><br>Your pay has increased by $0.02. Your bonus pay is now $0.64.</p>\n            ","response":0,"trial_type":"html-button-response","trial_index":42,"time_elapsed":236770,"internal_node_id":"0.0-4.0-1.17","subject_id":"602ad4a0805527185ca10247","study_id":"6197b3f67c2b5cd3b6d9596a","session_id":"619be32672ec4e4222f633d5","condition":"contingent","relevant_dimensions":["antennae","wings"],"bee_group":{"antennae":"B","wings":"1","pattern":"X","legs":"X"},"bonus":1.3200000000000007},{"rt":838.4000000003725,"stimulus":"bees-with-color/bee-B1DF.svg","response":1,"trial_type":"image-button-response","trial_index":43,"time_elapsed":237609,"internal_node_id":"0.0-4.0-0.18","subject_id":"602ad4a0805527185ca10247","study_id":"6197b3f67c2b5cd3b6d9596a","session_id":"619be32672ec4e4222f633d5","condition":"contingent","relevant_dimensions":["antennae","wings"],"bee_group":{"antennae":"B","wings":"1","pattern":"X","legs":"X"},"action":"avoid","summary":"good-avoid","bonus":1.3200000000000007},{"rt":623.6999999992549,"stimulus":"\n                    <p><b>Action: <em>avoid</em></b></p>\n                    <p>This is the bee that you just saw.</p>\n                    <img src=\"bees-with-color/bee-B1DF.svg\" width=\"200\">\n                    <p><br>Your bonus pay is unchanged, and remains at $0.64.</p>\n            ","response":0,"trial_type":"html-button-response","trial_index":44,"time_elapsed":238234,"internal_node_id":"0.0-4.0-1.18","subject_id":"602ad4a0805527185ca10247","study_id":"6197b3f67c2b5cd3b6d9596a","session_id":"619be32672ec4e4222f633d5","condition":"contingent","relevant_dimensions":["antennae","wings"],"bee_group":{"antennae":"B","wings":"1","pattern":"X","legs":"X"},"bonus":1.3200000000000007},{"rt":751.8999999985099,"stimulus":"bees-with-color/bee-A2SM.svg","response":0,"trial_type":"image-button-response","trial_index":45,"time_elapsed":238986,"internal_node_id":"0.0-4.0-0.19","subject_id":"602ad4a0805527185ca10247","study_id":"6197b3f67c2b5cd3b6d9596a","session_id":"619be32672ec4e4222f633d5","condition":"contingent","relevant_dimensions":["antennae","wings"],"bee_group":{"antennae":"B","wings":"1","pattern":"X","legs":"X"},"action":"harvest","summary":"good-harvest","bonus":1.3200000000000007},{"rt":601.6999999992549,"stimulus":"\n                    <p><b>Action: <em>harvest</em></b></p>\n                    <p>This is the bee that you just saw.</p>\n                    <img src=\"bees-with-color/bee-A2SM.svg\" width=\"200\">\n                    <p><span class=\"greenText\"><b>Successful harvest!</b></span><br>Your pay has increased by $0.02. Your bonus pay is now $0.66.</p>\n            ","response":0,"trial_type":"html-button-response","trial_index":46,"time_elapsed":239588,"internal_node_id":"0.0-4.0-1.19","subject_id":"602ad4a0805527185ca10247","study_id":"6197b3f67c2b5cd3b6d9596a","session_id":"619be32672ec4e4222f633d5","condition":"contingent","relevant_dimensions":["antennae","wings"],"bee_group":{"antennae":"B","wings":"1","pattern":"X","legs":"X"},"bonus":1.3200000000000007},{"rt":861,"stimulus":"bees-with-color/bee-B1SF.svg","response":1,"trial_type":"image-button-response","trial_index":47,"time_elapsed":240450,"internal_node_id":"0.0-4.0-0.20","subject_id":"602ad4a0805527185ca10247","study_id":"6197b3f67c2b5cd3b6d9596a","session_id":"619be32672ec4e4222f633d5","condition":"contingent","relevant_dimensions":["antennae","wings"],"bee_group":{"antennae":"B","wings":"1","pattern":"X","legs":"X"},"action":"avoid","summary":"good-avoid","bonus":1.3200000000000007},{"rt":620.1999999992549,"stimulus":"\n                    <p><b>Action: <em>avoid</em></b></p>\n                    <p>This is the bee that you just saw.</p>\n                    <img src=\"bees-with-color/bee-B1SF.svg\" width=\"200\">\n                    <p><br>Your bonus pay is unchanged, and remains at $0.66.</p>\n            ","response":0,"trial_type":"html-button-response","trial_index":48,"time_elapsed":241071,"internal_node_id":"0.0-4.0-1.20","subject_id":"602ad4a0805527185ca10247","study_id":"6197b3f67c2b5cd3b6d9596a","session_id":"619be32672ec4e4222f633d5","condition":"contingent","relevant_dimensions":["antennae","wings"],"bee_group":{"antennae":"B","wings":"1","pattern":"X","legs":"X"},"bonus":1.3200000000000007},{"rt":882.4000000003725,"stimulus":"bees-with-color/bee-A1DF.svg","response":0,"trial_type":"image-button-response","trial_index":49,"time_elapsed":241954,"internal_node_id":"0.0-4.0-0.21","subject_id":"602ad4a0805527185ca10247","study_id":"6197b3f67c2b5cd3b6d9596a","session_id":"619be32672ec4e4222f633d5","condition":"contingent","relevant_dimensions":["antennae","wings"],"bee_group":{"antennae":"B","wings":"1","pattern":"X","legs":"X"},"action":"harvest","summary":"good-harvest","bonus":1.3200000000000007},{"rt":889.2000000011176,"stimulus":"\n                    <p><b>Action: <em>harvest</em></b></p>\n                    <p>This is the bee that you just saw.</p>\n                    <img src=\"bees-with-color/bee-A1DF.svg\" width=\"200\">\n                    <p><span class=\"greenText\"><b>Successful harvest!</b></span><br>Your pay has increased by $0.02. Your bonus pay is now $0.68.</p>\n            ","response":0,"trial_type":"html-button-response","trial_index":50,"time_elapsed":242844,"internal_node_id":"0.0-4.0-1.21","subject_id":"602ad4a0805527185ca10247","study_id":"6197b3f67c2b5cd3b6d9596a","session_id":"619be32672ec4e4222f633d5","condition":"contingent","relevant_dimensions":["antennae","wings"],"bee_group":{"antennae":"B","wings":"1","pattern":"X","legs":"X"},"bonus":1.3200000000000007},{"rt":690.4000000003725,"stimulus":"bees-with-color/bee-A1SM.svg","response":0,"trial_type":"image-button-response","trial_index":51,"time_elapsed":243535,"internal_node_id":"0.0-4.0-0.22","subject_id":"602ad4a0805527185ca10247","study_id":"6197b3f67c2b5cd3b6d9596a","session_id":"619be32672ec4e4222f633d5","condition":"contingent","relevant_dimensions":["antennae","wings"],"bee_group":{"antennae":"B","wings":"1","pattern":"X","legs":"X"},"action":"harvest","summary":"good-harvest","bonus":1.3200000000000007},{"rt":690.0999999996275,"stimulus":"\n                    <p><b>Action: <em>harvest</em></b></p>\n                    <p>This is the bee that you just saw.</p>\n                    <img src=\"bees-with-color/bee-A1SM.svg\" width=\"200\">\n                    <p><span class=\"greenText\"><b>Successful harvest!</b></span><br>Your pay has increased by $0.02. Your bonus pay is now $0.70.</p>\n            ","response":0,"trial_type":"html-button-response","trial_index":52,"time_elapsed":244226,"internal_node_id":"0.0-4.0-1.22","subject_id":"602ad4a0805527185ca10247","study_id":"6197b3f67c2b5cd3b6d9596a","session_id":"619be32672ec4e4222f633d5","condition":"contingent","relevant_dimensions":["antennae","wings"],"bee_group":{"antennae":"B","wings":"1","pattern":"X","legs":"X"},"bonus":1.3200000000000007},{"rt":769.0999999996275,"stimulus":"bees-with-color/bee-B2DF.svg","response":1,"trial_type":"image-button-response","trial_index":53,"time_elapsed":244996,"internal_node_id":"0.0-4.0-0.23","subject_id":"602ad4a0805527185ca10247","study_id":"6197b3f67c2b5cd3b6d9596a","session_id":"619be32672ec4e4222f633d5","condition":"contingent","relevant_dimensions":["antennae","wings"],"bee_group":{"antennae":"B","wings":"1","pattern":"X","legs":"X"},"action":"avoid","summary":"bad-avoid","bonus":1.3200000000000007},{"rt":515.3000000007451,"stimulus":"\n                    <p><b>Action: <em>avoid</em></b></p>\n                    <p>This is the bee that you just saw.</p>\n                    <img src=\"bees-with-color/bee-B2DF.svg\" width=\"200\">\n                    <p><br>Your bonus pay is unchanged, and remains at $0.70.</p>\n            ","response":0,"trial_type":"html-button-response","trial_index":54,"time_elapsed":245512,"internal_node_id":"0.0-4.0-1.23","subject_id":"602ad4a0805527185ca10247","study_id":"6197b3f67c2b5cd3b6d9596a","session_id":"619be32672ec4e4222f633d5","condition":"contingent","relevant_dimensions":["antennae","wings"],"bee_group":{"antennae":"B","wings":"1","pattern":"X","legs":"X"},"bonus":1.3200000000000007},{"rt":830.3000000007451,"stimulus":"bees-with-color/bee-A1SF.svg","response":0,"trial_type":"image-button-response","trial_index":55,"time_elapsed":246343,"internal_node_id":"0.0-4.0-0.24","subject_id":"602ad4a0805527185ca10247","study_id":"6197b3f67c2b5cd3b6d9596a","session_id":"619be32672ec4e4222f633d5","condition":"contingent","relevant_dimensions":["antennae","wings"],"bee_group":{"antennae":"B","wings":"1","pattern":"X","legs":"X"},"action":"harvest","summary":"good-harvest","bonus":1.3200000000000007},{"rt":592,"stimulus":"\n                    <p><b>Action: <em>harvest</em></b></p>\n                    <p>This is the bee that you just saw.</p>\n                    <img src=\"bees-with-color/bee-A1SF.svg\" width=\"200\">\n                    <p><span class=\"greenText\"><b>Successful harvest!</b></span><br>Your pay has increased by $0.02. Your bonus pay is now $0.72.</p>\n            ","response":0,"trial_type":"html-button-response","trial_index":56,"time_elapsed":246936,"internal_node_id":"0.0-4.0-1.24","subject_id":"602ad4a0805527185ca10247","study_id":"6197b3f67c2b5cd3b6d9596a","session_id":"619be32672ec4e4222f633d5","condition":"contingent","relevant_dimensions":["antennae","wings"],"bee_group":{"antennae":"B","wings":"1","pattern":"X","legs":"X"},"bonus":1.3200000000000007},{"rt":789.5999999996275,"stimulus":"bees-with-color/bee-B2SF.svg","response":1,"trial_type":"image-button-response","trial_index":57,"time_elapsed":247726,"internal_node_id":"0.0-4.0-0.25","subject_id":"602ad4a0805527185ca10247","study_id":"6197b3f67c2b5cd3b6d9596a","session_id":"619be32672ec4e4222f633d5","condition":"contingent","relevant_dimensions":["antennae","wings"],"bee_group":{"antennae":"B","wings":"1","pattern":"X","legs":"X"},"action":"avoid","summary":"bad-avoid","bonus":1.3200000000000007},{"rt":585.8000000007451,"stimulus":"\n                    <p><b>Action: <em>avoid</em></b></p>\n                    <p>This is the bee that you just saw.</p>\n                    <img src=\"bees-with-color/bee-B2SF.svg\" width=\"200\">\n                    <p><br>Your bonus pay is unchanged, and remains at $0.72.</p>\n            ","response":0,"trial_type":"html-button-response","trial_index":58,"time_elapsed":248313,"internal_node_id":"0.0-4.0-1.25","subject_id":"602ad4a0805527185ca10247","study_id":"6197b3f67c2b5cd3b6d9596a","session_id":"619be32672ec4e4222f633d5","condition":"contingent","relevant_dimensions":["antennae","wings"],"bee_group":{"antennae":"B","wings":"1","pattern":"X","legs":"X"},"bonus":1.3200000000000007},{"rt":944.8000000007451,"stimulus":"bees-with-color/bee-B2DM.svg","response":1,"trial_type":"image-button-response","trial_index":59,"time_elapsed":249258,"internal_node_id":"0.0-4.0-0.26","subject_id":"602ad4a0805527185ca10247","study_id":"6197b3f67c2b5cd3b6d9596a","session_id":"619be32672ec4e4222f633d5","condition":"contingent","relevant_dimensions":["antennae","wings"],"bee_group":{"antennae":"B","wings":"1","pattern":"X","legs":"X"},"action":"avoid","summary":"bad-avoid","bonus":1.3200000000000007},{"rt":501.19999999925494,"stimulus":"\n                    <p><b>Action: <em>avoid</em></b></p>\n                    <p>This is the bee that you just saw.</p>\n                    <img src=\"bees-with-color/bee-B2DM.svg\" width=\"200\">\n                    <p><br>Your bonus pay is unchanged, and remains at $0.72.</p>\n            ","response":0,"trial_type":"html-button-response","trial_index":60,"time_elapsed":249760,"internal_node_id":"0.0-4.0-1.26","subject_id":"602ad4a0805527185ca10247","study_id":"6197b3f67c2b5cd3b6d9596a","session_id":"619be32672ec4e4222f633d5","condition":"contingent","relevant_dimensions":["antennae","wings"],"bee_group":{"antennae":"B","wings":"1","pattern":"X","legs":"X"},"bonus":1.3200000000000007},{"rt":684.2999999988824,"stimulus":"bees-with-color/bee-A2DF.svg","response":0,"trial_type":"image-button-response","trial_index":61,"time_elapsed":250445,"internal_node_id":"0.0-4.0-0.27","subject_id":"602ad4a0805527185ca10247","study_id":"6197b3f67c2b5cd3b6d9596a","session_id":"619be32672ec4e4222f633d5","condition":"contingent","relevant_dimensions":["antennae","wings"],"bee_group":{"antennae":"B","wings":"1","pattern":"X","legs":"X"},"action":"harvest","summary":"good-harvest","bonus":1.3200000000000007},{"rt":598.2999999988824,"stimulus":"\n                    <p><b>Action: <em>harvest</em></b></p>\n                    <p>This is the bee that you just saw.</p>\n                    <img src=\"bees-with-color/bee-A2DF.svg\" width=\"200\">\n                    <p><span class=\"greenText\"><b>Successful harvest!</b></span><br>Your pay has increased by $0.02. Your bonus pay is now $0.74.</p>\n            ","response":0,"trial_type":"html-button-response","trial_index":62,"time_elapsed":251044,"internal_node_id":"0.0-4.0-1.27","subject_id":"602ad4a0805527185ca10247","study_id":"6197b3f67c2b5cd3b6d9596a","session_id":"619be32672ec4e4222f633d5","condition":"contingent","relevant_dimensions":["antennae","wings"],"bee_group":{"antennae":"B","wings":"1","pattern":"X","legs":"X"},"bonus":1.3200000000000007},{"rt":801.5,"stimulus":"bees-with-color/bee-B1SM.svg","response":1,"trial_type":"image-button-response","trial_index":63,"time_elapsed":251846,"internal_node_id":"0.0-4.0-0.28","subject_id":"602ad4a0805527185ca10247","study_id":"6197b3f67c2b5cd3b6d9596a","session_id":"619be32672ec4e4222f633d5","condition":"contingent","relevant_dimensions":["antennae","wings"],"bee_group":{"antennae":"B","wings":"1","pattern":"X","legs":"X"},"action":"avoid","summary":"good-avoid","bonus":1.3200000000000007},{"rt":832.4000000003725,"stimulus":"\n                    <p><b>Action: <em>avoid</em></b></p>\n                    <p>This is the bee that you just saw.</p>\n                    <img src=\"bees-with-color/bee-B1SM.svg\" width=\"200\">\n                    <p><br>Your bonus pay is unchanged, and remains at $0.74.</p>\n            ","response":0,"trial_type":"html-button-response","trial_index":64,"time_elapsed":252679,"internal_node_id":"0.0-4.0-1.28","subject_id":"602ad4a0805527185ca10247","study_id":"6197b3f67c2b5cd3b6d9596a","session_id":"619be32672ec4e4222f633d5","condition":"contingent","relevant_dimensions":["antennae","wings"],"bee_group":{"antennae":"B","wings":"1","pattern":"X","legs":"X"},"bonus":1.3200000000000007},{"rt":638.2999999988824,"stimulus":"bees-with-color/bee-A1DM.svg","response":0,"trial_type":"image-button-response","trial_index":65,"time_elapsed":253318,"internal_node_id":"0.0-4.0-0.29","subject_id":"602ad4a0805527185ca10247","study_id":"6197b3f67c2b5cd3b6d9596a","session_id":"619be32672ec4e4222f633d5","condition":"contingent","relevant_dimensions":["antennae","wings"],"bee_group":{"antennae":"B","wings":"1","pattern":"X","legs":"X"},"action":"harvest","summary":"good-harvest","bonus":1.3200000000000007},{"rt":606.2999999988824,"stimulus":"\n                    <p><b>Action: <em>harvest</em></b></p>\n                    <p>This is the bee that you just saw.</p>\n                    <img src=\"bees-with-color/bee-A1DM.svg\" width=\"200\">\n                    <p><span class=\"greenText\"><b>Successful harvest!</b></span><br>Your pay has increased by $0.02. Your bonus pay is now $0.76.</p>\n            ","response":0,"trial_type":"html-button-response","trial_index":66,"time_elapsed":253925,"internal_node_id":"0.0-4.0-1.29","subject_id":"602ad4a0805527185ca10247","study_id":"6197b3f67c2b5cd3b6d9596a","session_id":"619be32672ec4e4222f633d5","condition":"contingent","relevant_dimensions":["antennae","wings"],"bee_group":{"antennae":"B","wings":"1","pattern":"X","legs":"X"},"bonus":1.3200000000000007},{"rt":756.4000000003725,"stimulus":"bees-with-color/bee-B2SM.svg","response":1,"trial_type":"image-button-response","trial_index":67,"time_elapsed":254682,"internal_node_id":"0.0-4.0-0.30","subject_id":"602ad4a0805527185ca10247","study_id":"6197b3f67c2b5cd3b6d9596a","session_id":"619be32672ec4e4222f633d5","condition":"contingent","relevant_dimensions":["antennae","wings"],"bee_group":{"antennae":"B","wings":"1","pattern":"X","legs":"X"},"action":"avoid","summary":"bad-avoid","bonus":1.3200000000000007},{"rt":519.4000000003725,"stimulus":"\n                    <p><b>Action: <em>avoid</em></b></p>\n                    <p>This is the bee that you just saw.</p>\n                    <img src=\"bees-with-color/bee-B2SM.svg\" width=\"200\">\n                    <p><br>Your bonus pay is unchanged, and remains at $0.76.</p>\n            ","response":0,"trial_type":"html-button-response","trial_index":68,"time_elapsed":255202,"internal_node_id":"0.0-4.0-1.30","subject_id":"602ad4a0805527185ca10247","study_id":"6197b3f67c2b5cd3b6d9596a","session_id":"619be32672ec4e4222f633d5","condition":"contingent","relevant_dimensions":["antennae","wings"],"bee_group":{"antennae":"B","wings":"1","pattern":"X","legs":"X"},"bonus":1.3200000000000007},{"rt":817.1999999992549,"stimulus":"bees-with-color/bee-B1DM.svg","response":1,"trial_type":"image-button-response","trial_index":69,"time_elapsed":256019,"internal_node_id":"0.0-4.0-0.31","subject_id":"602ad4a0805527185ca10247","study_id":"6197b3f67c2b5cd3b6d9596a","session_id":"619be32672ec4e4222f633d5","condition":"contingent","relevant_dimensions":["antennae","wings"],"bee_group":{"antennae":"B","wings":"1","pattern":"X","legs":"X"},"action":"avoid","summary":"good-avoid","bonus":1.3200000000000007},{"rt":474.3999999985099,"stimulus":"\n                    <p><b>Action: <em>avoid</em></b></p>\n                    <p>This is the bee that you just saw.</p>\n                    <img src=\"bees-with-color/bee-B1DM.svg\" width=\"200\">\n                    <p><br>Your bonus pay is unchanged, and remains at $0.76.</p>\n            ","response":0,"trial_type":"html-button-response","trial_index":70,"time_elapsed":256494,"internal_node_id":"0.0-4.0-1.31","subject_id":"602ad4a0805527185ca10247","study_id":"6197b3f67c2b5cd3b6d9596a","session_id":"619be32672ec4e4222f633d5","condition":"contingent","relevant_dimensions":["antennae","wings"],"bee_group":{"antennae":"B","wings":"1","pattern":"X","legs":"X"},"bonus":1.3200000000000007},{"rt":678.5999999996275,"stimulus":"bees-with-color/bee-A2SM.svg","response":0,"trial_type":"image-button-response","trial_index":71,"time_elapsed":257174,"internal_node_id":"0.0-4.0-0.32","subject_id":"602ad4a0805527185ca10247","study_id":"6197b3f67c2b5cd3b6d9596a","session_id":"619be32672ec4e4222f633d5","condition":"contingent","relevant_dimensions":["antennae","wings"],"bee_group":{"antennae":"B","wings":"1","pattern":"X","legs":"X"},"action":"harvest","summary":"good-harvest","bonus":1.3200000000000007},{"rt":616,"stimulus":"\n                    <p><b>Action: <em>harvest</em></b></p>\n                    <p>This is the bee that you just saw.</p>\n                    <img src=\"bees-with-color/bee-A2SM.svg\" width=\"200\">\n                    <p><span class=\"greenText\"><b>Successful harvest!</b></span><br>Your pay has increased by $0.02. Your bonus pay is now $0.78.</p>\n            ","response":0,"trial_type":"html-button-response","trial_index":72,"time_elapsed":257790,"internal_node_id":"0.0-4.0-1.32","subject_id":"602ad4a0805527185ca10247","study_id":"6197b3f67c2b5cd3b6d9596a","session_id":"619be32672ec4e4222f633d5","condition":"contingent","relevant_dimensions":["antennae","wings"],"bee_group":{"antennae":"B","wings":"1","pattern":"X","legs":"X"},"bonus":1.3200000000000007},{"rt":744,"stimulus":"bees-with-color/bee-A2DF.svg","response":0,"trial_type":"image-button-response","trial_index":73,"time_elapsed":258535,"internal_node_id":"0.0-4.0-0.33","subject_id":"602ad4a0805527185ca10247","study_id":"6197b3f67c2b5cd3b6d9596a","session_id":"619be32672ec4e4222f633d5","condition":"contingent","relevant_dimensions":["antennae","wings"],"bee_group":{"antennae":"B","wings":"1","pattern":"X","legs":"X"},"action":"harvest","summary":"good-harvest","bonus":1.3200000000000007},{"rt":549.5,"stimulus":"\n                    <p><b>Action: <em>harvest</em></b></p>\n                    <p>This is the bee that you just saw.</p>\n                    <img src=\"bees-with-color/bee-A2DF.svg\" width=\"200\">\n                    <p><span class=\"greenText\"><b>Successful harvest!</b></span><br>Your pay has increased by $0.02. Your bonus pay is now $0.80.</p>\n            ","response":0,"trial_type":"html-button-response","trial_index":74,"time_elapsed":259085,"internal_node_id":"0.0-4.0-1.33","subject_id":"602ad4a0805527185ca10247","study_id":"6197b3f67c2b5cd3b6d9596a","session_id":"619be32672ec4e4222f633d5","condition":"contingent","relevant_dimensions":["antennae","wings"],"bee_group":{"antennae":"B","wings":"1","pattern":"X","legs":"X"},"bonus":1.3200000000000007},{"rt":1010.3999999985099,"stimulus":"bees-with-color/bee-B2SM.svg","response":1,"trial_type":"image-button-response","trial_index":75,"time_elapsed":260096,"internal_node_id":"0.0-4.0-0.34","subject_id":"602ad4a0805527185ca10247","study_id":"6197b3f67c2b5cd3b6d9596a","session_id":"619be32672ec4e4222f633d5","condition":"contingent","relevant_dimensions":["antennae","wings"],"bee_group":{"antennae":"B","wings":"1","pattern":"X","legs":"X"},"action":"avoid","summary":"bad-avoid","bonus":1.3200000000000007},{"rt":458.19999999925494,"stimulus":"\n                    <p><b>Action: <em>avoid</em></b></p>\n                    <p>This is the bee that you just saw.</p>\n                    <img src=\"bees-with-color/bee-B2SM.svg\" width=\"200\">\n                    <p><br>Your bonus pay is unchanged, and remains at $0.80.</p>\n            ","response":0,"trial_type":"html-button-response","trial_index":76,"time_elapsed":260555,"internal_node_id":"0.0-4.0-1.34","subject_id":"602ad4a0805527185ca10247","study_id":"6197b3f67c2b5cd3b6d9596a","session_id":"619be32672ec4e4222f633d5","condition":"contingent","relevant_dimensions":["antennae","wings"],"bee_group":{"antennae":"B","wings":"1","pattern":"X","legs":"X"},"bonus":1.3200000000000007},{"rt":1108.5,"stimulus":"bees-with-color/bee-B1SF.svg","response":1,"trial_type":"image-button-response","trial_index":77,"time_elapsed":261664,"internal_node_id":"0.0-4.0-0.35","subject_id":"602ad4a0805527185ca10247","study_id":"6197b3f67c2b5cd3b6d9596a","session_id":"619be32672ec4e4222f633d5","condition":"contingent","relevant_dimensions":["antennae","wings"],"bee_group":{"antennae":"B","wings":"1","pattern":"X","legs":"X"},"action":"avoid","summary":"good-avoid","bonus":1.3200000000000007},{"rt":1119.300000000745,"stimulus":"\n                    <p><b>Action: <em>avoid</em></b></p>\n                    <p>This is the bee that you just saw.</p>\n                    <img src=\"bees-with-color/bee-B1SF.svg\" width=\"200\">\n                    <p><br>Your bonus pay is unchanged, and remains at $0.80.</p>\n            ","response":0,"trial_type":"html-button-response","trial_index":78,"time_elapsed":262784,"internal_node_id":"0.0-4.0-1.35","subject_id":"602ad4a0805527185ca10247","study_id":"6197b3f67c2b5cd3b6d9596a","session_id":"619be32672ec4e4222f633d5","condition":"contingent","relevant_dimensions":["antennae","wings"],"bee_group":{"antennae":"B","wings":"1","pattern":"X","legs":"X"},"bonus":1.3200000000000007},{"rt":732.0999999996275,"stimulus":"bees-with-color/bee-B2DF.svg","response":1,"trial_type":"image-button-response","trial_index":79,"time_elapsed":263517,"internal_node_id":"0.0-4.0-0.36","subject_id":"602ad4a0805527185ca10247","study_id":"6197b3f67c2b5cd3b6d9596a","session_id":"619be32672ec4e4222f633d5","condition":"contingent","relevant_dimensions":["antennae","wings"],"bee_group":{"antennae":"B","wings":"1","pattern":"X","legs":"X"},"action":"avoid","summary":"bad-avoid","bonus":1.3200000000000007},{"rt":430.7999999988824,"stimulus":"\n                    <p><b>Action: <em>avoid</em></b></p>\n                    <p>This is the bee that you just saw.</p>\n                    <img src=\"bees-with-color/bee-B2DF.svg\" width=\"200\">\n                    <p><br>Your bonus pay is unchanged, and remains at $0.80.</p>\n            ","response":0,"trial_type":"html-button-response","trial_index":80,"time_elapsed":263949,"internal_node_id":"0.0-4.0-1.36","subject_id":"602ad4a0805527185ca10247","study_id":"6197b3f67c2b5cd3b6d9596a","session_id":"619be32672ec4e4222f633d5","condition":"contingent","relevant_dimensions":["antennae","wings"],"bee_group":{"antennae":"B","wings":"1","pattern":"X","legs":"X"},"bonus":1.3200000000000007},{"rt":661.6999999992549,"stimulus":"bees-with-color/bee-B2SF.svg","response":1,"trial_type":"image-button-response","trial_index":81,"time_elapsed":264611,"internal_node_id":"0.0-4.0-0.37","subject_id":"602ad4a0805527185ca10247","study_id":"6197b3f67c2b5cd3b6d9596a","session_id":"619be32672ec4e4222f633d5","condition":"contingent","relevant_dimensions":["antennae","wings"],"bee_group":{"antennae":"B","wings":"1","pattern":"X","legs":"X"},"action":"avoid","summary":"bad-avoid","bonus":1.3200000000000007},{"rt":487.2999999988824,"stimulus":"\n                    <p><b>Action: <em>avoid</em></b></p>\n                    <p>This is the bee that you just saw.</p>\n                    <img src=\"bees-with-color/bee-B2SF.svg\" width=\"200\">\n                    <p><br>Your bonus pay is unchanged, and remains at $0.80.</p>\n            ","response":0,"trial_type":"html-button-response","trial_index":82,"time_elapsed":265099,"internal_node_id":"0.0-4.0-1.37","subject_id":"602ad4a0805527185ca10247","study_id":"6197b3f67c2b5cd3b6d9596a","session_id":"619be32672ec4e4222f633d5","condition":"contingent","relevant_dimensions":["antennae","wings"],"bee_group":{"antennae":"B","wings":"1","pattern":"X","legs":"X"},"bonus":1.3200000000000007},{"rt":671.2999999988824,"stimulus":"bees-with-color/bee-B1DF.svg","response":1,"trial_type":"image-button-response","trial_index":83,"time_elapsed":265771,"internal_node_id":"0.0-4.0-0.38","subject_id":"602ad4a0805527185ca10247","study_id":"6197b3f67c2b5cd3b6d9596a","session_id":"619be32672ec4e4222f633d5","condition":"contingent","relevant_dimensions":["antennae","wings"],"bee_group":{"antennae":"B","wings":"1","pattern":"X","legs":"X"},"action":"avoid","summary":"good-avoid","bonus":1.3200000000000007},{"rt":410.19999999925494,"stimulus":"\n                    <p><b>Action: <em>avoid</em></b></p>\n                    <p>This is the bee that you just saw.</p>\n                    <img src=\"bees-with-color/bee-B1DF.svg\" width=\"200\">\n                    <p><br>Your bonus pay is unchanged, and remains at $0.80.</p>\n            ","response":0,"trial_type":"html-button-response","trial_index":84,"time_elapsed":266182,"internal_node_id":"0.0-4.0-1.38","subject_id":"602ad4a0805527185ca10247","study_id":"6197b3f67c2b5cd3b6d9596a","session_id":"619be32672ec4e4222f633d5","condition":"contingent","relevant_dimensions":["antennae","wings"],"bee_group":{"antennae":"B","wings":"1","pattern":"X","legs":"X"},"bonus":1.3200000000000007},{"rt":686.1999999992549,"stimulus":"bees-with-color/bee-A2SF.svg","response":0,"trial_type":"image-button-response","trial_index":85,"time_elapsed":266869,"internal_node_id":"0.0-4.0-0.39","subject_id":"602ad4a0805527185ca10247","study_id":"6197b3f67c2b5cd3b6d9596a","session_id":"619be32672ec4e4222f633d5","condition":"contingent","relevant_dimensions":["antennae","wings"],"bee_group":{"antennae":"B","wings":"1","pattern":"X","legs":"X"},"action":"harvest","summary":"good-harvest","bonus":1.3200000000000007},{"rt":611.2999999988824,"stimulus":"\n                    <p><b>Action: <em>harvest</em></b></p>\n                    <p>This is the bee that you just saw.</p>\n                    <img src=\"bees-with-color/bee-A2SF.svg\" width=\"200\">\n                    <p><span class=\"greenText\"><b>Successful harvest!</b></span><br>Your pay has increased by $0.02. Your bonus pay is now $0.82.</p>\n            ","response":0,"trial_type":"html-button-response","trial_index":86,"time_elapsed":267481,"internal_node_id":"0.0-4.0-1.39","subject_id":"602ad4a0805527185ca10247","study_id":"6197b3f67c2b5cd3b6d9596a","session_id":"619be32672ec4e4222f633d5","condition":"contingent","relevant_dimensions":["antennae","wings"],"bee_group":{"antennae":"B","wings":"1","pattern":"X","legs":"X"},"bonus":1.3200000000000007},{"rt":731.2999999988824,"stimulus":"bees-with-color/bee-A1DF.svg","response":0,"trial_type":"image-button-response","trial_index":87,"time_elapsed":268213,"internal_node_id":"0.0-4.0-0.40","subject_id":"602ad4a0805527185ca10247","study_id":"6197b3f67c2b5cd3b6d9596a","session_id":"619be32672ec4e4222f633d5","condition":"contingent","relevant_dimensions":["antennae","wings"],"bee_group":{"antennae":"B","wings":"1","pattern":"X","legs":"X"},"action":"harvest","summary":"good-harvest","bonus":1.3200000000000007},{"rt":909.3999999985099,"stimulus":"\n                    <p><b>Action: <em>harvest</em></b></p>\n                    <p>This is the bee that you just saw.</p>\n                    <img src=\"bees-with-color/bee-A1DF.svg\" width=\"200\">\n                    <p><span class=\"greenText\"><b>Successful harvest!</b></span><br>Your pay has increased by $0.02. Your bonus pay is now $0.84.</p>\n            ","response":0,"trial_type":"html-button-response","trial_index":88,"time_elapsed":269123,"internal_node_id":"0.0-4.0-1.40","subject_id":"602ad4a0805527185ca10247","study_id":"6197b3f67c2b5cd3b6d9596a","session_id":"619be32672ec4e4222f633d5","condition":"contingent","relevant_dimensions":["antennae","wings"],"bee_group":{"antennae":"B","wings":"1","pattern":"X","legs":"X"},"bonus":1.3200000000000007},{"rt":648.1999999992549,"stimulus":"bees-with-color/bee-A2DM.svg","response":0,"trial_type":"image-button-response","trial_index":89,"time_elapsed":269772,"internal_node_id":"0.0-4.0-0.41","subject_id":"602ad4a0805527185ca10247","study_id":"6197b3f67c2b5cd3b6d9596a","session_id":"619be32672ec4e4222f633d5","condition":"contingent","relevant_dimensions":["antennae","wings"],"bee_group":{"antennae":"B","wings":"1","pattern":"X","legs":"X"},"action":"harvest","summary":"good-harvest","bonus":1.3200000000000007},{"rt":617.3999999985099,"stimulus":"\n                    <p><b>Action: <em>harvest</em></b></p>\n                    <p>This is the bee that you just saw.</p>\n                    <img src=\"bees-with-color/bee-A2DM.svg\" width=\"200\">\n                    <p><span class=\"greenText\"><b>Successful harvest!</b></span><br>Your pay has increased by $0.02. Your bonus pay is now $0.86.</p>\n            ","response":0,"trial_type":"html-button-response","trial_index":90,"time_elapsed":270390,"internal_node_id":"0.0-4.0-1.41","subject_id":"602ad4a0805527185ca10247","study_id":"6197b3f67c2b5cd3b6d9596a","session_id":"619be32672ec4e4222f633d5","condition":"contingent","relevant_dimensions":["antennae","wings"],"bee_group":{"antennae":"B","wings":"1","pattern":"X","legs":"X"},"bonus":1.3200000000000007},{"rt":635.5999999996275,"stimulus":"bees-with-color/bee-A1SF.svg","response":0,"trial_type":"image-button-response","trial_index":91,"time_elapsed":271027,"internal_node_id":"0.0-4.0-0.42","subject_id":"602ad4a0805527185ca10247","study_id":"6197b3f67c2b5cd3b6d9596a","session_id":"619be32672ec4e4222f633d5","condition":"contingent","relevant_dimensions":["antennae","wings"],"bee_group":{"antennae":"B","wings":"1","pattern":"X","legs":"X"},"action":"harvest","summary":"good-harvest","bonus":1.3200000000000007},{"rt":538.8000000007451,"stimulus":"\n                    <p><b>Action: <em>harvest</em></b></p>\n                    <p>This is the bee that you just saw.</p>\n                    <img src=\"bees-with-color/bee-A1SF.svg\" width=\"200\">\n                    <p><span class=\"greenText\"><b>Successful harvest!</b></span><br>Your pay has increased by $0.02. Your bonus pay is now $0.88.</p>\n            ","response":0,"trial_type":"html-button-response","trial_index":92,"time_elapsed":271566,"internal_node_id":"0.0-4.0-1.42","subject_id":"602ad4a0805527185ca10247","study_id":"6197b3f67c2b5cd3b6d9596a","session_id":"619be32672ec4e4222f633d5","condition":"contingent","relevant_dimensions":["antennae","wings"],"bee_group":{"antennae":"B","wings":"1","pattern":"X","legs":"X"},"bonus":1.3200000000000007},{"rt":761.8000000007451,"stimulus":"bees-with-color/bee-B1DM.svg","response":1,"trial_type":"image-button-response","trial_index":93,"time_elapsed":272328,"internal_node_id":"0.0-4.0-0.43","subject_id":"602ad4a0805527185ca10247","study_id":"6197b3f67c2b5cd3b6d9596a","session_id":"619be32672ec4e4222f633d5","condition":"contingent","relevant_dimensions":["antennae","wings"],"bee_group":{"antennae":"B","wings":"1","pattern":"X","legs":"X"},"action":"avoid","summary":"good-avoid","bonus":1.3200000000000007},{"rt":545.4000000003725,"stimulus":"\n                    <p><b>Action: <em>avoid</em></b></p>\n                    <p>This is the bee that you just saw.</p>\n                    <img src=\"bees-with-color/bee-B1DM.svg\" width=\"200\">\n                    <p><br>Your bonus pay is unchanged, and remains at $0.88.</p>\n            ","response":0,"trial_type":"html-button-response","trial_index":94,"time_elapsed":272874,"internal_node_id":"0.0-4.0-1.43","subject_id":"602ad4a0805527185ca10247","study_id":"6197b3f67c2b5cd3b6d9596a","session_id":"619be32672ec4e4222f633d5","condition":"contingent","relevant_dimensions":["antennae","wings"],"bee_group":{"antennae":"B","wings":"1","pattern":"X","legs":"X"},"bonus":1.3200000000000007},{"rt":733.2999999988824,"stimulus":"bees-with-color/bee-A1DM.svg","response":0,"trial_type":"image-button-response","trial_index":95,"time_elapsed":273608,"internal_node_id":"0.0-4.0-0.44","subject_id":"602ad4a0805527185ca10247","study_id":"6197b3f67c2b5cd3b6d9596a","session_id":"619be32672ec4e4222f633d5","condition":"contingent","relevant_dimensions":["antennae","wings"],"bee_group":{"antennae":"B","wings":"1","pattern":"X","legs":"X"},"action":"harvest","summary":"good-harvest","bonus":1.3200000000000007},{"rt":529.2999999988824,"stimulus":"\n                    <p><b>Action: <em>harvest</em></b></p>\n                    <p>This is the bee that you just saw.</p>\n                    <img src=\"bees-with-color/bee-A1DM.svg\" width=\"200\">\n                    <p><span class=\"greenText\"><b>Successful harvest!</b></span><br>Your pay has increased by $0.02. Your bonus pay is now $0.90.</p>\n            ","response":0,"trial_type":"html-button-response","trial_index":96,"time_elapsed":274138,"internal_node_id":"0.0-4.0-1.44","subject_id":"602ad4a0805527185ca10247","study_id":"6197b3f67c2b5cd3b6d9596a","session_id":"619be32672ec4e4222f633d5","condition":"contingent","relevant_dimensions":["antennae","wings"],"bee_group":{"antennae":"B","wings":"1","pattern":"X","legs":"X"},"bonus":1.3200000000000007},{"rt":903.1999999992549,"stimulus":"bees-with-color/bee-B1SM.svg","response":1,"trial_type":"image-button-response","trial_index":97,"time_elapsed":275042,"internal_node_id":"0.0-4.0-0.45","subject_id":"602ad4a0805527185ca10247","study_id":"6197b3f67c2b5cd3b6d9596a","session_id":"619be32672ec4e4222f633d5","condition":"contingent","relevant_dimensions":["antennae","wings"],"bee_group":{"antennae":"B","wings":"1","pattern":"X","legs":"X"},"action":"avoid","summary":"good-avoid","bonus":1.3200000000000007},{"rt":558.2999999988824,"stimulus":"\n                    <p><b>Action: <em>avoid</em></b></p>\n                    <p>This is the bee that you just saw.</p>\n                    <img src=\"bees-with-color/bee-B1SM.svg\" width=\"200\">\n                    <p><br>Your bonus pay is unchanged, and remains at $0.90.</p>\n            ","response":0,"trial_type":"html-button-response","trial_index":98,"time_elapsed":275601,"internal_node_id":"0.0-4.0-1.45","subject_id":"602ad4a0805527185ca10247","study_id":"6197b3f67c2b5cd3b6d9596a","session_id":"619be32672ec4e4222f633d5","condition":"contingent","relevant_dimensions":["antennae","wings"],"bee_group":{"antennae":"B","wings":"1","pattern":"X","legs":"X"},"bonus":1.3200000000000007},{"rt":690.2999999988824,"stimulus":"bees-with-color/bee-A1SM.svg","response":0,"trial_type":"image-button-response","trial_index":99,"time_elapsed":276292,"internal_node_id":"0.0-4.0-0.46","subject_id":"602ad4a0805527185ca10247","study_id":"6197b3f67c2b5cd3b6d9596a","session_id":"619be32672ec4e4222f633d5","condition":"contingent","relevant_dimensions":["antennae","wings"],"bee_group":{"antennae":"B","wings":"1","pattern":"X","legs":"X"},"action":"harvest","summary":"good-harvest","bonus":1.3200000000000007},{"rt":491.3999999985099,"stimulus":"\n                    <p><b>Action: <em>harvest</em></b></p>\n                    <p>This is the bee that you just saw.</p>\n                    <img src=\"bees-with-color/bee-A1SM.svg\" width=\"200\">\n                    <p><span class=\"greenText\"><b>Successful harvest!</b></span><br>Your pay has increased by $0.02. Your bonus pay is now $0.92.</p>\n            ","response":0,"trial_type":"html-button-response","trial_index":100,"time_elapsed":276784,"internal_node_id":"0.0-4.0-1.46","subject_id":"602ad4a0805527185ca10247","study_id":"6197b3f67c2b5cd3b6d9596a","session_id":"619be32672ec4e4222f633d5","condition":"contingent","relevant_dimensions":["antennae","wings"],"bee_group":{"antennae":"B","wings":"1","pattern":"X","legs":"X"},"bonus":1.3200000000000007},{"rt":1246.199999999255,"stimulus":"bees-with-color/bee-B2DM.svg","response":1,"trial_type":"image-button-response","trial_index":101,"time_elapsed":278031,"internal_node_id":"0.0-4.0-0.47","subject_id":"602ad4a0805527185ca10247","study_id":"6197b3f67c2b5cd3b6d9596a","session_id":"619be32672ec4e4222f633d5","condition":"contingent","relevant_dimensions":["antennae","wings"],"bee_group":{"antennae":"B","wings":"1","pattern":"X","legs":"X"},"action":"avoid","summary":"bad-avoid","bonus":1.3200000000000007},{"rt":564.0999999996275,"stimulus":"\n                    <p><b>Action: <em>avoid</em></b></p>\n                    <p>This is the bee that you just saw.</p>\n                    <img src=\"bees-with-color/bee-B2DM.svg\" width=\"200\">\n                    <p><br>Your bonus pay is unchanged, and remains at $0.92.</p>\n            ","response":0,"trial_type":"html-button-response","trial_index":102,"time_elapsed":278596,"internal_node_id":"0.0-4.0-1.47","subject_id":"602ad4a0805527185ca10247","study_id":"6197b3f67c2b5cd3b6d9596a","session_id":"619be32672ec4e4222f633d5","condition":"contingent","relevant_dimensions":["antennae","wings"],"bee_group":{"antennae":"B","wings":"1","pattern":"X","legs":"X"},"bonus":1.3200000000000007},{"rt":882.5999999996275,"stimulus":"bees-with-color/bee-B1SM.svg","response":1,"trial_type":"image-button-response","trial_index":103,"time_elapsed":279480,"internal_node_id":"0.0-4.0-0.48","subject_id":"602ad4a0805527185ca10247","study_id":"6197b3f67c2b5cd3b6d9596a","session_id":"619be32672ec4e4222f633d5","condition":"contingent","relevant_dimensions":["antennae","wings"],"bee_group":{"antennae":"B","wings":"1","pattern":"X","legs":"X"},"action":"avoid","summary":"good-avoid","bonus":1.3200000000000007},{"rt":510,"stimulus":"\n                    <p><b>Action: <em>avoid</em></b></p>\n                    <p>This is the bee that you just saw.</p>\n                    <img src=\"bees-with-color/bee-B1SM.svg\" width=\"200\">\n                    <p><br>Your bonus pay is unchanged, and remains at $0.92.</p>\n            ","response":0,"trial_type":"html-button-response","trial_index":104,"time_elapsed":279990,"internal_node_id":"0.0-4.0-1.48","subject_id":"602ad4a0805527185ca10247","study_id":"6197b3f67c2b5cd3b6d9596a","session_id":"619be32672ec4e4222f633d5","condition":"contingent","relevant_dimensions":["antennae","wings"],"bee_group":{"antennae":"B","wings":"1","pattern":"X","legs":"X"},"bonus":1.3200000000000007},{"rt":832.1999999992549,"stimulus":"bees-with-color/bee-B2SM.svg","response":1,"trial_type":"image-button-response","trial_index":105,"time_elapsed":280823,"internal_node_id":"0.0-4.0-0.49","subject_id":"602ad4a0805527185ca10247","study_id":"6197b3f67c2b5cd3b6d9596a","session_id":"619be32672ec4e4222f633d5","condition":"contingent","relevant_dimensions":["antennae","wings"],"bee_group":{"antennae":"B","wings":"1","pattern":"X","legs":"X"},"action":"avoid","summary":"bad-avoid","bonus":1.3200000000000007},{"rt":590.1999999992549,"stimulus":"\n                    <p><b>Action: <em>avoid</em></b></p>\n                    <p>This is the bee that you just saw.</p>\n                    <img src=\"bees-with-color/bee-B2SM.svg\" width=\"200\">\n                    <p><br>Your bonus pay is unchanged, and remains at $0.92.</p>\n            ","response":0,"trial_type":"html-button-response","trial_index":106,"time_elapsed":281414,"internal_node_id":"0.0-4.0-1.49","subject_id":"602ad4a0805527185ca10247","study_id":"6197b3f67c2b5cd3b6d9596a","session_id":"619be32672ec4e4222f633d5","condition":"contingent","relevant_dimensions":["antennae","wings"],"bee_group":{"antennae":"B","wings":"1","pattern":"X","legs":"X"},"bonus":1.3200000000000007},{"rt":760.2999999988824,"stimulus":"bees-with-color/bee-A1SF.svg","response":0,"trial_type":"image-button-response","trial_index":107,"time_elapsed":282175,"internal_node_id":"0.0-4.0-0.50","subject_id":"602ad4a0805527185ca10247","study_id":"6197b3f67c2b5cd3b6d9596a","session_id":"619be32672ec4e4222f633d5","condition":"contingent","relevant_dimensions":["antennae","wings"],"bee_group":{"antennae":"B","wings":"1","pattern":"X","legs":"X"},"action":"harvest","summary":"good-harvest","bonus":1.3200000000000007},{"rt":630.2999999988824,"stimulus":"\n                    <p><b>Action: <em>harvest</em></b></p>\n                    <p>This is the bee that you just saw.</p>\n                    <img src=\"bees-with-color/bee-A1SF.svg\" width=\"200\">\n                    <p><span class=\"greenText\"><b>Successful harvest!</b></span><br>Your pay has increased by $0.02. Your bonus pay is now $0.94.</p>\n            ","response":0,"trial_type":"html-button-response","trial_index":108,"time_elapsed":282806,"internal_node_id":"0.0-4.0-1.50","subject_id":"602ad4a0805527185ca10247","study_id":"6197b3f67c2b5cd3b6d9596a","session_id":"619be32672ec4e4222f633d5","condition":"contingent","relevant_dimensions":["antennae","wings"],"bee_group":{"antennae":"B","wings":"1","pattern":"X","legs":"X"},"bonus":1.3200000000000007},{"rt":1415.4000000003725,"stimulus":"bees-with-color/bee-B1SF.svg","response":1,"trial_type":"image-button-response","trial_index":109,"time_elapsed":284222,"internal_node_id":"0.0-4.0-0.51","subject_id":"602ad4a0805527185ca10247","study_id":"6197b3f67c2b5cd3b6d9596a","session_id":"619be32672ec4e4222f633d5","condition":"contingent","relevant_dimensions":["antennae","wings"],"bee_group":{"antennae":"B","wings":"1","pattern":"X","legs":"X"},"action":"avoid","summary":"good-avoid","bonus":1.3200000000000007},{"rt":488.3999999985099,"stimulus":"\n                    <p><b>Action: <em>avoid</em></b></p>\n                    <p>This is the bee that you just saw.</p>\n                    <img src=\"bees-with-color/bee-B1SF.svg\" width=\"200\">\n                    <p><br>Your bonus pay is unchanged, and remains at $0.94.</p>\n            ","response":0,"trial_type":"html-button-response","trial_index":110,"time_elapsed":284711,"internal_node_id":"0.0-4.0-1.51","subject_id":"602ad4a0805527185ca10247","study_id":"6197b3f67c2b5cd3b6d9596a","session_id":"619be32672ec4e4222f633d5","condition":"contingent","relevant_dimensions":["antennae","wings"],"bee_group":{"antennae":"B","wings":"1","pattern":"X","legs":"X"},"bonus":1.3200000000000007},{"rt":732.4000000003725,"stimulus":"bees-with-color/bee-A1DM.svg","response":0,"trial_type":"image-button-response","trial_index":111,"time_elapsed":285444,"internal_node_id":"0.0-4.0-0.52","subject_id":"602ad4a0805527185ca10247","study_id":"6197b3f67c2b5cd3b6d9596a","session_id":"619be32672ec4e4222f633d5","condition":"contingent","relevant_dimensions":["antennae","wings"],"bee_group":{"antennae":"B","wings":"1","pattern":"X","legs":"X"},"action":"harvest","summary":"good-harvest","bonus":1.3200000000000007},{"rt":569.8999999985099,"stimulus":"\n                    <p><b>Action: <em>harvest</em></b></p>\n                    <p>This is the bee that you just saw.</p>\n                    <img src=\"bees-with-color/bee-A1DM.svg\" width=\"200\">\n                    <p><span class=\"greenText\"><b>Successful harvest!</b></span><br>Your pay has increased by $0.02. Your bonus pay is now $0.96.</p>\n            ","response":0,"trial_type":"html-button-response","trial_index":112,"time_elapsed":286015,"internal_node_id":"0.0-4.0-1.52","subject_id":"602ad4a0805527185ca10247","study_id":"6197b3f67c2b5cd3b6d9596a","session_id":"619be32672ec4e4222f633d5","condition":"contingent","relevant_dimensions":["antennae","wings"],"bee_group":{"antennae":"B","wings":"1","pattern":"X","legs":"X"},"bonus":1.3200000000000007},{"rt":715.0999999996275,"stimulus":"bees-with-color/bee-A1DF.svg","response":0,"trial_type":"image-button-response","trial_index":113,"time_elapsed":286731,"internal_node_id":"0.0-4.0-0.53","subject_id":"602ad4a0805527185ca10247","study_id":"6197b3f67c2b5cd3b6d9596a","session_id":"619be32672ec4e4222f633d5","condition":"contingent","relevant_dimensions":["antennae","wings"],"bee_group":{"antennae":"B","wings":"1","pattern":"X","legs":"X"},"action":"harvest","summary":"good-harvest","bonus":1.3200000000000007},{"rt":587.0999999996275,"stimulus":"\n                    <p><b>Action: <em>harvest</em></b></p>\n                    <p>This is the bee that you just saw.</p>\n                    <img src=\"bees-with-color/bee-A1DF.svg\" width=\"200\">\n                    <p><span class=\"greenText\"><b>Successful harvest!</b></span><br>Your pay has increased by $0.02. Your bonus pay is now $0.98.</p>\n            ","response":0,"trial_type":"html-button-response","trial_index":114,"time_elapsed":287318,"internal_node_id":"0.0-4.0-1.53","subject_id":"602ad4a0805527185ca10247","study_id":"6197b3f67c2b5cd3b6d9596a","session_id":"619be32672ec4e4222f633d5","condition":"contingent","relevant_dimensions":["antennae","wings"],"bee_group":{"antennae":"B","wings":"1","pattern":"X","legs":"X"},"bonus":1.3200000000000007},{"rt":690.1999999992549,"stimulus":"bees-with-color/bee-A2DF.svg","response":0,"trial_type":"image-button-response","trial_index":115,"time_elapsed":288009,"internal_node_id":"0.0-4.0-0.54","subject_id":"602ad4a0805527185ca10247","study_id":"6197b3f67c2b5cd3b6d9596a","session_id":"619be32672ec4e4222f633d5","condition":"contingent","relevant_dimensions":["antennae","wings"],"bee_group":{"antennae":"B","wings":"1","pattern":"X","legs":"X"},"action":"harvest","summary":"good-harvest","bonus":1.3200000000000007},{"rt":497.19999999925494,"stimulus":"\n                    <p><b>Action: <em>harvest</em></b></p>\n                    <p>This is the bee that you just saw.</p>\n                    <img src=\"bees-with-color/bee-A2DF.svg\" width=\"200\">\n                    <p><span class=\"greenText\"><b>Successful harvest!</b></span><br>Your pay has increased by $0.02. Your bonus pay is now $1.00.</p>\n            ","response":0,"trial_type":"html-button-response","trial_index":116,"time_elapsed":288507,"internal_node_id":"0.0-4.0-1.54","subject_id":"602ad4a0805527185ca10247","study_id":"6197b3f67c2b5cd3b6d9596a","session_id":"619be32672ec4e4222f633d5","condition":"contingent","relevant_dimensions":["antennae","wings"],"bee_group":{"antennae":"B","wings":"1","pattern":"X","legs":"X"},"bonus":1.3200000000000007},{"rt":759.5,"stimulus":"bees-with-color/bee-B2DF.svg","response":1,"trial_type":"image-button-response","trial_index":117,"time_elapsed":289267,"internal_node_id":"0.0-4.0-0.55","subject_id":"602ad4a0805527185ca10247","study_id":"6197b3f67c2b5cd3b6d9596a","session_id":"619be32672ec4e4222f633d5","condition":"contingent","relevant_dimensions":["antennae","wings"],"bee_group":{"antennae":"B","wings":"1","pattern":"X","legs":"X"},"action":"avoid","summary":"bad-avoid","bonus":1.3200000000000007},{"rt":471.40000000037253,"stimulus":"\n                    <p><b>Action: <em>avoid</em></b></p>\n                    <p>This is the bee that you just saw.</p>\n                    <img src=\"bees-with-color/bee-B2DF.svg\" width=\"200\">\n                    <p><br>Your bonus pay is unchanged, and remains at $1.00.</p>\n            ","response":0,"trial_type":"html-button-response","trial_index":118,"time_elapsed":289739,"internal_node_id":"0.0-4.0-1.55","subject_id":"602ad4a0805527185ca10247","study_id":"6197b3f67c2b5cd3b6d9596a","session_id":"619be32672ec4e4222f633d5","condition":"contingent","relevant_dimensions":["antennae","wings"],"bee_group":{"antennae":"B","wings":"1","pattern":"X","legs":"X"},"bonus":1.3200000000000007},{"rt":1244.4000000003725,"stimulus":"bees-with-color/bee-B2DM.svg","response":1,"trial_type":"image-button-response","trial_index":119,"time_elapsed":290984,"internal_node_id":"0.0-4.0-0.56","subject_id":"602ad4a0805527185ca10247","study_id":"6197b3f67c2b5cd3b6d9596a","session_id":"619be32672ec4e4222f633d5","condition":"contingent","relevant_dimensions":["antennae","wings"],"bee_group":{"antennae":"B","wings":"1","pattern":"X","legs":"X"},"action":"avoid","summary":"bad-avoid","bonus":1.3200000000000007},{"rt":571.1999999992549,"stimulus":"\n                    <p><b>Action: <em>avoid</em></b></p>\n                    <p>This is the bee that you just saw.</p>\n                    <img src=\"bees-with-color/bee-B2DM.svg\" width=\"200\">\n                    <p><br>Your bonus pay is unchanged, and remains at $1.00.</p>\n            ","response":0,"trial_type":"html-button-response","trial_index":120,"time_elapsed":291556,"internal_node_id":"0.0-4.0-1.56","subject_id":"602ad4a0805527185ca10247","study_id":"6197b3f67c2b5cd3b6d9596a","session_id":"619be32672ec4e4222f633d5","condition":"contingent","relevant_dimensions":["antennae","wings"],"bee_group":{"antennae":"B","wings":"1","pattern":"X","legs":"X"},"bonus":1.3200000000000007},{"rt":657.5,"stimulus":"bees-with-color/bee-B1DF.svg","response":1,"trial_type":"image-button-response","trial_index":121,"time_elapsed":292214,"internal_node_id":"0.0-4.0-0.57","subject_id":"602ad4a0805527185ca10247","study_id":"6197b3f67c2b5cd3b6d9596a","session_id":"619be32672ec4e4222f633d5","condition":"contingent","relevant_dimensions":["antennae","wings"],"bee_group":{"antennae":"B","wings":"1","pattern":"X","legs":"X"},"action":"avoid","summary":"good-avoid","bonus":1.3200000000000007},{"rt":751.1999999992549,"stimulus":"\n                    <p><b>Action: <em>avoid</em></b></p>\n                    <p>This is the bee that you just saw.</p>\n                    <img src=\"bees-with-color/bee-B1DF.svg\" width=\"200\">\n                    <p><br>Your bonus pay is unchanged, and remains at $1.00.</p>\n            ","response":0,"trial_type":"html-button-response","trial_index":122,"time_elapsed":292966,"internal_node_id":"0.0-4.0-1.57","subject_id":"602ad4a0805527185ca10247","study_id":"6197b3f67c2b5cd3b6d9596a","session_id":"619be32672ec4e4222f633d5","condition":"contingent","relevant_dimensions":["antennae","wings"],"bee_group":{"antennae":"B","wings":"1","pattern":"X","legs":"X"},"bonus":1.3200000000000007},{"rt":647.4000000003725,"stimulus":"bees-with-color/bee-A2DM.svg","response":0,"trial_type":"image-button-response","trial_index":123,"time_elapsed":293614,"internal_node_id":"0.0-4.0-0.58","subject_id":"602ad4a0805527185ca10247","study_id":"6197b3f67c2b5cd3b6d9596a","session_id":"619be32672ec4e4222f633d5","condition":"contingent","relevant_dimensions":["antennae","wings"],"bee_group":{"antennae":"B","wings":"1","pattern":"X","legs":"X"},"action":"harvest","summary":"good-harvest","bonus":1.3200000000000007},{"rt":790.2999999988824,"stimulus":"\n                    <p><b>Action: <em>harvest</em></b></p>\n                    <p>This is the bee that you just saw.</p>\n                    <img src=\"bees-with-color/bee-A2DM.svg\" width=\"200\">\n                    <p><span class=\"greenText\"><b>Successful harvest!</b></span><br>Your pay has increased by $0.02. Your bonus pay is now $1.02.</p>\n            ","response":0,"trial_type":"html-button-response","trial_index":124,"time_elapsed":294405,"internal_node_id":"0.0-4.0-1.58","subject_id":"602ad4a0805527185ca10247","study_id":"6197b3f67c2b5cd3b6d9596a","session_id":"619be32672ec4e4222f633d5","condition":"contingent","relevant_dimensions":["antennae","wings"],"bee_group":{"antennae":"B","wings":"1","pattern":"X","legs":"X"},"bonus":1.3200000000000007},{"rt":618.2999999988824,"stimulus":"bees-with-color/bee-A2SF.svg","response":0,"trial_type":"image-button-response","trial_index":125,"time_elapsed":295024,"internal_node_id":"0.0-4.0-0.59","subject_id":"602ad4a0805527185ca10247","study_id":"6197b3f67c2b5cd3b6d9596a","session_id":"619be32672ec4e4222f633d5","condition":"contingent","relevant_dimensions":["antennae","wings"],"bee_group":{"antennae":"B","wings":"1","pattern":"X","legs":"X"},"action":"harvest","summary":"good-harvest","bonus":1.3200000000000007},{"rt":515,"stimulus":"\n                    <p><b>Action: <em>harvest</em></b></p>\n                    <p>This is the bee that you just saw.</p>\n                    <img src=\"bees-with-color/bee-A2SF.svg\" width=\"200\">\n                    <p><span class=\"greenText\"><b>Successful harvest!</b></span><br>Your pay has increased by $0.02. Your bonus pay is now $1.04.</p>\n            ","response":0,"trial_type":"html-button-response","trial_index":126,"time_elapsed":295540,"internal_node_id":"0.0-4.0-1.59","subject_id":"602ad4a0805527185ca10247","study_id":"6197b3f67c2b5cd3b6d9596a","session_id":"619be32672ec4e4222f633d5","condition":"contingent","relevant_dimensions":["antennae","wings"],"bee_group":{"antennae":"B","wings":"1","pattern":"X","legs":"X"},"bonus":1.3200000000000007},{"rt":538.4000000003725,"stimulus":"bees-with-color/bee-A1SM.svg","response":0,"trial_type":"image-button-response","trial_index":127,"time_elapsed":296079,"internal_node_id":"0.0-4.0-0.60","subject_id":"602ad4a0805527185ca10247","study_id":"6197b3f67c2b5cd3b6d9596a","session_id":"619be32672ec4e4222f633d5","condition":"contingent","relevant_dimensions":["antennae","wings"],"bee_group":{"antennae":"B","wings":"1","pattern":"X","legs":"X"},"action":"harvest","summary":"good-harvest","bonus":1.3200000000000007},{"rt":582.5,"stimulus":"\n                    <p><b>Action: <em>harvest</em></b></p>\n                    <p>This is the bee that you just saw.</p>\n                    <img src=\"bees-with-color/bee-A1SM.svg\" width=\"200\">\n                    <p><span class=\"greenText\"><b>Successful harvest!</b></span><br>Your pay has increased by $0.02. Your bonus pay is now $1.06.</p>\n            ","response":0,"trial_type":"html-button-response","trial_index":128,"time_elapsed":296662,"internal_node_id":"0.0-4.0-1.60","subject_id":"602ad4a0805527185ca10247","study_id":"6197b3f67c2b5cd3b6d9596a","session_id":"619be32672ec4e4222f633d5","condition":"contingent","relevant_dimensions":["antennae","wings"],"bee_group":{"antennae":"B","wings":"1","pattern":"X","legs":"X"},"bonus":1.3200000000000007},{"rt":678.2999999988824,"stimulus":"bees-with-color/bee-B1DM.svg","response":1,"trial_type":"image-button-response","trial_index":129,"time_elapsed":297341,"internal_node_id":"0.0-4.0-0.61","subject_id":"602ad4a0805527185ca10247","study_id":"6197b3f67c2b5cd3b6d9596a","session_id":"619be32672ec4e4222f633d5","condition":"contingent","relevant_dimensions":["antennae","wings"],"bee_group":{"antennae":"B","wings":"1","pattern":"X","legs":"X"},"action":"avoid","summary":"good-avoid","bonus":1.3200000000000007},{"rt":425.19999999925494,"stimulus":"\n                    <p><b>Action: <em>avoid</em></b></p>\n                    <p>This is the bee that you just saw.</p>\n                    <img src=\"bees-with-color/bee-B1DM.svg\" width=\"200\">\n                    <p><br>Your bonus pay is unchanged, and remains at $1.06.</p>\n            ","response":0,"trial_type":"html-button-response","trial_index":130,"time_elapsed":297767,"internal_node_id":"0.0-4.0-1.61","subject_id":"602ad4a0805527185ca10247","study_id":"6197b3f67c2b5cd3b6d9596a","session_id":"619be32672ec4e4222f633d5","condition":"contingent","relevant_dimensions":["antennae","wings"],"bee_group":{"antennae":"B","wings":"1","pattern":"X","legs":"X"},"bonus":1.3200000000000007},{"rt":685.5,"stimulus":"bees-with-color/bee-A2SM.svg","response":0,"trial_type":"image-button-response","trial_index":131,"time_elapsed":298453,"internal_node_id":"0.0-4.0-0.62","subject_id":"602ad4a0805527185ca10247","study_id":"6197b3f67c2b5cd3b6d9596a","session_id":"619be32672ec4e4222f633d5","condition":"contingent","relevant_dimensions":["antennae","wings"],"bee_group":{"antennae":"B","wings":"1","pattern":"X","legs":"X"},"action":"harvest","summary":"good-harvest","bonus":1.3200000000000007},{"rt":504.19999999925494,"stimulus":"\n                    <p><b>Action: <em>harvest</em></b></p>\n                    <p>This is the bee that you just saw.</p>\n                    <img src=\"bees-with-color/bee-A2SM.svg\" width=\"200\">\n                    <p><span class=\"greenText\"><b>Successful harvest!</b></span><br>Your pay has increased by $0.02. Your bonus pay is now $1.08.</p>\n            ","response":0,"trial_type":"html-button-response","trial_index":132,"time_elapsed":298958,"internal_node_id":"0.0-4.0-1.62","subject_id":"602ad4a0805527185ca10247","study_id":"6197b3f67c2b5cd3b6d9596a","session_id":"619be32672ec4e4222f633d5","condition":"contingent","relevant_dimensions":["antennae","wings"],"bee_group":{"antennae":"B","wings":"1","pattern":"X","legs":"X"},"bonus":1.3200000000000007},{"rt":979.5999999996275,"stimulus":"bees-with-color/bee-B2SF.svg","response":1,"trial_type":"image-button-response","trial_index":133,"time_elapsed":299939,"internal_node_id":"0.0-4.0-0.63","subject_id":"602ad4a0805527185ca10247","study_id":"6197b3f67c2b5cd3b6d9596a","session_id":"619be32672ec4e4222f633d5","condition":"contingent","relevant_dimensions":["antennae","wings"],"bee_group":{"antennae":"B","wings":"1","pattern":"X","legs":"X"},"action":"avoid","summary":"bad-avoid","bonus":1.3200000000000007},{"rt":444.7999999988824,"stimulus":"\n                    <p><b>Action: <em>avoid</em></b></p>\n                    <p>This is the bee that you just saw.</p>\n                    <img src=\"bees-with-color/bee-B2SF.svg\" width=\"200\">\n                    <p><br>Your bonus pay is unchanged, and remains at $1.08.</p>\n            ","response":0,"trial_type":"html-button-response","trial_index":134,"time_elapsed":300384,"internal_node_id":"0.0-4.0-1.63","subject_id":"602ad4a0805527185ca10247","study_id":"6197b3f67c2b5cd3b6d9596a","session_id":"619be32672ec4e4222f633d5","condition":"contingent","relevant_dimensions":["antennae","wings"],"bee_group":{"antennae":"B","wings":"1","pattern":"X","legs":"X"},"bonus":1.3200000000000007},{"rt":15419.099999999627,"stimulus":"You have completed the first part of this experiment.<br><br>You will now begin a shorter second part, in which you will receive no feedback.<br>The same rules regarding bonus pay apply.<br><br>Press any key to begin.","response":"arrowright","trial_type":"html-keyboard-response","trial_index":135,"time_elapsed":315805,"internal_node_id":"0.0-5.0","subject_id":"602ad4a0805527185ca10247","study_id":"6197b3f67c2b5cd3b6d9596a","session_id":"619be32672ec4e4222f633d5","condition":"contingent","relevant_dimensions":["antennae","wings"],"bee_group":{"antennae":"B","wings":"1","pattern":"X","legs":"X"},"bonus":1.3200000000000007},{"rt":1177,"stimulus":"bees-with-color/bee-B1DF.svg","response":1,"trial_type":"image-button-response","trial_index":136,"time_elapsed":317001,"internal_node_id":"0.0-6.0-0.0","subject_id":"602ad4a0805527185ca10247","study_id":"6197b3f67c2b5cd3b6d9596a","session_id":"619be32672ec4e4222f633d5","condition":"contingent","relevant_dimensions":["antennae","wings"],"bee_group":{"antennae":"B","wings":"1","pattern":"X","legs":"X"},"bonus":1.3200000000000007},{"rt":2395.89999999851,"stimulus":"bees-with-color/bee-A1DF.svg","response":0,"trial_type":"image-button-response","trial_index":137,"time_elapsed":319398,"internal_node_id":"0.0-6.0-0.1","subject_id":"602ad4a0805527185ca10247","study_id":"6197b3f67c2b5cd3b6d9596a","session_id":"619be32672ec4e4222f633d5","condition":"contingent","relevant_dimensions":["antennae","wings"],"bee_group":{"antennae":"B","wings":"1","pattern":"X","legs":"X"},"bonus":1.3200000000000007},{"rt":983.0999999996275,"stimulus":"bees-with-color/bee-A2SF.svg","response":0,"trial_type":"image-button-response","trial_index":138,"time_elapsed":320382,"internal_node_id":"0.0-6.0-0.2","subject_id":"602ad4a0805527185ca10247","study_id":"6197b3f67c2b5cd3b6d9596a","session_id":"619be32672ec4e4222f633d5","condition":"contingent","relevant_dimensions":["antennae","wings"],"bee_group":{"antennae":"B","wings":"1","pattern":"X","legs":"X"},"bonus":1.3200000000000007},{"rt":930.0999999996275,"stimulus":"bees-with-color/bee-B1DM.svg","response":1,"trial_type":"image-button-response","trial_index":139,"time_elapsed":321313,"internal_node_id":"0.0-6.0-0.3","subject_id":"602ad4a0805527185ca10247","study_id":"6197b3f67c2b5cd3b6d9596a","session_id":"619be32672ec4e4222f633d5","condition":"contingent","relevant_dimensions":["antennae","wings"],"bee_group":{"antennae":"B","wings":"1","pattern":"X","legs":"X"},"bonus":1.3200000000000007},{"rt":513,"stimulus":"bees-with-color/bee-B2DM.svg","response":1,"trial_type":"image-button-response","trial_index":140,"time_elapsed":321827,"internal_node_id":"0.0-6.0-0.4","subject_id":"602ad4a0805527185ca10247","study_id":"6197b3f67c2b5cd3b6d9596a","session_id":"619be32672ec4e4222f633d5","condition":"contingent","relevant_dimensions":["antennae","wings"],"bee_group":{"antennae":"B","wings":"1","pattern":"X","legs":"X"},"bonus":1.3200000000000007},{"rt":701.9000000003725,"stimulus":"bees-with-color/bee-A1SF.svg","response":0,"trial_type":"image-button-response","trial_index":141,"time_elapsed":322530,"internal_node_id":"0.0-6.0-0.5","subject_id":"602ad4a0805527185ca10247","study_id":"6197b3f67c2b5cd3b6d9596a","session_id":"619be32672ec4e4222f633d5","condition":"contingent","relevant_dimensions":["antennae","wings"],"bee_group":{"antennae":"B","wings":"1","pattern":"X","legs":"X"},"bonus":1.3200000000000007},{"rt":587.0999999996275,"stimulus":"bees-with-color/bee-A2SM.svg","response":0,"trial_type":"image-button-response","trial_index":142,"time_elapsed":323118,"internal_node_id":"0.0-6.0-0.6","subject_id":"602ad4a0805527185ca10247","study_id":"6197b3f67c2b5cd3b6d9596a","session_id":"619be32672ec4e4222f633d5","condition":"contingent","relevant_dimensions":["antennae","wings"],"bee_group":{"antennae":"B","wings":"1","pattern":"X","legs":"X"},"bonus":1.3200000000000007},{"rt":566,"stimulus":"bees-with-color/bee-B2SM.svg","response":1,"trial_type":"image-button-response","trial_index":143,"time_elapsed":323685,"internal_node_id":"0.0-6.0-0.7","subject_id":"602ad4a0805527185ca10247","study_id":"6197b3f67c2b5cd3b6d9596a","session_id":"619be32672ec4e4222f633d5","condition":"contingent","relevant_dimensions":["antennae","wings"],"bee_group":{"antennae":"B","wings":"1","pattern":"X","legs":"X"},"bonus":1.3200000000000007},{"rt":585,"stimulus":"bees-with-color/bee-B2SF.svg","response":1,"trial_type":"image-button-response","trial_index":144,"time_elapsed":324271,"internal_node_id":"0.0-6.0-0.8","subject_id":"602ad4a0805527185ca10247","study_id":"6197b3f67c2b5cd3b6d9596a","session_id":"619be32672ec4e4222f633d5","condition":"contingent","relevant_dimensions":["antennae","wings"],"bee_group":{"antennae":"B","wings":"1","pattern":"X","legs":"X"},"bonus":1.3200000000000007},{"rt":749,"stimulus":"bees-with-color/bee-A1SM.svg","response":0,"trial_type":"image-button-response","trial_index":145,"time_elapsed":325021,"internal_node_id":"0.0-6.0-0.9","subject_id":"602ad4a0805527185ca10247","study_id":"6197b3f67c2b5cd3b6d9596a","session_id":"619be32672ec4e4222f633d5","condition":"contingent","relevant_dimensions":["antennae","wings"],"bee_group":{"antennae":"B","wings":"1","pattern":"X","legs":"X"},"bonus":1.3200000000000007},{"rt":629.0999999996275,"stimulus":"bees-with-color/bee-A1DM.svg","response":0,"trial_type":"image-button-response","trial_index":146,"time_elapsed":325651,"internal_node_id":"0.0-6.0-0.10","subject_id":"602ad4a0805527185ca10247","study_id":"6197b3f67c2b5cd3b6d9596a","session_id":"619be32672ec4e4222f633d5","condition":"contingent","relevant_dimensions":["antennae","wings"],"bee_group":{"antennae":"B","wings":"1","pattern":"X","legs":"X"},"bonus":1.3200000000000007},{"rt":873.7999999988824,"stimulus":"bees-with-color/bee-B1SM.svg","response":1,"trial_type":"image-button-response","trial_index":147,"time_elapsed":326526,"internal_node_id":"0.0-6.0-0.11","subject_id":"602ad4a0805527185ca10247","study_id":"6197b3f67c2b5cd3b6d9596a","session_id":"619be32672ec4e4222f633d5","condition":"contingent","relevant_dimensions":["antennae","wings"],"bee_group":{"antennae":"B","wings":"1","pattern":"X","legs":"X"},"bonus":1.3200000000000007},{"rt":534.1999999992549,"stimulus":"bees-with-color/bee-B2DF.svg","response":1,"trial_type":"image-button-response","trial_index":148,"time_elapsed":327061,"internal_node_id":"0.0-6.0-0.12","subject_id":"602ad4a0805527185ca10247","study_id":"6197b3f67c2b5cd3b6d9596a","session_id":"619be32672ec4e4222f633d5","condition":"contingent","relevant_dimensions":["antennae","wings"],"bee_group":{"antennae":"B","wings":"1","pattern":"X","legs":"X"},"bonus":1.3200000000000007},{"rt":454,"stimulus":"bees-with-color/bee-B1SF.svg","response":1,"trial_type":"image-button-response","trial_index":149,"time_elapsed":327516,"internal_node_id":"0.0-6.0-0.13","subject_id":"602ad4a0805527185ca10247","study_id":"6197b3f67c2b5cd3b6d9596a","session_id":"619be32672ec4e4222f633d5","condition":"contingent","relevant_dimensions":["antennae","wings"],"bee_group":{"antennae":"B","wings":"1","pattern":"X","legs":"X"},"bonus":1.3200000000000007},{"rt":588,"stimulus":"bees-with-color/bee-A2DM.svg","response":0,"trial_type":"image-button-response","trial_index":150,"time_elapsed":328105,"internal_node_id":"0.0-6.0-0.14","subject_id":"602ad4a0805527185ca10247","study_id":"6197b3f67c2b5cd3b6d9596a","session_id":"619be32672ec4e4222f633d5","condition":"contingent","relevant_dimensions":["antennae","wings"],"bee_group":{"antennae":"B","wings":"1","pattern":"X","legs":"X"},"bonus":1.3200000000000007},{"rt":446,"stimulus":"bees-with-color/bee-A2DF.svg","response":0,"trial_type":"image-button-response","trial_index":151,"time_elapsed":328552,"internal_node_id":"0.0-6.0-0.15","subject_id":"602ad4a0805527185ca10247","study_id":"6197b3f67c2b5cd3b6d9596a","session_id":"619be32672ec4e4222f633d5","condition":"contingent","relevant_dimensions":["antennae","wings"],"bee_group":{"antennae":"B","wings":"1","pattern":"X","legs":"X"},"bonus":1.3200000000000007},{"rt":647.3999999985099,"stimulus":"bees-with-color/bee-B2SF.svg","response":1,"trial_type":"image-button-response","trial_index":152,"time_elapsed":329200,"internal_node_id":"0.0-6.0-0.16","subject_id":"602ad4a0805527185ca10247","study_id":"6197b3f67c2b5cd3b6d9596a","session_id":"619be32672ec4e4222f633d5","condition":"contingent","relevant_dimensions":["antennae","wings"],"bee_group":{"antennae":"B","wings":"1","pattern":"X","legs":"X"},"bonus":1.3200000000000007},{"rt":590.9000000003725,"stimulus":"bees-with-color/bee-B1DF.svg","response":1,"trial_type":"image-button-response","trial_index":153,"time_elapsed":329792,"internal_node_id":"0.0-6.0-0.17","subject_id":"602ad4a0805527185ca10247","study_id":"6197b3f67c2b5cd3b6d9596a","session_id":"619be32672ec4e4222f633d5","condition":"contingent","relevant_dimensions":["antennae","wings"],"bee_group":{"antennae":"B","wings":"1","pattern":"X","legs":"X"},"bonus":1.3200000000000007},{"rt":799.4000000003725,"stimulus":"bees-with-color/bee-A2SM.svg","response":0,"trial_type":"image-button-response","trial_index":154,"time_elapsed":330592,"internal_node_id":"0.0-6.0-0.18","subject_id":"602ad4a0805527185ca10247","study_id":"6197b3f67c2b5cd3b6d9596a","session_id":"619be32672ec4e4222f633d5","condition":"contingent","relevant_dimensions":["antennae","wings"],"bee_group":{"antennae":"B","wings":"1","pattern":"X","legs":"X"},"bonus":1.3200000000000007},{"rt":476.40000000037253,"stimulus":"bees-with-color/bee-A2SF.svg","response":0,"trial_type":"image-button-response","trial_index":155,"time_elapsed":331070,"internal_node_id":"0.0-6.0-0.19","subject_id":"602ad4a0805527185ca10247","study_id":"6197b3f67c2b5cd3b6d9596a","session_id":"619be32672ec4e4222f633d5","condition":"contingent","relevant_dimensions":["antennae","wings"],"bee_group":{"antennae":"B","wings":"1","pattern":"X","legs":"X"},"bonus":1.3200000000000007},{"rt":847.0999999996275,"stimulus":"bees-with-color/bee-B2SM.svg","response":1,"trial_type":"image-button-response","trial_index":156,"time_elapsed":331917,"internal_node_id":"0.0-6.0-0.20","subject_id":"602ad4a0805527185ca10247","study_id":"6197b3f67c2b5cd3b6d9596a","session_id":"619be32672ec4e4222f633d5","condition":"contingent","relevant_dimensions":["antennae","wings"],"bee_group":{"antennae":"B","wings":"1","pattern":"X","legs":"X"},"bonus":1.3200000000000007},{"rt":657.0999999996275,"stimulus":"bees-with-color/bee-A2DM.svg","response":0,"trial_type":"image-button-response","trial_index":157,"time_elapsed":332575,"internal_node_id":"0.0-6.0-0.21","subject_id":"602ad4a0805527185ca10247","study_id":"6197b3f67c2b5cd3b6d9596a","session_id":"619be32672ec4e4222f633d5","condition":"contingent","relevant_dimensions":["antennae","wings"],"bee_group":{"antennae":"B","wings":"1","pattern":"X","legs":"X"},"bonus":1.3200000000000007},{"rt":766.1999999992549,"stimulus":"bees-with-color/bee-A1DF.svg","response":0,"trial_type":"image-button-response","trial_index":158,"time_elapsed":333342,"internal_node_id":"0.0-6.0-0.22","subject_id":"602ad4a0805527185ca10247","study_id":"6197b3f67c2b5cd3b6d9596a","session_id":"619be32672ec4e4222f633d5","condition":"contingent","relevant_dimensions":["antennae","wings"],"bee_group":{"antennae":"B","wings":"1","pattern":"X","legs":"X"},"bonus":1.3200000000000007},{"rt":906,"stimulus":"bees-with-color/bee-B1DM.svg","response":1,"trial_type":"image-button-response","trial_index":159,"time_elapsed":334249,"internal_node_id":"0.0-6.0-0.23","subject_id":"602ad4a0805527185ca10247","study_id":"6197b3f67c2b5cd3b6d9596a","session_id":"619be32672ec4e4222f633d5","condition":"contingent","relevant_dimensions":["antennae","wings"],"bee_group":{"antennae":"B","wings":"1","pattern":"X","legs":"X"},"bonus":1.3200000000000007},{"rt":851.1999999992549,"stimulus":"bees-with-color/bee-B2DF.svg","response":1,"trial_type":"image-button-response","trial_index":160,"time_elapsed":335101,"internal_node_id":"0.0-6.0-0.24","subject_id":"602ad4a0805527185ca10247","study_id":"6197b3f67c2b5cd3b6d9596a","session_id":"619be32672ec4e4222f633d5","condition":"contingent","relevant_dimensions":["antennae","wings"],"bee_group":{"antennae":"B","wings":"1","pattern":"X","legs":"X"},"bonus":1.3200000000000007},{"rt":4394.0999999996275,"stimulus":"bees-with-color/bee-A1DM.svg","response":1,"trial_type":"image-button-response","trial_index":161,"time_elapsed":339496,"internal_node_id":"0.0-6.0-0.25","subject_id":"602ad4a0805527185ca10247","study_id":"6197b3f67c2b5cd3b6d9596a","session_id":"619be32672ec4e4222f633d5","condition":"contingent","relevant_dimensions":["antennae","wings"],"bee_group":{"antennae":"B","wings":"1","pattern":"X","legs":"X"},"bonus":1.3200000000000007},{"rt":165.90000000037253,"stimulus":"bees-with-color/bee-A1SF.svg","response":1,"trial_type":"image-button-response","trial_index":162,"time_elapsed":339663,"internal_node_id":"0.0-6.0-0.26","subject_id":"602ad4a0805527185ca10247","study_id":"6197b3f67c2b5cd3b6d9596a","session_id":"619be32672ec4e4222f633d5","condition":"contingent","relevant_dimensions":["antennae","wings"],"bee_group":{"antennae":"B","wings":"1","pattern":"X","legs":"X"},"bonus":1.3200000000000007},{"rt":155.19999999925494,"stimulus":"bees-with-color/bee-B2DM.svg","response":1,"trial_type":"image-button-response","trial_index":163,"time_elapsed":339819,"internal_node_id":"0.0-6.0-0.27","subject_id":"602ad4a0805527185ca10247","study_id":"6197b3f67c2b5cd3b6d9596a","session_id":"619be32672ec4e4222f633d5","condition":"contingent","releva