[{"success":true,"trial_type":"fullscreen","trial_index":0,"time_elapsed":3736,"internal_node_id":"0.0-0.0","subject_id":"5fe65c62e5e63147348427a6","study_id":"6197b3f67c2b5cd3b6d9596a","session_id":"619beefc042547759094e911","condition":"full-information","relevant_dimensions":["antennae","legs"],"bee_group":{"antennae":"A","wings":"X","pattern":"X","legs":"M"},"bonus":0.800000000000001},{"success":true,"timeout":false,"failed_images":[],"failed_audio":[],"failed_video":[],"trial_type":"preload","trial_index":1,"time_elapsed":5924,"internal_node_id":"0.0-1.0","subject_id":"5fe65c62e5e63147348427a6","study_id":"6197b3f67c2b5cd3b6d9596a","session_id":"619beefc042547759094e911","condition":"full-information","relevant_dimensions":["antennae","legs"],"bee_group":{"antennae":"A","wings":"X","pattern":"X","legs":"M"},"bonus":0.800000000000001},{"rt":1721,"stimulus":"Welcome! Press any key to begin.","response":" ","trial_type":"html-keyboard-response","trial_index":2,"time_elapsed":7646,"internal_node_id":"0.0-2.0","subject_id":"5fe65c62e5e63147348427a6","study_id":"6197b3f67c2b5cd3b6d9596a","session_id":"619beefc042547759094e911","condition":"full-information","relevant_dimensions":["antennae","legs"],"bee_group":{"antennae":"A","wings":"X","pattern":"X","legs":"M"},"bonus":0.800000000000001},{"view_history":[{"page_index":0,"viewing_time":5283},{"page_index":1,"viewing_time":12728},{"page_index":2,"viewing_time":7818},{"page_index":3,"viewing_time":15356},{"page_index":4,"viewing_time":5512},{"page_index":5,"viewing_time":6588},{"page_index":6,"viewing_time":12230},{"page_index":7,"viewing_time":6750},{"page_index":8,"viewing_time":5479},{"page_index":9,"viewing_time":3035},{"page_index":10,"viewing_time":3228},{"page_index":11,"viewing_time":8280},{"page_index":12,"viewing_time":9695},{"page_index":13,"viewing_time":1956},{"page_index":14,"viewing_time":2145}],"rt":106083,"trial_type":"instructions","trial_index":3,"time_elapsed":113730,"internal_node_id":"0.0-3.0-0.0","subject_id":"5fe65c62e5e63147348427a6","study_id":"6197b3f67c2b5cd3b6d9596a","session_id":"619beefc042547759094e911","condition":"full-information","relevant_dimensions":["antennae","legs"],"bee_group":{"antennae":"A","wings":"X","pattern":"X","legs":"M"},"bonus":0.800000000000001},{"rt":24471,"response":{"Q0":["Two or six legs","Single or double wings","Antennae or no antennae"]},"question_order":[0],"trial_type":"survey-multi-select","trial_index":4,"time_elapsed":138204,"internal_node_id":"0.0-3.0-1.0","subject_id":"5fe65c62e5e63147348427a6","study_id":"6197b3f67c2b5cd3b6d9596a","session_id":"619beefc042547759094e911","condition":"full-information","relevant_dimensions":["antennae","legs"],"bee_group":{"antennae":"A","wings":"X","pattern":"X","legs":"M"},"correct":false,"bonus":0.800000000000001},{"rt":22894,"response":{"Q1":"No.","Q2":"Based on the four features of the bee.","Q3":"You learn if it was friendly or dangerous, but do not alter your bonus."},"question_order":[0,1,2],"trial_type":"survey-multi-choice","trial_index":5,"time_elapsed":161098,"internal_node_id":"0.0-3.0-2.0","subject_id":"5fe65c62e5e63147348427a6","study_id":"6197b3f67c2b5cd3b6d9596a","session_id":"619beefc042547759094e911","condition":"full-information","relevant_dimensions":["antennae","legs"],"bee_group":{"antennae":"A","wings":"X","pattern":"X","legs":"M"},"correct":true,"bonus":0.800000000000001},{"rt":3368,"stimulus":"<p>You did not answer all comprehension questions correctly.<br>Press <b>continue</b> to review the instructions again.</p>","response":0,"trial_type":"html-button-response","trial_index":6,"time_elapsed":164467,"internal_node_id":"0.0-3.0-3.0","subject_id":"5fe65c62e5e63147348427a6","study_id":"6197b3f67c2b5cd3b6d9596a","session_id":"619beefc042547759094e911","condition":"full-information","relevant_dimensions":["antennae","legs"],"bee_group":{"antennae":"A","wings":"X","pattern":"X","legs":"M"},"bonus":0.800000000000001},{"view_history":[{"page_index":0,"viewing_time":1513},{"page_index":1,"viewing_time":3515},{"page_index":2,"viewing_time":5861},{"page_index":3,"viewing_time":1940},{"page_index":4,"viewing_time":1681},{"page_index":5,"viewing_time":803},{"page_index":6,"viewing_time":5385},{"page_index":7,"viewing_time":3511},{"page_index":8,"viewing_time":2443},{"page_index":9,"viewing_time":2667},{"page_index":10,"viewing_time":2603},{"page_index":11,"viewing_time":7592},{"page_index":12,"viewing_time":2018},{"page_index":13,"viewing_time":1374},{"page_index":14,"viewing_time":1772}],"rt":44678,"trial_type":"instructions","trial_index":7,"time_elapsed":209147,"internal_node_id":"0.0-3.0-4.0-0.0","subject_id":"5fe65c62e5e63147348427a6","study_id":"6197b3f67c2b5cd3b6d9596a","session_id":"619beefc042547759094e911","condition":"full-information","relevant_dimensions":["antennae","legs"],"bee_group":{"antennae":"A","wings":"X","pattern":"X","legs":"M"},"bonus":0.800000000000001},{"rt":27459,"response":{"Q0":["Two or six legs","Stripes or spots on body","Single or double wings","Antennae or no antennae"]},"question_order":[0],"trial_type":"survey-multi-select","trial_index":8,"time_elapsed":236608,"internal_node_id":"0.0-3.0-4.0-1.0","subject_id":"5fe65c62e5e63147348427a6","study_id":"6197b3f67c2b5cd3b6d9596a","session_id":"619beefc042547759094e911","condition":"full-information","relevant_dimensions":["antennae","legs"],"bee_group":{"antennae":"A","wings":"X","pattern":"X","legs":"M"},"correct":true,"bonus":0.800000000000001},{"rt":12279,"response":{"Q1":"No.","Q2":"Based on the four features of the bee.","Q3":"You learn if it was friendly or dangerous, but do not alter your bonus."},"question_order":[0,1,2],"trial_type":"survey-multi-choice","trial_index":9,"time_elapsed":248887,"internal_node_id":"0.0-3.0-4.0-2.0","subject_id":"5fe65c62e5e63147348427a6","study_id":"6197b3f67c2b5cd3b6d9596a","session_id":"619beefc042547759094e911","condition":"full-information","relevant_dimensions":["antennae","legs"],"bee_group":{"antennae":"A","wings":"X","pattern":"X","legs":"M"},"correct":true,"bonus":0.800000000000001},{"rt":3362,"stimulus":"<p>Congrats, you got everything right<br>When you're ready, click the button below to continue to the experiment.</p>","response":0,"trial_type":"html-button-response","trial_index":10,"time_elapsed":252251,"internal_node_id":"0.0-3.0-4.0-3.0","subject_id":"5fe65c62e5e63147348427a6","study_id":"6197b3f67c2b5cd3b6d9596a","session_id":"619beefc042547759094e911","condition":"full-information","relevant_dimensions":["antennae","legs"],"bee_group":{"antennae":"A","wings":"X","pattern":"X","legs":"M"},"bonus":0.800000000000001},{"rt":2950,"stimulus":"bees-with-color/bee-B1SF.svg","response":0,"trial_type":"image-button-response","trial_index":11,"time_elapsed":255203,"internal_node_id":"0.0-4.0-0.0","subject_id":"5fe65c62e5e63147348427a6","study_id":"6197b3f67c2b5cd3b6d9596a","session_id":"619beefc042547759094e911","condition":"full-information","relevant_dimensions":["antennae","legs"],"bee_group":{"antennae":"A","wings":"X","pattern":"X","legs":"M"},"action":"harvest","summary":"good-harvest","bonus":0.800000000000001},{"rt":7461,"stimulus":"\n                    <p><b>Action: <em>harvest</em></b></p>\n                    <p>This is the bee that you just saw.</p>\n                    <img src=\"bees-with-color/bee-B1SF.svg\" width=\"200\">\n                    <p><span class=\"greenText\"><b>Successful harvest!</b></span><br>Your pay has increased by $0.02. Your bonus pay is now $0.56.</p>\n            ","response":0,"trial_type":"html-button-response","trial_index":12,"time_elapsed":262673,"internal_node_id":"0.0-4.0-1.0","subject_id":"5fe65c62e5e63147348427a6","study_id":"6197b3f67c2b5cd3b6d9596a","session_id":"619beefc042547759094e911","condition":"full-information","relevant_dimensions":["antennae","legs"],"bee_group":{"antennae":"A","wings":"X","pattern":"X","legs":"M"},"bonus":0.800000000000001},{"rt":2669,"stimulus":"bees-with-color/bee-B2DM.svg","response":1,"trial_type":"image-button-response","trial_index":13,"time_elapsed":265343,"internal_node_id":"0.0-4.0-0.1","subject_id":"5fe65c62e5e63147348427a6","study_id":"6197b3f67c2b5cd3b6d9596a","session_id":"619beefc042547759094e911","condition":"full-information","relevant_dimensions":["antennae","legs"],"bee_group":{"antennae":"A","wings":"X","pattern":"X","legs":"M"},"action":"avoid","summary":"bad-avoid","bonus":0.800000000000001},{"rt":7961,"stimulus":"\n                    <p><b>Action: <em>avoid</em></b></p>\n                    <p>This is the bee that you just saw.</p>\n                    <img src=\"bees-with-color/bee-B2DM.svg\" width=\"200\">\n                    <p><span class=\"redText\">Bad choice,</span> the bee was friendly.<br>Your bonus pay is unchanged, and remains at $0.56.</p>\n            ","response":0,"trial_type":"html-button-response","trial_index":14,"time_elapsed":273305,"internal_node_id":"0.0-4.0-1.1","subject_id":"5fe65c62e5e63147348427a6","study_id":"6197b3f67c2b5cd3b6d9596a","session_id":"619beefc042547759094e911","condition":"full-information","relevant_dimensions":["antennae","legs"],"bee_group":{"antennae":"A","wings":"X","pattern":"X","legs":"M"},"bonus":0.800000000000001},{"rt":2633,"stimulus":"bees-with-color/bee-A1DM.svg","response":0,"trial_type":"image-button-response","trial_index":15,"time_elapsed":275939,"internal_node_id":"0.0-4.0-0.2","subject_id":"5fe65c62e5e63147348427a6","study_id":"6197b3f67c2b5cd3b6d9596a","session_id":"619beefc042547759094e911","condition":"full-information","relevant_dimensions":["antennae","legs"],"bee_group":{"antennae":"A","wings":"X","pattern":"X","legs":"M"},"action":"harvest","summary":"bad-harvest","bonus":0.800000000000001},{"rt":7460,"stimulus":"\n                    <p><b>Action: <em>harvest</em></b></p>\n                    <p>This is the bee that you just saw.</p>\n                    <img src=\"bees-with-color/bee-A1DM.svg\" width=\"200\">\n                    <p><span class=\"redText\">Bad choice, the bee was angry.</span><br><b>You have been stung!</b><br>Your pay has been decreased by $0.10. Your bonus pay is now $0.46.</p>\n            ","response":0,"trial_type":"html-button-response","trial_index":16,"time_elapsed":283401,"internal_node_id":"0.0-4.0-1.2","subject_id":"5fe65c62e5e63147348427a6","study_id":"6197b3f67c2b5cd3b6d9596a","session_id":"619beefc042547759094e911","condition":"full-information","relevant_dimensions":["antennae","legs"],"bee_group":{"antennae":"A","wings":"X","pattern":"X","legs":"M"},"bonus":0.800000000000001},{"rt":3454,"stimulus":"bees-with-color/bee-A2DF.svg","response":0,"trial_type":"image-button-response","trial_index":17,"time_elapsed":286855,"internal_node_id":"0.0-4.0-0.3","subject_id":"5fe65c62e5e63147348427a6","study_id":"6197b3f67c2b5cd3b6d9596a","session_id":"619beefc042547759094e911","condition":"full-information","relevant_dimensions":["antennae","legs"],"bee_group":{"antennae":"A","wings":"X","pattern":"X","legs":"M"},"action":"harvest","summary":"good-harvest","bonus":0.800000000000001},{"rt":2345,"stimulus":"\n                    <p><b>Action: <em>harvest</em></b></p>\n                    <p>This is the bee that you just saw.</p>\n                    <img src=\"bees-with-color/bee-A2DF.svg\" width=\"200\">\n                    <p><span class=\"greenText\"><b>Successful harvest!</b></span><br>Your pay has increased by $0.02. Your bonus pay is now $0.48.</p>\n            ","response":0,"trial_type":"html-button-response","trial_index":18,"time_elapsed":289201,"internal_node_id":"0.0-4.0-1.3","subject_id":"5fe65c62e5e63147348427a6","study_id":"6197b3f67c2b5cd3b6d9596a","session_id":"619beefc042547759094e911","condition":"full-information","relevant_dimensions":["antennae","legs"],"bee_group":{"antennae":"A","wings":"X","pattern":"X","legs":"M"},"bonus":0.800000000000001},{"rt":2037,"stimulus":"bees-with-color/bee-A2SF.svg","response":0,"trial_type":"image-button-response","trial_index":19,"time_elapsed":291239,"internal_node_id":"0.0-4.0-0.4","subject_id":"5fe65c62e5e63147348427a6","study_id":"6197b3f67c2b5cd3b6d9596a","session_id":"619beefc042547759094e911","condition":"full-information","relevant_dimensions":["antennae","legs"],"bee_group":{"antennae":"A","wings":"X","pattern":"X","legs":"M"},"action":"harvest","summary":"good-harvest","bonus":0.800000000000001},{"rt":1833,"stimulus":"\n                    <p><b>Action: <em>harvest</em></b></p>\n                    <p>This is the bee that you just saw.</p>\n                    <img src=\"bees-with-color/bee-A2SF.svg\" width=\"200\">\n                    <p><span class=\"greenText\"><b>Successful harvest!</b></span><br>Your pay has increased by $0.02. Your bonus pay is now $0.50.</p>\n            ","response":0,"trial_type":"html-button-response","trial_index":20,"time_elapsed":293073,"internal_node_id":"0.0-4.0-1.4","subject_id":"5fe65c62e5e63147348427a6","study_id":"6197b3f67c2b5cd3b6d9596a","session_id":"619beefc042547759094e911","condition":"full-information","relevant_dimensions":["antennae","legs"],"bee_group":{"antennae":"A","wings":"X","pattern":"X","legs":"M"},"bonus":0.800000000000001},{"rt":1846,"stimulus":"bees-with-color/bee-A1SF.svg","response":0,"trial_type":"image-button-response","trial_index":21,"time_elapsed":294919,"internal_node_id":"0.0-4.0-0.5","subject_id":"5fe65c62e5e63147348427a6","study_id":"6197b3f67c2b5cd3b6d9596a","session_id":"619beefc042547759094e911","condition":"full-information","relevant_dimensions":["antennae","legs"],"bee_group":{"antennae":"A","wings":"X","pattern":"X","legs":"M"},"action":"harvest","summary":"good-harvest","bonus":0.800000000000001},{"rt":1102,"stimulus":"\n                    <p><b>Action: <em>harvest</em></b></p>\n                    <p>This is the bee that you just saw.</p>\n                    <img src=\"bees-with-color/bee-A1SF.svg\" width=\"200\">\n                    <p><span class=\"greenText\"><b>Successful harvest!</b></span><br>Your pay has increased by $0.02. Your bonus pay is now $0.52.</p>\n            ","response":0,"trial_type":"html-button-response","trial_index":22,"time_elapsed":296023,"internal_node_id":"0.0-4.0-1.5","subject_id":"5fe65c62e5e63147348427a6","study_id":"6197b3f67c2b5cd3b6d9596a","session_id":"619beefc042547759094e911","condition":"full-information","relevant_dimensions":["antennae","legs"],"bee_group":{"antennae":"A","wings":"X","pattern":"X","legs":"M"},"bonus":0.800000000000001},{"rt":4047,"stimulus":"bees-with-color/bee-B2SM.svg","response":0,"trial_type":"image-button-response","trial_index":23,"time_elapsed":300071,"internal_node_id":"0.0-4.0-0.6","subject_id":"5fe65c62e5e63147348427a6","study_id":"6197b3f67c2b5cd3b6d9596a","session_id":"619beefc042547759094e911","condition":"full-information","relevant_dimensions":["antennae","legs"],"bee_group":{"antennae":"A","wings":"X","pattern":"X","legs":"M"},"action":"harvest","summary":"good-harvest","bonus":0.800000000000001},{"rt":1677,"stimulus":"\n                    <p><b>Action: <em>harvest</em></b></p>\n                    <p>This is the bee that you just saw.</p>\n                    <img src=\"bees-with-color/bee-B2SM.svg\" width=\"200\">\n                    <p><span class=\"greenText\"><b>Successful harvest!</b></span><br>Your pay has increased by $0.02. Your bonus pay is now $0.54.</p>\n            ","response":0,"trial_type":"html-button-response","trial_index":24,"time_elapsed":301749,"internal_node_id":"0.0-4.0-1.6","subject_id":"5fe65c62e5e63147348427a6","study_id":"6197b3f67c2b5cd3b6d9596a","session_id":"619beefc042547759094e911","condition":"full-information","relevant_dimensions":["antennae","legs"],"bee_group":{"antennae":"A","wings":"X","pattern":"X","legs":"M"},"bonus":0.800000000000001},{"rt":2083,"stimulus":"bees-with-color/bee-A1SM.svg","response":1,"trial_type":"image-button-response","trial_index":25,"time_elapsed":303833,"internal_node_id":"0.0-4.0-0.7","subject_id":"5fe65c62e5e63147348427a6","study_id":"6197b3f67c2b5cd3b6d9596a","session_id":"619beefc042547759094e911","condition":"full-information","relevant_dimensions":["antennae","legs"],"bee_group":{"antennae":"A","wings":"X","pattern":"X","legs":"M"},"action":"avoid","summary":"good-avoid","bonus":0.800000000000001},{"rt":3352,"stimulus":"\n                    <p><b>Action: <em>avoid</em></b></p>\n                    <p>This is the bee that you just saw.</p>\n                    <img src=\"bees-with-color/bee-A1SM.svg\" width=\"200\">\n                    <p><span class=\"greenText\">Good choice!</span>  This bee would have stung you.<br>Your bonus pay is unchanged, and remains at $0.54.</p>\n            ","response":0,"trial_type":"html-button-response","trial_index":26,"time_elapsed":307185,"internal_node_id":"0.0-4.0-1.7","subject_id":"5fe65c62e5e63147348427a6","study_id":"6197b3f67c2b5cd3b6d9596a","session_id":"619beefc042547759094e911","condition":"full-information","relevant_dimensions":["antennae","legs"],"bee_group":{"antennae":"A","wings":"X","pattern":"X","legs":"M"},"bonus":0.800000000000001},{"rt":3883,"stimulus":"bees-with-color/bee-B1DF.svg","response":0,"trial_type":"image-button-response","trial_index":27,"time_elapsed":311069,"internal_node_id":"0.0-4.0-0.8","subject_id":"5fe65c62e5e63147348427a6","study_id":"6197b3f67c2b5cd3b6d9596a","session_id":"619beefc042547759094e911","condition":"full-information","relevant_dimensions":["antennae","legs"],"bee_group":{"antennae":"A","wings":"X","pattern":"X","legs":"M"},"action":"harvest","summary":"good-harvest","bonus":0.800000000000001},{"rt":1629,"stimulus":"\n                    <p><b>Action: <em>harvest</em></b></p>\n                    <p>This is the bee that you just saw.</p>\n                    <img src=\"bees-with-color/bee-B1DF.svg\" width=\"200\">\n                    <p><span class=\"greenText\"><b>Successful harvest!</b></span><br>Your pay has increased by $0.02. Your bonus pay is now $0.56.</p>\n            ","response":0,"trial_type":"html-button-response","trial_index":28,"time_elapsed":312699,"internal_node_id":"0.0-4.0-1.8","subject_id":"5fe65c62e5e63147348427a6","study_id":"6197b3f67c2b5cd3b6d9596a","session_id":"619beefc042547759094e911","condition":"full-information","relevant_dimensions":["antennae","legs"],"bee_group":{"antennae":"A","wings":"X","pattern":"X","legs":"M"},"bonus":0.800000000000001},{"rt":4322,"stimulus":"bees-with-color/bee-B1DM.svg","response":0,"trial_type":"image-button-response","trial_index":29,"time_elapsed":317020,"internal_node_id":"0.0-4.0-0.9","subject_id":"5fe65c62e5e63147348427a6","study_id":"6197b3f67c2b5cd3b6d9596a","session_id":"619beefc042547759094e911","condition":"full-information","relevant_dimensions":["antennae","legs"],"bee_group":{"antennae":"A","wings":"X","pattern":"X","legs":"M"},"action":"harvest","summary":"good-harvest","bonus":0.800000000000001},{"rt":1119,"stimulus":"\n                    <p><b>Action: <em>harvest</em></b></p>\n                    <p>This is the bee that you just saw.</p>\n                    <img src=\"bees-with-color/bee-B1DM.svg\" width=\"200\">\n                    <p><span class=\"greenText\"><b>Successful harvest!</b></span><br>Your pay has increased by $0.02. Your bonus pay is now $0.58.</p>\n            ","response":0,"trial_type":"html-button-response","trial_index":30,"time_elapsed":318141,"internal_node_id":"0.0-4.0-1.9","subject_id":"5fe65c62e5e63147348427a6","study_id":"6197b3f67c2b5cd3b6d9596a","session_id":"619beefc042547759094e911","condition":"full-information","relevant_dimensions":["antennae","legs"],"bee_group":{"antennae":"A","wings":"X","pattern":"X","legs":"M"},"bonus":0.800000000000001},{"rt":2693,"stimulus":"bees-with-color/bee-B2DF.svg","response":1,"trial_type":"image-button-response","trial_index":31,"time_elapsed":320832,"internal_node_id":"0.0-4.0-0.10","subject_id":"5fe65c62e5e63147348427a6","study_id":"6197b3f67c2b5cd3b6d9596a","session_id":"619beefc042547759094e911","condition":"full-information","relevant_dimensions":["antennae","legs"],"bee_group":{"antennae":"A","wings":"X","pattern":"X","legs":"M"},"action":"avoid","summary":"bad-avoid","bonus":0.800000000000001},{"rt":1406,"stimulus":"\n                    <p><b>Action: <em>avoid</em></b></p>\n                    <p>This is the bee that you just saw.</p>\n                    <img src=\"bees-with-color/bee-B2DF.svg\" width=\"200\">\n                    <p><span class=\"redText\">Bad choice,</span> the bee was friendly.<br>Your bonus pay is unchanged, and remains at $0.58.</p>\n            ","response":0,"trial_type":"html-button-response","trial_index":32,"time_elapsed":322238,"internal_node_id":"0.0-4.0-1.10","subject_id":"5fe65c62e5e63147348427a6","study_id":"6197b3f67c2b5cd3b6d9596a","session_id":"619beefc042547759094e911","condition":"full-information","relevant_dimensions":["antennae","legs"],"bee_group":{"antennae":"A","wings":"X","pattern":"X","legs":"M"},"bonus":0.800000000000001},{"rt":2325,"stimulus":"bees-with-color/bee-A2DM.svg","response":1,"trial_type":"image-button-response","trial_index":33,"time_elapsed":324565,"internal_node_id":"0.0-4.0-0.11","subject_id":"5fe65c62e5e63147348427a6","study_id":"6197b3f67c2b5cd3b6d9596a","session_id":"619beefc042547759094e911","condition":"full-information","relevant_dimensions":["antennae","legs"],"bee_group":{"antennae":"A","wings":"X","pattern":"X","legs":"M"},"action":"avoid","summary":"good-avoid","bonus":0.800000000000001},{"rt":841,"stimulus":"\n                    <p><b>Action: <em>avoid</em></b></p>\n                    <p>This is the bee that you just saw.</p>\n                    <img src=\"bees-with-color/bee-A2DM.svg\" width=\"200\">\n                    <p><span class=\"greenText\">Good choice!</span>  This bee would have stung you.<br>Your bonus pay is unchanged, and remains at $0.58.</p>\n            ","response":0,"trial_type":"html-button-response","trial_index":34,"time_elapsed":325407,"internal_node_id":"0.0-4.0-1.11","subject_id":"5fe65c62e5e63147348427a6","study_id":"6197b3f67c2b5cd3b6d9596a","session_id":"619beefc042547759094e911","condition":"full-information","relevant_dimensions":["antennae","legs"],"bee_group":{"antennae":"A","wings":"X","pattern":"X","legs":"M"},"bonus":0.800000000000001},{"rt":2107,"stimulus":"bees-with-color/bee-A2SM.svg","response":0,"trial_type":"image-button-response","trial_index":35,"time_elapsed":327515,"internal_node_id":"0.0-4.0-0.12","subject_id":"5fe65c62e5e63147348427a6","study_id":"6197b3f67c2b5cd3b6d9596a","session_id":"619beefc042547759094e911","condition":"full-information","relevant_dimensions":["antennae","legs"],"bee_group":{"antennae":"A","wings":"X","pattern":"X","legs":"M"},"action":"harvest","summary":"bad-harvest","bonus":0.800000000000001},{"rt":1280,"stimulus":"\n                    <p><b>Action: <em>harvest</em></b></p>\n                    <p>This is the bee that you just saw.</p>\n                    <img src=\"bees-with-color/bee-A2SM.svg\" width=\"200\">\n                    <p><span class=\"redText\">Bad choice, the bee was angry.</span><br><b>You have been stung!</b><br>Your pay has been decreased by $0.10. Your bonus pay is now $0.48.</p>\n            ","response":0,"trial_type":"html-button-response","trial_index":36,"time_elapsed":328795,"internal_node_id":"0.0-4.0-1.12","subject_id":"5fe65c62e5e63147348427a6","study_id":"6197b3f67c2b5cd3b6d9596a","session_id":"619beefc042547759094e911","condition":"full-information","relevant_dimensions":["antennae","legs"],"bee_group":{"antennae":"A","wings":"X","pattern":"X","legs":"M"},"bonus":0.800000000000001},{"rt":1826,"stimulus":"bees-with-color/bee-A1DF.svg","response":0,"trial_type":"image-button-response","trial_index":37,"time_elapsed":330621,"internal_node_id":"0.0-4.0-0.13","subject_id":"5fe65c62e5e63147348427a6","study_id":"6197b3f67c2b5cd3b6d9596a","session_id":"619beefc042547759094e911","condition":"full-information","relevant_dimensions":["antennae","legs"],"bee_group":{"antennae":"A","wings":"X","pattern":"X","legs":"M"},"action":"harvest","summary":"good-harvest","bonus":0.800000000000001},{"rt":881,"stimulus":"\n                    <p><b>Action: <em>harvest</em></b></p>\n                    <p>This is the bee that you just saw.</p>\n                    <img src=\"bees-with-color/bee-A1DF.svg\" width=\"200\">\n                    <p><span class=\"greenText\"><b>Successful harvest!</b></span><br>Your pay has increased by $0.02. Your bonus pay is now $0.50.</p>\n            ","response":0,"trial_type":"html-button-response","trial_index":38,"time_elapsed":331503,"internal_node_id":"0.0-4.0-1.13","subject_id":"5fe65c62e5e63147348427a6","study_id":"6197b3f67c2b5cd3b6d9596a","session_id":"619beefc042547759094e911","condition":"full-information","relevant_dimensions":["antennae","legs"],"bee_group":{"antennae":"A","wings":"X","pattern":"X","legs":"M"},"bonus":0.800000000000001},{"rt":1389,"stimulus":"bees-with-color/bee-B1SM.svg","response":0,"trial_type":"image-button-response","trial_index":39,"time_elapsed":332893,"internal_node_id":"0.0-4.0-0.14","subject_id":"5fe65c62e5e63147348427a6","study_id":"6197b3f67c2b5cd3b6d9596a","session_id":"619beefc042547759094e911","condition":"full-information","relevant_dimensions":["antennae","legs"],"bee_group":{"antennae":"A","wings":"X","pattern":"X","legs":"M"},"action":"harvest","summary":"good-harvest","bonus":0.800000000000001},{"rt":651,"stimulus":"\n                    <p><b>Action: <em>harvest</em></b></p>\n                    <p>This is the bee that you just saw.</p>\n                    <img src=\"bees-with-color/bee-B1SM.svg\" width=\"200\">\n                    <p><span class=\"greenText\"><b>Successful harvest!</b></span><br>Your pay has increased by $0.02. Your bonus pay is now $0.52.</p>\n            ","response":0,"trial_type":"html-button-response","trial_index":40,"time_elapsed":333546,"internal_node_id":"0.0-4.0-1.14","subject_id":"5fe65c62e5e63147348427a6","study_id":"6197b3f67c2b5cd3b6d9596a","session_id":"619beefc042547759094e911","condition":"full-information","relevant_dimensions":["antennae","legs"],"bee_group":{"antennae":"A","wings":"X","pattern":"X","legs":"M"},"bonus":0.800000000000001},{"rt":1818,"stimulus":"bees-with-color/bee-B2SF.svg","response":0,"trial_type":"image-button-response","trial_index":41,"time_elapsed":335363,"internal_node_id":"0.0-4.0-0.15","subject_id":"5fe65c62e5e63147348427a6","study_id":"6197b3f67c2b5cd3b6d9596a","session_id":"619beefc042547759094e911","condition":"full-information","relevant_dimensions":["antennae","legs"],"bee_group":{"antennae":"A","wings":"X","pattern":"X","legs":"M"},"action":"harvest","summary":"good-harvest","bonus":0.800000000000001},{"rt":671,"stimulus":"\n                    <p><b>Action: <em>harvest</em></b></p>\n                    <p>This is the bee that you just saw.</p>\n                    <img src=\"bees-with-color/bee-B2SF.svg\" width=\"200\">\n                    <p><span class=\"greenText\"><b>Successful harvest!</b></span><br>Your pay has increased by $0.02. Your bonus pay is now $0.54.</p>\n            ","response":0,"trial_type":"html-button-response","trial_index":42,"time_elapsed":336035,"internal_node_id":"0.0-4.0-1.15","subject_id":"5fe65c62e5e63147348427a6","study_id":"6197b3f67c2b5cd3b6d9596a","session_id":"619beefc042547759094e911","condition":"full-information","relevant_dimensions":["antennae","legs"],"bee_group":{"antennae":"A","wings":"X","pattern":"X","legs":"M"},"bonus":0.800000000000001},{"rt":2048,"stimulus":"bees-with-color/bee-A2SM.svg","response":1,"trial_type":"image-button-response","trial_index":43,"time_elapsed":338083,"internal_node_id":"0.0-4.0-0.16","subject_id":"5fe65c62e5e63147348427a6","study_id":"6197b3f67c2b5cd3b6d9596a","session_id":"619beefc042547759094e911","condition":"full-information","relevant_dimensions":["antennae","legs"],"bee_group":{"antennae":"A","wings":"X","pattern":"X","legs":"M"},"action":"avoid","summary":"good-avoid","bonus":0.800000000000001},{"rt":1513,"stimulus":"\n                    <p><b>Action: <em>avoid</em></b></p>\n                    <p>This is the bee that you just saw.</p>\n                    <img src=\"bees-with-color/bee-A2SM.svg\" width=\"200\">\n                    <p><span class=\"greenText\">Good choice!</span>  This bee would have stung you.<br>Your bonus pay is unchanged, and remains at $0.54.</p>\n            ","response":0,"trial_type":"html-button-response","trial_index":44,"time_elapsed":339597,"internal_node_id":"0.0-4.0-1.16","subject_id":"5fe65c62e5e63147348427a6","study_id":"6197b3f67c2b5cd3b6d9596a","session_id":"619beefc042547759094e911","condition":"full-information","relevant_dimensions":["antennae","legs"],"bee_group":{"antennae":"A","wings":"X","pattern":"X","legs":"M"},"bonus":0.800000000000001},{"rt":1811,"stimulus":"bees-with-color/bee-A1DF.svg","response":0,"trial_type":"image-button-response","trial_index":45,"time_elapsed":341409,"internal_node_id":"0.0-4.0-0.17","subject_id":"5fe65c62e5e63147348427a6","study_id":"6197b3f67c2b5cd3b6d9596a","session_id":"619beefc042547759094e911","condition":"full-information","relevant_dimensions":["antennae","legs"],"bee_group":{"antennae":"A","wings":"X","pattern":"X","legs":"M"},"action":"harvest","summary":"good-harvest","bonus":0.800000000000001},{"rt":1125,"stimulus":"\n                    <p><b>Action: <em>harvest</em></b></p>\n                    <p>This is the bee that you just saw.</p>\n                    <img src=\"bees-with-color/bee-A1DF.svg\" width=\"200\">\n                    <p><span class=\"greenText\"><b>Successful harvest!</b></span><br>Your pay has increased by $0.02. Your bonus pay is now $0.56.</p>\n            ","response":0,"trial_type":"html-button-response","trial_index":46,"time_elapsed":342535,"internal_node_id":"0.0-4.0-1.17","subject_id":"5fe65c62e5e63147348427a6","study_id":"6197b3f67c2b5cd3b6d9596a","session_id":"619beefc042547759094e911","condition":"full-information","relevant_dimensions":["antennae","legs"],"bee_group":{"antennae":"A","wings":"X","pattern":"X","legs":"M"},"bonus":0.800000000000001},{"rt":1562,"stimulus":"bees-with-color/bee-B1DF.svg","response":0,"trial_type":"image-button-response","trial_index":47,"time_elapsed":344097,"internal_node_id":"0.0-4.0-0.18","subject_id":"5fe65c62e5e63147348427a6","study_id":"6197b3f67c2b5cd3b6d9596a","session_id":"619beefc042547759094e911","condition":"full-information","relevant_dimensions":["antennae","legs"],"bee_group":{"antennae":"A","wings":"X","pattern":"X","legs":"M"},"action":"harvest","summary":"good-harvest","bonus":0.800000000000001},{"rt":989,"stimulus":"\n                    <p><b>Action: <em>harvest</em></b></p>\n                    <p>This is the bee that you just saw.</p>\n                    <img src=\"bees-with-color/bee-B1DF.svg\" width=\"200\">\n                    <p><span class=\"greenText\"><b>Successful harvest!</b></span><br>Your pay has increased by $0.02. Your bonus pay is now $0.58.</p>\n            ","response":0,"trial_type":"html-button-response","trial_index":48,"time_elapsed":345087,"internal_node_id":"0.0-4.0-1.18","subject_id":"5fe65c62e5e63147348427a6","study_id":"6197b3f67c2b5cd3b6d9596a","session_id":"619beefc042547759094e911","condition":"full-information","relevant_dimensions":["antennae","legs"],"bee_group":{"antennae":"A","wings":"X","pattern":"X","legs":"M"},"bonus":0.800000000000001},{"rt":1648,"stimulus":"bees-with-color/bee-A2SF.svg","response":0,"trial_type":"image-button-response","trial_index":49,"time_elapsed":346735,"internal_node_id":"0.0-4.0-0.19","subject_id":"5fe65c62e5e63147348427a6","study_id":"6197b3f67c2b5cd3b6d9596a","session_id":"619beefc042547759094e911","condition":"full-information","relevant_dimensions":["antennae","legs"],"bee_group":{"antennae":"A","wings":"X","pattern":"X","legs":"M"},"action":"harvest","summary":"good-harvest","bonus":0.800000000000001},{"rt":698,"stimulus":"\n                    <p><b>Action: <em>harvest</em></b></p>\n                    <p>This is the bee that you just saw.</p>\n                    <img src=\"bees-with-color/bee-A2SF.svg\" width=\"200\">\n                    <p><span class=\"greenText\"><b>Successful harvest!</b></span><br>Your pay has increased by $0.02. Your bonus pay is now $0.60.</p>\n            ","response":0,"trial_type":"html-button-response","trial_index":50,"time_elapsed":347433,"internal_node_id":"0.0-4.0-1.19","subject_id":"5fe65c62e5e63147348427a6","study_id":"6197b3f67c2b5cd3b6d9596a","session_id":"619beefc042547759094e911","condition":"full-information","relevant_dimensions":["antennae","legs"],"bee_group":{"antennae":"A","wings":"X","pattern":"X","legs":"M"},"bonus":0.800000000000001},{"rt":1610,"stimulus":"bees-with-color/bee-B1SM.svg","response":0,"trial_type":"image-button-response","trial_index":51,"time_elapsed":349045,"internal_node_id":"0.0-4.0-0.20","subject_id":"5fe65c62e5e63147348427a6","study_id":"6197b3f67c2b5cd3b6d9596a","session_id":"619beefc042547759094e911","condition":"full-information","relevant_dimensions":["antennae","legs"],"bee_group":{"antennae":"A","wings":"X","pattern":"X","legs":"M"},"action":"harvest","summary":"good-harvest","bonus":0.800000000000001},{"rt":987,"stimulus":"\n                    <p><b>Action: <em>harvest</em></b></p>\n                    <p>This is the bee that you just saw.</p>\n                    <img src=\"bees-with-color/bee-B1SM.svg\" width=\"200\">\n                    <p><span class=\"greenText\"><b>Successful harvest!</b></span><br>Your pay has increased by $0.02. Your bonus pay is now $0.62.</p>\n            ","response":0,"trial_type":"html-button-response","trial_index":52,"time_elapsed":350033,"internal_node_id":"0.0-4.0-1.20","subject_id":"5fe65c62e5e63147348427a6","study_id":"6197b3f67c2b5cd3b6d9596a","session_id":"619beefc042547759094e911","condition":"full-information","relevant_dimensions":["antennae","legs"],"bee_group":{"antennae":"A","wings":"X","pattern":"X","legs":"M"},"bonus":0.800000000000001},{"rt":2155,"stimulus":"bees-with-color/bee-A1DM.svg","response":1,"trial_type":"image-button-response","trial_index":53,"time_elapsed":352189,"internal_node_id":"0.0-4.0-0.21","subject_id":"5fe65c62e5e63147348427a6","study_id":"6197b3f67c2b5cd3b6d9596a","session_id":"619beefc042547759094e911","condition":"full-information","relevant_dimensions":["antennae","legs"],"bee_group":{"antennae":"A","wings":"X","pattern":"X","legs":"M"},"action":"avoid","summary":"good-avoid","bonus":0.800000000000001},{"rt":2202,"stimulus":"\n                    <p><b>Action: <em>avoid</em></b></p>\n                    <p>This is the bee that you just saw.</p>\n                    <img src=\"bees-with-color/bee-A1DM.svg\" width=\"200\">\n                    <p><span class=\"greenText\">Good choice!</span>  This bee would have stung you.<br>Your bonus pay is unchanged, and remains at $0.62.</p>\n            ","response":0,"trial_type":"html-button-response","trial_index":54,"time_elapsed":354391,"internal_node_id":"0.0-4.0-1.21","subject_id":"5fe65c62e5e63147348427a6","study_id":"6197b3f67c2b5cd3b6d9596a","session_id":"619beefc042547759094e911","condition":"full-information","relevant_dimensions":["antennae","legs"],"bee_group":{"antennae":"A","wings":"X","pattern":"X","legs":"M"},"bonus":0.800000000000001},{"rt":1584,"stimulus":"bees-with-color/bee-B2DF.svg","response":0,"trial_type":"image-button-response","trial_index":55,"time_elapsed":355975,"internal_node_id":"0.0-4.0-0.22","subject_id":"5fe65c62e5e63147348427a6","study_id":"6197b3f67c2b5cd3b6d9596a","session_id":"619beefc042547759094e911","condition":"full-information","relevant_dimensions":["antennae","legs"],"bee_group":{"antennae":"A","wings":"X","pattern":"X","legs":"M"},"action":"harvest","summary":"good-harvest","bonus":0.800000000000001},{"rt":990,"stimulus":"\n                    <p><b>Action: <em>harvest</em></b></p>\n                    <p>This is the bee that you just saw.</p>\n                    <img src=\"bees-with-color/bee-B2DF.svg\" width=\"200\">\n                    <p><span class=\"greenText\"><b>Successful harvest!</b></span><br>Your pay has increased by $0.02. Your bonus pay is now $0.64.</p>\n            ","response":0,"trial_type":"html-button-response","trial_index":56,"time_elapsed":356965,"internal_node_id":"0.0-4.0-1.22","subject_id":"5fe65c62e5e63147348427a6","study_id":"6197b3f67c2b5cd3b6d9596a","session_id":"619beefc042547759094e911","condition":"full-information","relevant_dimensions":["antennae","legs"],"bee_group":{"antennae":"A","wings":"X","pattern":"X","legs":"M"},"bonus":0.800000000000001},{"rt":1024,"stimulus":"bees-with-color/bee-B1SF.svg","response":0,"trial_type":"image-button-response","trial_index":57,"time_elapsed":357988,"internal_node_id":"0.0-4.0-0.23","subject_id":"5fe65c62e5e63147348427a6","study_id":"6197b3f67c2b5cd3b6d9596a","session_id":"619beefc042547759094e911","condition":"full-information","relevant_dimensions":["antennae","legs"],"bee_group":{"antennae":"A","wings":"X","pattern":"X","legs":"M"},"action":"harvest","summary":"good-harvest","bonus":0.800000000000001},{"rt":657,"stimulus":"\n                    <p><b>Action: <em>harvest</em></b></p>\n                    <p>This is the bee that you just saw.</p>\n                    <img src=\"bees-with-color/bee-B1SF.svg\" width=\"200\">\n                    <p><span class=\"greenText\"><b>Successful harvest!</b></span><br>Your pay has increased by $0.02. Your bonus pay is now $0.66.</p>\n            ","response":0,"trial_type":"html-button-response","trial_index":58,"time_elapsed":358647,"internal_node_id":"0.0-4.0-1.23","subject_id":"5fe65c62e5e63147348427a6","study_id":"6197b3f67c2b5cd3b6d9596a","session_id":"619beefc042547759094e911","condition":"full-information","relevant_dimensions":["antennae","legs"],"bee_group":{"antennae":"A","wings":"X","pattern":"X","legs":"M"},"bonus":0.800000000000001},{"rt":2001,"stimulus":"bees-with-color/bee-B2DM.svg","response":0,"trial_type":"image-button-response","trial_index":59,"time_elapsed":360649,"internal_node_id":"0.0-4.0-0.24","subject_id":"5fe65c62e5e63147348427a6","study_id":"6197b3f67c2b5cd3b6d9596a","session_id":"619beefc042547759094e911","condition":"full-information","relevant_dimensions":["antennae","legs"],"bee_group":{"antennae":"A","wings":"X","pattern":"X","legs":"M"},"action":"harvest","summary":"good-harvest","bonus":0.800000000000001},{"rt":659,"stimulus":"\n                    <p><b>Action: <em>harvest</em></b></p>\n                    <p>This is the bee that you just saw.</p>\n                    <img src=\"bees-with-color/bee-B2DM.svg\" width=\"200\">\n                    <p><span class=\"greenText\"><b>Successful harvest!</b></span><br>Your pay has increased by $0.02. Your bonus pay is now $0.68.</p>\n            ","response":0,"trial_type":"html-button-response","trial_index":60,"time_elapsed":361309,"internal_node_id":"0.0-4.0-1.24","subject_id":"5fe65c62e5e63147348427a6","study_id":"6197b3f67c2b5cd3b6d9596a","session_id":"619beefc042547759094e911","condition":"full-information","relevant_dimensions":["antennae","legs"],"bee_group":{"antennae":"A","wings":"X","pattern":"X","legs":"M"},"bonus":0.800000000000001},{"rt":1259,"stimulus":"bees-with-color/bee-A2DF.svg","response":0,"trial_type":"image-button-response","trial_index":61,"time_elapsed":362569,"internal_node_id":"0.0-4.0-0.25","subject_id":"5fe65c62e5e63147348427a6","study_id":"6197b3f67c2b5cd3b6d9596a","session_id":"619beefc042547759094e911","condition":"full-information","relevant_dimensions":["antennae","legs"],"bee_group":{"antennae":"A","wings":"X","pattern":"X","legs":"M"},"action":"harvest","summary":"good-harvest","bonus":0.800000000000001},{"rt":815,"stimulus":"\n                    <p><b>Action: <em>harvest</em></b></p>\n                    <p>This is the bee that you just saw.</p>\n                    <img src=\"bees-with-color/bee-A2DF.svg\" width=\"200\">\n                    <p><span class=\"greenText\"><b>Successful harvest!</b></span><br>Your pay has increased by $0.02. Your bonus pay is now $0.70.</p>\n            ","response":0,"trial_type":"html-button-response","trial_index":62,"time_elapsed":363385,"internal_node_id":"0.0-4.0-1.25","subject_id":"5fe65c62e5e63147348427a6","study_id":"6197b3f67c2b5cd3b6d9596a","session_id":"619beefc042547759094e911","condition":"full-information","relevant_dimensions":["antennae","legs"],"bee_group":{"antennae":"A","wings":"X","pattern":"X","legs":"M"},"bonus":0.800000000000001},{"rt":1337,"stimulus":"bees-with-color/bee-B2SM.svg","response":0,"trial_type":"image-button-response","trial_index":63,"time_elapsed":364723,"internal_node_id":"0.0-4.0-0.26","subject_id":"5fe65c62e5e63147348427a6","study_id":"6197b3f67c2b5cd3b6d9596a","session_id":"619beefc042547759094e911","condition":"full-information","relevant_dimensions":["antennae","legs"],"bee_group":{"antennae":"A","wings":"X","pattern":"X","legs":"M"},"action":"harvest","summary":"good-harvest","bonus":0.800000000000001},{"rt":968,"stimulus":"\n                    <p><b>Action: <em>harvest</em></b></p>\n                    <p>This is the bee that you just saw.</p>\n                    <img src=\"bees-with-color/bee-B2SM.svg\" width=\"200\">\n                    <p><span class=\"greenText\"><b>Successful harvest!</b></span><br>Your pay has increased by $0.02. Your bonus pay is now $0.72.</p>\n            ","response":0,"trial_type":"html-button-response","trial_index":64,"time_elapsed":365691,"internal_node_id":"0.0-4.0-1.26","subject_id":"5fe65c62e5e63147348427a6","study_id":"6197b3f67c2b5cd3b6d9596a","session_id":"619beefc042547759094e911","condition":"full-information","relevant_dimensions":["antennae","legs"],"bee_group":{"antennae":"A","wings":"X","pattern":"X","legs":"M"},"bonus":0.800000000000001},{"rt":2536,"stimulus":"bees-with-color/bee-A1SF.svg","response":0,"trial_type":"image-button-response","trial_index":65,"time_elapsed":368227,"internal_node_id":"0.0-4.0-0.27","subject_id":"5fe65c62e5e63147348427a6","study_id":"6197b3f67c2b5cd3b6d9596a","session_id":"619beefc042547759094e911","condition":"full-information","relevant_dimensions":["antennae","legs"],"bee_group":{"antennae":"A","wings":"X","pattern":"X","legs":"M"},"action":"harvest","summary":"good-harvest","bonus":0.800000000000001},{"rt":753,"stimulus":"\n                    <p><b>Action: <em>harvest</em></b></p>\n                    <p>This is the bee that you just saw.</p>\n                    <img src=\"bees-with-color/bee-A1SF.svg\" width=\"200\">\n                    <p><span class=\"greenText\"><b>Successful harvest!</b></span><br>Your pay has increased by $0.02. Your bonus pay is now $0.74.</p>\n            ","response":0,"trial_type":"html-button-response","trial_index":66,"time_elapsed":368981,"internal_node_id":"0.0-4.0-1.27","subject_id":"5fe65c62e5e63147348427a6","study_id":"6197b3f67c2b5cd3b6d9596a","session_id":"619beefc042547759094e911","condition":"full-information","relevant_dimensions":["antennae","legs"],"bee_group":{"antennae":"A","wings":"X","pattern":"X","legs":"M"},"bonus":0.800000000000001},{"rt":1080,"stimulus":"bees-with-color/bee-B1DM.svg","response":0,"trial_type":"image-button-response","trial_index":67,"time_elapsed":370061,"internal_node_id":"0.0-4.0-0.28","subject_id":"5fe65c62e5e63147348427a6","study_id":"6197b3f67c2b5cd3b6d9596a","session_id":"619beefc042547759094e911","condition":"full-information","relevant_dimensions":["antennae","legs"],"bee_group":{"antennae":"A","wings":"X","pattern":"X","legs":"M"},"action":"harvest","summary":"good-harvest","bonus":0.800000000000001},{"rt":648,"stimulus":"\n                    <p><b>Action: <em>harvest</em></b></p>\n                    <p>This is the bee that you just saw.</p>\n                    <img src=\"bees-with-color/bee-B1DM.svg\" width=\"200\">\n                    <p><span class=\"greenText\"><b>Successful harvest!</b></span><br>Your pay has increased by $0.02. Your bonus pay is now $0.76.</p>\n            ","response":0,"trial_type":"html-button-response","trial_index":68,"time_elapsed":370709,"internal_node_id":"0.0-4.0-1.28","subject_id":"5fe65c62e5e63147348427a6","study_id":"6197b3f67c2b5cd3b6d9596a","session_id":"619beefc042547759094e911","condition":"full-information","relevant_dimensions":["antennae","legs"],"bee_group":{"antennae":"A","wings":"X","pattern":"X","legs":"M"},"bonus":0.800000000000001},{"rt":1201,"stimulus":"bees-with-color/bee-A2DM.svg","response":1,"trial_type":"image-button-response","trial_index":69,"time_elapsed":371911,"internal_node_id":"0.0-4.0-0.29","subject_id":"5fe65c62e5e63147348427a6","study_id":"6197b3f67c2b5cd3b6d9596a","session_id":"619beefc042547759094e911","condition":"full-information","relevant_dimensions":["antennae","legs"],"bee_group":{"antennae":"A","wings":"X","pattern":"X","legs":"M"},"action":"avoid","summary":"good-avoid","bonus":0.800000000000001},{"rt":743,"stimulus":"\n                    <p><b>Action: <em>avoid</em></b></p>\n                    <p>This is the bee that you just saw.</p>\n                    <img src=\"bees-with-color/bee-A2DM.svg\" width=\"200\">\n                    <p><span class=\"greenText\">Good choice!</span>  This bee would have stung you.<br>Your bonus pay is unchanged, and remains at $0.76.</p>\n            ","response":0,"trial_type":"html-button-response","trial_index":70,"time_elapsed":372655,"internal_node_id":"0.0-4.0-1.29","subject_id":"5fe65c62e5e63147348427a6","study_id":"6197b3f67c2b5cd3b6d9596a","session_id":"619beefc042547759094e911","condition":"full-information","relevant_dimensions":["antennae","legs"],"bee_group":{"antennae":"A","wings":"X","pattern":"X","legs":"M"},"bonus":0.800000000000001},{"rt":1606,"stimulus":"bees-with-color/bee-B2SF.svg","response":0,"trial_type":"image-button-response","trial_index":71,"time_elapsed":374263,"internal_node_id":"0.0-4.0-0.30","subject_id":"5fe65c62e5e63147348427a6","study_id":"6197b3f67c2b5cd3b6d9596a","session_id":"619beefc042547759094e911","condition":"full-information","relevant_dimensions":["antennae","legs"],"bee_group":{"antennae":"A","wings":"X","pattern":"X","legs":"M"},"action":"harvest","summary":"good-harvest","bonus":0.800000000000001},{"rt":780,"stimulus":"\n                    <p><b>Action: <em>harvest</em></b></p>\n                    <p>This is the bee that you just saw.</p>\n                    <img src=\"bees-with-color/bee-B2SF.svg\" width=\"200\">\n                    <p><span class=\"greenText\"><b>Successful harvest!</b></span><br>Your pay has increased by $0.02. Your bonus pay is now $0.78.</p>\n            ","response":0,"trial_type":"html-button-response","trial_index":72,"time_elapsed":375043,"internal_node_id":"0.0-4.0-1.30","subject_id":"5fe65c62e5e63147348427a6","study_id":"6197b3f67c2b5cd3b6d9596a","session_id":"619beefc042547759094e911","condition":"full-information","relevant_dimensions":["antennae","legs"],"bee_group":{"antennae":"A","wings":"X","pattern":"X","legs":"M"},"bonus":0.800000000000001},{"rt":1767,"stimulus":"bees-with-color/bee-A1SM.svg","response":0,"trial_type":"image-button-response","trial_index":73,"time_elapsed":376811,"internal_node_id":"0.0-4.0-0.31","subject_id":"5fe65c62e5e63147348427a6","study_id":"6197b3f67c2b5cd3b6d9596a","session_id":"619beefc042547759094e911","condition":"full-information","relevant_dimensions":["antennae","legs"],"bee_group":{"antennae":"A","wings":"X","pattern":"X","legs":"M"},"action":"harvest","summary":"bad-harvest","bonus":0.800000000000001},{"rt":8783,"stimulus":"\n                    <p><b>Action: <em>harvest</em></b></p>\n                    <p>This is the bee that you just saw.</p>\n                    <img src=\"bees-with-color/bee-A1SM.svg\" width=\"200\">\n                    <p><span class=\"redText\">Bad choice, the bee was angry.</span><br><b>You have been stung!</b><br>Your pay has been decreased by $0.10. Your bonus pay is now $0.68.</p>\n            ","response":0,"trial_type":"html-button-response","trial_index":74,"time_elapsed":385595,"internal_node_id":"0.0-4.0-1.31","subject_id":"5fe65c62e5e63147348427a6","study_id":"6197b3f67c2b5cd3b6d9596a","session_id":"619beefc042547759094e911","condition":"full-information","relevant_dimensions":["antennae","legs"],"bee_group":{"antennae":"A","wings":"X","pattern":"X","legs":"M"},"bonus":0.800000000000001},{"rt":1683,"stimulus":"bees-with-color/bee-A1SM.svg","response":1,"trial_type":"image-button-response","trial_index":75,"time_elapsed":387279,"internal_node_id":"0.0-4.0-0.32","subject_id":"5fe65c62e5e63147348427a6","study_id":"6197b3f67c2b5cd3b6d9596a","session_id":"619beefc042547759094e911","condition":"full-information","relevant_dimensions":["antennae","legs"],"bee_group":{"antennae":"A","wings":"X","pattern":"X","legs":"M"},"action":"avoid","summary":"good-avoid","bonus":0.800000000000001},{"rt":761,"stimulus":"\n                    <p><b>Action: <em>avoid</em></b></p>\n                    <p>This is the bee that you just saw.</p>\n                    <img src=\"bees-with-color/bee-A1SM.svg\" width=\"200\">\n                    <p><span class=\"greenText\">Good choice!</span>  This bee would have stung you.<br>Your bonus pay is unchanged, and remains at $0.68.</p>\n            ","response":0,"trial_type":"html-button-response","trial_index":76,"time_elapsed":388041,"internal_node_id":"0.0-4.0-1.32","subject_id":"5fe65c62e5e63147348427a6","study_id":"6197b3f67c2b5cd3b6d9596a","session_id":"619beefc042547759094e911","condition":"full-information","relevant_dimensions":["antennae","legs"],"bee_group":{"antennae":"A","wings":"X","pattern":"X","legs":"M"},"bonus":0.800000000000001},{"rt":1138,"stimulus":"bees-with-color/bee-B2DF.svg","response":0,"trial_type":"image-button-response","trial_index":77,"time_elapsed":389179,"internal_node_id":"0.0-4.0-0.33","subject_id":"5fe65c62e5e63147348427a6","study_id":"6197b3f67c2b5cd3b6d9596a","session_id":"619beefc042547759094e911","condition":"full-information","relevant_dimensions":["antennae","legs"],"bee_group":{"antennae":"A","wings":"X","pattern":"X","legs":"M"},"action":"harvest","summary":"good-harvest","bonus":0.800000000000001},{"rt":640,"stimulus":"\n                    <p><b>Action: <em>harvest</em></b></p>\n                    <p>This is the bee that you just saw.</p>\n                    <img src=\"bees-with-color/bee-B2DF.svg\" width=\"200\">\n                    <p><span class=\"greenText\"><b>Successful harvest!</b></span><br>Your pay has increased by $0.02. Your bonus pay is now $0.70.</p>\n            ","response":0,"trial_type":"html-button-response","trial_index":78,"time_elapsed":389819,"internal_node_id":"0.0-4.0-1.33","subject_id":"5fe65c62e5e63147348427a6","study_id":"6197b3f67c2b5cd3b6d9596a","session_id":"619beefc042547759094e911","condition":"full-information","relevant_dimensions":["antennae","legs"],"bee_group":{"antennae":"A","wings":"X","pattern":"X","legs":"M"},"bonus":0.800000000000001},{"rt":2176,"stimulus":"bees-with-color/bee-A1DM.svg","response":1,"trial_type":"image-button-response","trial_index":79,"time_elapsed":391997,"internal_node_id":"0.0-4.0-0.34","subject_id":"5fe65c62e5e63147348427a6","study_id":"6197b3f67c2b5cd3b6d9596a","session_id":"619beefc042547759094e911","condition":"full-information","relevant_dimensions":["antennae","legs"],"bee_group":{"antennae":"A","wings":"X","pattern":"X","legs":"M"},"action":"avoid","summary":"good-avoid","bonus":0.800000000000001},{"rt":569,"stimulus":"\n                    <p><b>Action: <em>avoid</em></b></p>\n                    <p>This is the bee that you just saw.</p>\n                    <img src=\"bees-with-color/bee-A1DM.svg\" width=\"200\">\n                    <p><span class=\"greenText\">Good choice!</span>  This bee would have stung you.<br>Your bonus pay is unchanged, and remains at $0.70.</p>\n            ","response":0,"trial_type":"html-button-response","trial_index":80,"time_elapsed":392567,"internal_node_id":"0.0-4.0-1.34","subject_id":"5fe65c62e5e63147348427a6","study_id":"6197b3f67c2b5cd3b6d9596a","session_id":"619beefc042547759094e911","condition":"full-information","relevant_dimensions":["antennae","legs"],"bee_group":{"antennae":"A","wings":"X","pattern":"X","legs":"M"},"bonus":0.800000000000001},{"rt":1024,"stimulus":"bees-with-color/bee-A2DF.svg","response":0,"trial_type":"image-button-response","trial_index":81,"time_elapsed":393593,"internal_node_id":"0.0-4.0-0.35","subject_id":"5fe65c62e5e63147348427a6","study_id":"6197b3f67c2b5cd3b6d9596a","session_id":"619beefc042547759094e911","condition":"full-information","relevant_dimensions":["antennae","legs"],"bee_group":{"antennae":"A","wings":"X","pattern":"X","legs":"M"},"action":"harvest","summary":"good-harvest","bonus":0.800000000000001},{"rt":1313,"stimulus":"\n                    <p><b>Action: <em>harvest</em></b></p>\n                    <p>This is the bee that you just saw.</p>\n                    <img src=\"bees-with-color/bee-A2DF.svg\" width=\"200\">\n                    <p><span class=\"greenText\"><b>Successful harvest!</b></span><br>Your pay has increased by $0.02. Your bonus pay is now $0.72.</p>\n            ","response":0,"trial_type":"html-button-response","trial_index":82,"time_elapsed":394906,"internal_node_id":"0.0-4.0-1.35","subject_id":"5fe65c62e5e63147348427a6","study_id":"6197b3f67c2b5cd3b6d9596a","session_id":"619beefc042547759094e911","condition":"full-information","relevant_dimensions":["antennae","legs"],"bee_group":{"antennae":"A","wings":"X","pattern":"X","legs":"M"},"bonus":0.800000000000001},{"rt":1108,"stimulus":"bees-with-color/bee-B1DF.svg","response":0,"trial_type":"image-button-response","trial_index":83,"time_elapsed":396015,"internal_node_id":"0.0-4.0-0.36","subject_id":"5fe65c62e5e63147348427a6","study_id":"6197b3f67c2b5cd3b6d9596a","session_id":"619beefc042547759094e911","condition":"full-information","relevant_dimensions":["antennae","legs"],"bee_group":{"antennae":"A","wings":"X","pattern":"X","legs":"M"},"action":"harvest","summary":"good-harvest","bonus":0.800000000000001},{"rt":753,"stimulus":"\n                    <p><b>Action: <em>harvest</em></b></p>\n                    <p>This is the bee that you just saw.</p>\n                    <img src=\"bees-with-color/bee-B1DF.svg\" width=\"200\">\n                    <p><span class=\"greenText\"><b>Successful harvest!</b></span><br>Your pay has increased by $0.02. Your bonus pay is now $0.74.</p>\n            ","response":0,"trial_type":"html-button-response","trial_index":84,"time_elapsed":396769,"internal_node_id":"0.0-4.0-1.36","subject_id":"5fe65c62e5e63147348427a6","study_id":"6197b3f67c2b5cd3b6d9596a","session_id":"619beefc042547759094e911","condition":"full-information","relevant_dimensions":["antennae","legs"],"bee_group":{"antennae":"A","wings":"X","pattern":"X","legs":"M"},"bonus":0.800000000000001},{"rt":1185,"stimulus":"bees-with-color/bee-A2SF.svg","response":0,"trial_type":"image-button-response","trial_index":85,"time_elapsed":397955,"internal_node_id":"0.0-4.0-0.37","subject_id":"5fe65c62e5e63147348427a6","study_id":"6197b3f67c2b5cd3b6d9596a","session_id":"619beefc042547759094e911","condition":"full-information","relevant_dimensions":["antennae","legs"],"bee_group":{"antennae":"A","wings":"X","pattern":"X","legs":"M"},"action":"harvest","summary":"good-harvest","bonus":0.800000000000001},{"rt":624,"stimulus":"\n                    <p><b>Action: <em>harvest</em></b></p>\n                    <p>This is the bee that you just saw.</p>\n                    <img src=\"bees-with-color/bee-A2SF.svg\" width=\"200\">\n                    <p><span class=\"greenText\"><b>Successful harvest!</b></span><br>Your pay has increased by $0.02. Your bonus pay is now $0.76.</p>\n            ","response":0,"trial_type":"html-button-response","trial_index":86,"time_elapsed":398579,"internal_node_id":"0.0-4.0-1.37","subject_id":"5fe65c62e5e63147348427a6","study_id":"6197b3f67c2b5cd3b6d9596a","session_id":"619beefc042547759094e911","condition":"full-information","relevant_dimensions":["antennae","legs"],"bee_group":{"antennae":"A","wings":"X","pattern":"X","legs":"M"},"bonus":0.800000000000001},{"rt":826,"stimulus":"bees-with-color/bee-B1SF.svg","response":0,"trial_type":"image-button-response","trial_index":87,"time_elapsed":399405,"internal_node_id":"0.0-4.0-0.38","subject_id":"5fe65c62e5e63147348427a6","study_id":"6197b3f67c2b5cd3b6d9596a","session_id":"619beefc042547759094e911","condition":"full-information","relevant_dimensions":["antennae","legs"],"bee_group":{"antennae":"A","wings":"X","pattern":"X","legs":"M"},"action":"harvest","summary":"good-harvest","bonus":0.800000000000001},{"rt":527,"stimulus":"\n                    <p><b>Action: <em>harvest</em></b></p>\n                    <p>This is the bee that you just saw.</p>\n                    <img src=\"bees-with-color/bee-B1SF.svg\" width=\"200\">\n                    <p><span class=\"greenText\"><b>Successful harvest!</b></span><br>Your pay has increased by $0.02. Your bonus pay is now $0.78.</p>\n            ","response":0,"trial_type":"html-button-response","trial_index":88,"time_elapsed":399932,"internal_node_id":"0.0-4.0-1.38","subject_id":"5fe65c62e5e63147348427a6","study_id":"6197b3f67c2b5cd3b6d9596a","session_id":"619beefc042547759094e911","condition":"full-information","relevant_dimensions":["antennae","legs"],"bee_group":{"antennae":"A","wings":"X","pattern":"X","legs":"M"},"bonus":0.800000000000001},{"rt":861,"stimulus":"bees-with-color/bee-B1SM.svg","response":0,"trial_type":"image-button-response","trial_index":89,"time_elapsed":400795,"internal_node_id":"0.0-4.0-0.39","subject_id":"5fe65c62e5e63147348427a6","study_id":"6197b3f67c2b5cd3b6d9596a","session_id":"619beefc042547759094e911","condition":"full-information","relevant_dimensions":["antennae","legs"],"bee_group":{"antennae":"A","wings":"X","pattern":"X","legs":"M"},"action":"harvest","summary":"good-harvest","bonus":0.800000000000001},{"rt":459,"stimulus":"\n                    <p><b>Action: <em>harvest</em></b></p>\n                    <p>This is the bee that you just saw.</p>\n                    <img src=\"bees-with-color/bee-B1SM.svg\" width=\"200\">\n                    <p><span class=\"greenText\"><b>Successful harvest!</b></span><br>Your pay has increased by $0.02. Your bonus pay is now $0.80.</p>\n            ","response":0,"trial_type":"html-button-response","trial_index":90,"time_elapsed":401254,"internal_node_id":"0.0-4.0-1.39","subject_id":"5fe65c62e5e63147348427a6","study_id":"6197b3f67c2b5cd3b6d9596a","session_id":"619beefc042547759094e911","condition":"full-information","relevant_dimensions":["antennae","legs"],"bee_group":{"antennae":"A","wings":"X","pattern":"X","legs":"M"},"bonus":0.800000000000001},{"rt":1505,"stimulus":"bees-with-color/bee-B2DM.svg","response":0,"trial_type":"image-button-response","trial_index":91,"time_elapsed":402760,"internal_node_id":"0.0-4.0-0.40","subject_id":"5fe65c62e5e63147348427a6","study_id":"6197b3f67c2b5cd3b6d9596a","session_id":"619beefc042547759094e911","condition":"full-information","relevant_dimensions":["antennae","legs"],"bee_group":{"antennae":"A","wings":"X","pattern":"X","legs":"M"},"action":"harvest","summary":"good-harvest","bonus":0.800000000000001},{"rt":425,"stimulus":"\n                    <p><b>Action: <em>harvest</em></b></p>\n                    <p>This is the bee that you just saw.</p>\n                    <img src=\"bees-with-color/bee-B2DM.svg\" width=\"200\">\n                    <p><span class=\"greenText\"><b>Successful harvest!</b></span><br>Your pay has increased by $0.02. Your bonus pay is now $0.82.</p>\n            ","response":0,"trial_type":"html-button-response","trial_index":92,"time_elapsed":403186,"internal_node_id":"0.0-4.0-1.40","subject_id":"5fe65c62e5e63147348427a6","study_id":"6197b3f67c2b5cd3b6d9596a","session_id":"619beefc042547759094e911","condition":"full-information","relevant_dimensions":["antennae","legs"],"bee_group":{"antennae":"A","wings":"X","pattern":"X","legs":"M"},"bonus":0.800000000000001},{"rt":771,"stimulus":"bees-with-color/bee-B2SM.svg","response":0,"trial_type":"image-button-response","trial_index":93,"time_elapsed":403959,"internal_node_id":"0.0-4.0-0.41","subject_id":"5fe65c62e5e63147348427a6","study_id":"6197b3f67c2b5cd3b6d9596a","session_id":"619beefc042547759094e911","condition":"full-information","relevant_dimensions":["antennae","legs"],"bee_group":{"antennae":"A","wings":"X","pattern":"X","legs":"M"},"action":"harvest","summary":"good-harvest","bonus":0.800000000000001},{"rt":527,"stimulus":"\n                    <p><b>Action: <em>harvest</em></b></p>\n                    <p>This is the bee that you just saw.</p>\n                    <img src=\"bees-with-color/bee-B2SM.svg\" width=\"200\">\n                    <p><span class=\"greenText\"><b>Successful harvest!</b></span><br>Your pay has increased by $0.02. Your bonus pay is now $0.84.</p>\n            ","response":0,"trial_type":"html-button-response","trial_index":94,"time_elapsed":404487,"internal_node_id":"0.0-4.0-1.41","subject_id":"5fe65c62e5e63147348427a6","study_id":"6197b3f67c2b5cd3b6d9596a","session_id":"619beefc042547759094e911","condition":"full-information","relevant_dimensions":["antennae","legs"],"bee_group":{"antennae":"A","wings":"X","pattern":"X","legs":"M"},"bonus":0.800000000000001},{"rt":887,"stimulus":"bees-with-color/bee-B2SF.svg","response":0,"trial_type":"image-button-response","trial_index":95,"time_elapsed":405374,"internal_node_id":"0.0-4.0-0.42","subject_id":"5fe65c62e5e63147348427a6","study_id":"6197b3f67c2b5cd3b6d9596a","session_id":"619beefc042547759094e911","condition":"full-information","relevant_dimensions":["antennae","legs"],"bee_group":{"antennae":"A","wings":"X","pattern":"X","legs":"M"},"action":"harvest","summary":"good-harvest","bonus":0.800000000000001},{"rt":458,"stimulus":"\n                    <p><b>Action: <em>harvest</em></b></p>\n                    <p>This is the bee that you just saw.</p>\n                    <img src=\"bees-with-color/bee-B2SF.svg\" width=\"200\">\n                    <p><span class=\"greenText\"><b>Successful harvest!</b></span><br>Your pay has increased by $0.02. Your bonus pay is now $0.86.</p>\n            ","response":0,"trial_type":"html-button-response","trial_index":96,"time_elapsed":405833,"internal_node_id":"0.0-4.0-1.42","subject_id":"5fe65c62e5e63147348427a6","study_id":"6197b3f67c2b5cd3b6d9596a","session_id":"619beefc042547759094e911","condition":"full-information","relevant_dimensions":["antennae","legs"],"bee_group":{"antennae":"A","wings":"X","pattern":"X","legs":"M"},"bonus":0.800000000000001},{"rt":989,"stimulus":"bees-with-color/bee-B1DM.svg","response":0,"trial_type":"image-button-response","trial_index":97,"time_elapsed":406823,"internal_node_id":"0.0-4.0-0.43","subject_id":"5fe65c62e5e63147348427a6","study_id":"6197b3f67c2b5cd3b6d9596a","session_id":"619beefc042547759094e911","condition":"full-information","relevant_dimensions":["antennae","legs"],"bee_group":{"antennae":"A","wings":"X","pattern":"X","legs":"M"},"action":"harvest","summary":"good-harvest","bonus":0.800000000000001},{"rt":499,"stimulus":"\n                    <p><b>Action: <em>harvest</em></b></p>\n                    <p>This is the bee that you just saw.</p>\n                    <img src=\"bees-with-color/bee-B1DM.svg\" width=\"200\">\n                    <p><span class=\"greenText\"><b>Successful harvest!</b></span><br>Your pay has increased by $0.02. Your bonus pay is now $0.88.</p>\n            ","response":0,"trial_type":"html-button-response","trial_index":98,"time_elapsed":407323,"internal_node_id":"0.0-4.0-1.43","subject_id":"5fe65c62e5e63147348427a6","study_id":"6197b3f67c2b5cd3b6d9596a","session_id":"619beefc042547759094e911","condition":"full-information","relevant_dimensions":["antennae","legs"],"bee_group":{"antennae":"A","wings":"X","pattern":"X","legs":"M"},"bonus":0.800000000000001},{"rt":960,"stimulus":"bees-with-color/bee-A1DF.svg","response":0,"trial_type":"image-button-response","trial_index":99,"time_elapsed":408283,"internal_node_id":"0.0-4.0-0.44","subject_id":"5fe65c62e5e63147348427a6","study_id":"6197b3f67c2b5cd3b6d9596a","session_id":"619beefc042547759094e911","condition":"full-information","relevant_dimensions":["antennae","legs"],"bee_group":{"antennae":"A","wings":"X","pattern":"X","legs":"M"},"action":"harvest","summary":"good-harvest","bonus":0.800000000000001},{"rt":456,"stimulus":"\n                    <p><b>Action: <em>harvest</em></b></p>\n                    <p>This is the bee that you just saw.</p>\n                    <img src=\"bees-with-color/bee-A1DF.svg\" width=\"200\">\n                    <p><span class=\"greenText\"><b>Successful harvest!</b></span><br>Your pay has increased by $0.02. Your bonus pay is now $0.90.</p>\n            ","response":0,"trial_type":"html-button-response","trial_index":100,"time_elapsed":408739,"internal_node_id":"0.0-4.0-1.44","subject_id":"5fe65c62e5e63147348427a6","study_id":"6197b3f67c2b5cd3b6d9596a","session_id":"619beefc042547759094e911","condition":"full-information","relevant_dimensions":["antennae","legs"],"bee_group":{"antennae":"A","wings":"X","pattern":"X","legs":"M"},"bonus":0.800000000000001},{"rt":643,"stimulus":"bees-with-color/bee-A1SF.svg","response":0,"trial_type":"image-button-response","trial_index":101,"time_elapsed":409383,"internal_node_id":"0.0-4.0-0.45","subject_id":"5fe65c62e5e63147348427a6","study_id":"6197b3f67c2b5cd3b6d9596a","session_id":"619beefc042547759094e911","condition":"full-information","relevant_dimensions":["antennae","legs"],"bee_group":{"antennae":"A","wings":"X","pattern":"X","legs":"M"},"action":"harvest","summary":"good-harvest","bonus":0.800000000000001},{"rt":556,"stimulus":"\n                    <p><b>Action: <em>harvest</em></b></p>\n                    <p>This is the bee that you just saw.</p>\n                    <img src=\"bees-with-color/bee-A1SF.svg\" width=\"200\">\n                    <p><span class=\"greenText\"><b>Successful harvest!</b></span><br>Your pay has increased by $0.02. Your bonus pay is now $0.92.</p>\n            ","response":0,"trial_type":"html-button-response","trial_index":102,"time_elapsed":409940,"internal_node_id":"0.0-4.0-1.45","subject_id":"5fe65c62e5e63147348427a6","study_id":"6197b3f67c2b5cd3b6d9596a","session_id":"619beefc042547759094e911","condition":"full-information","relevant_dimensions":["antennae","legs"],"bee_group":{"antennae":"A","wings":"X","pattern":"X","legs":"M"},"bonus":0.800000000000001},{"rt":2068,"stimulus":"bees-with-color/bee-A2SM.svg","response":1,"trial_type":"image-button-response","trial_index":103,"time_elapsed":412008,"internal_node_id":"0.0-4.0-0.46","subject_id":"5fe65c62e5e63147348427a6","study_id":"6197b3f67c2b5cd3b6d9596a","session_id":"619beefc042547759094e911","condition":"full-information","relevant_dimensions":["antennae","legs"],"bee_group":{"antennae":"A","wings":"X","pattern":"X","legs":"M"},"action":"avoid","summary":"good-avoid","bonus":0.800000000000001},{"rt":533,"stimulus":"\n                    <p><b>Action: <em>avoid</em></b></p>\n                    <p>This is the bee that you just saw.</p>\n                    <img src=\"bees-with-color/bee-A2SM.svg\" width=\"200\">\n                    <p><span class=\"greenText\">Good choice!</span>  This bee would have stung you.<br>Your bonus pay is unchanged, and remains at $0.92.</p>\n            ","response":0,"trial_type":"html-button-response","trial_index":104,"time_elapsed":412542,"internal_node_id":"0.0-4.0-1.46","subject_id":"5fe65c62e5e63147348427a6","study_id":"6197b3f67c2b5cd3b6d9596a","session_id":"619beefc042547759094e911","condition":"full-information","relevant_dimensions":["antennae","legs"],"bee_group":{"antennae":"A","wings":"X","pattern":"X","legs":"M"},"bonus":0.800000000000001},{"rt":1136,"stimulus":"bees-with-color/bee-A2DM.svg","response":1,"trial_type":"image-button-response","trial_index":105,"time_elapsed":413679,"internal_node_id":"0.0-4.0-0.47","subject_id":"5fe65c62e5e63147348427a6","study_id":"6197b3f67c2b5cd3b6d9596a","session_id":"619beefc042547759094e911","condition":"full-information","relevant_dimensions":["antennae","legs"],"bee_group":{"antennae":"A","wings":"X","pattern":"X","legs":"M"},"action":"avoid","summary":"good-avoid","bonus":0.800000000000001},{"rt":514,"stimulus":"\n                    <p><b>Action: <em>avoid</em></b></p>\n                    <p>This is the bee that you just saw.</p>\n                    <img src=\"bees-with-color/bee-A2DM.svg\" width=\"200\">\n                    <p><span class=\"greenText\">Good choice!</span>  This bee would have stung you.<br>Your bonus pay is unchanged, and remains at $0.92.</p>\n            ","response":0,"trial_type":"html-button-response","trial_index":106,"time_elapsed":414193,"internal_node_id":"0.0-4.0-1.47","subject_id":"5fe65c62e5e63147348427a6","study_id":"6197b3f67c2b5cd3b6d9596a","session_id":"619beefc042547759094e911","condition":"full-information","relevant_dimensions":["antennae","legs"],"bee_group":{"antennae":"A","wings":"X","pattern":"X","legs":"M"},"bonus":0.800000000000001},{"rt":823,"stimulus":"bees-with-color/bee-B1SM.svg","response":0,"trial_type":"image-button-response","trial_index":107,"time_elapsed":415017,"internal_node_id":"0.0-4.0-0.48","subject_id":"5fe65c62e5e63147348427a6","study_id":"6197b3f67c2b5cd3b6d9596a","session_id":"619beefc042547759094e911","condition":"full-information","relevant_dimensions":["antennae","legs"],"bee_group":{"antennae":"A","wings":"X","pattern":"X","legs":"M"},"action":"harvest","summary":"good-harvest","bonus":0.800000000000001},{"rt":993,"stimulus":"\n                    <p><b>Action: <em>harvest</em></b></p>\n                    <p>This is the bee that you just saw.</p>\n                    <img src=\"bees-with-color/bee-B1SM.svg\" width=\"200\">\n                    <p><span class=\"greenText\"><b>Successful harvest!</b></span><br>Your pay has increased by $0.02. Your bonus pay is now $0.94.</p>\n            ","response":0,"trial_type":"html-button-response","trial_index":108,"time_elapsed":416011,"internal_node_id":"0.0-4.0-1.48","subject_id":"5fe65c62e5e63147348427a6","study_id":"6197b3f67c2b5cd3b6d9596a","session_id":"619beefc042547759094e911","condition":"full-information","relevant_dimensions":["antennae","legs"],"bee_group":{"antennae":"A","wings":"X","pattern":"X","legs":"M"},"bonus":0.800000000000001},{"rt":2206,"stimulus":"bees-with-color/bee-A1SM.svg","response":1,"trial_type":"image-button-response","trial_index":109,"time_elapsed":418216,"internal_node_id":"0.0-4.0-0.49","subject_id":"5fe65c62e5e63147348427a6","study_id":"6197b3f67c2b5cd3b6d9596a","session_id":"619beefc042547759094e911","condition":"full-information","relevant_dimensions":["antennae","legs"],"bee_group":{"antennae":"A","wings":"X","pattern":"X","legs":"M"},"action":"avoid","summary":"good-avoid","bonus":0.800000000000001},{"rt":514,"stimulus":"\n                    <p><b>Action: <em>avoid</em></b></p>\n                    <p>This is the bee that you just saw.</p>\n                    <img src=\"bees-with-color/bee-A1SM.svg\" width=\"200\">\n                    <p><span class=\"greenText\">Good choice!</span>  This bee would have stung you.<br>Your bonus pay is unchanged, and remains at $0.94.</p>\n            ","response":0,"trial_type":"html-button-response","trial_index":110,"time_elapsed":418731,"internal_node_id":"0.0-4.0-1.49","subject_id":"5fe65c62e5e63147348427a6","study_id":"6197b3f67c2b5cd3b6d9596a","session_id":"619beefc042547759094e911","condition":"full-information","relevant_dimensions":["antennae","legs"],"bee_group":{"antennae":"A","wings":"X","pattern":"X","legs":"M"},"bonus":0.800000000000001},{"rt":1014,"stimulus":"bees-with-color/bee-A1DF.svg","response":0,"trial_type":"image-button-response","trial_index":111,"time_elapsed":419745,"internal_node_id":"0.0-4.0-0.50","subject_id":"5fe65c62e5e63147348427a6","study_id":"6197b3f67c2b5cd3b6d9596a","session_id":"619beefc042547759094e911","condition":"full-information","relevant_dimensions":["antennae","legs"],"bee_group":{"antennae":"A","wings":"X","pattern":"X","legs":"M"},"action":"harvest","summary":"good-harvest","bonus":0.800000000000001},{"rt":684,"stimulus":"\n                    <p><b>Action: <em>harvest</em></b></p>\n                    <p>This is the bee that you just saw.</p>\n                    <img src=\"bees-with-color/bee-A1DF.svg\" width=\"200\">\n                    <p><span class=\"greenText\"><b>Successful harvest!</b></span><br>Your pay has increased by $0.02. Your bonus pay is now $0.96.</p>\n            ","response":0,"trial_type":"html-button-response","trial_index":112,"time_elapsed":420429,"internal_node_id":"0.0-4.0-1.50","subject_id":"5fe65c62e5e63147348427a6","study_id":"6197b3f67c2b5cd3b6d9596a","session_id":"619beefc042547759094e911","condition":"full-information","relevant_dimensions":["antennae","legs"],"bee_group":{"antennae":"A","wings":"X","pattern":"X","legs":"M"},"bonus":0.800000000000001},{"rt":881,"stimulus":"bees-with-color/bee-B1DM.svg","response":0,"trial_type":"image-button-response","trial_index":113,"time_elapsed":421311,"internal_node_id":"0.0-4.0-0.51","subject_id":"5fe65c62e5e63147348427a6","study_id":"6197b3f67c2b5cd3b6d9596a","session_id":"619beefc042547759094e911","condition":"full-information","relevant_dimensions":["antennae","legs"],"bee_group":{"antennae":"A","wings":"X","pattern":"X","legs":"M"},"action":"harvest","summary":"good-harvest","bonus":0.800000000000001},{"rt":636,"stimulus":"\n                    <p><b>Action: <em>harvest</em></b></p>\n                    <p>This is the bee that you just saw.</p>\n                    <img src=\"bees-with-color/bee-B1DM.svg\" width=\"200\">\n                    <p><span class=\"greenText\"><b>Successful harvest!</b></span><br>Your pay has increased by $0.02. Your bonus pay is now $0.98.</p>\n            ","response":0,"trial_type":"html-button-response","trial_index":114,"time_elapsed":421947,"internal_node_id":"0.0-4.0-1.51","subject_id":"5fe65c62e5e63147348427a6","study_id":"6197b3f67c2b5cd3b6d9596a","session_id":"619beefc042547759094e911","condition":"full-information","relevant_dimensions":["antennae","legs"],"bee_group":{"antennae":"A","wings":"X","pattern":"X","legs":"M"},"bonus":0.800000000000001},{"rt":1119,"stimulus":"bees-with-color/bee-B2SF.svg","response":0,"trial_type":"image-button-response","trial_index":115,"time_elapsed":423067,"internal_node_id":"0.0-4.0-0.52","subject_id":"5fe65c62e5e63147348427a6","study_id":"6197b3f67c2b5cd3b6d9596a","session_id":"619beefc042547759094e911","condition":"full-information","relevant_dimensions":["antennae","legs"],"bee_group":{"antennae":"A","wings":"X","pattern":"X","legs":"M"},"action":"harvest","summary":"good-harvest","bonus":0.800000000000001},{"rt":717,"stimulus":"\n                    <p><b>Action: <em>harvest</em></b></p>\n                    <p>This is the bee that you just saw.</p>\n                    <img src=\"bees-with-color/bee-B2SF.svg\" width=\"200\">\n                    <p><span class=\"greenText\"><b>Successful harvest!</b></span><br>Your pay has increased by $0.02. Your bonus pay is now $1.00.</p>\n            ","response":0,"trial_type":"html-button-response","trial_index":116,"time_elapsed":423785,"internal_node_id":"0.0-4.0-1.52","subject_id":"5fe65c62e5e63147348427a6","study_id":"6197b3f67c2b5cd3b6d9596a","session_id":"619beefc042547759094e911","condition":"full-information","relevant_dimensions":["antennae","legs"],"bee_group":{"antennae":"A","wings":"X","pattern":"X","legs":"M"},"bonus":0.800000000000001},{"rt":1337,"stimulus":"bees-with-color/bee-A1DM.svg","response":1,"trial_type":"image-button-response","trial_index":117,"time_elapsed":425123,"internal_node_id":"0.0-4.0-0.53","subject_id":"5fe65c62e5e63147348427a6","study_id":"6197b3f67c2b5cd3b6d9596a","session_id":"619beefc042547759094e911","condition":"full-information","relevant_dimensions":["antennae","legs"],"bee_group":{"antennae":"A","wings":"X","pattern":"X","legs":"M"},"action":"avoid","summary":"good-avoid","bonus":0.800000000000001},{"rt":853,"stimulus":"\n                    <p><b>Action: <em>avoid</em></b></p>\n                    <p>This is the bee that you just saw.</p>\n                    <img src=\"bees-with-color/bee-A1DM.svg\" width=\"200\">\n                    <p><span class=\"greenText\">Good choice!</span>  This bee would have stung you.<br>Your bonus pay is unchanged, and remains at $1.00.</p>\n            ","response":0,"trial_type":"html-button-response","trial_index":118,"time_elapsed":425977,"internal_node_id":"0.0-4.0-1.53","subject_id":"5fe65c62e5e63147348427a6","study_id":"6197b3f67c2b5cd3b6d9596a","session_id":"619beefc042547759094e911","condition":"full-information","relevant_dimensions":["antennae","legs"],"bee_group":{"antennae":"A","wings":"X","pattern":"X","legs":"M"},"bonus":0.800000000000001},{"rt":1345,"stimulus":"bees-with-color/bee-B1SF.svg","response":0,"trial_type":"image-button-response","trial_index":119,"time_elapsed":427323,"internal_node_id":"0.0-4.0-0.54","subject_id":"5fe65c62e5e63147348427a6","study_id":"6197b3f67c2b5cd3b6d9596a","session_id":"619beefc042547759094e911","condition":"full-information","relevant_dimensions":["antennae","legs"],"bee_group":{"antennae":"A","wings":"X","pattern":"X","legs":"M"},"action":"harvest","summary":"good-harvest","bonus":0.800000000000001},{"rt":1415,"stimulus":"\n                    <p><b>Action: <em>harvest</em></b></p>\n                    <p>This is the bee that you just saw.</p>\n                    <img src=\"bees-with-color/bee-B1SF.svg\" width=\"200\">\n                    <p><span class=\"greenText\"><b>Successful harvest!</b></span><br>Your pay has increased by $0.02. Your bonus pay is now $1.02.</p>\n            ","response":0,"trial_type":"html-button-response","trial_index":120,"time_elapsed":428739,"internal_node_id":"0.0-4.0-1.54","subject_id":"5fe65c62e5e63147348427a6","study_id":"6197b3f67c2b5cd3b6d9596a","session_id":"619beefc042547759094e911","condition":"full-information","relevant_dimensions":["antennae","legs"],"bee_group":{"antennae":"A","wings":"X","pattern":"X","legs":"M"},"bonus":0.800000000000001},{"rt":992,"stimulus":"bees-with-color/bee-B2SM.svg","response":0,"trial_type":"image-button-response","trial_index":121,"time_elapsed":429731,"internal_node_id":"0.0-4.0-0.55","subject_id":"5fe65c62e5e63147348427a6","study_id":"6197b3f67c2b5cd3b6d9596a","session_id":"619beefc042547759094e911","condition":"full-information","relevant_dimensions":["antennae","legs"],"bee_group":{"antennae":"A","wings":"X","pattern":"X","legs":"M"},"action":"harvest","summary":"good-harvest","bonus":0.800000000000001},{"rt":565,"stimulus":"\n                    <p><b>Action: <em>harvest</em></b></p>\n                    <p>This is the bee that you just saw.</p>\n                    <img src=\"bees-with-color/bee-B2SM.svg\" width=\"200\">\n                    <p><span class=\"greenText\"><b>Successful harvest!</b></span><br>Your pay has increased by $0.02. Your bonus pay is now $1.04.</p>\n            ","response":0,"trial_type":"html-button-response","trial_index":122,"time_elapsed":430297,"internal_node_id":"0.0-4.0-1.55","subject_id":"5fe65c62e5e63147348427a6","study_id":"6197b3f67c2b5cd3b6d9596a","session_id":"619beefc042547759094e911","condition":"full-information","relevant_dimensions":["antennae","legs"],"bee_group":{"antennae":"A","wings":"X","pattern":"X","legs":"M"},"bonus":0.800000000000001},{"rt":1359,"stimulus":"bees-with-color/bee-A2DF.svg","response":0,"trial_type":"image-button-response","trial_index":123,"time_elapsed":431656,"internal_node_id":"0.0-4.0-0.56","subject_id":"5fe65c62e5e63147348427a6","study_id":"6197b3f67c2b5cd3b6d9596a","session_id":"619beefc042547759094e911","condition":"full-information","relevant_dimensions":["antennae","legs"],"bee_group":{"antennae":"A","wings":"X","pattern":"X","legs":"M"},"action":"harvest","summary":"good-harvest","bonus":0.800000000000001},{"rt":933,"stimulus":"\n                    <p><b>Action: <em>harvest</em></b></p>\n                    <p>This is the bee that you just saw.</p>\n                    <img src=\"bees-with-color/bee-A2DF.svg\" width=\"200\">\n                    <p><span class=\"greenText\"><b>Successful harvest!</b></span><br>Your pay has increased by $0.02. Your bonus pay is now $1.06.</p>\n            ","response":0,"trial_type":"html-button-response","trial_index":124,"time_elapsed":432591,"internal_node_id":"0.0-4.0-1.56","subject_id":"5fe65c62e5e63147348427a6","study_id":"6197b3f67c2b5cd3b6d9596a","session_id":"619beefc042547759094e911","condition":"full-information","relevant_dimensions":["antennae","legs"],"bee_group":{"antennae":"A","wings":"X","pattern":"X","legs":"M"},"bonus":0.800000000000001},{"rt":2462,"stimulus":"bees-with-color/bee-B1DF.svg","response":0,"trial_type":"image-button-response","trial_index":125,"time_elapsed":435052,"internal_node_id":"0.0-4.0-0.57","subject_id":"5fe65c62e5e63147348427a6","study_id":"6197b3f67c2b5cd3b6d9596a","session_id":"619beefc042547759094e911","condition":"full-information","relevant_dimensions":["antennae","legs"],"bee_group":{"antennae":"A","wings":"X","pattern":"X","legs":"M"},"action":"harvest","summary":"good-harvest","bonus":0.800000000000001},{"rt":1329,"stimulus":"\n                    <p><b>Action: <em>harvest</em></b></p>\n                    <p>This is the bee that you just saw.</p>\n                    <img src=\"bees-with-color/bee-B1DF.svg\" width=\"200\">\n                    <p><span class=\"greenText\"><b>Successful harvest!</b></span><br>Your pay has increased by $0.02. Your bonus pay is now $1.08.</p>\n            ","response":0,"trial_type":"html-button-response","trial_index":126,"time_elapsed":436382,"internal_node_id":"0.0-4.0-1.57","subject_id":"5fe65c62e5e63147348427a6","study_id":"6197b3f67c2b5cd3b6d9596a","session_id":"619beefc042547759094e911","condition":"full-information","relevant_dimensions":["antennae","legs"],"bee_group":{"antennae":"A","wings":"X","pattern":"X","legs":"M"},"bonus":0.800000000000001},{"rt":951,"stimulus":"bees-with-color/bee-A2SM.svg","response":1,"trial_type":"image-button-response","trial_index":127,"time_elapsed":437335,"internal_node_id":"0.0-4.0-0.58","subject_id":"5fe65c62e5e63147348427a6","study_id":"6197b3f67c2b5cd3b6d9596a","session_id":"619beefc042547759094e911","condition":"full-information","relevant_dimensions":["antennae","legs"],"bee_group":{"antennae":"A","wings":"X","pattern":"X","legs":"M"},"action":"avoid","summary":"good-avoid","bonus":0.800000000000001},{"rt":525,"stimulus":"\n                    <p><b>Action: <em>avoid</em></b></p>\n                    <p>This is the bee that you just saw.</p>\n                    <img src=\"bees-with-color/bee-A2SM.svg\" width=\"200\">\n                    <p><span class=\"greenText\">Good choice!</span>  This bee would have stung you.<br>Your bonus pay is unchanged, and remains at $1.08.</p>\n            ","response":0,"trial_type":"html-button-response","trial_index":128,"time_elapsed":437861,"internal_node_id":"0.0-4.0-1.58","subject_id":"5fe65c62e5e63147348427a6","study_id":"6197b3f67c2b5cd3b6d9596a","session_id":"619beefc042547759094e911","condition":"full-information","relevant_dimensions":["antennae","legs"],"bee_group":{"antennae":"A","wings":"X","pattern":"X","legs":"M"},"bonus":0.800000000000001},{"rt":1221,"stimulus":"bees-with-color/bee-A2DM.svg","response":1,"trial_type":"image-button-response","trial_index":129,"time_elapsed":439083,"internal_node_id":"0.0-4.0-0.59","subject_id":"5fe65c62e5e63147348427a6","study_id":"6197b3f67c2b5cd3b6d9596a","session_id":"619beefc042547759094e911","condition":"full-information","relevant_dimensions":["antennae","legs"],"bee_group":{"antennae":"A","wings":"X","pattern":"X","legs":"M"},"action":"avoid","summary":"good-avoid","bonus":0.800000000000001},{"rt":2921,"stimulus":"\n                    <p><b>Action: <em>avoid</em></b></p>\n                    <p>This is the bee that you just saw.</p>\n                    <img src=\"bees-with-color/bee-A2DM.svg\" width=\"200\">\n                    <p><span class=\"greenText\">Good choice!</span>  This bee would have stung you.<br>Your bonus pay is unchanged, and remains at $1.08.</p>\n            ","response":0,"trial_type":"html-button-response","trial_index":130,"time_elapsed":442005,"internal_node_id":"0.0-4.0-1.59","subject_id":"5fe65c62e5e63147348427a6","study_id":"6197b3f67c2b5cd3b6d9596a","session_id":"619beefc042547759094e911","condition":"full-information","relevant_dimensions":["antennae","legs"],"bee_group":{"antennae":"A","wings":"X","pattern":"X","legs":"M"},"bonus":0.800000000000001},{"rt":925,"stimulus":"bees-with-color/bee-B2DF.svg","response":0,"trial_type":"image-button-response","trial_index":131,"time_elapsed":442931,"internal_node_id":"0.0-4.0-0.60","subject_id":"5fe65c62e5e63147348427a6","study_id":"6197b3f67c2b5cd3b6d9596a","session_id":"619beefc042547759094e911","condition":"full-information","relevant_dimensions":["antennae","legs"],"bee_group":{"antennae":"A","wings":"X","pattern":"X","legs":"M"},"action":"harvest","summary":"good-harvest","bonus":0.800000000000001},{"rt":1146,"stimulus":"\n                    <p><b>Action: <em>harvest</em></b></p>\n                    <p>This is the bee that you just saw.</p>\n                    <img src=\"bees-with-color/bee-B2DF.svg\" width=\"200\">\n                    <p><span class=\"greenText\"><b>Successful harvest!</b></span><br>Your pay has increased by $0.02. Your bonus pay is now $1.10.</p>\n            ","response":0,"trial_type":"html-button-response","trial_index":132,"time_elapsed":444077,"internal_node_id":"0.0-4.0-1.60","subject_id":"5fe65c62e5e63147348427a6","study_id":"6197b3f67c2b5cd3b6d9596a","session_id":"619beefc042547759094e911","condition":"full-information","relevant_dimensions":["antennae","legs"],"bee_group":{"antennae":"A","wings":"X","pattern":"X","legs":"M"},"bonus":0.800000000000001},{"rt":3877,"stimulus":"bees-with-color/bee-A2SF.svg","response":0,"trial_type":"image-button-response","trial_index":133,"time_elapsed":447955,"internal_node_id":"0.0-4.0-0.61","subject_id":"5fe65c62e5e63147348427a6","study_id":"6197b3f67c2b5cd3b6d9596a","session_id":"619beefc042547759094e911","condition":"full-information","relevant_dimensions":["antennae","legs"],"bee_group":{"antennae":"A","wings":"X","pattern":"X","legs":"M"},"action":"harvest","summary":"good-harvest","bonus":0.800000000000001},{"rt":4351,"stimulus":"\n                    <p><b>Action: <em>harvest</em></b></p>\n                    <p>This is the bee that you just saw.</p>\n                    <img src=\"bees-with-color/bee-A2SF.svg\" width=\"200\">\n                    <p><span class=\"greenText\"><b>Successful harvest!</b></span><br>Your pay has increased by $0.02. Your bonus pay is now $1.12.</p>\n            ","response":0,"trial_type":"html-button-response","trial_index":134,"time_elapsed":452306,"internal_node_id":"0.0-4.0-1.61","subject_id":"5fe65c62e5e63147348427a6","study_id":"6197b3f67c2b5cd3b6d9596a","session_id":"619beefc042547759094e911","condition":"full-information","relevant_dimensions":["antennae","legs"],"bee_group":{"antennae":"A","wings":"X","pattern":"X","legs":"M"},"bonus":0.800000000000001},{"rt":888,"stimulus":"bees-with-color/bee-B2DM.svg","response":0,"trial_type":"image-button-response","trial_index":135,"time_elapsed":453194,"internal_node_id":"0.0-4.0-0.62","subject_id":"5fe65c62e5e63147348427a6","study_id":"6197b3f67c2b5cd3b6d9596a","session_id":"619beefc042547759094e911","condition":"full-information","relevant_dimensions":["antennae","legs"],"bee_group":{"antennae":"A","wings":"X","pattern":"X","legs":"M"},"action":"harvest","summary":"good-harvest","bonus":0.800000000000001},{"rt":594,"stimulus":"\n                    <p><b>Action: <em>harvest</em></b></p>\n                    <p>This is the bee that you just saw.</p>\n                    <img src=\"bees-with-color/bee-B2DM.svg\" width=\"200\">\n                    <p><span class=\"greenText\"><b>Successful harvest!</b></span><br>Your pay has increased by $0.02. Your bonus pay is now $1.14.</p>\n            ","response":0,"trial_type":"html-button-response","trial_index":136,"time_elapsed":453789,"internal_node_id":"0.0-4.0-1.62","subject_id":"5fe65c62e5e63147348427a6","study_id":"6197b3f67c2b5cd3b6d9596a","session_id":"619beefc042547759094e911","condition":"full-information","relevant_dimensions":["antennae","legs"],"bee_group":{"antennae":"A","wings":"X","pattern":"X","legs":"M"},"bonus":0.800000000000001},{"rt":647,"stimulus":"bees-with-color/bee-A1SF.svg","response":0,"trial_type":"image-button-response","trial_index":137,"time_elapsed":454437,"internal_node_id":"0.0-4.0-0.63","subject_id":"5fe65c62e5e63147348427a6","study_id":"6197b3f67c2b5cd3b6d9596a","session_id":"619beefc042547759094e911","condition":"full-information","relevant_dimensions":["antennae","legs"],"bee_group":{"antennae":"A","wings":"X","pattern":"X","legs":"M"},"action":"harvest","summary":"good-harvest","bonus":0.800000000000001},{"rt":579,"stimulus":"\n                    <p><b>Action: <em>harvest</em></b></p>\n                    <p>This is the bee that you just saw.</p>\n                    <img src=\"bees-with-color/bee-A1SF.svg\" width=\"200\">\n                    <p><span class=\"greenText\"><b>Successful harvest!</b></span><br>Your pay has increased by $0.02. Your bonus pay is now $1.16.</p>\n            ","response":0,"trial_type":"html-button-response","trial_index":138,"time_elapsed":455017,"internal_node_id":"0.0-4.0-1.63","subject_id":"5fe65c62e5e63147348427a6","study_id":"6197b3f67c2b5cd3b6d9596a","session_id":"619beefc042547759094e911","condition":"full-information","relevant_dimensions":["antennae","legs"],"bee_group":{"antennae":"A","wings":"X","pattern":"X","legs":"M"},"bonus":0.800000000000001},{"rt":7019,"stimulus":"You have completed the first part of this experiment.<br><br>You will now begin a shorter second part, in which you will receive no feedback.<br>The same rules regarding bonus pay apply.<br><br>Press any key to begin.","response":"enter","trial_type":"html-keyboard-response","trial_index":139,"time_elapsed":462036,"internal_node_id":"0.0-5.0","subject_id":"5fe65c62e5e63147348427a6","study_id":"6197b3f67c2b5cd3b6d9596a","session_id":"619beefc042547759094e911","condition":"full-information","relevant_dimensions":["antennae","legs"],"bee_group":{"antennae":"A","wings":"X","pattern":"X","legs":"M"},"bonus":0.800000000000001},{"rt":4544,"stimulus":"bees-with-color/bee-B2DM.svg","response":0,"trial_type":"image-button-response","trial_index":140,"time_elapsed":466583,"internal_node_id":"0.0-6.0-0.0","subject_id":"5fe65c62e5e63147348427a6","study_id":"6197b3f67c2b5cd3b6d9596a","session_id":"619beefc042547759094e911","condition":"full-information","relevant_dimensions":["antennae","legs"],"bee_group":{"antennae":"A","wings":"X","pattern":"X","legs":"M"},"bonus":0.800000000000001},{"rt":4526,"stimulus":"bees-with-color/bee-B2DF.svg","response":0,"trial_type":"image-button-response","trial_index":141,"time_elapsed":471111,"internal_node_id":"0.0-6.0-0.1","subject_id":"5fe65c62e5e63147348427a6","study_id":"6197b3f67c2b5cd3b6d9596a","session_id":"619beefc042547759094e911","condition":"full-information","relevant_dimensions":["antennae","legs"],"bee_group":{"antennae":"A","wings":"X","pattern":"X","legs":"M"},"bonus":0.800000000000001},{"rt":1801,"stimulus":"bees-with-color/bee-B1DM.svg","response":1,"trial_type":"image-button-response","trial_index":142,"time_elapsed":472913,"internal_node_id":"0.0-6.0-0.2","subject_id":"5fe65c62e5e63147348427a6","study_id":"6197b3f67c2b5cd3b6d9596a","session_id":"619beefc042547759094e911","condition":"full-information","relevant_dimensions":["antennae","legs"],"bee_group":{"antennae":"A","wings":"X","pattern":"X","legs":"M"},"bonus":0.800000000000001},{"rt":3170,"stimulus":"bees-with-color/bee-A2SM.svg","response":0,"trial_type":"image-button-response","trial_index":143,"time_elapsed":476085,"internal_node_id":"0.0-6.0-0.3","subject_id":"5fe65c62e5e63147348427a6","study_id":"6197b3f67c2b5cd3b6d9596a","session_id":"619beefc042547759094e911","condition":"full-information","relevant_dimensions":["antennae","legs"],"bee_group":{"antennae":"A","wings":"X","pattern":"X","legs":"M"},"bonus":0.800000000000001},{"rt":2815,"stimulus":"bees-with-color/bee-A1DM.svg","response":0,"trial_type":"image-button-response","trial_index":144,"time_elapsed":478900,"internal_node_id":"0.0-6.0-0.4","subject_id":"5fe65c62e5e63147348427a6","study_id":"6197b3f67c2b5cd3b6d9596a","session_id":"619beefc042547759094e911","condition":"full-information","relevant_dimensions":["antennae","legs"],"bee_group":{"antennae":"A","wings":"X","pattern":"X","legs":"M"},"bonus":0.800000000000001},{"rt":561,"stimulus":"bees-with-color/bee-B1SF.svg","response":0,"trial_type":"image-button-response","trial_index":145,"time_elapsed":479463,"internal_node_id":"0.0-6.0-0.5","subject_id":"5fe65c62e5e63147348427a6","study_id":"6197b3f67c2b5cd3b6d9596a","session_id":"619beefc042547759094e911","condition":"full-information","relevant_dimensions":["antennae","legs"],"bee_group":{"antennae":"A","wings":"X","pattern":"X","legs":"M"},"bonus":0.800000000000001},{"rt":229,"stimulus":"bees-with-color/bee-A2DF.svg","response":0,"trial_type":"image-button-response","trial_index":146,"time_elapsed":479693,"internal_node_id":"0.0-6.0-0.6","subject_id":"5fe65c62e5e63147348427a6","study_id":"6197b3f67c2b5cd3b6d9596a","session_id":"619beefc042547759094e911","condition":"full-information","relevant_dimensions":["antennae","legs"],"bee_group":{"antennae":"A","wings":"X","pattern":"X","legs":"M"},"bonus":0.800000000000001},{"rt":253,"stimulus":"bees-with-color/bee-B2SM.svg","response":0,"trial_type":"image-button-response","trial_index":147,"time_elapsed":479947,"internal_node_id":"0.0-6.0-0.7","subject_id":"5fe65c62e5e63147348427a6","study_id":"6197b3f67c2b5cd3b6d9596a","session_id":"619beefc042547759094e911","condition":"full-information","relevant_dimensions":["antennae","legs"],"bee_group":{"antennae":"A","wings":"X","pattern":"X","legs":"M"},"bonus":0.800000000000001},{"rt":241,"stimulus":"bees-with-color/bee-A2SF.svg","response":0,"trial_type":"image-button-response","trial_index":148,"time_elapsed":480189,"internal_node_id":"0.0-6.0-0.8","subject_id":"5fe65c62e5e63147348427a6","study_id":"6197b3f67c2b5cd3b6d9596a","session_id":"619beefc042547759094e911","condition":"full-information","relevant_dimensions":["antennae","legs"],"bee_group":{"antennae":"A","wings":"X","pattern":"X","legs":"M"},"bonus":0.800000000000001},{"rt":249,"stimulus":"bees-with-color/bee-B1SM.svg","response":0,"trial_type":"image-button-response","trial_index":149,"time_elapsed":480439,"internal_node_id":"0.0-6.0-0.9","subject_id":"5fe65c62e5e63147348427a6","study_id":"6197b3f67c2b5cd3b6d9596a","session_id":"619beefc042547759094e911","condition":"full-information","relevant_dimensions":["antennae","legs"],"bee_group":{"antennae":"A","wings":"X","pattern":"X","legs":"M"},"bonus":0.800000000000001},{"rt":218,"stimulus":"bees-with-color/bee-A1SM.svg","response":0,"trial_type":"image-button-response","trial_index":150,"time_elapsed":480656,"internal_node_id":"0.0-6.0-0.10","subject_id":"5fe65c62e5e63147348427a6","study_id":"6197b3f67c2b5cd3b6d9596a","session_id":"619beefc042547759094e911","condition":"full-information","relevant_dimensions":["antennae","legs"],"bee_group":{"antennae":"A","wings":"X","pattern":"X","legs":"M"},"bonus":0.800000000000001},{"rt":369,"stimulus":"bees-with-color/bee-B1DF.svg","response":1,"trial_type":"image-button-response","trial_index":151,"time_elapsed":481026,"internal_node_id":"0.0-6.0-0.11","subject_id":"5fe65c62e5e63147348427a6","study_id":"6197b3f67c2b5cd3b6d9596a","session_id":"619beefc042547759094e911","condition":"full-information","relevant_dimensions":["antennae","legs"],"bee_group":{"antennae":"A","wings":"X","pattern":"X","legs":"M"},"bonus":0.800000000000001},{"rt":319,"stimulus":"bees-with-color/bee-B2SF.svg","response":0,"trial_type":"image-button-response","trial_index":152,"time_elapsed":481347,"internal_node_id":"0.0-6.0-0.12","subject_id":"5fe65c62e5e63147348427a6","study_id":"6197b3f67c2b5cd3b6d9596a","session_id":"619beefc042547759094e911","condition":"full-information","relevant_dimensions":["antennae","legs"],"bee_group":{"antennae":"A","wings":"X","pattern":"X","legs":"M"},"bonus":0.800000000000001},{"rt":218,"stimulus":"bees-with-color/bee-A1SF.svg","response":0,"trial_type":"image-button-response","trial_index":153,"time_elapsed":481565,"internal_node_id":"0.0-6.0-0.13","subject_id":"5fe65c62e5e63147348427a6","study_id":"6197b3f67c2b5cd3b6d9596a","session_id":"619beefc042547759094e911","condition":"full-information","relevant_dimensions":["antennae","legs"],"bee_group":{"antennae":"A","wings":"X","pattern":"X","legs":"M"},"bonus":0.800000000000001},{"rt":207,"stimulus":"bees-with-color/bee-A1DF.svg","response":0,"trial_type":"image-button-response","trial_index":154,"time_elapsed":481773,"internal_node_id":"0.0-6.0-0.14","subject_id":"5fe65c62e5e63147348427a6","study_id":"6197b3f67c2b5cd3b6d9596a","session_id":"619beefc042547759094e911","condition":"full-information","relevant_dimensions":["antennae","legs"],"bee_group":{"antennae":"A","wings":"X","pattern":"X","legs":"M"},"bonus":0.800000000000001},{"rt":201,"stimulus":"bees-with-color/bee-A2DM.svg","response":0,"trial_type":"image-button-response","trial_index":155,"time_elapsed":481975,"internal_node_id":"0.0-6.0-0.15","subject_id":"5fe65c62e5e63147348427a6","study_id":"6197b3f67c2b5cd3b6d9596a","session_id":"619beefc042547759094e911","condition":"full-information","relevant_dimensions":["antennae","legs"],"bee_group":{"antennae":"A","wings":"X","pattern":"X","legs":"M"},"bonus":0.800000000000001},{"rt":229,"stimulus":"bees-with-color/bee-A2DM.svg","response":0,"trial_type":"image-button-response","trial_index":156,"time_elapsed":482204,"internal_node_id":"0.0-6.0-0.16","subject_id":"5fe65c62e5e63147348427a6","study_id":"6197b3f67c2b5cd3b6d9596a","session_id":"619beefc042547759094e911","condition":"full-information","relevant_dimensions":["antennae","legs"],"bee_group":{"antennae":"A","wings":"X","pattern":"X","legs":"M"},"bonus":0.800000000000001},{"rt":214,"stimulus":"bees-with-color/bee-B1DM.svg","response":0,"trial_type":"image-button-response","trial_index":157,"time_elapsed":482418,"internal_node_id":"0.0-6.0-0.17","subject_id":"5fe65c62e5e63147348427a6","study_id":"6197b3f67c2b5cd3b6d9596a","session_id":"619beefc042547759094e911","condition":"full-information","relevant_dimensions":["antennae","legs"],"bee_group":{"antennae":"A","wings":"X","pattern":"X","legs":"M"},"bonus":0.800000000000001},{"rt":223,"stimulus":"bees-with-color/bee-B1DF.svg","response":0,"trial_type":"image-button-response","trial_index":158,"time_elapsed":482642,"internal_node_id":"0.0-6.0-0.18","subject_id":"5fe65c62e5e63147348427a6","study_id":"6197b3f67c2b5cd3b6d9596a","session_id":"619beefc042547759094e911","condition":"full-information","relevant_dimensions":["antennae","legs"],"bee_group":{"antennae":"A","wings":"X","pattern":"X","legs":"M"},"bonus":0.800000000000001},{"rt":241,"stimulus":"bees-with-color/bee-B2SF.svg","response":0,"trial_type":"image-button-response","trial_index":159,"time_elapsed":482885,"internal_node_id":"0.0-6.0-0.19","subject_id":"5fe65c62e5e63147348427a6","study_id":"6197b3f67c2b5cd3b6d9596a","session_id":"619beefc042547759094e911","condition":"full-information","relevant_dimensions":["antennae","legs"],"bee_group":{"antennae":"A","wings":"X","pattern":"X","legs":"M"},"bonus":0.800000000000001},{"rt":229,"stimulus":"bees-with-color/bee-A2SF.svg","response":0