[{"success":true,"trial_type":"fullscreen","trial_index":0,"time_elapsed":35058,"internal_node_id":"0.0-0.0","subject_id":"5fa976c94762931338a445e3","study_id":"6197b3f67c2b5cd3b6d9596a","session_id":"6197b88e4c1af4d577c27985","condition":"full-information","relevant_dimensions":["wings","pattern"],"bee_group":{"antennae":"X","wings":"1","pattern":"D","legs":"X"},"bonus":1.8400000000000012},{"success":true,"timeout":false,"failed_images":[],"failed_audio":[],"failed_video":[],"trial_type":"preload","trial_index":1,"time_elapsed":36835,"internal_node_id":"0.0-1.0","subject_id":"5fa976c94762931338a445e3","study_id":"6197b3f67c2b5cd3b6d9596a","session_id":"6197b88e4c1af4d577c27985","condition":"full-information","relevant_dimensions":["wings","pattern"],"bee_group":{"antennae":"X","wings":"1","pattern":"D","legs":"X"},"bonus":1.8400000000000012},{"rt":3929.89999999851,"stimulus":"Welcome! Press any key to begin.","response":" ","trial_type":"html-keyboard-response","trial_index":2,"time_elapsed":40767,"internal_node_id":"0.0-2.0","subject_id":"5fa976c94762931338a445e3","study_id":"6197b3f67c2b5cd3b6d9596a","session_id":"6197b88e4c1af4d577c27985","condition":"full-information","relevant_dimensions":["wings","pattern"],"bee_group":{"antennae":"X","wings":"1","pattern":"D","legs":"X"},"bonus":1.8400000000000012},{"view_history":[{"page_index":0,"viewing_time":11102.5},{"page_index":1,"viewing_time":19434.89999999851},{"page_index":2,"viewing_time":11573.900000002235},{"page_index":3,"viewing_time":16154.89999999851},{"page_index":4,"viewing_time":7670.60000000149},{"page_index":5,"viewing_time":10828.599999997765},{"page_index":6,"viewing_time":11154.70000000298},{"page_index":7,"viewing_time":6298.79999999702},{"page_index":8,"viewing_time":5487.400000002235},{"page_index":9,"viewing_time":3595.099999997765},{"page_index":10,"viewing_time":2803.900000002235},{"page_index":11,"viewing_time":13379.699999999255},{"page_index":12,"viewing_time":11226},{"page_index":13,"viewing_time":1920.1000000014901},{"page_index":14,"viewing_time":3057.89999999851}],"rt":135689.69999999925,"trial_type":"instructions","trial_index":3,"time_elapsed":176454,"internal_node_id":"0.0-3.0-0.0","subject_id":"5fa976c94762931338a445e3","study_id":"6197b3f67c2b5cd3b6d9596a","session_id":"6197b88e4c1af4d577c27985","condition":"full-information","relevant_dimensions":["wings","pattern"],"bee_group":{"antennae":"X","wings":"1","pattern":"D","legs":"X"},"bonus":1.8400000000000012},{"rt":14609.199999999255,"response":{"Q0":["Two or six legs","Stripes or spots on body","Single or double wings","Antennae or no antennae"]},"question_order":[0],"trial_type":"survey-multi-select","trial_index":4,"time_elapsed":191088,"internal_node_id":"0.0-3.0-1.0","subject_id":"5fa976c94762931338a445e3","study_id":"6197b3f67c2b5cd3b6d9596a","session_id":"6197b88e4c1af4d577c27985","condition":"full-information","relevant_dimensions":["wings","pattern"],"bee_group":{"antennae":"X","wings":"1","pattern":"D","legs":"X"},"correct":true,"bonus":1.8400000000000012},{"rt":27965.60000000149,"response":{"Q1":"No.","Q2":"Based on the four features of the bee.","Q3":"You learn if it was friendly or dangerous, but do not alter your bonus."},"question_order":[0,1,2],"trial_type":"survey-multi-choice","trial_index":5,"time_elapsed":219065,"internal_node_id":"0.0-3.0-2.0","subject_id":"5fa976c94762931338a445e3","study_id":"6197b3f67c2b5cd3b6d9596a","session_id":"6197b88e4c1af4d577c27985","condition":"full-information","relevant_dimensions":["wings","pattern"],"bee_group":{"antennae":"X","wings":"1","pattern":"D","legs":"X"},"correct":true,"bonus":1.8400000000000012},{"rt":4824.800000000745,"stimulus":"<p>Congrats, you got everything right<br>When you're ready, click the button below to continue to the experiment.</p>","response":0,"trial_type":"html-button-response","trial_index":6,"time_elapsed":223900,"internal_node_id":"0.0-3.0-3.0","subject_id":"5fa976c94762931338a445e3","study_id":"6197b3f67c2b5cd3b6d9596a","session_id":"6197b88e4c1af4d577c27985","condition":"full-information","relevant_dimensions":["wings","pattern"],"bee_group":{"antennae":"X","wings":"1","pattern":"D","legs":"X"},"bonus":1.8400000000000012},{"rt":8659.199999999255,"stimulus":"bees-with-color/bee-A1SM.svg","response":0,"trial_type":"image-button-response","trial_index":7,"time_elapsed":232566,"internal_node_id":"0.0-4.0-0.0","subject_id":"5fa976c94762931338a445e3","study_id":"6197b3f67c2b5cd3b6d9596a","session_id":"6197b88e4c1af4d577c27985","condition":"full-information","relevant_dimensions":["wings","pattern"],"bee_group":{"antennae":"X","wings":"1","pattern":"D","legs":"X"},"action":"harvest","summary":"good-harvest","bonus":1.8400000000000012},{"rt":22242.400000002235,"stimulus":"\n                    <p><b>Action: <em>harvest</em></b></p>\n                    <p>This is the bee that you just saw.</p>\n                    <img src=\"bees-with-color/bee-A1SM.svg\" width=\"200\">\n                    <p><span class=\"greenText\"><b>Successful harvest!</b></span><br>Your pay has increased by $0.02. Your bonus pay is now $0.56.</p>\n            ","response":0,"trial_type":"html-button-response","trial_index":8,"time_elapsed":254816,"internal_node_id":"0.0-4.0-1.0","subject_id":"5fa976c94762931338a445e3","study_id":"6197b3f67c2b5cd3b6d9596a","session_id":"6197b88e4c1af4d577c27985","condition":"full-information","relevant_dimensions":["wings","pattern"],"bee_group":{"antennae":"X","wings":"1","pattern":"D","legs":"X"},"bonus":1.8400000000000012},{"rt":4189.79999999702,"stimulus":"bees-with-color/bee-B2SF.svg","response":1,"trial_type":"image-button-response","trial_index":9,"time_elapsed":259011,"internal_node_id":"0.0-4.0-0.1","subject_id":"5fa976c94762931338a445e3","study_id":"6197b3f67c2b5cd3b6d9596a","session_id":"6197b88e4c1af4d577c27985","condition":"full-information","relevant_dimensions":["wings","pattern"],"bee_group":{"antennae":"X","wings":"1","pattern":"D","legs":"X"},"action":"avoid","summary":"bad-avoid","bonus":1.8400000000000012},{"rt":8100.199999999255,"stimulus":"\n                    <p><b>Action: <em>avoid</em></b></p>\n                    <p>This is the bee that you just saw.</p>\n                    <img src=\"bees-with-color/bee-B2SF.svg\" width=\"200\">\n                    <p><span class=\"redText\">Bad choice,</span> the bee was friendly.<br>Your bonus pay is unchanged, and remains at $0.56.</p>\n            ","response":0,"trial_type":"html-button-response","trial_index":10,"time_elapsed":267117,"internal_node_id":"0.0-4.0-1.1","subject_id":"5fa976c94762931338a445e3","study_id":"6197b3f67c2b5cd3b6d9596a","session_id":"6197b88e4c1af4d577c27985","condition":"full-information","relevant_dimensions":["wings","pattern"],"bee_group":{"antennae":"X","wings":"1","pattern":"D","legs":"X"},"bonus":1.8400000000000012},{"rt":4047.800000000745,"stimulus":"bees-with-color/bee-B2DF.svg","response":1,"trial_type":"image-button-response","trial_index":11,"time_elapsed":271170,"internal_node_id":"0.0-4.0-0.2","subject_id":"5fa976c94762931338a445e3","study_id":"6197b3f67c2b5cd3b6d9596a","session_id":"6197b88e4c1af4d577c27985","condition":"full-information","relevant_dimensions":["wings","pattern"],"bee_group":{"antennae":"X","wings":"1","pattern":"D","legs":"X"},"action":"avoid","summary":"bad-avoid","bonus":1.8400000000000012},{"rt":5207.5,"stimulus":"\n                    <p><b>Action: <em>avoid</em></b></p>\n                    <p>This is the bee that you just saw.</p>\n                    <img src=\"bees-with-color/bee-B2DF.svg\" width=\"200\">\n                    <p><span class=\"redText\">Bad choice,</span> the bee was friendly.<br>Your bonus pay is unchanged, and remains at $0.56.</p>\n            ","response":0,"trial_type":"html-button-response","trial_index":12,"time_elapsed":276382,"internal_node_id":"0.0-4.0-1.2","subject_id":"5fa976c94762931338a445e3","study_id":"6197b3f67c2b5cd3b6d9596a","session_id":"6197b88e4c1af4d577c27985","condition":"full-information","relevant_dimensions":["wings","pattern"],"bee_group":{"antennae":"X","wings":"1","pattern":"D","legs":"X"},"bonus":1.8400000000000012},{"rt":2615.5,"stimulus":"bees-with-color/bee-B1DM.svg","response":1,"trial_type":"image-button-response","trial_index":13,"time_elapsed":279003,"internal_node_id":"0.0-4.0-0.3","subject_id":"5fa976c94762931338a445e3","study_id":"6197b3f67c2b5cd3b6d9596a","session_id":"6197b88e4c1af4d577c27985","condition":"full-information","relevant_dimensions":["wings","pattern"],"bee_group":{"antennae":"X","wings":"1","pattern":"D","legs":"X"},"action":"avoid","summary":"good-avoid","bonus":1.8400000000000012},{"rt":5898.199999999255,"stimulus":"\n                    <p><b>Action: <em>avoid</em></b></p>\n                    <p>This is the bee that you just saw.</p>\n                    <img src=\"bees-with-color/bee-B1DM.svg\" width=\"200\">\n                    <p><span class=\"greenText\">Good choice!</span>  This bee would have stung you.<br>Your bonus pay is unchanged, and remains at $0.56.</p>\n            ","response":0,"trial_type":"html-button-response","trial_index":14,"time_elapsed":284906,"internal_node_id":"0.0-4.0-1.3","subject_id":"5fa976c94762931338a445e3","study_id":"6197b3f67c2b5cd3b6d9596a","session_id":"6197b88e4c1af4d577c27985","condition":"full-information","relevant_dimensions":["wings","pattern"],"bee_group":{"antennae":"X","wings":"1","pattern":"D","legs":"X"},"bonus":1.8400000000000012},{"rt":16219.70000000298,"stimulus":"bees-with-color/bee-A2DF.svg","response":1,"trial_type":"image-button-response","trial_index":15,"time_elapsed":301131,"internal_node_id":"0.0-4.0-0.4","subject_id":"5fa976c94762931338a445e3","study_id":"6197b3f67c2b5cd3b6d9596a","session_id":"6197b88e4c1af4d577c27985","condition":"full-information","relevant_dimensions":["wings","pattern"],"bee_group":{"antennae":"X","wings":"1","pattern":"D","legs":"X"},"action":"avoid","summary":"bad-avoid","bonus":1.8400000000000012},{"rt":15182.5,"stimulus":"\n                    <p><b>Action: <em>avoid</em></b></p>\n                    <p>This is the bee that you just saw.</p>\n                    <img src=\"bees-with-color/bee-A2DF.svg\" width=\"200\">\n                    <p><span class=\"redText\">Bad choice,</span> the bee was friendly.<br>Your bonus pay is unchanged, and remains at $0.56.</p>\n            ","response":0,"trial_type":"html-button-response","trial_index":16,"time_elapsed":316316,"internal_node_id":"0.0-4.0-1.4","subject_id":"5fa976c94762931338a445e3","study_id":"6197b3f67c2b5cd3b6d9596a","session_id":"6197b88e4c1af4d577c27985","condition":"full-information","relevant_dimensions":["wings","pattern"],"bee_group":{"antennae":"X","wings":"1","pattern":"D","legs":"X"},"bonus":1.8400000000000012},{"rt":10297.60000000149,"stimulus":"bees-with-color/bee-A2DM.svg","response":1,"trial_type":"image-button-response","trial_index":17,"time_elapsed":326619,"internal_node_id":"0.0-4.0-0.5","subject_id":"5fa976c94762931338a445e3","study_id":"6197b3f67c2b5cd3b6d9596a","session_id":"6197b88e4c1af4d577c27985","condition":"full-information","relevant_dimensions":["wings","pattern"],"bee_group":{"antennae":"X","wings":"1","pattern":"D","legs":"X"},"action":"avoid","summary":"bad-avoid","bonus":1.8400000000000012},{"rt":8926.70000000298,"stimulus":"\n                    <p><b>Action: <em>avoid</em></b></p>\n                    <p>This is the bee that you just saw.</p>\n                    <img src=\"bees-with-color/bee-A2DM.svg\" width=\"200\">\n                    <p><span class=\"redText\">Bad choice,</span> the bee was friendly.<br>Your bonus pay is unchanged, and remains at $0.56.</p>\n            ","response":0,"trial_type":"html-button-response","trial_index":18,"time_elapsed":335549,"internal_node_id":"0.0-4.0-1.5","subject_id":"5fa976c94762931338a445e3","study_id":"6197b3f67c2b5cd3b6d9596a","session_id":"6197b88e4c1af4d577c27985","condition":"full-information","relevant_dimensions":["wings","pattern"],"bee_group":{"antennae":"X","wings":"1","pattern":"D","legs":"X"},"bonus":1.8400000000000012},{"rt":12197.5,"stimulus":"bees-with-color/bee-A2SF.svg","response":1,"trial_type":"image-button-response","trial_index":19,"time_elapsed":347751,"internal_node_id":"0.0-4.0-0.6","subject_id":"5fa976c94762931338a445e3","study_id":"6197b3f67c2b5cd3b6d9596a","session_id":"6197b88e4c1af4d577c27985","condition":"full-information","relevant_dimensions":["wings","pattern"],"bee_group":{"antennae":"X","wings":"1","pattern":"D","legs":"X"},"action":"avoid","summary":"bad-avoid","bonus":1.8400000000000012},{"rt":9149.699999999255,"stimulus":"\n                    <p><b>Action: <em>avoid</em></b></p>\n                    <p>This is the bee that you just saw.</p>\n                    <img src=\"bees-with-color/bee-A2SF.svg\" width=\"200\">\n                    <p><span class=\"redText\">Bad choice,</span> the bee was friendly.<br>Your bonus pay is unchanged, and remains at $0.56.</p>\n            ","response":0,"trial_type":"html-button-response","trial_index":20,"time_elapsed":356905,"internal_node_id":"0.0-4.0-1.6","subject_id":"5fa976c94762931338a445e3","study_id":"6197b3f67c2b5cd3b6d9596a","session_id":"6197b88e4c1af4d577c27985","condition":"full-information","relevant_dimensions":["wings","pattern"],"bee_group":{"antennae":"X","wings":"1","pattern":"D","legs":"X"},"bonus":1.8400000000000012},{"rt":11932.29999999702,"stimulus":"bees-with-color/bee-B1DF.svg","response":1,"trial_type":"image-button-response","trial_index":21,"time_elapsed":368842,"internal_node_id":"0.0-4.0-0.7","subject_id":"5fa976c94762931338a445e3","study_id":"6197b3f67c2b5cd3b6d9596a","session_id":"6197b88e4c1af4d577c27985","condition":"full-information","relevant_dimensions":["wings","pattern"],"bee_group":{"antennae":"X","wings":"1","pattern":"D","legs":"X"},"action":"avoid","summary":"good-avoid","bonus":1.8400000000000012},{"rt":22447.300000000745,"stimulus":"\n                    <p><b>Action: <em>avoid</em></b></p>\n                    <p>This is the bee that you just saw.</p>\n                    <img src=\"bees-with-color/bee-B1DF.svg\" width=\"200\">\n                    <p><span class=\"greenText\">Good choice!</span>  This bee would have stung you.<br>Your bonus pay is unchanged, and remains at $0.56.</p>\n            ","response":0,"trial_type":"html-button-response","trial_index":22,"time_elapsed":391294,"internal_node_id":"0.0-4.0-1.7","subject_id":"5fa976c94762931338a445e3","study_id":"6197b3f67c2b5cd3b6d9596a","session_id":"6197b88e4c1af4d577c27985","condition":"full-information","relevant_dimensions":["wings","pattern"],"bee_group":{"antennae":"X","wings":"1","pattern":"D","legs":"X"},"bonus":1.8400000000000012},{"rt":6832.300000000745,"stimulus":"bees-with-color/bee-B2SM.svg","response":0,"trial_type":"image-button-response","trial_index":23,"time_elapsed":398130,"internal_node_id":"0.0-4.0-0.8","subject_id":"5fa976c94762931338a445e3","study_id":"6197b3f67c2b5cd3b6d9596a","session_id":"6197b88e4c1af4d577c27985","condition":"full-information","relevant_dimensions":["wings","pattern"],"bee_group":{"antennae":"X","wings":"1","pattern":"D","legs":"X"},"action":"harvest","summary":"good-harvest","bonus":1.8400000000000012},{"rt":7707,"stimulus":"\n                    <p><b>Action: <em>harvest</em></b></p>\n                    <p>This is the bee that you just saw.</p>\n                    <img src=\"bees-with-color/bee-B2SM.svg\" width=\"200\">\n                    <p><span class=\"greenText\"><b>Successful harvest!</b></span><br>Your pay has increased by $0.02. Your bonus pay is now $0.58.</p>\n            ","response":0,"trial_type":"html-button-response","trial_index":24,"time_elapsed":405841,"internal_node_id":"0.0-4.0-1.8","subject_id":"5fa976c94762931338a445e3","study_id":"6197b3f67c2b5cd3b6d9596a","session_id":"6197b88e4c1af4d577c27985","condition":"full-information","relevant_dimensions":["wings","pattern"],"bee_group":{"antennae":"X","wings":"1","pattern":"D","legs":"X"},"bonus":1.8400000000000012},{"rt":21024.199999999255,"stimulus":"bees-with-color/bee-A1DF.svg","response":1,"trial_type":"image-button-response","trial_index":25,"time_elapsed":426870,"internal_node_id":"0.0-4.0-0.9","subject_id":"5fa976c94762931338a445e3","study_id":"6197b3f67c2b5cd3b6d9596a","session_id":"6197b88e4c1af4d577c27985","condition":"full-information","relevant_dimensions":["wings","pattern"],"bee_group":{"antennae":"X","wings":"1","pattern":"D","legs":"X"},"action":"avoid","summary":"good-avoid","bonus":1.8400000000000012},{"rt":12166.300000000745,"stimulus":"\n                    <p><b>Action: <em>avoid</em></b></p>\n                    <p>This is the bee that you just saw.</p>\n                    <img src=\"bees-with-color/bee-A1DF.svg\" width=\"200\">\n                    <p><span class=\"greenText\">Good choice!</span>  This bee would have stung you.<br>Your bonus pay is unchanged, and remains at $0.58.</p>\n            ","response":0,"trial_type":"html-button-response","trial_index":26,"time_elapsed":439040,"internal_node_id":"0.0-4.0-1.9","subject_id":"5fa976c94762931338a445e3","study_id":"6197b3f67c2b5cd3b6d9596a","session_id":"6197b88e4c1af4d577c27985","condition":"full-information","relevant_dimensions":["wings","pattern"],"bee_group":{"antennae":"X","wings":"1","pattern":"D","legs":"X"},"bonus":1.8400000000000012},{"rt":13273.699999999255,"stimulus":"bees-with-color/bee-B2DM.svg","response":0,"trial_type":"image-button-response","trial_index":27,"time_elapsed":452332,"internal_node_id":"0.0-4.0-0.10","subject_id":"5fa976c94762931338a445e3","study_id":"6197b3f67c2b5cd3b6d9596a","session_id":"6197b88e4c1af4d577c27985","condition":"full-information","relevant_dimensions":["wings","pattern"],"bee_group":{"antennae":"X","wings":"1","pattern":"D","legs":"X"},"action":"harvest","summary":"good-harvest","bonus":1.8400000000000012},{"rt":2455.5,"stimulus":"\n                    <p><b>Action: <em>harvest</em></b></p>\n                    <p>This is the bee that you just saw.</p>\n                    <img src=\"bees-with-color/bee-B2DM.svg\" width=\"200\">\n                    <p><span class=\"greenText\"><b>Successful harvest!</b></span><br>Your pay has increased by $0.02. Your bonus pay is now $0.60.</p>\n            ","response":0,"trial_type":"html-button-response","trial_index":28,"time_elapsed":454791,"internal_node_id":"0.0-4.0-1.10","subject_id":"5fa976c94762931338a445e3","study_id":"6197b3f67c2b5cd3b6d9596a","session_id":"6197b88e4c1af4d577c27985","condition":"full-information","relevant_dimensions":["wings","pattern"],"bee_group":{"antennae":"X","wings":"1","pattern":"D","legs":"X"},"bonus":1.8400000000000012},{"rt":14546,"stimulus":"bees-with-color/bee-A2SM.svg","response":0,"trial_type":"image-button-response","trial_index":29,"time_elapsed":469342,"internal_node_id":"0.0-4.0-0.11","subject_id":"5fa976c94762931338a445e3","study_id":"6197b3f67c2b5cd3b6d9596a","session_id":"6197b88e4c1af4d577c27985","condition":"full-information","relevant_dimensions":["wings","pattern"],"bee_group":{"antennae":"X","wings":"1","pattern":"D","legs":"X"},"action":"harvest","summary":"good-harvest","bonus":1.8400000000000012},{"rt":1313.7000000029802,"stimulus":"\n                    <p><b>Action: <em>harvest</em></b></p>\n                    <p>This is the bee that you just saw.</p>\n                    <img src=\"bees-with-color/bee-A2SM.svg\" width=\"200\">\n                    <p><span class=\"greenText\"><b>Successful harvest!</b></span><br>Your pay has increased by $0.02. Your bonus pay is now $0.62.</p>\n            ","response":0,"trial_type":"html-button-response","trial_index":30,"time_elapsed":470659,"internal_node_id":"0.0-4.0-1.11","subject_id":"5fa976c94762931338a445e3","study_id":"6197b3f67c2b5cd3b6d9596a","session_id":"6197b88e4c1af4d577c27985","condition":"full-information","relevant_dimensions":["wings","pattern"],"bee_group":{"antennae":"X","wings":"1","pattern":"D","legs":"X"},"bonus":1.8400000000000012},{"rt":1743.4000000022352,"stimulus":"bees-with-color/bee-B1SF.svg","response":1,"trial_type":"image-button-response","trial_index":31,"time_elapsed":472407,"internal_node_id":"0.0-4.0-0.12","subject_id":"5fa976c94762931338a445e3","study_id":"6197b3f67c2b5cd3b6d9596a","session_id":"6197b88e4c1af4d577c27985","condition":"full-information","relevant_dimensions":["wings","pattern"],"bee_group":{"antennae":"X","wings":"1","pattern":"D","legs":"X"},"action":"avoid","summary":"bad-avoid","bonus":1.8400000000000012},{"rt":1754,"stimulus":"\n                    <p><b>Action: <em>avoid</em></b></p>\n                    <p>This is the bee that you just saw.</p>\n                    <img src=\"bees-with-color/bee-B1SF.svg\" width=\"200\">\n                    <p><span class=\"redText\">Bad choice,</span> the bee was friendly.<br>Your bonus pay is unchanged, and remains at $0.62.</p>\n            ","response":0,"trial_type":"html-button-response","trial_index":32,"time_elapsed":474165,"internal_node_id":"0.0-4.0-1.12","subject_id":"5fa976c94762931338a445e3","study_id":"6197b3f67c2b5cd3b6d9596a","session_id":"6197b88e4c1af4d577c27985","condition":"full-information","relevant_dimensions":["wings","pattern"],"bee_group":{"antennae":"X","wings":"1","pattern":"D","legs":"X"},"bonus":1.8400000000000012},{"rt":19998.699999999255,"stimulus":"bees-with-color/bee-A1DM.svg","response":1,"trial_type":"image-button-response","trial_index":33,"time_elapsed":494167,"internal_node_id":"0.0-4.0-0.13","subject_id":"5fa976c94762931338a445e3","study_id":"6197b3f67c2b5cd3b6d9596a","session_id":"6197b88e4c1af4d577c27985","condition":"full-information","relevant_dimensions":["wings","pattern"],"bee_group":{"antennae":"X","wings":"1","pattern":"D","legs":"X"},"action":"avoid","summary":"good-avoid","bonus":1.8400000000000012},{"rt":9870.099999997765,"stimulus":"\n                    <p><b>Action: <em>avoid</em></b></p>\n                    <p>This is the bee that you just saw.</p>\n                    <img src=\"bees-with-color/bee-A1DM.svg\" width=\"200\">\n                    <p><span class=\"greenText\">Good choice!</span>  This bee would have stung you.<br>Your bonus pay is unchanged, and remains at $0.62.</p>\n            ","response":0,"trial_type":"html-button-response","trial_index":34,"time_elapsed":504041,"internal_node_id":"0.0-4.0-1.13","subject_id":"5fa976c94762931338a445e3","study_id":"6197b3f67c2b5cd3b6d9596a","session_id":"6197b88e4c1af4d577c27985","condition":"full-information","relevant_dimensions":["wings","pattern"],"bee_group":{"antennae":"X","wings":"1","pattern":"D","legs":"X"},"bonus":1.8400000000000012},{"rt":12134.599999997765,"stimulus":"bees-with-color/bee-A1SF.svg","response":0,"trial_type":"image-button-response","trial_index":35,"time_elapsed":516184,"internal_node_id":"0.0-4.0-0.14","subject_id":"5fa976c94762931338a445e3","study_id":"6197b3f67c2b5cd3b6d9596a","session_id":"6197b88e4c1af4d577c27985","condition":"full-information","relevant_dimensions":["wings","pattern"],"bee_group":{"antennae":"X","wings":"1","pattern":"D","legs":"X"},"action":"harvest","summary":"good-harvest","bonus":1.8400000000000012},{"rt":1824.699999999255,"stimulus":"\n                    <p><b>Action: <em>harvest</em></b></p>\n                    <p>This is the bee that you just saw.</p>\n                    <img src=\"bees-with-color/bee-A1SF.svg\" width=\"200\">\n                    <p><span class=\"greenText\"><b>Successful harvest!</b></span><br>Your pay has increased by $0.02. Your bonus pay is now $0.64.</p>\n            ","response":0,"trial_type":"html-button-response","trial_index":36,"time_elapsed":518013,"internal_node_id":"0.0-4.0-1.14","subject_id":"5fa976c94762931338a445e3","study_id":"6197b3f67c2b5cd3b6d9596a","session_id":"6197b88e4c1af4d577c27985","condition":"full-information","relevant_dimensions":["wings","pattern"],"bee_group":{"antennae":"X","wings":"1","pattern":"D","legs":"X"},"bonus":1.8400000000000012},{"rt":3875.5,"stimulus":"bees-with-color/bee-B1SM.svg","response":1,"trial_type":"image-button-response","trial_index":37,"time_elapsed":521893,"internal_node_id":"0.0-4.0-0.15","subject_id":"5fa976c94762931338a445e3","study_id":"6197b3f67c2b5cd3b6d9596a","session_id":"6197b88e4c1af4d577c27985","condition":"full-information","relevant_dimensions":["wings","pattern"],"bee_group":{"antennae":"X","wings":"1","pattern":"D","legs":"X"},"action":"avoid","summary":"bad-avoid","bonus":1.8400000000000012},{"rt":1895.300000000745,"stimulus":"\n                    <p><b>Action: <em>avoid</em></b></p>\n                    <p>This is the bee that you just saw.</p>\n                    <img src=\"bees-with-color/bee-B1SM.svg\" width=\"200\">\n                    <p><span class=\"redText\">Bad choice,</span> the bee was friendly.<br>Your bonus pay is unchanged, and remains at $0.64.</p>\n            ","response":0,"trial_type":"html-button-response","trial_index":38,"time_elapsed":523793,"internal_node_id":"0.0-4.0-1.15","subject_id":"5fa976c94762931338a445e3","study_id":"6197b3f67c2b5cd3b6d9596a","session_id":"6197b88e4c1af4d577c27985","condition":"full-information","relevant_dimensions":["wings","pattern"],"bee_group":{"antennae":"X","wings":"1","pattern":"D","legs":"X"},"bonus":1.8400000000000012},{"rt":3784.400000002235,"stimulus":"bees-with-color/bee-A1DM.svg","response":1,"trial_type":"image-button-response","trial_index":39,"time_elapsed":527582,"internal_node_id":"0.0-4.0-0.16","subject_id":"5fa976c94762931338a445e3","study_id":"6197b3f67c2b5cd3b6d9596a","session_id":"6197b88e4c1af4d577c27985","condition":"full-information","relevant_dimensions":["wings","pattern"],"bee_group":{"antennae":"X","wings":"1","pattern":"D","legs":"X"},"action":"avoid","summary":"good-avoid","bonus":1.8400000000000012},{"rt":1407.699999999255,"stimulus":"\n                    <p><b>Action: <em>avoid</em></b></p>\n                    <p>This is the bee that you just saw.</p>\n                    <img src=\"bees-with-color/bee-A1DM.svg\" width=\"200\">\n                    <p><span class=\"greenText\">Good choice!</span>  This bee would have stung you.<br>Your bonus pay is unchanged, and remains at $0.64.</p>\n            ","response":0,"trial_type":"html-button-response","trial_index":40,"time_elapsed":528993,"internal_node_id":"0.0-4.0-1.16","subject_id":"5fa976c94762931338a445e3","study_id":"6197b3f67c2b5cd3b6d9596a","session_id":"6197b88e4c1af4d577c27985","condition":"full-information","relevant_dimensions":["wings","pattern"],"bee_group":{"antennae":"X","wings":"1","pattern":"D","legs":"X"},"bonus":1.8400000000000012},{"rt":3672.60000000149,"stimulus":"bees-with-color/bee-A2DM.svg","response":0,"trial_type":"image-button-response","trial_index":41,"time_elapsed":532670,"internal_node_id":"0.0-4.0-0.17","subject_id":"5fa976c94762931338a445e3","study_id":"6197b3f67c2b5cd3b6d9596a","session_id":"6197b88e4c1af4d577c27985","condition":"full-information","relevant_dimensions":["wings","pattern"],"bee_group":{"antennae":"X","wings":"1","pattern":"D","legs":"X"},"action":"harvest","summary":"good-harvest","bonus":1.8400000000000012},{"rt":1326.4000000022352,"stimulus":"\n                    <p><b>Action: <em>harvest</em></b></p>\n                    <p>This is the bee that you just saw.</p>\n                    <img src=\"bees-with-color/bee-A2DM.svg\" width=\"200\">\n                    <p><span class=\"greenText\"><b>Successful harvest!</b></span><br>Your pay has increased by $0.02. Your bonus pay is now $0.66.</p>\n            ","response":0,"trial_type":"html-button-response","trial_index":42,"time_elapsed":534001,"internal_node_id":"0.0-4.0-1.17","subject_id":"5fa976c94762931338a445e3","study_id":"6197b3f67c2b5cd3b6d9596a","session_id":"6197b88e4c1af4d577c27985","condition":"full-information","relevant_dimensions":["wings","pattern"],"bee_group":{"antennae":"X","wings":"1","pattern":"D","legs":"X"},"bonus":1.8400000000000012},{"rt":5583.29999999702,"stimulus":"bees-with-color/bee-B2DM.svg","response":0,"trial_type":"image-button-response","trial_index":43,"time_elapsed":539589,"internal_node_id":"0.0-4.0-0.18","subject_id":"5fa976c94762931338a445e3","study_id":"6197b3f67c2b5cd3b6d9596a","session_id":"6197b88e4c1af4d577c27985","condition":"full-information","relevant_dimensions":["wings","pattern"],"bee_group":{"antennae":"X","wings":"1","pattern":"D","legs":"X"},"action":"harvest","summary":"good-harvest","bonus":1.8400000000000012},{"rt":1539.6000000014901,"stimulus":"\n                    <p><b>Action: <em>harvest</em></b></p>\n                    <p>This is the bee that you just saw.</p>\n                    <img src=\"bees-with-color/bee-B2DM.svg\" width=\"200\">\n                    <p><span class=\"greenText\"><b>Successful harvest!</b></span><br>Your pay has increased by $0.02. Your bonus pay is now $0.68.</p>\n            ","response":0,"trial_type":"html-button-response","trial_index":44,"time_elapsed":541133,"internal_node_id":"0.0-4.0-1.18","subject_id":"5fa976c94762931338a445e3","study_id":"6197b3f67c2b5cd3b6d9596a","session_id":"6197b88e4c1af4d577c27985","condition":"full-information","relevant_dimensions":["wings","pattern"],"bee_group":{"antennae":"X","wings":"1","pattern":"D","legs":"X"},"bonus":1.8400000000000012},{"rt":1803.699999999255,"stimulus":"bees-with-color/bee-B1SM.svg","response":0,"trial_type":"image-button-response","trial_index":45,"time_elapsed":542941,"internal_node_id":"0.0-4.0-0.19","subject_id":"5fa976c94762931338a445e3","study_id":"6197b3f67c2b5cd3b6d9596a","session_id":"6197b88e4c1af4d577c27985","condition":"full-information","relevant_dimensions":["wings","pattern"],"bee_group":{"antennae":"X","wings":"1","pattern":"D","legs":"X"},"action":"harvest","summary":"good-harvest","bonus":1.8400000000000012},{"rt":1550,"stimulus":"\n                    <p><b>Action: <em>harvest</em></b></p>\n                    <p>This is the bee that you just saw.</p>\n                    <img src=\"bees-with-color/bee-B1SM.svg\" width=\"200\">\n                    <p><span class=\"greenText\"><b>Successful harvest!</b></span><br>Your pay has increased by $0.02. Your bonus pay is now $0.70.</p>\n            ","response":0,"trial_type":"html-button-response","trial_index":46,"time_elapsed":544495,"internal_node_id":"0.0-4.0-1.19","subject_id":"5fa976c94762931338a445e3","study_id":"6197b3f67c2b5cd3b6d9596a","session_id":"6197b88e4c1af4d577c27985","condition":"full-information","relevant_dimensions":["wings","pattern"],"bee_group":{"antennae":"X","wings":"1","pattern":"D","legs":"X"},"bonus":1.8400000000000012},{"rt":1317,"stimulus":"bees-with-color/bee-A2SF.svg","response":0,"trial_type":"image-button-response","trial_index":47,"time_elapsed":545816,"internal_node_id":"0.0-4.0-0.20","subject_id":"5fa976c94762931338a445e3","study_id":"6197b3f67c2b5cd3b6d9596a","session_id":"6197b88e4c1af4d577c27985","condition":"full-information","relevant_dimensions":["wings","pattern"],"bee_group":{"antennae":"X","wings":"1","pattern":"D","legs":"X"},"action":"harvest","summary":"good-harvest","bonus":1.8400000000000012},{"rt":1316.800000000745,"stimulus":"\n                    <p><b>Action: <em>harvest</em></b></p>\n                    <p>This is the bee that you just saw.</p>\n                    <img src=\"bees-with-color/bee-A2SF.svg\" width=\"200\">\n                    <p><span class=\"greenText\"><b>Successful harvest!</b></span><br>Your pay has increased by $0.02. Your bonus pay is now $0.72.</p>\n            ","response":0,"trial_type":"html-button-response","trial_index":48,"time_elapsed":547136,"internal_node_id":"0.0-4.0-1.20","subject_id":"5fa976c94762931338a445e3","study_id":"6197b3f67c2b5cd3b6d9596a","session_id":"6197b88e4c1af4d577c27985","condition":"full-information","relevant_dimensions":["wings","pattern"],"bee_group":{"antennae":"X","wings":"1","pattern":"D","legs":"X"},"bonus":1.8400000000000012},{"rt":1288.3999999985099,"stimulus":"bees-with-color/bee-B2SF.svg","response":0,"trial_type":"image-button-response","trial_index":49,"time_elapsed":548428,"internal_node_id":"0.0-4.0-0.21","subject_id":"5fa976c94762931338a445e3","study_id":"6197b3f67c2b5cd3b6d9596a","session_id":"6197b88e4c1af4d577c27985","condition":"full-information","relevant_dimensions":["wings","pattern"],"bee_group":{"antennae":"X","wings":"1","pattern":"D","legs":"X"},"action":"harvest","summary":"good-harvest","bonus":1.8400000000000012},{"rt":1296,"stimulus":"\n                    <p><b>Action: <em>harvest</em></b></p>\n                    <p>This is the bee that you just saw.</p>\n                    <img src=\"bees-with-color/bee-B2SF.svg\" width=\"200\">\n                    <p><span class=\"greenText\"><b>Successful harvest!</b></span><br>Your pay has increased by $0.02. Your bonus pay is now $0.74.</p>\n            ","response":0,"trial_type":"html-button-response","trial_index":50,"time_elapsed":549727,"internal_node_id":"0.0-4.0-1.21","subject_id":"5fa976c94762931338a445e3","study_id":"6197b3f67c2b5cd3b6d9596a","session_id":"6197b88e4c1af4d577c27985","condition":"full-information","relevant_dimensions":["wings","pattern"],"bee_group":{"antennae":"X","wings":"1","pattern":"D","legs":"X"},"bonus":1.8400000000000012},{"rt":2353.800000000745,"stimulus":"bees-with-color/bee-A1DF.svg","response":1,"trial_type":"image-button-response","trial_index":51,"time_elapsed":552084,"internal_node_id":"0.0-4.0-0.22","subject_id":"5fa976c94762931338a445e3","study_id":"6197b3f67c2b5cd3b6d9596a","session_id":"6197b88e4c1af4d577c27985","condition":"full-information","relevant_dimensions":["wings","pattern"],"bee_group":{"antennae":"X","wings":"1","pattern":"D","legs":"X"},"action":"avoid","summary":"good-avoid","bonus":1.8400000000000012},{"rt":1733.800000000745,"stimulus":"\n                    <p><b>Action: <em>avoid</em></b></p>\n                    <p>This is the bee that you just saw.</p>\n                    <img src=\"bees-with-color/bee-A1DF.svg\" width=\"200\">\n                    <p><span class=\"greenText\">Good choice!</span>  This bee would have stung you.<br>Your bonus pay is unchanged, and remains at $0.74.</p>\n            ","response":0,"trial_type":"html-button-response","trial_index":52,"time_elapsed":553821,"internal_node_id":"0.0-4.0-1.22","subject_id":"5fa976c94762931338a445e3","study_id":"6197b3f67c2b5cd3b6d9596a","session_id":"6197b88e4c1af4d577c27985","condition":"full-information","relevant_dimensions":["wings","pattern"],"bee_group":{"antennae":"X","wings":"1","pattern":"D","legs":"X"},"bonus":1.8400000000000012},{"rt":1692.7000000029802,"stimulus":"bees-with-color/bee-A2DF.svg","response":0,"trial_type":"image-button-response","trial_index":53,"time_elapsed":555517,"internal_node_id":"0.0-4.0-0.23","subject_id":"5fa976c94762931338a445e3","study_id":"6197b3f67c2b5cd3b6d9596a","session_id":"6197b88e4c1af4d577c27985","condition":"full-information","relevant_dimensions":["wings","pattern"],"bee_group":{"antennae":"X","wings":"1","pattern":"D","legs":"X"},"action":"harvest","summary":"good-harvest","bonus":1.8400000000000012},{"rt":1195.300000000745,"stimulus":"\n                    <p><b>Action: <em>harvest</em></b></p>\n                    <p>This is the bee that you just saw.</p>\n                    <img src=\"bees-with-color/bee-A2DF.svg\" width=\"200\">\n                    <p><span class=\"greenText\"><b>Successful harvest!</b></span><br>Your pay has increased by $0.02. Your bonus pay is now $0.76.</p>\n            ","response":0,"trial_type":"html-button-response","trial_index":54,"time_elapsed":556715,"internal_node_id":"0.0-4.0-1.23","subject_id":"5fa976c94762931338a445e3","study_id":"6197b3f67c2b5cd3b6d9596a","session_id":"6197b88e4c1af4d577c27985","condition":"full-information","relevant_dimensions":["wings","pattern"],"bee_group":{"antennae":"X","wings":"1","pattern":"D","legs":"X"},"bonus":1.8400000000000012},{"rt":3693.699999999255,"stimulus":"bees-with-color/bee-B1DM.svg","response":1,"trial_type":"image-button-response","trial_index":55,"time_elapsed":560413,"internal_node_id":"0.0-4.0-0.24","subject_id":"5fa976c94762931338a445e3","study_id":"6197b3f67c2b5cd3b6d9596a","session_id":"6197b88e4c1af4d577c27985","condition":"full-information","relevant_dimensions":["wings","pattern"],"bee_group":{"antennae":"X","wings":"1","pattern":"D","legs":"X"},"action":"avoid","summary":"good-avoid","bonus":1.8400000000000012},{"rt":1154.6000000014901,"stimulus":"\n                    <p><b>Action: <em>avoid</em></b></p>\n                    <p>This is the bee that you just saw.</p>\n                    <img src=\"bees-with-color/bee-B1DM.svg\" width=\"200\">\n                    <p><span class=\"greenText\">Good choice!</span>  This bee would have stung you.<br>Your bonus pay is unchanged, and remains at $0.76.</p>\n            ","response":0,"trial_type":"html-button-response","trial_index":56,"time_elapsed":561571,"internal_node_id":"0.0-4.0-1.24","subject_id":"5fa976c94762931338a445e3","study_id":"6197b3f67c2b5cd3b6d9596a","session_id":"6197b88e4c1af4d577c27985","condition":"full-information","relevant_dimensions":["wings","pattern"],"bee_group":{"antennae":"X","wings":"1","pattern":"D","legs":"X"},"bonus":1.8400000000000012},{"rt":2769.699999999255,"stimulus":"bees-with-color/bee-B1SF.svg","response":0,"trial_type":"image-button-response","trial_index":57,"time_elapsed":564344,"internal_node_id":"0.0-4.0-0.25","subject_id":"5fa976c94762931338a445e3","study_id":"6197b3f67c2b5cd3b6d9596a","session_id":"6197b88e4c1af4d577c27985","condition":"full-information","relevant_dimensions":["wings","pattern"],"bee_group":{"antennae":"X","wings":"1","pattern":"D","legs":"X"},"action":"harvest","summary":"good-harvest","bonus":1.8400000000000012},{"rt":1296.8999999985099,"stimulus":"\n                    <p><b>Action: <em>harvest</em></b></p>\n                    <p>This is the bee that you just saw.</p>\n                    <img src=\"bees-with-color/bee-B1SF.svg\" width=\"200\">\n                    <p><span class=\"greenText\"><b>Successful harvest!</b></span><br>Your pay has increased by $0.02. Your bonus pay is now $0.78.</p>\n            ","response":0,"trial_type":"html-button-response","trial_index":58,"time_elapsed":565645,"internal_node_id":"0.0-4.0-1.25","subject_id":"5fa976c94762931338a445e3","study_id":"6197b3f67c2b5cd3b6d9596a","session_id":"6197b88e4c1af4d577c27985","condition":"full-information","relevant_dimensions":["wings","pattern"],"bee_group":{"antennae":"X","wings":"1","pattern":"D","legs":"X"},"bonus":1.8400000000000012},{"rt":1784.0999999977648,"stimulus":"bees-with-color/bee-B2SM.svg","response":0,"trial_type":"image-button-response","trial_index":59,"time_elapsed":567433,"internal_node_id":"0.0-4.0-0.26","subject_id":"5fa976c94762931338a445e3","study_id":"6197b3f67c2b5cd3b6d9596a","session_id":"6197b88e4c1af4d577c27985","condition":"full-information","relevant_dimensions":["wings","pattern"],"bee_group":{"antennae":"X","wings":"1","pattern":"D","legs":"X"},"action":"harvest","summary":"good-harvest","bonus":1.8400000000000012},{"rt":1114.800000000745,"stimulus":"\n                    <p><b>Action: <em>harvest</em></b></p>\n                    <p>This is the bee that you just saw.</p>\n                    <img src=\"bees-with-color/bee-B2SM.svg\" width=\"200\">\n                    <p><span class=\"greenText\"><b>Successful harvest!</b></span><br>Your pay has increased by $0.02. Your bonus pay is now $0.80.</p>\n            ","response":0,"trial_type":"html-button-response","trial_index":60,"time_elapsed":568551,"internal_node_id":"0.0-4.0-1.26","subject_id":"5fa976c94762931338a445e3","study_id":"6197b3f67c2b5cd3b6d9596a","session_id":"6197b88e4c1af4d577c27985","condition":"full-information","relevant_dimensions":["wings","pattern"],"bee_group":{"antennae":"X","wings":"1","pattern":"D","legs":"X"},"bonus":1.8400000000000012},{"rt":1601.2000000029802,"stimulus":"bees-with-color/bee-B2DF.svg","response":0,"trial_type":"image-button-response","trial_index":61,"time_elapsed":570156,"internal_node_id":"0.0-4.0-0.27","subject_id":"5fa976c94762931338a445e3","study_id":"6197b3f67c2b5cd3b6d9596a","session_id":"6197b88e4c1af4d577c27985","condition":"full-information","relevant_dimensions":["wings","pattern"],"bee_group":{"antennae":"X","wings":"1","pattern":"D","legs":"X"},"action":"harvest","summary":"good-harvest","bonus":1.8400000000000012},{"rt":1123.1000000014901,"stimulus":"\n                    <p><b>Action: <em>harvest</em></b></p>\n                    <p>This is the bee that you just saw.</p>\n                    <img src=\"bees-with-color/bee-B2DF.svg\" width=\"200\">\n                    <p><span class=\"greenText\"><b>Successful harvest!</b></span><br>Your pay has increased by $0.02. Your bonus pay is now $0.82.</p>\n            ","response":0,"trial_type":"html-button-response","trial_index":62,"time_elapsed":571283,"internal_node_id":"0.0-4.0-1.27","subject_id":"5fa976c94762931338a445e3","study_id":"6197b3f67c2b5cd3b6d9596a","session_id":"6197b88e4c1af4d577c27985","condition":"full-information","relevant_dimensions":["wings","pattern"],"bee_group":{"antennae":"X","wings":"1","pattern":"D","legs":"X"},"bonus":1.8400000000000012},{"rt":1368.300000000745,"stimulus":"bees-with-color/bee-A2SM.svg","response":0,"trial_type":"image-button-response","trial_index":63,"time_elapsed":572654,"internal_node_id":"0.0-4.0-0.28","subject_id":"5fa976c94762931338a445e3","study_id":"6197b3f67c2b5cd3b6d9596a","session_id":"6197b88e4c1af4d577c27985","condition":"full-information","relevant_dimensions":["wings","pattern"],"bee_group":{"antennae":"X","wings":"1","pattern":"D","legs":"X"},"action":"harvest","summary":"good-harvest","bonus":1.8400000000000012},{"rt":1144.6000000014901,"stimulus":"\n                    <p><b>Action: <em>harvest</em></b></p>\n                    <p>This is the bee that you just saw.</p>\n                    <img src=\"bees-with-color/bee-A2SM.svg\" width=\"200\">\n                    <p><span class=\"greenText\"><b>Successful harvest!</b></span><br>Your pay has increased by $0.02. Your bonus pay is now $0.84.</p>\n            ","response":0,"trial_type":"html-button-response","trial_index":64,"time_elapsed":573802,"internal_node_id":"0.0-4.0-1.28","subject_id":"5fa976c94762931338a445e3","study_id":"6197b3f67c2b5cd3b6d9596a","session_id":"6197b88e4c1af4d577c27985","condition":"full-information","relevant_dimensions":["wings","pattern"],"bee_group":{"antennae":"X","wings":"1","pattern":"D","legs":"X"},"bonus":1.8400000000000012},{"rt":1409.3999999985099,"stimulus":"bees-with-color/bee-B1DF.svg","response":1,"trial_type":"image-button-response","trial_index":65,"time_elapsed":575213,"internal_node_id":"0.0-4.0-0.29","subject_id":"5fa976c94762931338a445e3","study_id":"6197b3f67c2b5cd3b6d9596a","session_id":"6197b88e4c1af4d577c27985","condition":"full-information","relevant_dimensions":["wings","pattern"],"bee_group":{"antennae":"X","wings":"1","pattern":"D","legs":"X"},"action":"avoid","summary":"good-avoid","bonus":1.8400000000000012},{"rt":1133.3999999985099,"stimulus":"\n                    <p><b>Action: <em>avoid</em></b></p>\n                    <p>This is the bee that you just saw.</p>\n                    <img src=\"bees-with-color/bee-B1DF.svg\" width=\"200\">\n                    <p><span class=\"greenText\">Good choice!</span>  This bee would have stung you.<br>Your bonus pay is unchanged, and remains at $0.84.</p>\n            ","response":0,"trial_type":"html-button-response","trial_index":66,"time_elapsed":576350,"internal_node_id":"0.0-4.0-1.29","subject_id":"5fa976c94762931338a445e3","study_id":"6197b3f67c2b5cd3b6d9596a","session_id":"6197b88e4c1af4d577c27985","condition":"full-information","relevant_dimensions":["wings","pattern"],"bee_group":{"antennae":"X","wings":"1","pattern":"D","legs":"X"},"bonus":1.8400000000000012},{"rt":1418.5,"stimulus":"bees-with-color/bee-A1SF.svg","response":0,"trial_type":"image-button-response","trial_index":67,"time_elapsed":577772,"internal_node_id":"0.0-4.0-0.30","subject_id":"5fa976c94762931338a445e3","study_id":"6197b3f67c2b5cd3b6d9596a","session_id":"6197b88e4c1af4d577c27985","condition":"full-information","relevant_dimensions":["wings","pattern"],"bee_group":{"antennae":"X","wings":"1","pattern":"D","legs":"X"},"action":"harvest","summary":"good-harvest","bonus":1.8400000000000012},{"rt":1215.7000000029802,"stimulus":"\n                    <p><b>Action: <em>harvest</em></b></p>\n                    <p>This is the bee that you just saw.</p>\n                    <img src=\"bees-with-color/bee-A1SF.svg\" width=\"200\">\n                    <p><span class=\"greenText\"><b>Successful harvest!</b></span><br>Your pay has increased by $0.02. Your bonus pay is now $0.86.</p>\n            ","response":0,"trial_type":"html-button-response","trial_index":68,"time_elapsed":578992,"internal_node_id":"0.0-4.0-1.30","subject_id":"5fa976c94762931338a445e3","study_id":"6197b3f67c2b5cd3b6d9596a","session_id":"6197b88e4c1af4d577c27985","condition":"full-information","relevant_dimensions":["wings","pattern"],"bee_group":{"antennae":"X","wings":"1","pattern":"D","legs":"X"},"bonus":1.8400000000000012},{"rt":2170.89999999851,"stimulus":"bees-with-color/bee-A1SM.svg","response":0,"trial_type":"image-button-response","trial_index":69,"time_elapsed":581166,"internal_node_id":"0.0-4.0-0.31","subject_id":"5fa976c94762931338a445e3","study_id":"6197b3f67c2b5cd3b6d9596a","session_id":"6197b88e4c1af4d577c27985","condition":"full-information","relevant_dimensions":["wings","pattern"],"bee_group":{"antennae":"X","wings":"1","pattern":"D","legs":"X"},"action":"harvest","summary":"good-harvest","bonus":1.8400000000000012},{"rt":1093.5999999977648,"stimulus":"\n                    <p><b>Action: <em>harvest</em></b></p>\n                    <p>This is the bee that you just saw.</p>\n                    <img src=\"bees-with-color/bee-A1SM.svg\" width=\"200\">\n                    <p><span class=\"greenText\"><b>Successful harvest!</b></span><br>Your pay has increased by $0.02. Your bonus pay is now $0.88.</p>\n            ","response":0,"trial_type":"html-button-response","trial_index":70,"time_elapsed":582263,"internal_node_id":"0.0-4.0-1.31","subject_id":"5fa976c94762931338a445e3","study_id":"6197b3f67c2b5cd3b6d9596a","session_id":"6197b88e4c1af4d577c27985","condition":"full-information","relevant_dimensions":["wings","pattern"],"bee_group":{"antennae":"X","wings":"1","pattern":"D","legs":"X"},"bonus":1.8400000000000012},{"rt":2434.699999999255,"stimulus":"bees-with-color/bee-B2SM.svg","response":0,"trial_type":"image-button-response","trial_index":71,"time_elapsed":584701,"internal_node_id":"0.0-4.0-0.32","subject_id":"5fa976c94762931338a445e3","study_id":"6197b3f67c2b5cd3b6d9596a","session_id":"6197b88e4c1af4d577c27985","condition":"full-information","relevant_dimensions":["wings","pattern"],"bee_group":{"antennae":"X","wings":"1","pattern":"D","legs":"X"},"action":"harvest","summary":"good-harvest","bonus":1.8400000000000012},{"rt":1073.199999999255,"stimulus":"\n                    <p><b>Action: <em>harvest</em></b></p>\n                    <p>This is the bee that you just saw.</p>\n                    <img src=\"bees-with-color/bee-B2SM.svg\" width=\"200\">\n                    <p><span class=\"greenText\"><b>Successful harvest!</b></span><br>Your pay has increased by $0.02. Your bonus pay is now $0.90.</p>\n            ","response":0,"trial_type":"html-button-response","trial_index":72,"time_elapsed":585778,"internal_node_id":"0.0-4.0-1.32","subject_id":"5fa976c94762931338a445e3","study_id":"6197b3f67c2b5cd3b6d9596a","session_id":"6197b88e4c1af4d577c27985","condition":"full-information","relevant_dimensions":["wings","pattern"],"bee_group":{"antennae":"X","wings":"1","pattern":"D","legs":"X"},"bonus":1.8400000000000012},{"rt":1316.8999999985099,"stimulus":"bees-with-color/bee-A2DF.svg","response":0,"trial_type":"image-button-response","trial_index":73,"time_elapsed":587098,"internal_node_id":"0.0-4.0-0.33","subject_id":"5fa976c94762931338a445e3","study_id":"6197b3f67c2b5cd3b6d9596a","session_id":"6197b88e4c1af4d577c27985","condition":"full-information","relevant_dimensions":["wings","pattern"],"bee_group":{"antennae":"X","wings":"1","pattern":"D","legs":"X"},"action":"harvest","summary":"good-harvest","bonus":1.8400000000000012},{"rt":1198.1000000014901,"stimulus":"\n                    <p><b>Action: <em>harvest</em></b></p>\n                    <p>This is the bee that you just saw.</p>\n                    <img src=\"bees-with-color/bee-A2DF.svg\" width=\"200\">\n                    <p><span class=\"greenText\"><b>Successful harvest!</b></span><br>Your pay has increased by $0.02. Your bonus pay is now $0.92.</p>\n            ","response":0,"trial_type":"html-button-response","trial_index":74,"time_elapsed":588298,"internal_node_id":"0.0-4.0-1.33","subject_id":"5fa976c94762931338a445e3","study_id":"6197b3f67c2b5cd3b6d9596a","session_id":"6197b88e4c1af4d577c27985","condition":"full-information","relevant_dimensions":["wings","pattern"],"bee_group":{"antennae":"X","wings":"1","pattern":"D","legs":"X"},"bonus":1.8400000000000012},{"rt":2099.10000000149,"stimulus":"bees-with-color/bee-A1SF.svg","response":0,"trial_type":"image-button-response","trial_index":75,"time_elapsed":590401,"internal_node_id":"0.0-4.0-0.34","subject_id":"5fa976c94762931338a445e3","study_id":"6197b3f67c2b5cd3b6d9596a","session_id":"6197b88e4c1af4d577c27985","condition":"full-information","relevant_dimensions":["wings","pattern"],"bee_group":{"antennae":"X","wings":"1","pattern":"D","legs":"X"},"action":"harvest","summary":"good-harvest","bonus":1.8400000000000012},{"rt":1276.800000000745,"stimulus":"\n                    <p><b>Action: <em>harvest</em></b></p>\n                    <p>This is the bee that you just saw.</p>\n                    <img src=\"bees-with-color/bee-A1SF.svg\" width=\"200\">\n                    <p><span class=\"greenText\"><b>Successful harvest!</b></span><br>Your pay has increased by $0.02. Your bonus pay is now $0.94.</p>\n            ","response":0,"trial_type":"html-button-response","trial_index":76,"time_elapsed":591682,"internal_node_id":"0.0-4.0-1.34","subject_id":"5fa976c94762931338a445e3","study_id":"6197b3f67c2b5cd3b6d9596a","session_id":"6197b88e4c1af4d577c27985","condition":"full-information","relevant_dimensions":["wings","pattern"],"bee_group":{"antennae":"X","wings":"1","pattern":"D","legs":"X"},"bonus":1.8400000000000012},{"rt":1490,"stimulus":"bees-with-color/bee-A1DF.svg","response":1,"trial_type":"image-button-response","trial_index":77,"time_elapsed":593175,"internal_node_id":"0.0-4.0-0.35","subject_id":"5fa976c94762931338a445e3","study_id":"6197b3f67c2b5cd3b6d9596a","session_id":"6197b88e4c1af4d577c27985","condition":"full-information","relevant_dimensions":["wings","pattern"],"bee_group":{"antennae":"X","wings":"1","pattern":"D","legs":"X"},"action":"avoid","summary":"good-avoid","bonus":1.8400000000000012},{"rt":1084.5999999977648,"stimulus":"\n                    <p><b>Action: <em>avoid</em></b></p>\n                    <p>This is the bee that you just saw.</p>\n                    <img src=\"bees-with-color/bee-A1DF.svg\" width=\"200\">\n                    <p><span class=\"greenText\">Good choice!</span>  This bee would have stung you.<br>Your bonus pay is unchanged, and remains at $0.94.</p>\n            ","response":0,"trial_type":"html-button-response","trial_index":78,"time_elapsed":594263,"internal_node_id":"0.0-4.0-1.35","subject_id":"5fa976c94762931338a445e3","study_id":"6197b3f67c2b5cd3b6d9596a","session_id":"6197b88e4c1af4d577c27985","condition":"full-information","relevant_dimensions":["wings","pattern"],"bee_group":{"antennae":"X","wings":"1","pattern":"D","legs":"X"},"bonus":1.8400000000000012},{"rt":1630.3999999985099,"stimulus":"bees-with-color/bee-A2DM.svg","response":0,"trial_type":"image-button-response","trial_index":79,"time_elapsed":595898,"internal_node_id":"0.0-4.0-0.36","subject_id":"5fa976c94762931338a445e3","study_id":"6197b3f67c2b5cd3b6d9596a","session_id":"6197b88e4c1af4d577c27985","condition":"full-information","relevant_dimensions":["wings","pattern"],"bee_group":{"antennae":"X","wings":"1","pattern":"D","legs":"X"},"action":"harvest","summary":"good-harvest","bonus":1.8400000000000012},{"rt":1449.1000000014901,"stimulus":"\n                    <p><b>Action: <em>harvest</em></b></p>\n                    <p>This is the bee that you just saw.</p>\n                    <img src=\"bees-with-color/bee-A2DM.svg\" width=\"200\">\n                    <p><span class=\"greenText\"><b>Successful harvest!</b></span><br>Your pay has increased by $0.02. Your bonus pay is now $0.96.</p>\n            ","response":0,"trial_type":"html-button-response","trial_index":80,"time_elapsed":597351,"internal_node_id":"0.0-4.0-1.36","subject_id":"5fa976c94762931338a445e3","study_id":"6197b3f67c2b5cd3b6d9596a","session_id":"6197b88e4c1af4d577c27985","condition":"full-information","relevant_dimensions":["wings","pattern"],"bee_group":{"antennae":"X","wings":"1","pattern":"D","legs":"X"},"bonus":1.8400000000000012},{"rt":2058.800000000745,"stimulus":"bees-with-color/bee-A1SM.svg","response":0,"trial_type":"image-button-response","trial_index":81,"time_elapsed":599413,"internal_node_id":"0.0-4.0-0.37","subject_id":"5fa976c94762931338a445e3","study_id":"6197b3f67c2b5cd3b6d9596a","session_id":"6197b88e4c1af4d577c27985","condition":"full-information","relevant_dimensions":["wings","pattern"],"bee_group":{"antennae":"X","wings":"1","pattern":"D","legs":"X"},"action":"harvest","summary":"good-harvest","bonus":1.8400000000000012},{"rt":1134.300000000745,"stimulus":"\n                    <p><b>Action: <em>harvest</em></b></p>\n                    <p>This is the bee that you just saw.</p>\n                    <img src=\"bees-with-color/bee-A1SM.svg\" width=\"200\">\n                    <p><span class=\"greenText\"><b>Successful harvest!</b></span><br>Your pay has increased by $0.02. Your bonus pay is now $0.98.</p>\n            ","response":0,"trial_type":"html-button-response","trial_index":82,"time_elapsed":600551,"internal_node_id":"0.0-4.0-1.37","subject_id":"5fa976c94762931338a445e3","study_id":"6197b3f67c2b5cd3b6d9596a","session_id":"6197b88e4c1af4d577c27985","condition":"full-information","relevant_dimensions":["wings","pattern"],"bee_group":{"antennae":"X","wings":"1","pattern":"D","legs":"X"},"bonus":1.8400000000000012},{"rt":2607.7999999970198,"stimulus":"bees-with-color/bee-B1DM.svg","response":1,"trial_type":"image-button-response","trial_index":83,"time_elapsed":603163,"internal_node_id":"0.0-4.0-0.38","subject_id":"5fa976c94762931338a445e3","study_id":"6197b3f67c2b5cd3b6d9596a","session_id":"6197b88e4c1af4d577c27985","condition":"full-information","relevant_dimensions":["wings","pattern"],"bee_group":{"antennae":"X","wings":"1","pattern":"D","legs":"X"},"action":"avoid","summary":"good-avoid","bonus":1.8400000000000012},{"rt":1163.5,"stimulus":"\n                    <p><b>Action: <em>avoid</em></b></p>\n                    <p>This is the bee that you just saw.</p>\n                    <img src=\"bees-with-color/bee-B1DM.svg\" width=\"200\">\n                    <p><span class=\"greenText\">Good choice!</span>  This bee would have stung you.<br>Your bonus pay is unchanged, and remains at $0.98.</p>\n            ","response":0,"trial_type":"html-button-response","trial_index":84,"time_elapsed":604330,"internal_node_id":"0.0-4.0-1.38","subject_id":"5fa976c94762931338a445e3","study_id":"6197b3f67c2b5cd3b6d9596a","session_id":"6197b88e4c1af4d577c27985","condition":"full-information","relevant_dimensions":["wings","pattern"],"bee_group":{"antennae":"X","wings":"1","pattern":"D","legs":"X"},"bonus":1.8400000000000012},{"rt":1367.4000000022352,"stimulus":"bees-with-color/bee-B1SM.svg","response":0,"trial_type":"image-button-response","trial_index":85,"time_elapsed":605702,"internal_node_id":"0.0-4.0-0.39","subject_id":"5fa976c94762931338a445e3","study_id":"6197b3f67c2b5cd3b6d9596a","session_id":"6197b88e4c1af4d577c27985","condition":"full-information","relevant_dimensions":["wings","pattern"],"bee_group":{"antennae":"X","wings":"1","pattern":"D","legs":"X"},"action":"harvest","summary":"good-harvest","bonus":1.8400000000000012},{"rt":1133.300000000745,"stimulus":"\n                    <p><b>Action: <em>harvest</em></b></p>\n                    <p>This is the bee that you just saw.</p>\n                    <img src=\"bees-with-color/bee-B1SM.svg\" width=\"200\">\n                    <p><span class=\"greenText\"><b>Successful harvest!</b></span><br>Your pay has increased by $0.02. Your bonus pay is now $1.00.</p>\n            ","response":0,"trial_type":"html-button-response","trial_index":86,"time_elapsed":606840,"internal_node_id":"0.0-4.0-1.39","subject_id":"5fa976c94762931338a445e3","study_id":"6197b3f67c2b5cd3b6d9596a","session_id":"6197b88e4c1af4d577c27985","condition":"full-information","relevant_dimensions":["wings","pattern"],"bee_group":{"antennae":"X","wings":"1","pattern":"D","legs":"X"},"bonus":1.8400000000000012},{"rt":2933.400000002235,"stimulus":"bees-with-color/bee-B2DF.svg","response":0,"trial_type":"image-button-response","trial_index":87,"time_elapsed":609777,"internal_node_id":"0.0-4.0-0.40","subject_id":"5fa976c94762931338a445e3","study_id":"6197b3f67c2b5cd3b6d9596a","session_id":"6197b88e4c1af4d577c27985","condition":"full-information","relevant_dimensions":["wings","pattern"],"bee_group":{"antennae":"X","wings":"1","pattern":"D","legs":"X"},"action":"harvest","summary":"good-harvest","bonus":1.8400000000000012},{"rt":1072.199999999255,"stimulus":"\n                    <p><b>Action: <em>harvest</em></b></p>\n                    <p>This is the bee that you just saw.</p>\n                    <img src=\"bees-with-color/bee-B2DF.svg\" width=\"200\">\n                    <p><span class=\"greenText\"><b>Successful harvest!</b></span><br>Your pay has increased by $0.02. Your bonus pay is now $1.02.</p>\n            ","response":0,"trial_type":"html-button-response","trial_index":88,"time_elapsed":610853,"internal_node_id":"0.0-4.0-1.40","subject_id":"5fa976c94762931338a445e3","study_id":"6197b3f67c2b5cd3b6d9596a","session_id":"6197b88e4c1af4d577c27985","condition":"full-information","relevant_dimensions":["wings","pattern"],"bee_group":{"antennae":"X","wings":"1","pattern":"D","legs":"X"},"bonus":1.8400000000000012},{"rt":1438.6000000014901,"stimulus":"bees-with-color/bee-A1DM.svg","response":1,"trial_type":"image-button-response","trial_index":89,"time_elapsed":612295,"internal_node_id":"0.0-4.0-0.41","subject_id":"5fa976c94762931338a445e3","study_id":"6197b3f67c2b5cd3b6d9596a","session_id":"6197b88e4c1af4d577c27985","condition":"full-information","relevant_dimensions":["wings","pattern"],"bee_group":{"antennae":"X","wings":"1","pattern":"D","legs":"X"},"action":"avoid","summary":"good-avoid","bonus":1.8400000000000012},{"rt":1114.3999999985099,"stimulus":"\n                    <p><b>Action: <em>avoid</em></b></p>\n                    <p>This is the bee that you just saw.</p>\n                    <img src=\"bees-with-color/bee-A1DM.svg\" width=\"200\">\n                    <p><span class=\"greenText\">Good choice!</span>  This bee would have stung you.<br>Your bonus pay is unchanged, and remains at $1.02.</p>\n            ","response":0,"trial_type":"html-button-response","trial_index":90,"time_elapsed":613413,"internal_node_id":"0.0-4.0-1.41","subject_id":"5fa976c94762931338a445e3","study_id":"6197b3f67c2b5cd3b6d9596a","session_id":"6197b88e4c1af4d577c27985","condition":"full-information","relevant_dimensions":["wings","pattern"],"bee_group":{"antennae":"X","wings":"1","pattern":"D","legs":"X"},"bonus":1.8400000000000012},{"rt":1836.0999999977648,"stimulus":"bees-with-color/bee-B2SF.svg","response":0,"trial_type":"image-button-response","trial_index":91,"time_elapsed":615252,"internal_node_id":"0.0-4.0-0.42","subject_id":"5fa976c94762931338a445e3","study_id":"6197b3f67c2b5cd3b6d9596a","session_id":"6197b88e4c1af4d577c27985","condition":"full-information","relevant_dimensions":["wings","pattern"],"bee_group":{"antennae":"X","wings":"1","pattern":"D","legs":"X"},"action":"harvest","summary":"good-harvest","bonus":1.8400000000000012},{"rt":1165.3999999985099,"stimulus":"\n                    <p><b>Action: <em>harvest</em></b></p>\n                    <p>This is the bee that you just saw.</p>\n                    <img src=\"bees-with-color/bee-B2SF.svg\" width=\"200\">\n                    <p><span class=\"greenText\"><b>Successful harvest!</b></span><br>Your pay has increased by $0.02. Your bonus pay is now $1.04.</p>\n            ","response":0,"trial_type":"html-button-response","trial_index":92,"time_elapsed":616420,"internal_node_id":"0.0-4.0-1.42","subject_id":"5fa976c94762931338a445e3","study_id":"6197b3f67c2b5cd3b6d9596a","session_id":"6197b88e4c1af4d577c27985","condition":"full-information","relevant_dimensions":["wings","pattern"],"bee_group":{"antennae":"X","wings":"1","pattern":"D","legs":"X"},"bonus":1.8400000000000012},{"rt":1399.199999999255,"stimulus":"bees-with-color/bee-A2SF.svg","response":0,"trial_type":"image-button-response","trial_index":93,"time_elapsed":617823,"internal_node_id":"0.0-4.0-0.43","subject_id":"5fa976c94762931338a445e3","study_id":"6197b3f67c2b5cd3b6d9596a","session_id":"6197b88e4c1af4d577c27985","condition":"full-information","relevant_dimensions":["wings","pattern"],"bee_group":{"antennae":"X","wings":"1","pattern":"D","legs":"X"},"action":"harvest","summary":"good-harvest","bonus":1.8400000000000012},{"rt":1083.1000000014901,"stimulus":"\n                    <p><b>Action: <em>harvest</em></b></p>\n                    <p>This is the bee that you just saw.</p>\n                    <img src=\"bees-with-color/bee-A2SF.svg\" width=\"200\">\n                    <p><span class=\"greenText\"><b>Successful harvest!</b></span><br>Your pay has increased by $0.02. Your bonus pay is now $1.06.</p>\n            ","response":0,"trial_type":"html-button-response","trial_index":94,"time_elapsed":618909,"internal_node_id":"0.0-4.0-1.43","subject_id":"5fa976c94762931338a445e3","study_id":"6197b3f67c2b5cd3b6d9596a","session_id":"6197b88e4c1af4d577c27985","condition":"full-information","relevant_dimensions":["wings","pattern"],"bee_group":{"antennae":"X","wings":"1","pattern":"D","legs":"X"},"bonus":1.8400000000000012},{"rt":1489.9000000022352,"stimulus":"bees-with-color/bee-B2DM.svg","response":0,"trial_type":"image-button-response","trial_index":95,"time_elapsed":620403,"internal_node_id":"0.0-4.0-0.44","subject_id":"5fa976c94762931338a445e3","study_id":"6197b3f67c2b5cd3b6d9596a","session_id":"6197b88e4c1af4d577c27985","condition":"full-information","relevant_dimensions":["wings","pattern"],"bee_group":{"antennae":"X","wings":"1","pattern":"D","legs":"X"},"action":"harvest","summary":"good-harvest","bonus":1.8400000000000012},{"rt":1207.1000000014901,"stimulus":"\n                    <p><b>Action: <em>harvest</em></b></p>\n                    <p>This is the bee that you just saw.</p>\n                    <img src=\"bees-with-color/bee-B2DM.svg\" width=\"200\">\n                    <p><span class=\"greenText\"><b>Successful harvest!</b></span><br>Your pay has increased by $0.02. Your bonus pay is now $1.08.</p>\n            ","response":0,"trial_type":"html-button-response","trial_index":96,"time_elapsed":621613,"internal_node_id":"0.0-4.0-1.44","subject_id":"5fa976c94762931338a445e3","study_id":"6197b3f67c2b5cd3b6d9596a","session_id":"6197b88e4c1af4d577c27985","condition":"full-information","relevant_dimensions":["wings","pattern"],"bee_group":{"antennae":"X","wings":"1","pattern":"D","legs":"X"},"bonus":1.8400000000000012},{"rt":1286.4000000022352,"stimulus":"bees-with-color/bee-A2SM.svg","response":0,"trial_type":"image-button-response","trial_index":97,"time_elapsed":622902,"internal_node_id":"0.0-4.0-0.45","subject_id":"5fa976c94762931338a445e3","study_id":"6197b3f67c2b5cd3b6d9596a","session_id":"6197b88e4c1af4d577c27985","condition":"full-information","relevant_dimensions":["wings","pattern"],"bee_group":{"antennae":"X","wings":"1","pattern":"D","legs":"X"},"action":"harvest","summary":"good-harvest","bonus":1.8400000000000012},{"rt":1358,"stimulus":"\n                    <p><b>Action: <em>harvest</em></b></p>\n                    <p>This is the bee that you just saw.</p>\n                    <img src=\"bees-with-color/bee-A2SM.svg\" width=\"200\">\n                    <p><span class=\"greenText\"><b>Successful harvest!</b></span><br>Your pay has increased by $0.02. Your bonus pay is now $1.10.</p>\n            ","response":0,"trial_type":"html-button-response","trial_index":98,"time_elapsed":624263,"internal_node_id":"0.0-4.0-1.45","subject_id":"5fa976c94762931338a445e3","study_id":"6197b3f67c2b5cd3b6d9596a","session_id":"6197b88e4c1af4d577c27985","condition":"full-information","relevant_dimensions":["wings","pattern"],"bee_group":{"antennae":"X","wings":"1","pattern":"D","legs":"X"},"bonus":1.8400000000000012},{"rt":1937.5,"stimulus":"bees-with-color/bee-B1SF.svg","response":0,"trial_type":"image-button-response","trial_index":99,"time_elapsed":626204,"internal_node_id":"0.0-4.0-0.46","subject_id":"5fa976c94762931338a445e3","study_id":"6197b3f67c2b5cd3b6d9596a","session_id":"6197b88e4c1af4d577c27985","condition":"full-information","relevant_dimensions":["wings","pattern"],"bee_group":{"antennae":"X","wings":"1","pattern":"D","legs":"X"},"action":"harvest","summary":"good-harvest","bonus":1.8400000000000012},{"rt":1073.5,"stimulus":"\n                    <p><b>Action: <em>harvest</em></b></p>\n                    <p>This is the bee that you just saw.</p>\n                    <img src=\"bees-with-color/bee-B1SF.svg\" width=\"200\">\n                    <p><span class=\"greenText\"><b>Successful harvest!</b></span><br>Your pay has increased by $0.02. Your bonus pay is now $1.12.</p>\n            ","response":0,"trial_type":"html-button-response","trial_index":100,"time_elapsed":627280,"internal_node_id":"0.0-4.0-1.46","subject_id":"5fa976c94762931338a445e3","study_id":"6197b3f67c2b5cd3b6d9596a","session_id":"6197b88e4c1af4d577c27985","condition":"full-information","relevant_dimensions":["wings","pattern"],"bee_group":{"antennae":"X","wings":"1","pattern":"D","legs":"X"},"bonus":1.8400000000000012},{"rt":1307.0999999977648,"stimulus":"bees-with-color/bee-B1DF.svg","response":1,"trial_type":"image-button-response","trial_index":101,"time_elapsed":628591,"internal_node_id":"0.0-4.0-0.47","subject_id":"5fa976c94762931338a445e3","study_id":"6197b3f67c2b5cd3b6d9596a","session_id":"6197b88e4c1af4d577c27985","condition":"full-information","relevant_dimensions":["wings","pattern"],"bee_group":{"antennae":"X","wings":"1","pattern":"D","legs":"X"},"action":"avoid","summary":"good-avoid","bonus":1.8400000000000012},{"rt":1043.0999999977648,"stimulus":"\n                    <p><b>Action: <em>avoid</em></b></p>\n                    <p>This is the bee that you just saw.</p>\n                    <img src=\"bees-with-color/bee-B1DF.svg\" width=\"200\">\n                    <p><span class=\"greenText\">Good choice!</span>  This bee would have stung you.<br>Your bonus pay is unchanged, and remains at $1.12.</p>\n            ","response":0,"trial_type":"html-button-response","trial_index":102,"time_elapsed":629638,"internal_node_id":"0.0-4.0-1.47","subject_id":"5fa976c94762931338a445e3","study_id":"6197b3f67c2b5cd3b6d9596a","session_id":"6197b88e4c1af4d577c27985","condition":"full-information","relevant_dimensions":["wings","pattern"],"bee_group":{"antennae":"X","wings":"1","pattern":"D","legs":"X"},"bonus":1.8400000000000012},{"rt":1663.3999999985099,"stimulus":"bees-with-color/bee-B2DM.svg","response":0,"trial_type":"image-button-response","trial_index":103,"time_elapsed":631304,"internal_node_id":"0.0-4.0-0.48","subject_id":"5fa976c94762931338a445e3","study_id":"6197b3f67c2b5cd3b6d9596a","session_id":"6197b88e4c1af4d577c27985","condition":"full-information","relevant_dimensions":["wings","pattern"],"bee_group":{"antennae":"X","wings":"1","pattern":"D","legs":"X"},"action":"harvest","summary":"good-harvest","bonus":1.8400000000000012},{"rt":1053.7000000029802,"stimulus":"\n                    <p><b>Action: <em>harvest</em></b></p>\n                    <p>This is the bee that you just saw.</p>\n                    <img src=\"bees-with-color/bee-B2DM.svg\" width=\"200\">\n                    <p><span class=\"greenText\"><b>Successful harvest!</b></span><br>Your pay has increased by $0.02. Your bonus pay is now $1.14.</p>\n            ","response":0,"trial_type":"html-button-response","trial_index":104,"time_elapsed":632361,"internal_node_id":"0.0-4.0-1.48","subject_id":"5fa976c94762931338a445e3","study_id":"6197b3f67c2b5cd3b6d9596a","session_id":"6197b88e4c1af4d577c27985","condition":"full-information","relevant_dimensions":["wings","pattern"],"bee_group":{"antennae":"X","wings":"1","pattern":"D","legs":"X"},"bonus":1.8400000000000012},{"rt":2332.800000000745,"stimulus":"bees-with-color/bee-A2SF.svg","response":0,"trial_type":"image-button-response","trial_index":105,"time_elapsed":634698,"internal_node_id":"0.0-4.0-0.49","subject_id":"5fa976c94762931338a445e3","study_id":"6197b3f67c2b5cd3b6d9596a","session_id":"6197b88e4c1af4d577c27985","condition":"full-information","relevant_dimensions":["wings","pattern"],"bee_group":{"antennae":"X","wings":"1","pattern":"D","legs":"X"},"action":"harvest","summary":"good-harvest","bonus":1.8400000000000012},{"rt":1073.5999999977648,"stimulus":"\n                    <p><b>Action: <em>harvest</em></b></p>\n                    <p>This is the bee that you just saw.</p>\n                    <img src=\"bees-with-color/bee-A2SF.svg\" width=\"200\">\n                    <p><span class=\"greenText\"><b>Successful harvest!</b></span><br>Your pay has increased by $0.02. Your bonus pay is now $1.16.</p>\n            ","response":0,"trial_type":"html-button-response","trial_index":106,"time_elapsed":635784,"internal_node_id":"0.0-4.0-1.49","subject_id":"5fa976c94762931338a445e3","study_id":"6197b3f67c2b5cd3b6d9596a","session_id":"6197b88e4c1af4d577c27985","condition":"full-information","relevant_dimensions":["wings","pattern"],"bee_group":{"antennae":"X","wings":"1","pattern":"D","legs":"X"},"bonus":1.8400000000000012},{"rt":1266.6000000014901,"stimulus":"bees-with-color/bee-A2DF.svg","response":0,"trial_type":"image-button-response","trial_index":107,"time_elapsed":637054,"internal_node_id":"0.0-4.0-0.50","subject_id":"5fa976c94762931338a445e3","study_id":"6197b3f67c2b5cd3b6d9596a","session_id":"6197b88e4c1af4d577c27985","condition":"full-information","relevant_dimensions":["wings","pattern"],"bee_group":{"antennae":"X","wings":"1","pattern":"D","legs":"X"},"action":"harvest","summary":"good-harvest","bonus":1.8400000000000012},{"rt":1754.5,"stimulus":"\n                    <p><b>Action: <em>harvest</em></b></p>\n                    <p>This is the bee that you just saw.</p>\n                    <img src=\"bees-with-color/bee-A2DF.svg\" width=\"200\">\n                    <p><span class=\"greenText\"><b>Successful harvest!</b></span><br>Your pay has increased by $0.02. Your bonus pay is now $1.18.</p>\n            ","response":0,"trial_type":"html-button-response","trial_index":108,"time_elapsed":638812,"internal_node_id":"0.0-4.0-1.50","subject_id":"5fa976c94762931338a445e3","study_id":"6197b3f67c2b5cd3b6d9596a","session_id":"6197b88e4c1af4d577c27985","condition":"full-information","relevant_dimensions":["wings","pattern"],"bee_group":{"antennae":"X","wings":"1","pattern":"D","legs":"X"},"bonus":1.8400000000000012},{"rt":2037.699999999255,"stimulus":"bees-with-color/bee-B1DF.svg","response":1,"trial_type":"image-button-response","trial_index":109,"time_elapsed":640854,"internal_node_id":"0.0-4.0-0.51","subject_id":"5fa976c94762931338a445e3","study_id":"6197b3f67c2b5cd3b6d9596a","session_id":"6197b88e4c1af4d577c27985","condition":"full-information","relevant_dimensions":["wings","pattern"],"bee_group":{"antennae":"X","wings":"1","pattern":"D","legs":"X"},"action":"avoid","summary":"good-avoid","bonus":1.8400000000000012},{"rt":1276.7000000029802,"stimulus":"\n                    <p><b>Action: <em>avoid</em></b></p>\n                    <p>This is the bee that you just saw.</p>\n                    <img src=\"bees-with-color/bee-B1DF.svg\" width=\"200\">\n                    <p><span class=\"greenText\">Good choice!</span>  This bee would have stung you.<br>Your bonus pay is unchanged, and remains at $1.18.</p>\n            ","response":0,"trial_type":"html-button-response","trial_index":110,"time_elapsed":642134,"internal_node_id":"0.0-4.0-1.51","subject_id":"5fa976c94762931338a445e3","study_id":"6197b3f67c2b5cd3b6d9596a","session_id":"6197b88e4c1af4d577c27985","condition":"full-information","relevant_dimensions":["wings","pattern"],"bee_group":{"antennae":"X","wings":"1","pattern":"D","legs":"X"},"bonus":1.8400000000000012},{"rt":1520.300000000745,"stimulus":"bees-with-color/bee-B1SM.svg","response":0,"trial_type":"image-button-response","trial_index":111,"time_elapsed":643659,"internal_node_id":"0.0-4.0-0.52","subject_id":"5fa976c94762931338a445e3","study_id":"6197b3f67c2b5cd3b6d9596a","session_id":"6197b88e4c1af4d577c27985","condition":"full-information","relevant_dimensions":["wings","pattern"],"bee_group":{"antennae":"X","wings":"1","pattern":"D","legs":"X"},"action":"harvest","summary":"good-harvest","bonus":1.8400000000000012},{"rt":920.5,"stimulus":"\n                    <p><b>Action: <em>harvest</em></b></p>\n                    <p>This is the bee that you just saw.</p>\n                    <img src=\"bees-with-color/bee-B1SM.svg\" width=\"200\">\n                    <p><span class=\"greenText\"><b>Successful harvest!</b></span><br>Your pay has increased by $0.02. Your bonus pay is now $1.20.</p>\n            ","response":0,"trial_type":"html-button-response","trial_index":112,"time_elapsed":644583,"internal_node_id":"0.0-4.0-1.52","subject_id":"5fa976c94762931338a445e3","study_id":"6197b3f67c2b5cd3b6d9596a","session_id":"6197b88e4c1af4d577c27985","condition":"full-information","relevant_dimensions":["wings","pattern"],"bee_group":{"antennae":"X","wings":"1","pattern":"D","legs":"X"},"bonus":1.8400000000000012},{"rt":1214.2999999970198,"stimulus":"bees-with-color/bee-A1SF.svg","response":0,"trial_type":"image-button-response","trial_index":113,"time_elapsed":645801,"internal_node_id":"0.0-4.0-0.53","subject_id":"5fa976c94762931338a445e3","study_id":"6197b3f67c2b5cd3b6d9596a","session_id":"6197b88e4c1af4d577c27985","condition":"full-information","relevant_dimensions":["wings","pattern"],"bee_group":{"antennae":"X","wings":"1","pattern":"D","legs":"X"},"action":"harvest","summary":"good-harvest","bonus":1.8400000000000012},{"rt":1479.5999999977648,"stimulus":"\n                    <p><b>Action: <em>harvest</em></b></p>\n                    <p>This is the bee that you just saw.</p>\n                    <img src=\"bees-with-color/bee-A1SF.svg\" width=\"200\">\n                    <p><span class=\"greenText\"><b>Successful harvest!</b></span><br>Your pay has increased by $0.02. Your bonus pay is now $1.22.</p>\n            ","response":0,"trial_type":"html-button-response","trial_index":114,"time_elapsed":647284,"internal_node_id":"0.0-4.0-1.53","subject_id":"5fa976c94762931338a445e3","study_id":"6197b3f67c2b5cd3b6d9596a","session_id":"6197b88e4c1af4d577c27985","condition":"full-information","relevant_dimensions":["wings","pattern"],"bee_group":{"antennae":"X","wings":"1","pattern":"D","legs":"X"},"bonus":1.8400000000000012},{"rt":1276.6000000014901,"stimulus":"bees-with-color/bee-A1SM.svg","response":0,"trial_type":"image-button-response","trial_index":115,"time_elapsed":648565,"internal_node_id":"0.0-4.0-0.54","subject_id":"5fa976c94762931338a445e3","study_id":"6197b3f67c2b5cd3b6d9596a","session_id":"6197b88e4c1af4d577c27985","condition":"full-information","relevant_dimensions":["wings","pattern"],"bee_group":{"antennae":"X","wings":"1","pattern":"D","legs":"X"},"action":"harvest","summary":"good-harvest","bonus":1.8400000000000012},{"rt":992.2000000029802,"stimulus":"\n                    <p><b>Action: <em>harvest</em></b></p>\n                    <p>This is the bee that you just saw.</p>\n                    <img src=\"bees-with-color/bee-A1SM.svg\" width=\"200\">\n                    <p><span class=\"greenText\"><b>Successful harvest!</b></span><br>Your pay has increased by $0.02. Your bonus pay is now $1.24.</p>\n            ","response":0,"trial_type":"html-button-response","trial_index":116,"time_elapsed":649560,"internal_node_id":"0.0-4.0-1.54","subject_id":"5fa976c94762931338a445e3","study_id":"6197b3f67c2b5cd3b6d9596a","session_id":"6197b88e4c1af4d577c27985","condition":"full-information","relevant_dimensions":["wings","pattern"],"bee_group":{"antennae":"X","wings":"1","pattern":"D","legs":"X"},"bonus":1.8400000000000012},{"rt":1419,"stimulus":"bees-with-color/bee-B1DM.svg","response":1,"trial_type":"image-button-response","trial_index":117,"time_elapsed":650983,"internal_node_id":"0.0-4.0-0.55","subject_id":"5fa976c94762931338a445e3","study_id":"6197b3f67c2b5cd3b6d9596a","session_id":"6197b88e4c1af4d577c27985","condition":"full-information","relevant_dimensions":["wings","pattern"],"bee_group":{"antennae":"X","wings":"1","pattern":"D","legs":"X"},"action":"avoid","summary":"good-avoid","bonus":1.8400000000000012},{"rt":1164.5,"stimulus":"\n                    <p><b>Action: <em>avoid</em></b></p>\n                    <p>This is the bee that you just saw.</p>\n                    <img src=\"bees-with-color/bee-B1DM.svg\" width=\"200\">\n                    <p><span class=\"greenText\">Good choice!</span>  This bee would have stung you.<br>Your bonus pay is unchanged, and remains at $1.24.</p>\n            ","response":0,"trial_type":"html-button-response","trial_index":118,"time_elapsed":652151,"internal_node_id":"0.0-4.0-1.55","subject_id":"5fa976c94762931338a445e3","study_id":"6197b3f67c2b5cd3b6d9596a","session_id":"6197b88e4c1af4d577c27985","condition":"full-information","relevant_dimensions":["wings","pattern"],"bee_group":{"antennae":"X","wings":"1","pattern":"D","legs":"X"},"bonus":1.8400000000000012},{"rt":1459.6000000014901,"stimulus":"bees-with-color/bee-A2SM.svg","response":0,"trial_type":"image-button-response","trial_index":119,"time_elapsed":653614,"internal_node_id":"0.0-4.0-0.56","subject_id":"5fa976c94762931338a445e3","study_id":"6197b3f67c2b5cd3b6d9596a","session_id":"6197b88e4c1af4d577c27985","condition":"full-information","relevant_dimensions":["wings","pattern"],"bee_group":{"antennae":"X","wings":"1","pattern":"D","legs":"X"},"action":"harvest","summary":"good-harvest","bonus":1.8400000000000012},{"rt":1286.5,"stimulus":"\n                    <p><b>Action: <em>harvest</em></b></p>\n                    <p>This is the bee that you just saw.</p>\n                    <img src=\"bees-with-color/bee-A2SM.svg\" width=\"200\">\n                    <p><span class=\"greenText\"><b>Successful harvest!</b></span><br>Your pay has increased by $0.02. Your bonus pay is now $1.26.</p>\n            ","response":0,"trial_type":"html-button-response","trial_index":120,"time_elapsed":654904,"internal_node_id":"0.0-4.0-1.56","subject_id":"5fa976c94762931338a445e3","study_id":"6197b3f67c2b5cd3b6d9596a","session_id":"6197b88e4c1af4d577c27985","condition":"full-information","relevant_dimensions":["wings","pattern"],"bee_group":{"antennae":"X","wings":"1","pattern":"D","legs":"X"},"bonus":1.8400000000000012},{"rt":1377.800000000745,"stimulus":"bees-with-color/bee-B2SF.svg","response":0,"trial_type":"image-button-response","trial_index":121,"time_elapsed":656286,"internal_node_id":"0.0-4.0-0.57","subject_id":"5fa976c94762931338a445e3","study_id":"6197b3f67c2b5cd3b6d9596a","session_id":"6197b88e4c1af4d577c27985","condition":"full-information","relevant_dimensions":["wings","pattern"],"bee_group":{"antennae":"X","wings":"1","pattern":"D","legs":"X"},"action":"harvest","summary":"good-harvest","bonus":1.8400000000000012},{"rt":1459.300000000745,"stimulus":"\n                    <p><b>Action: <em>harvest</em></b></p>\n                    <p>This is the bee that you just saw.</p>\n                    <img src=\"bees-with-color/bee-B2SF.svg\" width=\"200\">\n                    <p><span class=\"greenText\"><b>Successful harvest!</b></span><br>Your pay has increased by $0.02. Your bonus pay is now $1.28.</p>\n            ","response":0,"trial_type":"html-button-response","trial_index":122,"time_elapsed":657749,"internal_node_id":"0.0-4.0-1.57","subject_id":"5fa976c94762931338a445e3","study_id":"6197b3f67c2b5cd3b6d9596a","session_id":"6197b88e4c1af4d577c27985","condition":"full-information","relevant_dimensions":["wings","pattern"],"bee_group":{"antennae":"X","wings":"1","pattern":"D","legs":"X"},"bonus":1.8400000000000012},{"rt":1774.300000000745,"stimulus":"bees-with-color/bee-A2DM.svg","response":0,"trial_type":"image-button-response","trial_index":123,"time_elapsed":659527,"internal_node_id":"0.0-4.0-0.58","subject_id":"5fa976c94762931338a445e3","study_id":"6197b3f67c2b5cd3b6d9596a","session_id":"6197b88e4c1af4d577c27985","condition":"full-information","relevant_dimensions":["wings","pattern"],"bee_group":{"antennae":"X","wings":"1","pattern":"D","legs":"X"},"action":"harvest","summary":"good-harvest","bonus":1.8400000000000012},{"rt":1002.1000000014901,"stimulus":"\n                    <p><b>Action: <em>harvest</em></b></p>\n                    <p>This is the bee that you just saw.</p>\n                    <img src=\"bees-with-color/bee-A2DM.svg\" width=\"200\">\n                    <p><span class=\"greenText\"><b>Successful harvest!</b></span><br>Your pay has increased by $0.02. Your bonus pay is now $1.30.</p>\n            ","response":0,"trial_type":"html-button-response","trial_index":124,"time_elapsed":660533,"internal_node_id":"0.0-4.0-1.58","subject_id":"5fa976c94762931338a445e3","study_id":"6197b3f67c2b5cd3b6d9596a","session_id":"6197b88e4c1af4d577c27985","condition":"full-information","relevant_dimensions":["wings","pattern"],"bee_group":{"antennae":"X","wings":"1","pattern":"D","legs":"X"},"bonus":1.8400000000000012},{"rt":3510.89999999851,"stimulus":"bees-with-color/bee-B2SM.svg","response":0,"trial_type":"image-button-response","trial_index":125,"time_elapsed":664048,"internal_node_id":"0.0-4.0-0.59","subject_id":"5fa976c94762931338a445e3","study_id":"6197b3f67c2b5cd3b6d9596a","session_id":"6197b88e4c1af4d577c27985","condition":"full-information","relevant_dimensions":["wings","pattern"],"bee_group":{"antennae":"X","wings":"1","pattern":"D","legs":"X"},"action":"harvest","summary":"good-harvest","bonus":1.8400000000000012},{"rt":1388.1000000014901,"stimulus":"\n                    <p><b>Action: <em>harvest</em></b></p>\n                    <p>This is the bee that you just saw.</p>\n                    <img src=\"bees-with-color/bee-B2SM.svg\" width=\"200\">\n                    <p><span class=\"greenText\"><b>Successful harvest!</b></span><br>Your pay has increased by $0.02. Your bonus pay is now $1.32.</p>\n            ","response":0,"trial_type":"html-button-response","trial_index":126,"time_elapsed":665440,"internal_node_id":"0.0-4.0-1.59","subject_id":"5fa976c94762931338a445e3","study_id":"6197b3f67c2b5cd3b6d9596a","session_id":"6197b88e4c1af4d577c27985","condition":"full-information","relevant_dimensions":["wings","pattern"],"bee_group":{"antennae":"X","wings":"1","pattern":"D","legs":"X"},"bonus":1.8400000000000012},{"rt":1661.6000000014901,"stimulus":"bees-with-color/bee-B1SF.svg","response":0,"trial_type":"image-button-response","trial_index":127,"time_elapsed":667106,"internal_node_id":"0.0-4.0-0.60","subject_id":"5fa976c94762931338a445e3","study_id":"6197b3f67c2b5cd3b6d9596a","session_id":"6197b88e4c1af4d577c27985","condition":"full-information","relevant_dimensions":["wings","pattern"],"bee_group":{"antennae":"X","wings":"1","pattern":"D","legs":"X"},"action":"harvest","summary":"good-harvest","bonus":1.8400000000000012},{"rt":971.5,"stimulus":"\n                    <p><b>Action: <em>harvest</em></b></p>\n                    <p>This is the bee that you just saw.</p>\n                    <img src=\"bees-with-color/bee-B1SF.svg\" width=\"200\">\n                    <p><span class=\"greenText\"><b>Successful harvest!</b></span><br>Your pay has increased by $0.02. Your bonus pay is now $1.34.</p>\n            ","response":0,"trial_type":"html-button-response","trial_index":128,"time_elapsed":668082,"internal_node_id":"0.0-4.0-1.60","subject_id":"5fa976c94762931338a445e3","study_id":"6197b3f67c2b5cd3b6d9596a","session_id":"6197b88e4c1af4d577c27985","condition":"full-information","relevant_dimensions":["wings","pattern"],"bee_group":{"antennae":"X","wings":"1","pattern":"D","legs":"X"},"bonus":1.8400000000000012},{"rt":1611.5,"stimulus":"bees-with-color/bee-B2DF.svg","response":0,"trial_type":"image-button-response","trial_index":129,"time_elapsed":669697,"internal_node_id":"0.0-4.0-0.61","subject_id":"5fa976c94762931338a445e3","study_id":"6197b3f67c2b5cd3b6d9596a","session_id":"6197b88e4c1af4d577c27985","condition":"full-information","relevant_dimensions":["wings","pattern"],"bee_group":{"antennae":"X","wings":"1","pattern":"D","legs":"X"},"action":"harvest","summary":"good-harvest","bonus":1.8400000000000012},{"rt":930.6999999992549,"stimulus":"\n                    <p><b>Action: <em>harvest</em></b></p>\n                    <p>This is the bee that you just saw.</p>\n                    <img src=\"bees-with-color/bee-B2DF.svg\" width=\"200\">\n                    <p><span class=\"greenText\"><b>Successful harvest!</b></span><br>Your pay has increased by $0.02. Your bonus pay is now $1.36.</p>\n            ","response":0,"trial_type":"html-button-response","trial_index":130,"time_elapsed":670632,"internal_node_id":"0.0-4.0-1.61","subject_id":"5fa976c94762931338a445e3","study_id":"6197b3f67c2b5cd3b6d9596a","session_id":"6197b88e4c1af4d577c27985","condition":"full-information","relevant_dimensions":["wings","pattern"],"bee_group":{"antennae":"X","wings":"1","pattern":"D","legs":"X"},"bonus":1.8400000000000012},{"rt":1641.199999999255,"stimulus":"bees-with-color/bee-A1DF.svg","response":1,"trial_type":"image-button-response","trial_index":131,"time_elapsed":672277,"internal_node_id":"0.0-4.0-0.62","subject_id":"5fa976c94762931338a445e3","study_id":"6197b3f67c2b5cd3b6d9596a","session_id":"6197b88e4c1af4d577c27985","condition":"full-information","relevant_dimensions":["wings","pattern"],"bee_group":{"antennae":"X","wings":"1","pattern":"D","legs":"X"},"action":"avoid","summary":"good-avoid","bonus":1.8400000000000012},{"rt":1245.5,"stimulus":"\n                    <p><b>Action: <em>avoid</em></b></p>\n                    <p>This is the bee that you just saw.</p>\n                    <img src=\"bees-with-color/bee-A1DF.svg\" width=\"200\">\n                    <p><span class=\"greenText\">Good choice!</span>  This bee would have stung you.<br>Your bonus pay is unchanged, and remains at $1.36.</p>\n            ","response":0,"trial_type":"html-button-response","trial_index":132,"time_elapsed":673527,"internal_node_id":"0.0-4.0-1.62","subject_id":"5fa976c94762931338a445e3","study_id":"6197b3f67c2b5cd3b6d9596a","session_id":"6197b88e4c1af4d577c27985","condition":"full-information","relevant_dimensions":["wings","pattern"],"bee_group":{"antennae":"X","wings":"1","pattern":"D","legs":"X"},"bonus":1.8400000000000012},{"rt":2434.89999999851,"stimulus":"bees-with-color/bee-A1DM.svg","response":1,"trial_type":"image-button-response","trial_index":133,"time_elapsed":675965,"internal_node_id":"0.0-4.0-0.63","subject_id":"5fa976c94762931338a445e3","study_id":"6197b3f67c2b5cd3b6d9596a","session_id":"6197b88e4c1af4d577c27985","condition":"full-information","relevant_dimensions":["wings","pattern"],"bee_group":{"antennae":"X","wings":"1","pattern":"D","legs":"X"},"action":"avoid","summary":"good-avoid","bonus":1.8400000000000012},{"rt":1448.6000000014901,"stimulus":"\n                    <p><b>Action: <em>avoid</em></b></p>\n                    <p>This is the bee that you just saw.</p>\n                    <img src=\"bees-with-color/bee-A1DM.svg\" width=\"200\">\n                    <p><span class=\"greenText\">Good choice!</span>  This bee would have stung you.<br>Your bonus pay is unchanged, and remains at $1.36.</p>\n            ","response":0,"trial_type":"html-button-response","trial_index":134,"time_elapsed":677418,"internal_node_id":"0.0-4.0-1.63","subject_id":"5fa976c94762931338a445e3","study_id":"6197b3f67c2b5cd3b6d9596a","session_id":"6197b88e4c1af4d577c27985","condition":"full-information","relevant_dimensions":["wings","pattern"],"bee_group":{"antennae":"X","wings":"1","pattern":"D","legs":"X"},"bonus":1.8400000000000012},{"rt":11408.400000002235,"stimulus":"You have completed the first part of this experiment.<br><br>You will now begin a shorter second part, in which you will receive no feedback.<br>The same rules regarding bonus pay apply.<br><br>Press any key to begin.","response":" ","trial_type":"html-keyboard-response","trial_index":135,"time_elapsed":688831,"internal_node_id":"0.0-5.0","subject_id":"5fa976c94762931338a445e3","study_id":"6197b3f67c2b5cd3b6d9596a","session_id":"6197b88e4c1af4d577c27985","condition":"full-information","relevant_dimensions":["wings","pattern"],"bee_group":{"antennae":"X","wings":"1","pattern":"D","legs":"X"},"bonus":1.8400000000000012},{"rt":5152.900000002235,"stimulus":"bees-with-color/bee-A2DF.svg","response":0,"trial_type":"image-button-response","trial_index":136,"time_elapsed":694007,"internal_node_id":"0.0-6.0-0.0","subject_id":"5fa976c94762931338a445e3","study_id":"6197b3f67c2b5cd3b6d9596a","session_id":"6197b88e4c1af4d577c27985","condition":"full-information","relevant_dimensions":["wings","pattern"],"bee_group":{"antennae":"X","wings":"1","pattern":"D","legs":"X"},"bonus":1.8400000000000012},{"rt":2899.5,"stimulus":"bees-with-color/bee-B1DM.svg","response":1,"trial_type":"image-button-response","trial_index":137,"time_elapsed":696904,"internal_node_id":"0.0-6.0-0.1","subject_id":"5fa976c94762931338a445e3","study_id":"6197b3f67c2b5cd3b6d9596a","session_id":"6197b88e4c1af4d577c27985","condition":"full-information","relevant_dimensions":["wings","pattern"],"bee_group":{"antennae":"X","wings":"1","pattern":"D","legs":"X"},"bonus":1.8400000000000012},{"rt":3233.699999999255,"stimulus":"bees-with-color/bee-B1DF.svg","response":1,"trial_type":"image-button-response","trial_index":138,"time_elapsed":700144,"internal_node_id":"0.0-6.0-0.2","subject_id":"5fa976c94762931338a445e3","study_id":"6197b3f67c2b5cd3b6d9596a","session_id":"6197b88e4c1af4d577c27985","condition":"full-information","relevant_dimensions":["wings","pattern"],"bee_group":{"antennae":"X","wings":"1","pattern":"D","legs":"X"},"bonus":1.8400000000000012},{"rt":1436.6000000014901,"stimulus":"bees-with-color/bee-B2DF.svg","response":0,"trial_type":"image-button-response","trial_index":139,"time_elapsed":701585,"internal_node_id":"0.0-6.0-0.3","subject_id":"5fa976c94762931338a445e3","study_id":"6197b3f67c2b5cd3b6d9596a","session_id":"6197b88e4c1af4d577c27985","condition":"full-information","relevant_dimensions":["wings","pattern"],"bee_group":{"antennae":"X","wings":"1","pattern":"D","legs":"X"},"bonus":1.8400000000000012},{"rt":1185.8999999985099,"stimulus":"bees-with-color/bee-B2SM.svg","response":0,"trial_type":"image-button-response","trial_index":140,"time_elapsed":702776,"internal_node_id":"0.0-6.0-0.4","subject_id":"5fa976c94762931338a445e3","study_id":"6197b3f67c2b5cd3b6d9596a","session_id":"6197b88e4c1af4d577c27985","condition":"full-information","relevant_dimensions":["wings","pattern"],"bee_group":{"antennae":"X","wings":"1","pattern":"D","legs":"X"},"bonus":1.8400000000000012},{"rt":1182.3999999985099,"stimulus":"bees-with-color/bee-B2DM.svg","response":0,"trial_type":"image-button-response","trial_index":141,"time_elapsed":703962,"internal_node_id":"0.0-6.0-0.5","subject_id":"5fa976c94762931338a445e3","study_id":"6197b3f67c2b5cd3b6d9596a","session_id":"6197b88e4c1af4d577c27985","condition":"full-information","relevant_dimensions":["wings","pattern"],"bee_group":{"antennae":"X","wings":"1","pattern":"D","legs":"X"},"bonus":1.8400000000000012},{"rt":818,"stimulus":"bees-with-color/bee-A2DM.svg","response":0,"trial_type":"image-button-response","trial_index":142,"time_elapsed":704785,"internal_node_id":"0.0-6.0-0.6","subject_id":"5fa976c94762931338a445e3","study_id":"6197b3f67c2b5cd3b6d9596a","session_id":"6197b88e4c1af4d577c27985","condition":"full-information","relevant_dimensions":["wings","pattern"],"bee_group":{"antennae":"X","wings":"1","pattern":"D","legs":"X"},"bonus":1.8400000000000012},{"rt":859.3999999985099,"stimulus":"bees-with-color/bee-A2SF.svg","response":0,"trial_type":"image-button-response","trial_index":143,"time_elapsed":705649,"internal_node_id":"0.0-6.0-0.7","subject_id":"5fa976c94762931338a445e3","study_id":"6197b3f67c2b5cd3b6d9596a","session_id":"6197b88e4c1af4d577c27985","condition":"full-information","relevant_dimensions":["wings","pattern"],"bee_group":{"antennae":"X","wings":"1","pattern":"D","legs":"X"},"bonus":1.8400000000000012},{"rt":1407.800000000745,"stimulus":"bees-with-color/bee-A1DF.svg","response":1,"trial_type":"image-button-response","trial_index":144,"time_elapsed":707061,"internal_node_id":"0.0-6.0-0.8","subject_id":"5fa976c94762931338a445e3","study_id":"6197b3f67c2b5cd3b6d9596a","session_id":"6197b88e4c1af4d577c27985","condition":"full-information","relevant_dimensions":["wings","pattern"],"bee_group":{"antennae":"X","wings":"1","pattern":"D","legs":"X"},"bonus":1.8400000000000012},{"rt":1529.0999999977648,"stimulus":"bees-with-color/bee-A1SF.svg","response":0,"trial_type":"image-button-response","trial_index":145,"time_elapsed":708594,"internal_node_id":"0.0-6.0-0.9","subject_id":"5fa976c94762931338a445e3","study_id":"6197b3f67c2b5cd3b6d9596a","session_id":"6197b88e4c1af4d577c27985","condition":"full-information","relevant_dimensions":["wings","pattern"],"bee_group":{"antennae":"X","wings":"1","pattern":"D","legs":"X"},"bonus":1.8400000000000012},{"rt":1498.5999999977648,"stimulus":"bees-with-color/bee-B1SF.svg","response":0,"trial_type":"image-button-response","trial_index":146,"time_elapsed":710097,"internal_node_id":"0.0-6.0-0.10","subject_id":"5fa976c94762931338a445e3","study_id":"6197b3f67c2b5cd3b6d9596a","session_id":"6197b88e4c1af4d577c27985","condition":"full-information","relevant_dimensions":["wings","pattern"],"bee_group":{"antennae":"X","wings":"1","pattern":"D","legs":"X"},"bonus":1.8400000000000012},{"rt":990.6000000014901,"stimulus":"bees-with-color/bee-A2SM.svg","response":0,"trial_type":"image-button-response","trial_index":147,"time_elapsed":711092,"internal_node_id":"0.0-6.0-0.11","subject_id":"5fa976c94762931338a445e3","study_id":"6197b3f67c2b5cd3b6d9596a","session_id":"6197b88e4c1af4d577c27985","condition":"full-information","relevant_dimensions":["wings","pattern"],"bee_group":{"antennae":"X","wings":"1","pattern":"D","legs":"X"},"bonus":1.8400000000000012},{"rt":920,"stimulus":"bees-with-color/bee-B2SF.svg","response":0,"trial_type":"image-button-response","trial_index":148,"time_elapsed":712017,"internal_node_id":"0.0-6.0-0.12","subject_id":"5fa976c94762931338a445e3","study_id":"6197b3f67c2b5cd3b6d9596a","session_id":"6197b88e4c1af4d577c27985","condition":"full-information","relevant_dimensions":["wings","pattern"],"bee_group":{"antennae":"X","wings":"1","pattern":"D","legs":"X"},"bonus":1.8400000000000012},{"rt":1661.5,"stimulus":"bees-with-color/bee-A1SM.svg","response":0,"trial_type":"image-button-response","trial_index":149,"time_elapsed":713683,"internal_node_id":"0.0-6.0-0.13","subject_id":"5fa976c94762931338a445e3","study_id":"6197b3f67c2b5cd3b6d9596a","session_id":"6197b88e4c1af4d577c27985","condition":"full-information","relevant_dimensions":["wings","pattern"],"bee_group":{"antennae":"X","wings":"1","pattern":"D","legs":"X"},"bonus":1.8400000000000012},{"rt":1622,"stimulus":"bees-with-color/bee-A1DM.svg","response":1,"trial_type":"image-button-response","trial_index":150,"time_elapsed":715309,"internal_node_id":"0.0-6.0-0.14","subject_id":"5fa976c94762931338a445e3","study_id":"6197b3f67c2b5cd3b6d9596a","session_id":"6197b88e4c1af4d577c27985","condition":"full-information","relevant_dimensions":["wings","pattern"],"bee_group":{"antennae":"X","wings":"1","pattern":"D","legs":"X"},"bonus":1.8400000000000012},{"rt":1863.3999999985099,"stimulus":"bees-with-color/bee-B1SM.svg","response":0,"trial_type":"image-button-response","trial_index":151,"time_elapsed":717177,"internal_node_id":"0.0-6.0-0.15","subject_id":"5fa976c94762931338a445e3","study_id":"6197b3f67c2b5cd3b6d9596a","session_id":"6197b88e4c1af4d577c27985","condition":"full-information","relevant_dimensions":["wings","pattern"],"bee_group":{"antennae":"X","wings":"1","pattern":"D","legs":"X"},"bonus":1.8400000000000012},{"rt":819.2999999970198,"stimulus":"bees-with-color/bee-A1SM.svg","response":0,"trial_type":"image-button-response","trial_index":152,"time_elapsed":718000,"internal_node_id":"0.0-6.0-0.16","subject_id":"5fa976c94762931338a445e3","study_id":"6197b3f67c2b5cd3b6d9596a","session_id":"6197b88e4c1af4d577c27985","condition":"full-information","relevant_dimensions":["wings","pattern"],"bee_group":{"antennae":"X","wings":"1","pattern":"D","legs":"X"},"bonus":1.8400000000000012},{"rt":1417.7999999970198,"stimulus":"bees-with-color/bee-B1SM.svg","response":0,"trial_type":"image-button-response","trial_index":153,"time_elapsed":719421,"internal_node_id":"0.0-6.0-0.17","subject_id":"5fa976c94762931338a445e3","study_id":"6197b3f67c2b5cd3b6d9596a","session_id":"6197b88e4c1af4d577c27985","condition":"full-information","relevant_dimensions":["wings","pattern"],"bee_group":{"antennae":"X","wings":"1","pattern":"D","legs":"X"},"bonus":1.8400000000000012},{"rt":1387.699999999255,"stimulus":"bees-with-color/bee-A1DF.svg","response":1,"trial_type":"image-button-response","trial_index":154,"time_elapsed":720813,"internal_node_id":"0.0-6.0-0.18","subject_id":"5fa976c94762931338a445e3","study_id":"6197b3f67c2b5cd3b6d9596a","session_id":"6197b88e4c1af4d577c27985","condition":"full-information","relevant_dimensions":["wings","pattern"],"bee_group":{"antennae":"X","wings":"1","pattern":"D","legs":"X"},"bonus":1.8400000000000012},{"rt":1082.800000000745,"stimulus":"bees-with-color/bee-B1DF.svg","response":1,"trial_type":"image-button-response","trial_index":155,"time_elapsed":721900,"internal_node_id":"0.0-6.0-0.19","subject_id":"5fa976c94762931338a445e3","study_id":"6197b3f67c2b5cd3b6d9596a","session_id":"6197b88e4c1af4d577c27985","condition":"full-information","relevant_dimensions":["wings","pattern"],"bee_group":{"antennae":"X","wings":"1","pattern":"D","legs":"X"},"bonus":1.8400000000000012},{"rt":2048.300000000745,"stimulus":"bees-with-color/bee-B1SF.svg","response":0,"trial_type":"image-button-response","trial_index":156,"time_elapsed":723952,"internal_node_id":"0.0-6.0-0.20","subject_id":"5fa976c94762931338a445e3","study_id":"6197b3f67c2b5cd3b6d9596a","session_id":"6197b88e4c1af4d577c27985","condition":"full-information","relevant_dimensions":["wings","pattern"],"bee_group":{"antennae":"X","wings":"1","pattern":"D","legs":"X"},"bonus":1.8400000000000012},{"rt":818.3999999985099,"stimulus":"bees-with-color/bee-B2SM.svg","response":0,"trial_type":"image-button-response","trial_index":157,"time_elapsed":724774,"internal_node_id":"0.0-6.0-0.21","subject_id":"5fa976c94762931338a445e3","study_id":"6197b3f67c2b5cd3b6d9596a","session_id":"6197b88e4c1af4d577c27985","condition":"full-information","relev