[{"success":true,"trial_type":"fullscreen","trial_index":0,"time_elapsed":3452,"internal_node_id":"0.0-0.0","subject_id":"5d3a5858f7ddf70001353ae4","study_id":"60edd13110225f80f9f3709b","session_id":"6196c1f20e88d49ac923c347","condition":"full-information","relevant_dimensions":["antennae","legs"],"bee_group":{"antennae":"B","wings":"X","pattern":"X","legs":"F"},"bonus":1.3600000000000008},{"success":true,"timeout":false,"failed_images":[],"failed_audio":[],"failed_video":[],"trial_type":"preload","trial_index":1,"time_elapsed":6691,"internal_node_id":"0.0-1.0","subject_id":"5d3a5858f7ddf70001353ae4","study_id":"60edd13110225f80f9f3709b","session_id":"6196c1f20e88d49ac923c347","condition":"full-information","relevant_dimensions":["antennae","legs"],"bee_group":{"antennae":"B","wings":"X","pattern":"X","legs":"F"},"bonus":1.3600000000000008},{"rt":1948,"stimulus":"Welcome! Press any key to begin.","response":" ","trial_type":"html-keyboard-response","trial_index":2,"time_elapsed":8639,"internal_node_id":"0.0-2.0","subject_id":"5d3a5858f7ddf70001353ae4","study_id":"60edd13110225f80f9f3709b","session_id":"6196c1f20e88d49ac923c347","condition":"full-information","relevant_dimensions":["antennae","legs"],"bee_group":{"antennae":"B","wings":"X","pattern":"X","legs":"F"},"bonus":1.3600000000000008},{"view_history":[{"page_index":0,"viewing_time":1814},{"page_index":1,"viewing_time":13074},{"page_index":2,"viewing_time":4122},{"page_index":3,"viewing_time":6840},{"page_index":4,"viewing_time":4180},{"page_index":5,"viewing_time":3060},{"page_index":6,"viewing_time":23001},{"page_index":7,"viewing_time":4059},{"page_index":8,"viewing_time":3200},{"page_index":9,"viewing_time":3061},{"page_index":10,"viewing_time":2299},{"page_index":11,"viewing_time":5900},{"page_index":12,"viewing_time":11221},{"page_index":13,"viewing_time":1819},{"page_index":14,"viewing_time":1980}],"rt":89631,"trial_type":"instructions","trial_index":3,"time_elapsed":98272,"internal_node_id":"0.0-3.0-0.0","subject_id":"5d3a5858f7ddf70001353ae4","study_id":"60edd13110225f80f9f3709b","session_id":"6196c1f20e88d49ac923c347","condition":"full-information","relevant_dimensions":["antennae","legs"],"bee_group":{"antennae":"B","wings":"X","pattern":"X","legs":"F"},"bonus":1.3600000000000008},{"rt":16085,"response":{"Q0":["Two or six legs","Stripes or spots on body","Single or double wings","Antennae or no antennae"]},"question_order":[0],"trial_type":"survey-multi-select","trial_index":4,"time_elapsed":114362,"internal_node_id":"0.0-3.0-1.0","subject_id":"5d3a5858f7ddf70001353ae4","study_id":"60edd13110225f80f9f3709b","session_id":"6196c1f20e88d49ac923c347","condition":"full-information","relevant_dimensions":["antennae","legs"],"bee_group":{"antennae":"B","wings":"X","pattern":"X","legs":"F"},"correct":true,"bonus":1.3600000000000008},{"rt":18318,"response":{"Q1":"No.","Q2":"Based on the four features of the bee.","Q3":"You learn if it was friendly or dangerous, but do not alter your bonus."},"question_order":[0,1,2],"trial_type":"survey-multi-choice","trial_index":5,"time_elapsed":132684,"internal_node_id":"0.0-3.0-2.0","subject_id":"5d3a5858f7ddf70001353ae4","study_id":"60edd13110225f80f9f3709b","session_id":"6196c1f20e88d49ac923c347","condition":"full-information","relevant_dimensions":["antennae","legs"],"bee_group":{"antennae":"B","wings":"X","pattern":"X","legs":"F"},"correct":true,"bonus":1.3600000000000008},{"rt":1695,"stimulus":"<p>Congrats, you got everything right<br>When you're ready, click the button below to continue to the experiment.</p>","response":0,"trial_type":"html-button-response","trial_index":6,"time_elapsed":134381,"internal_node_id":"0.0-3.0-3.0","subject_id":"5d3a5858f7ddf70001353ae4","study_id":"60edd13110225f80f9f3709b","session_id":"6196c1f20e88d49ac923c347","condition":"full-information","relevant_dimensions":["antennae","legs"],"bee_group":{"antennae":"B","wings":"X","pattern":"X","legs":"F"},"bonus":1.3600000000000008},{"rt":94796,"stimulus":"bees-with-color/bee-B2DF.svg","response":1,"trial_type":"image-button-response","trial_index":7,"time_elapsed":229181,"internal_node_id":"0.0-4.0-0.0","subject_id":"5d3a5858f7ddf70001353ae4","study_id":"60edd13110225f80f9f3709b","session_id":"6196c1f20e88d49ac923c347","condition":"full-information","relevant_dimensions":["antennae","legs"],"bee_group":{"antennae":"B","wings":"X","pattern":"X","legs":"F"},"action":"avoid","summary":"good-avoid","bonus":1.3600000000000008},{"rt":14747,"stimulus":"\n                    <p><b>Action: <em>avoid</em></b></p>\n                    <p>This is the bee that you just saw.</p>\n                    <img src=\"bees-with-color/bee-B2DF.svg\" width=\"200\">\n                    <p><span class=\"greenText\">Good choice!</span>  This bee would have stung you.<br>Your bonus pay is unchanged, and remains at $0.54.</p>\n            ","response":0,"trial_type":"html-button-response","trial_index":8,"time_elapsed":243941,"internal_node_id":"0.0-4.0-1.0","subject_id":"5d3a5858f7ddf70001353ae4","study_id":"60edd13110225f80f9f3709b","session_id":"6196c1f20e88d49ac923c347","condition":"full-information","relevant_dimensions":["antennae","legs"],"bee_group":{"antennae":"B","wings":"X","pattern":"X","legs":"F"},"bonus":1.3600000000000008},{"rt":27906,"stimulus":"bees-with-color/bee-A2SF.svg","response":1,"trial_type":"image-button-response","trial_index":9,"time_elapsed":271851,"internal_node_id":"0.0-4.0-0.1","subject_id":"5d3a5858f7ddf70001353ae4","study_id":"60edd13110225f80f9f3709b","session_id":"6196c1f20e88d49ac923c347","condition":"full-information","relevant_dimensions":["antennae","legs"],"bee_group":{"antennae":"B","wings":"X","pattern":"X","legs":"F"},"action":"avoid","summary":"bad-avoid","bonus":1.3600000000000008},{"rt":9976,"stimulus":"\n                    <p><b>Action: <em>avoid</em></b></p>\n                    <p>This is the bee that you just saw.</p>\n                    <img src=\"bees-with-color/bee-A2SF.svg\" width=\"200\">\n                    <p><span class=\"redText\">Bad choice,</span> the bee was friendly.<br>Your bonus pay is unchanged, and remains at $0.54.</p>\n            ","response":0,"trial_type":"html-button-response","trial_index":10,"time_elapsed":281831,"internal_node_id":"0.0-4.0-1.1","subject_id":"5d3a5858f7ddf70001353ae4","study_id":"60edd13110225f80f9f3709b","session_id":"6196c1f20e88d49ac923c347","condition":"full-information","relevant_dimensions":["antennae","legs"],"bee_group":{"antennae":"B","wings":"X","pattern":"X","legs":"F"},"bonus":1.3600000000000008},{"rt":21857,"stimulus":"bees-with-color/bee-B1DM.svg","response":1,"trial_type":"image-button-response","trial_index":11,"time_elapsed":303690,"internal_node_id":"0.0-4.0-0.2","subject_id":"5d3a5858f7ddf70001353ae4","study_id":"60edd13110225f80f9f3709b","session_id":"6196c1f20e88d49ac923c347","condition":"full-information","relevant_dimensions":["antennae","legs"],"bee_group":{"antennae":"B","wings":"X","pattern":"X","legs":"F"},"action":"avoid","summary":"bad-avoid","bonus":1.3600000000000008},{"rt":5377,"stimulus":"\n                    <p><b>Action: <em>avoid</em></b></p>\n                    <p>This is the bee that you just saw.</p>\n                    <img src=\"bees-with-color/bee-B1DM.svg\" width=\"200\">\n                    <p><span class=\"redText\">Bad choice,</span> the bee was friendly.<br>Your bonus pay is unchanged, and remains at $0.54.</p>\n            ","response":0,"trial_type":"html-button-response","trial_index":12,"time_elapsed":309071,"internal_node_id":"0.0-4.0-1.2","subject_id":"5d3a5858f7ddf70001353ae4","study_id":"60edd13110225f80f9f3709b","session_id":"6196c1f20e88d49ac923c347","condition":"full-information","relevant_dimensions":["antennae","legs"],"bee_group":{"antennae":"B","wings":"X","pattern":"X","legs":"F"},"bonus":1.3600000000000008},{"rt":37167,"stimulus":"bees-with-color/bee-B1SF.svg","response":1,"trial_type":"image-button-response","trial_index":13,"time_elapsed":346241,"internal_node_id":"0.0-4.0-0.3","subject_id":"5d3a5858f7ddf70001353ae4","study_id":"60edd13110225f80f9f3709b","session_id":"6196c1f20e88d49ac923c347","condition":"full-information","relevant_dimensions":["antennae","legs"],"bee_group":{"antennae":"B","wings":"X","pattern":"X","legs":"F"},"action":"avoid","summary":"good-avoid","bonus":1.3600000000000008},{"rt":42596,"stimulus":"\n                    <p><b>Action: <em>avoid</em></b></p>\n                    <p>This is the bee that you just saw.</p>\n                    <img src=\"bees-with-color/bee-B1SF.svg\" width=\"200\">\n                    <p><span class=\"greenText\">Good choice!</span>  This bee would have stung you.<br>Your bonus pay is unchanged, and remains at $0.54.</p>\n            ","response":0,"trial_type":"html-button-response","trial_index":14,"time_elapsed":388840,"internal_node_id":"0.0-4.0-1.3","subject_id":"5d3a5858f7ddf70001353ae4","study_id":"60edd13110225f80f9f3709b","session_id":"6196c1f20e88d49ac923c347","condition":"full-information","relevant_dimensions":["antennae","legs"],"bee_group":{"antennae":"B","wings":"X","pattern":"X","legs":"F"},"bonus":1.3600000000000008},{"rt":23039,"stimulus":"bees-with-color/bee-A1DF.svg","response":1,"trial_type":"image-button-response","trial_index":15,"time_elapsed":411880,"internal_node_id":"0.0-4.0-0.4","subject_id":"5d3a5858f7ddf70001353ae4","study_id":"60edd13110225f80f9f3709b","session_id":"6196c1f20e88d49ac923c347","condition":"full-information","relevant_dimensions":["antennae","legs"],"bee_group":{"antennae":"B","wings":"X","pattern":"X","legs":"F"},"action":"avoid","summary":"bad-avoid","bonus":1.3600000000000008},{"rt":24717,"stimulus":"\n                    <p><b>Action: <em>avoid</em></b></p>\n                    <p>This is the bee that you just saw.</p>\n                    <img src=\"bees-with-color/bee-A1DF.svg\" width=\"200\">\n                    <p><span class=\"redText\">Bad choice,</span> the bee was friendly.<br>Your bonus pay is unchanged, and remains at $0.54.</p>\n            ","response":0,"trial_type":"html-button-response","trial_index":16,"time_elapsed":436600,"internal_node_id":"0.0-4.0-1.4","subject_id":"5d3a5858f7ddf70001353ae4","study_id":"60edd13110225f80f9f3709b","session_id":"6196c1f20e88d49ac923c347","condition":"full-information","relevant_dimensions":["antennae","legs"],"bee_group":{"antennae":"B","wings":"X","pattern":"X","legs":"F"},"bonus":1.3600000000000008},{"rt":27919,"stimulus":"bees-with-color/bee-B1SM.svg","response":1,"trial_type":"image-button-response","trial_index":17,"time_elapsed":464520,"internal_node_id":"0.0-4.0-0.5","subject_id":"5d3a5858f7ddf70001353ae4","study_id":"60edd13110225f80f9f3709b","session_id":"6196c1f20e88d49ac923c347","condition":"full-information","relevant_dimensions":["antennae","legs"],"bee_group":{"antennae":"B","wings":"X","pattern":"X","legs":"F"},"action":"avoid","summary":"bad-avoid","bonus":1.3600000000000008},{"rt":81138,"stimulus":"\n                    <p><b>Action: <em>avoid</em></b></p>\n                    <p>This is the bee that you just saw.</p>\n                    <img src=\"bees-with-color/bee-B1SM.svg\" width=\"200\">\n                    <p><span class=\"redText\">Bad choice,</span> the bee was friendly.<br>Your bonus pay is unchanged, and remains at $0.54.</p>\n            ","response":0,"trial_type":"html-button-response","trial_index":18,"time_elapsed":545661,"internal_node_id":"0.0-4.0-1.5","subject_id":"5d3a5858f7ddf70001353ae4","study_id":"60edd13110225f80f9f3709b","session_id":"6196c1f20e88d49ac923c347","condition":"full-information","relevant_dimensions":["antennae","legs"],"bee_group":{"antennae":"B","wings":"X","pattern":"X","legs":"F"},"bonus":1.3600000000000008},{"rt":35627,"stimulus":"bees-with-color/bee-A1DM.svg","response":1,"trial_type":"image-button-response","trial_index":19,"time_elapsed":581290,"internal_node_id":"0.0-4.0-0.6","subject_id":"5d3a5858f7ddf70001353ae4","study_id":"60edd13110225f80f9f3709b","session_id":"6196c1f20e88d49ac923c347","condition":"full-information","relevant_dimensions":["antennae","legs"],"bee_group":{"antennae":"B","wings":"X","pattern":"X","legs":"F"},"action":"avoid","summary":"bad-avoid","bonus":1.3600000000000008},{"rt":5318,"stimulus":"\n                    <p><b>Action: <em>avoid</em></b></p>\n                    <p>This is the bee that you just saw.</p>\n                    <img src=\"bees-with-color/bee-A1DM.svg\" width=\"200\">\n                    <p><span class=\"redText\">Bad choice,</span> the bee was friendly.<br>Your bonus pay is unchanged, and remains at $0.54.</p>\n            ","response":0,"trial_type":"html-button-response","trial_index":20,"time_elapsed":586610,"internal_node_id":"0.0-4.0-1.6","subject_id":"5d3a5858f7ddf70001353ae4","study_id":"60edd13110225f80f9f3709b","session_id":"6196c1f20e88d49ac923c347","condition":"full-information","relevant_dimensions":["antennae","legs"],"bee_group":{"antennae":"B","wings":"X","pattern":"X","legs":"F"},"bonus":1.3600000000000008},{"rt":26958,"stimulus":"bees-with-color/bee-B2SM.svg","response":1,"trial_type":"image-button-response","trial_index":21,"time_elapsed":613570,"internal_node_id":"0.0-4.0-0.7","subject_id":"5d3a5858f7ddf70001353ae4","study_id":"60edd13110225f80f9f3709b","session_id":"6196c1f20e88d49ac923c347","condition":"full-information","relevant_dimensions":["antennae","legs"],"bee_group":{"antennae":"B","wings":"X","pattern":"X","legs":"F"},"action":"avoid","summary":"bad-avoid","bonus":1.3600000000000008},{"rt":5117,"stimulus":"\n                    <p><b>Action: <em>avoid</em></b></p>\n                    <p>This is the bee that you just saw.</p>\n                    <img src=\"bees-with-color/bee-B2SM.svg\" width=\"200\">\n                    <p><span class=\"redText\">Bad choice,</span> the bee was friendly.<br>Your bonus pay is unchanged, and remains at $0.54.</p>\n            ","response":0,"trial_type":"html-button-response","trial_index":22,"time_elapsed":618689,"internal_node_id":"0.0-4.0-1.7","subject_id":"5d3a5858f7ddf70001353ae4","study_id":"60edd13110225f80f9f3709b","session_id":"6196c1f20e88d49ac923c347","condition":"full-information","relevant_dimensions":["antennae","legs"],"bee_group":{"antennae":"B","wings":"X","pattern":"X","legs":"F"},"bonus":1.3600000000000008},{"rt":59418,"stimulus":"bees-with-color/bee-A1SM.svg","response":1,"trial_type":"image-button-response","trial_index":23,"time_elapsed":678110,"internal_node_id":"0.0-4.0-0.8","subject_id":"5d3a5858f7ddf70001353ae4","study_id":"60edd13110225f80f9f3709b","session_id":"6196c1f20e88d49ac923c347","condition":"full-information","relevant_dimensions":["antennae","legs"],"bee_group":{"antennae":"B","wings":"X","pattern":"X","legs":"F"},"action":"avoid","summary":"bad-avoid","bonus":1.3600000000000008},{"rt":8417,"stimulus":"\n                    <p><b>Action: <em>avoid</em></b></p>\n                    <p>This is the bee that you just saw.</p>\n                    <img src=\"bees-with-color/bee-A1SM.svg\" width=\"200\">\n                    <p><span class=\"redText\">Bad choice,</span> the bee was friendly.<br>Your bonus pay is unchanged, and remains at $0.54.</p>\n            ","response":0,"trial_type":"html-button-response","trial_index":24,"time_elapsed":686529,"internal_node_id":"0.0-4.0-1.8","subject_id":"5d3a5858f7ddf70001353ae4","study_id":"60edd13110225f80f9f3709b","session_id":"6196c1f20e88d49ac923c347","condition":"full-information","relevant_dimensions":["antennae","legs"],"bee_group":{"antennae":"B","wings":"X","pattern":"X","legs":"F"},"bonus":1.3600000000000008},{"rt":7588,"stimulus":"bees-with-color/bee-A2SM.svg","response":0,"trial_type":"image-button-response","trial_index":25,"time_elapsed":694120,"internal_node_id":"0.0-4.0-0.9","subject_id":"5d3a5858f7ddf70001353ae4","study_id":"60edd13110225f80f9f3709b","session_id":"6196c1f20e88d49ac923c347","condition":"full-information","relevant_dimensions":["antennae","legs"],"bee_group":{"antennae":"B","wings":"X","pattern":"X","legs":"F"},"action":"harvest","summary":"good-harvest","bonus":1.3600000000000008},{"rt":2236,"stimulus":"\n                    <p><b>Action: <em>harvest</em></b></p>\n                    <p>This is the bee that you just saw.</p>\n                    <img src=\"bees-with-color/bee-A2SM.svg\" width=\"200\">\n                    <p><span class=\"greenText\"><b>Successful harvest!</b></span><br>Your pay has increased by $0.02. Your bonus pay is now $0.56.</p>\n            ","response":0,"trial_type":"html-button-response","trial_index":26,"time_elapsed":696360,"internal_node_id":"0.0-4.0-1.9","subject_id":"5d3a5858f7ddf70001353ae4","study_id":"60edd13110225f80f9f3709b","session_id":"6196c1f20e88d49ac923c347","condition":"full-information","relevant_dimensions":["antennae","legs"],"bee_group":{"antennae":"B","wings":"X","pattern":"X","legs":"F"},"bonus":1.3600000000000008},{"rt":2096,"stimulus":"bees-with-color/bee-B2DM.svg","response":0,"trial_type":"image-button-response","trial_index":27,"time_elapsed":698458,"internal_node_id":"0.0-4.0-0.10","subject_id":"5d3a5858f7ddf70001353ae4","study_id":"60edd13110225f80f9f3709b","session_id":"6196c1f20e88d49ac923c347","condition":"full-information","relevant_dimensions":["antennae","legs"],"bee_group":{"antennae":"B","wings":"X","pattern":"X","legs":"F"},"action":"harvest","summary":"good-harvest","bonus":1.3600000000000008},{"rt":1540,"stimulus":"\n                    <p><b>Action: <em>harvest</em></b></p>\n                    <p>This is the bee that you just saw.</p>\n                    <img src=\"bees-with-color/bee-B2DM.svg\" width=\"200\">\n                    <p><span class=\"greenText\"><b>Successful harvest!</b></span><br>Your pay has increased by $0.02. Your bonus pay is now $0.58.</p>\n            ","response":0,"trial_type":"html-button-response","trial_index":28,"time_elapsed":700000,"internal_node_id":"0.0-4.0-1.10","subject_id":"5d3a5858f7ddf70001353ae4","study_id":"60edd13110225f80f9f3709b","session_id":"6196c1f20e88d49ac923c347","condition":"full-information","relevant_dimensions":["antennae","legs"],"bee_group":{"antennae":"B","wings":"X","pattern":"X","legs":"F"},"bonus":1.3600000000000008},{"rt":2798,"stimulus":"bees-with-color/bee-B2SF.svg","response":1,"trial_type":"image-button-response","trial_index":29,"time_elapsed":702800,"internal_node_id":"0.0-4.0-0.11","subject_id":"5d3a5858f7ddf70001353ae4","study_id":"60edd13110225f80f9f3709b","session_id":"6196c1f20e88d49ac923c347","condition":"full-information","relevant_dimensions":["antennae","legs"],"bee_group":{"antennae":"B","wings":"X","pattern":"X","legs":"F"},"action":"avoid","summary":"good-avoid","bonus":1.3600000000000008},{"rt":2278,"stimulus":"\n                    <p><b>Action: <em>avoid</em></b></p>\n                    <p>This is the bee that you just saw.</p>\n                    <img src=\"bees-with-color/bee-B2SF.svg\" width=\"200\">\n                    <p><span class=\"greenText\">Good choice!</span>  This bee would have stung you.<br>Your bonus pay is unchanged, and remains at $0.58.</p>\n            ","response":0,"trial_type":"html-button-response","trial_index":30,"time_elapsed":705080,"internal_node_id":"0.0-4.0-1.11","subject_id":"5d3a5858f7ddf70001353ae4","study_id":"60edd13110225f80f9f3709b","session_id":"6196c1f20e88d49ac923c347","condition":"full-information","relevant_dimensions":["antennae","legs"],"bee_group":{"antennae":"B","wings":"X","pattern":"X","legs":"F"},"bonus":1.3600000000000008},{"rt":2217,"stimulus":"bees-with-color/bee-B1DF.svg","response":1,"trial_type":"image-button-response","trial_index":31,"time_elapsed":707300,"internal_node_id":"0.0-4.0-0.12","subject_id":"5d3a5858f7ddf70001353ae4","study_id":"60edd13110225f80f9f3709b","session_id":"6196c1f20e88d49ac923c347","condition":"full-information","relevant_dimensions":["antennae","legs"],"bee_group":{"antennae":"B","wings":"X","pattern":"X","legs":"F"},"action":"avoid","summary":"good-avoid","bonus":1.3600000000000008},{"rt":1317,"stimulus":"\n                    <p><b>Action: <em>avoid</em></b></p>\n                    <p>This is the bee that you just saw.</p>\n                    <img src=\"bees-with-color/bee-B1DF.svg\" width=\"200\">\n                    <p><span class=\"greenText\">Good choice!</span>  This bee would have stung you.<br>Your bonus pay is unchanged, and remains at $0.58.</p>\n            ","response":0,"trial_type":"html-button-response","trial_index":32,"time_elapsed":708620,"internal_node_id":"0.0-4.0-1.12","subject_id":"5d3a5858f7ddf70001353ae4","study_id":"60edd13110225f80f9f3709b","session_id":"6196c1f20e88d49ac923c347","condition":"full-information","relevant_dimensions":["antennae","legs"],"bee_group":{"antennae":"B","wings":"X","pattern":"X","legs":"F"},"bonus":1.3600000000000008},{"rt":2057,"stimulus":"bees-with-color/bee-A2DM.svg","response":0,"trial_type":"image-button-response","trial_index":33,"time_elapsed":710679,"internal_node_id":"0.0-4.0-0.13","subject_id":"5d3a5858f7ddf70001353ae4","study_id":"60edd13110225f80f9f3709b","session_id":"6196c1f20e88d49ac923c347","condition":"full-information","relevant_dimensions":["antennae","legs"],"bee_group":{"antennae":"B","wings":"X","pattern":"X","legs":"F"},"action":"harvest","summary":"good-harvest","bonus":1.3600000000000008},{"rt":1178,"stimulus":"\n                    <p><b>Action: <em>harvest</em></b></p>\n                    <p>This is the bee that you just saw.</p>\n                    <img src=\"bees-with-color/bee-A2DM.svg\" width=\"200\">\n                    <p><span class=\"greenText\"><b>Successful harvest!</b></span><br>Your pay has increased by $0.02. Your bonus pay is now $0.60.</p>\n            ","response":0,"trial_type":"html-button-response","trial_index":34,"time_elapsed":711860,"internal_node_id":"0.0-4.0-1.13","subject_id":"5d3a5858f7ddf70001353ae4","study_id":"60edd13110225f80f9f3709b","session_id":"6196c1f20e88d49ac923c347","condition":"full-information","relevant_dimensions":["antennae","legs"],"bee_group":{"antennae":"B","wings":"X","pattern":"X","legs":"F"},"bonus":1.3600000000000008},{"rt":6018,"stimulus":"bees-with-color/bee-A1SF.svg","response":0,"trial_type":"image-button-response","trial_index":35,"time_elapsed":717880,"internal_node_id":"0.0-4.0-0.14","subject_id":"5d3a5858f7ddf70001353ae4","study_id":"60edd13110225f80f9f3709b","session_id":"6196c1f20e88d49ac923c347","condition":"full-information","relevant_dimensions":["antennae","legs"],"bee_group":{"antennae":"B","wings":"X","pattern":"X","legs":"F"},"action":"harvest","summary":"good-harvest","bonus":1.3600000000000008},{"rt":1417,"stimulus":"\n                    <p><b>Action: <em>harvest</em></b></p>\n                    <p>This is the bee that you just saw.</p>\n                    <img src=\"bees-with-color/bee-A1SF.svg\" width=\"200\">\n                    <p><span class=\"greenText\"><b>Successful harvest!</b></span><br>Your pay has increased by $0.02. Your bonus pay is now $0.62.</p>\n            ","response":0,"trial_type":"html-button-response","trial_index":36,"time_elapsed":719300,"internal_node_id":"0.0-4.0-1.14","subject_id":"5d3a5858f7ddf70001353ae4","study_id":"60edd13110225f80f9f3709b","session_id":"6196c1f20e88d49ac923c347","condition":"full-information","relevant_dimensions":["antennae","legs"],"bee_group":{"antennae":"B","wings":"X","pattern":"X","legs":"F"},"bonus":1.3600000000000008},{"rt":2037,"stimulus":"bees-with-color/bee-A2DF.svg","response":0,"trial_type":"image-button-response","trial_index":37,"time_elapsed":721338,"internal_node_id":"0.0-4.0-0.15","subject_id":"5d3a5858f7ddf70001353ae4","study_id":"60edd13110225f80f9f3709b","session_id":"6196c1f20e88d49ac923c347","condition":"full-information","relevant_dimensions":["antennae","legs"],"bee_group":{"antennae":"B","wings":"X","pattern":"X","legs":"F"},"action":"harvest","summary":"good-harvest","bonus":1.3600000000000008},{"rt":1240,"stimulus":"\n                    <p><b>Action: <em>harvest</em></b></p>\n                    <p>This is the bee that you just saw.</p>\n                    <img src=\"bees-with-color/bee-A2DF.svg\" width=\"200\">\n                    <p><span class=\"greenText\"><b>Successful harvest!</b></span><br>Your pay has increased by $0.02. Your bonus pay is now $0.64.</p>\n            ","response":0,"trial_type":"html-button-response","trial_index":38,"time_elapsed":722580,"internal_node_id":"0.0-4.0-1.15","subject_id":"5d3a5858f7ddf70001353ae4","study_id":"60edd13110225f80f9f3709b","session_id":"6196c1f20e88d49ac923c347","condition":"full-information","relevant_dimensions":["antennae","legs"],"bee_group":{"antennae":"B","wings":"X","pattern":"X","legs":"F"},"bonus":1.3600000000000008},{"rt":2917,"stimulus":"bees-with-color/bee-B2DF.svg","response":1,"trial_type":"image-button-response","trial_index":39,"time_elapsed":725500,"internal_node_id":"0.0-4.0-0.16","subject_id":"5d3a5858f7ddf70001353ae4","study_id":"60edd13110225f80f9f3709b","session_id":"6196c1f20e88d49ac923c347","condition":"full-information","relevant_dimensions":["antennae","legs"],"bee_group":{"antennae":"B","wings":"X","pattern":"X","legs":"F"},"action":"avoid","summary":"good-avoid","bonus":1.3600000000000008},{"rt":1236,"stimulus":"\n                    <p><b>Action: <em>avoid</em></b></p>\n                    <p>This is the bee that you just saw.</p>\n                    <img src=\"bees-with-color/bee-B2DF.svg\" width=\"200\">\n                    <p><span class=\"greenText\">Good choice!</span>  This bee would have stung you.<br>Your bonus pay is unchanged, and remains at $0.64.</p>\n            ","response":0,"trial_type":"html-button-response","trial_index":40,"time_elapsed":726738,"internal_node_id":"0.0-4.0-1.16","subject_id":"5d3a5858f7ddf70001353ae4","study_id":"60edd13110225f80f9f3709b","session_id":"6196c1f20e88d49ac923c347","condition":"full-information","relevant_dimensions":["antennae","legs"],"bee_group":{"antennae":"B","wings":"X","pattern":"X","legs":"F"},"bonus":1.3600000000000008},{"rt":1580,"stimulus":"bees-with-color/bee-A1SM.svg","response":0,"trial_type":"image-button-response","trial_index":41,"time_elapsed":728320,"internal_node_id":"0.0-4.0-0.17","subject_id":"5d3a5858f7ddf70001353ae4","study_id":"60edd13110225f80f9f3709b","session_id":"6196c1f20e88d49ac923c347","condition":"full-information","relevant_dimensions":["antennae","legs"],"bee_group":{"antennae":"B","wings":"X","pattern":"X","legs":"F"},"action":"harvest","summary":"good-harvest","bonus":1.3600000000000008},{"rt":1237,"stimulus":"\n                    <p><b>Action: <em>harvest</em></b></p>\n                    <p>This is the bee that you just saw.</p>\n                    <img src=\"bees-with-color/bee-A1SM.svg\" width=\"200\">\n                    <p><span class=\"greenText\"><b>Successful harvest!</b></span><br>Your pay has increased by $0.02. Your bonus pay is now $0.66.</p>\n            ","response":0,"trial_type":"html-button-response","trial_index":42,"time_elapsed":729559,"internal_node_id":"0.0-4.0-1.17","subject_id":"5d3a5858f7ddf70001353ae4","study_id":"60edd13110225f80f9f3709b","session_id":"6196c1f20e88d49ac923c347","condition":"full-information","relevant_dimensions":["antennae","legs"],"bee_group":{"antennae":"B","wings":"X","pattern":"X","legs":"F"},"bonus":1.3600000000000008},{"rt":1518,"stimulus":"bees-with-color/bee-A2DM.svg","response":0,"trial_type":"image-button-response","trial_index":43,"time_elapsed":731080,"internal_node_id":"0.0-4.0-0.18","subject_id":"5d3a5858f7ddf70001353ae4","study_id":"60edd13110225f80f9f3709b","session_id":"6196c1f20e88d49ac923c347","condition":"full-information","relevant_dimensions":["antennae","legs"],"bee_group":{"antennae":"B","wings":"X","pattern":"X","legs":"F"},"action":"harvest","summary":"good-harvest","bonus":1.3600000000000008},{"rt":1097,"stimulus":"\n                    <p><b>Action: <em>harvest</em></b></p>\n                    <p>This is the bee that you just saw.</p>\n                    <img src=\"bees-with-color/bee-A2DM.svg\" width=\"200\">\n                    <p><span class=\"greenText\"><b>Successful harvest!</b></span><br>Your pay has increased by $0.02. Your bonus pay is now $0.68.</p>\n            ","response":0,"trial_type":"html-button-response","trial_index":44,"time_elapsed":732179,"internal_node_id":"0.0-4.0-1.18","subject_id":"5d3a5858f7ddf70001353ae4","study_id":"60edd13110225f80f9f3709b","session_id":"6196c1f20e88d49ac923c347","condition":"full-information","relevant_dimensions":["antennae","legs"],"bee_group":{"antennae":"B","wings":"X","pattern":"X","legs":"F"},"bonus":1.3600000000000008},{"rt":2199,"stimulus":"bees-with-color/bee-B2SF.svg","response":1,"trial_type":"image-button-response","trial_index":45,"time_elapsed":734380,"internal_node_id":"0.0-4.0-0.19","subject_id":"5d3a5858f7ddf70001353ae4","study_id":"60edd13110225f80f9f3709b","session_id":"6196c1f20e88d49ac923c347","condition":"full-information","relevant_dimensions":["antennae","legs"],"bee_group":{"antennae":"B","wings":"X","pattern":"X","legs":"F"},"action":"avoid","summary":"good-avoid","bonus":1.3600000000000008},{"rt":1058,"stimulus":"\n                    <p><b>Action: <em>avoid</em></b></p>\n                    <p>This is the bee that you just saw.</p>\n                    <img src=\"bees-with-color/bee-B2SF.svg\" width=\"200\">\n                    <p><span class=\"greenText\">Good choice!</span>  This bee would have stung you.<br>Your bonus pay is unchanged, and remains at $0.68.</p>\n            ","response":0,"trial_type":"html-button-response","trial_index":46,"time_elapsed":735440,"internal_node_id":"0.0-4.0-1.19","subject_id":"5d3a5858f7ddf70001353ae4","study_id":"60edd13110225f80f9f3709b","session_id":"6196c1f20e88d49ac923c347","condition":"full-information","relevant_dimensions":["antennae","legs"],"bee_group":{"antennae":"B","wings":"X","pattern":"X","legs":"F"},"bonus":1.3600000000000008},{"rt":1718,"stimulus":"bees-with-color/bee-B1SM.svg","response":0,"trial_type":"image-button-response","trial_index":47,"time_elapsed":737160,"internal_node_id":"0.0-4.0-0.20","subject_id":"5d3a5858f7ddf70001353ae4","study_id":"60edd13110225f80f9f3709b","session_id":"6196c1f20e88d49ac923c347","condition":"full-information","relevant_dimensions":["antennae","legs"],"bee_group":{"antennae":"B","wings":"X","pattern":"X","legs":"F"},"action":"harvest","summary":"good-harvest","bonus":1.3600000000000008},{"rt":1137,"stimulus":"\n                    <p><b>Action: <em>harvest</em></b></p>\n                    <p>This is the bee that you just saw.</p>\n                    <img src=\"bees-with-color/bee-B1SM.svg\" width=\"200\">\n                    <p><span class=\"greenText\"><b>Successful harvest!</b></span><br>Your pay has increased by $0.02. Your bonus pay is now $0.70.</p>\n            ","response":0,"trial_type":"html-button-response","trial_index":48,"time_elapsed":738300,"internal_node_id":"0.0-4.0-1.20","subject_id":"5d3a5858f7ddf70001353ae4","study_id":"60edd13110225f80f9f3709b","session_id":"6196c1f20e88d49ac923c347","condition":"full-information","relevant_dimensions":["antennae","legs"],"bee_group":{"antennae":"B","wings":"X","pattern":"X","legs":"F"},"bonus":1.3600000000000008},{"rt":1358,"stimulus":"bees-with-color/bee-A1DM.svg","response":0,"trial_type":"image-button-response","trial_index":49,"time_elapsed":739660,"internal_node_id":"0.0-4.0-0.21","subject_id":"5d3a5858f7ddf70001353ae4","study_id":"60edd13110225f80f9f3709b","session_id":"6196c1f20e88d49ac923c347","condition":"full-information","relevant_dimensions":["antennae","legs"],"bee_group":{"antennae":"B","wings":"X","pattern":"X","legs":"F"},"action":"harvest","summary":"good-harvest","bonus":1.3600000000000008},{"rt":1098,"stimulus":"\n                    <p><b>Action: <em>harvest</em></b></p>\n                    <p>This is the bee that you just saw.</p>\n                    <img src=\"bees-with-color/bee-A1DM.svg\" width=\"200\">\n                    <p><span class=\"greenText\"><b>Successful harvest!</b></span><br>Your pay has increased by $0.02. Your bonus pay is now $0.72.</p>\n            ","response":0,"trial_type":"html-button-response","trial_index":50,"time_elapsed":740759,"internal_node_id":"0.0-4.0-1.21","subject_id":"5d3a5858f7ddf70001353ae4","study_id":"60edd13110225f80f9f3709b","session_id":"6196c1f20e88d49ac923c347","condition":"full-information","relevant_dimensions":["antennae","legs"],"bee_group":{"antennae":"B","wings":"X","pattern":"X","legs":"F"},"bonus":1.3600000000000008},{"rt":1435,"stimulus":"bees-with-color/bee-B2DM.svg","response":0,"trial_type":"image-button-response","trial_index":51,"time_elapsed":742195,"internal_node_id":"0.0-4.0-0.22","subject_id":"5d3a5858f7ddf70001353ae4","study_id":"60edd13110225f80f9f3709b","session_id":"6196c1f20e88d49ac923c347","condition":"full-information","relevant_dimensions":["antennae","legs"],"bee_group":{"antennae":"B","wings":"X","pattern":"X","legs":"F"},"action":"harvest","summary":"good-harvest","bonus":1.3600000000000008},{"rt":1101,"stimulus":"\n                    <p><b>Action: <em>harvest</em></b></p>\n                    <p>This is the bee that you just saw.</p>\n                    <img src=\"bees-with-color/bee-B2DM.svg\" width=\"200\">\n                    <p><span class=\"greenText\"><b>Successful harvest!</b></span><br>Your pay has increased by $0.02. Your bonus pay is now $0.74.</p>\n            ","response":0,"trial_type":"html-button-response","trial_index":52,"time_elapsed":743297,"internal_node_id":"0.0-4.0-1.22","subject_id":"5d3a5858f7ddf70001353ae4","study_id":"60edd13110225f80f9f3709b","session_id":"6196c1f20e88d49ac923c347","condition":"full-information","relevant_dimensions":["antennae","legs"],"bee_group":{"antennae":"B","wings":"X","pattern":"X","legs":"F"},"bonus":1.3600000000000008},{"rt":1480,"stimulus":"bees-with-color/bee-A2DF.svg","response":0,"trial_type":"image-button-response","trial_index":53,"time_elapsed":744779,"internal_node_id":"0.0-4.0-0.23","subject_id":"5d3a5858f7ddf70001353ae4","study_id":"60edd13110225f80f9f3709b","session_id":"6196c1f20e88d49ac923c347","condition":"full-information","relevant_dimensions":["antennae","legs"],"bee_group":{"antennae":"B","wings":"X","pattern":"X","legs":"F"},"action":"harvest","summary":"good-harvest","bonus":1.3600000000000008},{"rt":1089,"stimulus":"\n                    <p><b>Action: <em>harvest</em></b></p>\n                    <p>This is the bee that you just saw.</p>\n                    <img src=\"bees-with-color/bee-A2DF.svg\" width=\"200\">\n                    <p><span class=\"greenText\"><b>Successful harvest!</b></span><br>Your pay has increased by $0.02. Your bonus pay is now $0.76.</p>\n            ","response":0,"trial_type":"html-button-response","trial_index":54,"time_elapsed":745870,"internal_node_id":"0.0-4.0-1.23","subject_id":"5d3a5858f7ddf70001353ae4","study_id":"60edd13110225f80f9f3709b","session_id":"6196c1f20e88d49ac923c347","condition":"full-information","relevant_dimensions":["antennae","legs"],"bee_group":{"antennae":"B","wings":"X","pattern":"X","legs":"F"},"bonus":1.3600000000000008},{"rt":1379,"stimulus":"bees-with-color/bee-A2SM.svg","response":0,"trial_type":"image-button-response","trial_index":55,"time_elapsed":747250,"internal_node_id":"0.0-4.0-0.24","subject_id":"5d3a5858f7ddf70001353ae4","study_id":"60edd13110225f80f9f3709b","session_id":"6196c1f20e88d49ac923c347","condition":"full-information","relevant_dimensions":["antennae","legs"],"bee_group":{"antennae":"B","wings":"X","pattern":"X","legs":"F"},"action":"harvest","summary":"good-harvest","bonus":1.3600000000000008},{"rt":1136,"stimulus":"\n                    <p><b>Action: <em>harvest</em></b></p>\n                    <p>This is the bee that you just saw.</p>\n                    <img src=\"bees-with-color/bee-A2SM.svg\" width=\"200\">\n                    <p><span class=\"greenText\"><b>Successful harvest!</b></span><br>Your pay has increased by $0.02. Your bonus pay is now $0.78.</p>\n            ","response":0,"trial_type":"html-button-response","trial_index":56,"time_elapsed":748388,"internal_node_id":"0.0-4.0-1.24","subject_id":"5d3a5858f7ddf70001353ae4","study_id":"60edd13110225f80f9f3709b","session_id":"6196c1f20e88d49ac923c347","condition":"full-information","relevant_dimensions":["antennae","legs"],"bee_group":{"antennae":"B","wings":"X","pattern":"X","legs":"F"},"bonus":1.3600000000000008},{"rt":1580,"stimulus":"bees-with-color/bee-B2SM.svg","response":0,"trial_type":"image-button-response","trial_index":57,"time_elapsed":749969,"internal_node_id":"0.0-4.0-0.25","subject_id":"5d3a5858f7ddf70001353ae4","study_id":"60edd13110225f80f9f3709b","session_id":"6196c1f20e88d49ac923c347","condition":"full-information","relevant_dimensions":["antennae","legs"],"bee_group":{"antennae":"B","wings":"X","pattern":"X","legs":"F"},"action":"harvest","summary":"good-harvest","bonus":1.3600000000000008},{"rt":1097,"stimulus":"\n                    <p><b>Action: <em>harvest</em></b></p>\n                    <p>This is the bee that you just saw.</p>\n                    <img src=\"bees-with-color/bee-B2SM.svg\" width=\"200\">\n                    <p><span class=\"greenText\"><b>Successful harvest!</b></span><br>Your pay has increased by $0.02. Your bonus pay is now $0.80.</p>\n            ","response":0,"trial_type":"html-button-response","trial_index":58,"time_elapsed":751070,"internal_node_id":"0.0-4.0-1.25","subject_id":"5d3a5858f7ddf70001353ae4","study_id":"60edd13110225f80f9f3709b","session_id":"6196c1f20e88d49ac923c347","condition":"full-information","relevant_dimensions":["antennae","legs"],"bee_group":{"antennae":"B","wings":"X","pattern":"X","legs":"F"},"bonus":1.3600000000000008},{"rt":1318,"stimulus":"bees-with-color/bee-B1DM.svg","response":0,"trial_type":"image-button-response","trial_index":59,"time_elapsed":752390,"internal_node_id":"0.0-4.0-0.26","subject_id":"5d3a5858f7ddf70001353ae4","study_id":"60edd13110225f80f9f3709b","session_id":"6196c1f20e88d49ac923c347","condition":"full-information","relevant_dimensions":["antennae","legs"],"bee_group":{"antennae":"B","wings":"X","pattern":"X","legs":"F"},"action":"harvest","summary":"good-harvest","bonus":1.3600000000000008},{"rt":1817,"stimulus":"\n                    <p><b>Action: <em>harvest</em></b></p>\n                    <p>This is the bee that you just saw.</p>\n                    <img src=\"bees-with-color/bee-B1DM.svg\" width=\"200\">\n                    <p><span class=\"greenText\"><b>Successful harvest!</b></span><br>Your pay has increased by $0.02. Your bonus pay is now $0.82.</p>\n            ","response":0,"trial_type":"html-button-response","trial_index":60,"time_elapsed":754210,"internal_node_id":"0.0-4.0-1.26","subject_id":"5d3a5858f7ddf70001353ae4","study_id":"60edd13110225f80f9f3709b","session_id":"6196c1f20e88d49ac923c347","condition":"full-information","relevant_dimensions":["antennae","legs"],"bee_group":{"antennae":"B","wings":"X","pattern":"X","legs":"F"},"bonus":1.3600000000000008},{"rt":1818,"stimulus":"bees-with-color/bee-A1DF.svg","response":0,"trial_type":"image-button-response","trial_index":61,"time_elapsed":756030,"internal_node_id":"0.0-4.0-0.27","subject_id":"5d3a5858f7ddf70001353ae4","study_id":"60edd13110225f80f9f3709b","session_id":"6196c1f20e88d49ac923c347","condition":"full-information","relevant_dimensions":["antennae","legs"],"bee_group":{"antennae":"B","wings":"X","pattern":"X","legs":"F"},"action":"harvest","summary":"good-harvest","bonus":1.3600000000000008},{"rt":1275,"stimulus":"\n                    <p><b>Action: <em>harvest</em></b></p>\n                    <p>This is the bee that you just saw.</p>\n                    <img src=\"bees-with-color/bee-A1DF.svg\" width=\"200\">\n                    <p><span class=\"greenText\"><b>Successful harvest!</b></span><br>Your pay has increased by $0.02. Your bonus pay is now $0.84.</p>\n            ","response":0,"trial_type":"html-button-response","trial_index":62,"time_elapsed":757308,"internal_node_id":"0.0-4.0-1.27","subject_id":"5d3a5858f7ddf70001353ae4","study_id":"60edd13110225f80f9f3709b","session_id":"6196c1f20e88d49ac923c347","condition":"full-information","relevant_dimensions":["antennae","legs"],"bee_group":{"antennae":"B","wings":"X","pattern":"X","legs":"F"},"bonus":1.3600000000000008},{"rt":1601,"stimulus":"bees-with-color/bee-B1SF.svg","response":1,"trial_type":"image-button-response","trial_index":63,"time_elapsed":758910,"internal_node_id":"0.0-4.0-0.28","subject_id":"5d3a5858f7ddf70001353ae4","study_id":"60edd13110225f80f9f3709b","session_id":"6196c1f20e88d49ac923c347","condition":"full-information","relevant_dimensions":["antennae","legs"],"bee_group":{"antennae":"B","wings":"X","pattern":"X","legs":"F"},"action":"avoid","summary":"good-avoid","bonus":1.3600000000000008},{"rt":1017,"stimulus":"\n                    <p><b>Action: <em>avoid</em></b></p>\n                    <p>This is the bee that you just saw.</p>\n                    <img src=\"bees-with-color/bee-B1SF.svg\" width=\"200\">\n                    <p><span class=\"greenText\">Good choice!</span>  This bee would have stung you.<br>Your bonus pay is unchanged, and remains at $0.84.</p>\n            ","response":0,"trial_type":"html-button-response","trial_index":64,"time_elapsed":759929,"internal_node_id":"0.0-4.0-1.28","subject_id":"5d3a5858f7ddf70001353ae4","study_id":"60edd13110225f80f9f3709b","session_id":"6196c1f20e88d49ac923c347","condition":"full-information","relevant_dimensions":["antennae","legs"],"bee_group":{"antennae":"B","wings":"X","pattern":"X","legs":"F"},"bonus":1.3600000000000008},{"rt":2078,"stimulus":"bees-with-color/bee-B1DF.svg","response":1,"trial_type":"image-button-response","trial_index":65,"time_elapsed":762010,"internal_node_id":"0.0-4.0-0.29","subject_id":"5d3a5858f7ddf70001353ae4","study_id":"60edd13110225f80f9f3709b","session_id":"6196c1f20e88d49ac923c347","condition":"full-information","relevant_dimensions":["antennae","legs"],"bee_group":{"antennae":"B","wings":"X","pattern":"X","legs":"F"},"action":"avoid","summary":"good-avoid","bonus":1.3600000000000008},{"rt":1307,"stimulus":"\n                    <p><b>Action: <em>avoid</em></b></p>\n                    <p>This is the bee that you just saw.</p>\n                    <img src=\"bees-with-color/bee-B1DF.svg\" width=\"200\">\n                    <p><span class=\"greenText\">Good choice!</span>  This bee would have stung you.<br>Your bonus pay is unchanged, and remains at $0.84.</p>\n            ","response":0,"trial_type":"html-button-response","trial_index":66,"time_elapsed":763320,"internal_node_id":"0.0-4.0-1.29","subject_id":"5d3a5858f7ddf70001353ae4","study_id":"60edd13110225f80f9f3709b","session_id":"6196c1f20e88d49ac923c347","condition":"full-information","relevant_dimensions":["antennae","legs"],"bee_group":{"antennae":"B","wings":"X","pattern":"X","legs":"F"},"bonus":1.3600000000000008},{"rt":1579,"stimulus":"bees-with-color/bee-A1SF.svg","response":0,"trial_type":"image-button-response","trial_index":67,"time_elapsed":764900,"internal_node_id":"0.0-4.0-0.30","subject_id":"5d3a5858f7ddf70001353ae4","study_id":"60edd13110225f80f9f3709b","session_id":"6196c1f20e88d49ac923c347","condition":"full-information","relevant_dimensions":["antennae","legs"],"bee_group":{"antennae":"B","wings":"X","pattern":"X","legs":"F"},"action":"harvest","summary":"good-harvest","bonus":1.3600000000000008},{"rt":1020,"stimulus":"\n                    <p><b>Action: <em>harvest</em></b></p>\n                    <p>This is the bee that you just saw.</p>\n                    <img src=\"bees-with-color/bee-A1SF.svg\" width=\"200\">\n                    <p><span class=\"greenText\"><b>Successful harvest!</b></span><br>Your pay has increased by $0.02. Your bonus pay is now $0.86.</p>\n            ","response":0,"trial_type":"html-button-response","trial_index":68,"time_elapsed":765923,"internal_node_id":"0.0-4.0-1.30","subject_id":"5d3a5858f7ddf70001353ae4","study_id":"60edd13110225f80f9f3709b","session_id":"6196c1f20e88d49ac923c347","condition":"full-information","relevant_dimensions":["antennae","legs"],"bee_group":{"antennae":"B","wings":"X","pattern":"X","legs":"F"},"bonus":1.3600000000000008},{"rt":1555,"stimulus":"bees-with-color/bee-A2SF.svg","response":0,"trial_type":"image-button-response","trial_index":69,"time_elapsed":767480,"internal_node_id":"0.0-4.0-0.31","subject_id":"5d3a5858f7ddf70001353ae4","study_id":"60edd13110225f80f9f3709b","session_id":"6196c1f20e88d49ac923c347","condition":"full-information","relevant_dimensions":["antennae","legs"],"bee_group":{"antennae":"B","wings":"X","pattern":"X","legs":"F"},"action":"harvest","summary":"good-harvest","bonus":1.3600000000000008},{"rt":1017,"stimulus":"\n                    <p><b>Action: <em>harvest</em></b></p>\n                    <p>This is the bee that you just saw.</p>\n                    <img src=\"bees-with-color/bee-A2SF.svg\" width=\"200\">\n                    <p><span class=\"greenText\"><b>Successful harvest!</b></span><br>Your pay has increased by $0.02. Your bonus pay is now $0.88.</p>\n            ","response":0,"trial_type":"html-button-response","trial_index":70,"time_elapsed":768499,"internal_node_id":"0.0-4.0-1.31","subject_id":"5d3a5858f7ddf70001353ae4","study_id":"60edd13110225f80f9f3709b","session_id":"6196c1f20e88d49ac923c347","condition":"full-information","relevant_dimensions":["antennae","legs"],"bee_group":{"antennae":"B","wings":"X","pattern":"X","legs":"F"},"bonus":1.3600000000000008},{"rt":1297,"stimulus":"bees-with-color/bee-B2SM.svg","response":0,"trial_type":"image-button-response","trial_index":71,"time_elapsed":769799,"internal_node_id":"0.0-4.0-0.32","subject_id":"5d3a5858f7ddf70001353ae4","study_id":"60edd13110225f80f9f3709b","session_id":"6196c1f20e88d49ac923c347","condition":"full-information","relevant_dimensions":["antennae","legs"],"bee_group":{"antennae":"B","wings":"X","pattern":"X","legs":"F"},"action":"harvest","summary":"good-harvest","bonus":1.3600000000000008},{"rt":1119,"stimulus":"\n                    <p><b>Action: <em>harvest</em></b></p>\n                    <p>This is the bee that you just saw.</p>\n                    <img src=\"bees-with-color/bee-B2SM.svg\" width=\"200\">\n                    <p><span class=\"greenText\"><b>Successful harvest!</b></span><br>Your pay has increased by $0.02. Your bonus pay is now $0.90.</p>\n            ","response":0,"trial_type":"html-button-response","trial_index":72,"time_elapsed":770920,"internal_node_id":"0.0-4.0-1.32","subject_id":"5d3a5858f7ddf70001353ae4","study_id":"60edd13110225f80f9f3709b","session_id":"6196c1f20e88d49ac923c347","condition":"full-information","relevant_dimensions":["antennae","legs"],"bee_group":{"antennae":"B","wings":"X","pattern":"X","legs":"F"},"bonus":1.3600000000000008},{"rt":1417,"stimulus":"bees-with-color/bee-B2SF.svg","response":1,"trial_type":"image-button-response","trial_index":73,"time_elapsed":772340,"internal_node_id":"0.0-4.0-0.33","subject_id":"5d3a5858f7ddf70001353ae4","study_id":"60edd13110225f80f9f3709b","session_id":"6196c1f20e88d49ac923c347","condition":"full-information","relevant_dimensions":["antennae","legs"],"bee_group":{"antennae":"B","wings":"X","pattern":"X","legs":"F"},"action":"avoid","summary":"good-avoid","bonus":1.3600000000000008},{"rt":1135,"stimulus":"\n                    <p><b>Action: <em>avoid</em></b></p>\n                    <p>This is the bee that you just saw.</p>\n                    <img src=\"bees-with-color/bee-B2SF.svg\" width=\"200\">\n                    <p><span class=\"greenText\">Good choice!</span>  This bee would have stung you.<br>Your bonus pay is unchanged, and remains at $0.90.</p>\n            ","response":0,"trial_type":"html-button-response","trial_index":74,"time_elapsed":773477,"internal_node_id":"0.0-4.0-1.33","subject_id":"5d3a5858f7ddf70001353ae4","study_id":"60edd13110225f80f9f3709b","session_id":"6196c1f20e88d49ac923c347","condition":"full-information","relevant_dimensions":["antennae","legs"],"bee_group":{"antennae":"B","wings":"X","pattern":"X","legs":"F"},"bonus":1.3600000000000008},{"rt":1441,"stimulus":"bees-with-color/bee-B2DM.svg","response":0,"trial_type":"image-button-response","trial_index":75,"time_elapsed":774919,"internal_node_id":"0.0-4.0-0.34","subject_id":"5d3a5858f7ddf70001353ae4","study_id":"60edd13110225f80f9f3709b","session_id":"6196c1f20e88d49ac923c347","condition":"full-information","relevant_dimensions":["antennae","legs"],"bee_group":{"antennae":"B","wings":"X","pattern":"X","legs":"F"},"action":"harvest","summary":"good-harvest","bonus":1.3600000000000008},{"rt":1379,"stimulus":"\n                    <p><b>Action: <em>harvest</em></b></p>\n                    <p>This is the bee that you just saw.</p>\n                    <img src=\"bees-with-color/bee-B2DM.svg\" width=\"200\">\n                    <p><span class=\"greenText\"><b>Successful harvest!</b></span><br>Your pay has increased by $0.02. Your bonus pay is now $0.92.</p>\n            ","response":0,"trial_type":"html-button-response","trial_index":76,"time_elapsed":776300,"internal_node_id":"0.0-4.0-1.34","subject_id":"5d3a5858f7ddf70001353ae4","study_id":"60edd13110225f80f9f3709b","session_id":"6196c1f20e88d49ac923c347","condition":"full-information","relevant_dimensions":["antennae","legs"],"bee_group":{"antennae":"B","wings":"X","pattern":"X","legs":"F"},"bonus":1.3600000000000008},{"rt":1298,"stimulus":"bees-with-color/bee-B1SF.svg","response":1,"trial_type":"image-button-response","trial_index":77,"time_elapsed":777600,"internal_node_id":"0.0-4.0-0.35","subject_id":"5d3a5858f7ddf70001353ae4","study_id":"60edd13110225f80f9f3709b","session_id":"6196c1f20e88d49ac923c347","condition":"full-information","relevant_dimensions":["antennae","legs"],"bee_group":{"antennae":"B","wings":"X","pattern":"X","legs":"F"},"action":"avoid","summary":"good-avoid","bonus":1.3600000000000008},{"rt":1478,"stimulus":"\n                    <p><b>Action: <em>avoid</em></b></p>\n                    <p>This is the bee that you just saw.</p>\n                    <img src=\"bees-with-color/bee-B1SF.svg\" width=\"200\">\n                    <p><span class=\"greenText\">Good choice!</span>  This bee would have stung you.<br>Your bonus pay is unchanged, and remains at $0.92.</p>\n            ","response":0,"trial_type":"html-button-response","trial_index":78,"time_elapsed":779079,"internal_node_id":"0.0-4.0-1.35","subject_id":"5d3a5858f7ddf70001353ae4","study_id":"60edd13110225f80f9f3709b","session_id":"6196c1f20e88d49ac923c347","condition":"full-information","relevant_dimensions":["antennae","legs"],"bee_group":{"antennae":"B","wings":"X","pattern":"X","legs":"F"},"bonus":1.3600000000000008},{"rt":1337,"stimulus":"bees-with-color/bee-A1DM.svg","response":0,"trial_type":"image-button-response","trial_index":79,"time_elapsed":780420,"internal_node_id":"0.0-4.0-0.36","subject_id":"5d3a5858f7ddf70001353ae4","study_id":"60edd13110225f80f9f3709b","session_id":"6196c1f20e88d49ac923c347","condition":"full-information","relevant_dimensions":["antennae","legs"],"bee_group":{"antennae":"B","wings":"X","pattern":"X","legs":"F"},"action":"harvest","summary":"good-harvest","bonus":1.3600000000000008},{"rt":1278,"stimulus":"\n                    <p><b>Action: <em>harvest</em></b></p>\n                    <p>This is the bee that you just saw.</p>\n                    <img src=\"bees-with-color/bee-A1DM.svg\" width=\"200\">\n                    <p><span class=\"greenText\"><b>Successful harvest!</b></span><br>Your pay has increased by $0.02. Your bonus pay is now $0.94.</p>\n            ","response":0,"trial_type":"html-button-response","trial_index":80,"time_elapsed":781700,"internal_node_id":"0.0-4.0-1.36","subject_id":"5d3a5858f7ddf70001353ae4","study_id":"60edd13110225f80f9f3709b","session_id":"6196c1f20e88d49ac923c347","condition":"full-information","relevant_dimensions":["antennae","legs"],"bee_group":{"antennae":"B","wings":"X","pattern":"X","legs":"F"},"bonus":1.3600000000000008},{"rt":1536,"stimulus":"bees-with-color/bee-A2DF.svg","response":0,"trial_type":"image-button-response","trial_index":81,"time_elapsed":783238,"internal_node_id":"0.0-4.0-0.37","subject_id":"5d3a5858f7ddf70001353ae4","study_id":"60edd13110225f80f9f3709b","session_id":"6196c1f20e88d49ac923c347","condition":"full-information","relevant_dimensions":["antennae","legs"],"bee_group":{"antennae":"B","wings":"X","pattern":"X","legs":"F"},"action":"harvest","summary":"good-harvest","bonus":1.3600000000000008},{"rt":1181,"stimulus":"\n                    <p><b>Action: <em>harvest</em></b></p>\n                    <p>This is the bee that you just saw.</p>\n                    <img src=\"bees-with-color/bee-A2DF.svg\" width=\"200\">\n                    <p><span class=\"greenText\"><b>Successful harvest!</b></span><br>Your pay has increased by $0.02. Your bonus pay is now $0.96.</p>\n            ","response":0,"trial_type":"html-button-response","trial_index":82,"time_elapsed":784420,"internal_node_id":"0.0-4.0-1.37","subject_id":"5d3a5858f7ddf70001353ae4","study_id":"60edd13110225f80f9f3709b","session_id":"6196c1f20e88d49ac923c347","condition":"full-information","relevant_dimensions":["antennae","legs"],"bee_group":{"antennae":"B","wings":"X","pattern":"X","legs":"F"},"bonus":1.3600000000000008},{"rt":1518,"stimulus":"bees-with-color/bee-B1DM.svg","response":0,"trial_type":"image-button-response","trial_index":83,"time_elapsed":785939,"internal_node_id":"0.0-4.0-0.38","subject_id":"5d3a5858f7ddf70001353ae4","study_id":"60edd13110225f80f9f3709b","session_id":"6196c1f20e88d49ac923c347","condition":"full-information","relevant_dimensions":["antennae","legs"],"bee_group":{"antennae":"B","wings":"X","pattern":"X","legs":"F"},"action":"harvest","summary":"good-harvest","bonus":1.3600000000000008},{"rt":1137,"stimulus":"\n                    <p><b>Action: <em>harvest</em></b></p>\n                    <p>This is the bee that you just saw.</p>\n                    <img src=\"bees-with-color/bee-B1DM.svg\" width=\"200\">\n                    <p><span class=\"greenText\"><b>Successful harvest!</b></span><br>Your pay has increased by $0.02. Your bonus pay is now $0.98.</p>\n            ","response":0,"trial_type":"html-button-response","trial_index":84,"time_elapsed":787080,"internal_node_id":"0.0-4.0-1.38","subject_id":"5d3a5858f7ddf70001353ae4","study_id":"60edd13110225f80f9f3709b","session_id":"6196c1f20e88d49ac923c347","condition":"full-information","relevant_dimensions":["antennae","legs"],"bee_group":{"antennae":"B","wings":"X","pattern":"X","legs":"F"},"bonus":1.3600000000000008},{"rt":1078,"stimulus":"bees-with-color/bee-A2SM.svg","response":0,"trial_type":"image-button-response","trial_index":85,"time_elapsed":788159,"internal_node_id":"0.0-4.0-0.39","subject_id":"5d3a5858f7ddf70001353ae4","study_id":"60edd13110225f80f9f3709b","session_id":"6196c1f20e88d49ac923c347","condition":"full-information","relevant_dimensions":["antennae","legs"],"bee_group":{"antennae":"B","wings":"X","pattern":"X","legs":"F"},"action":"harvest","summary":"good-harvest","bonus":1.3600000000000008},{"rt":1198,"stimulus":"\n                    <p><b>Action: <em>harvest</em></b></p>\n                    <p>This is the bee that you just saw.</p>\n                    <img src=\"bees-with-color/bee-A2SM.svg\" width=\"200\">\n                    <p><span class=\"greenText\"><b>Successful harvest!</b></span><br>Your pay has increased by $0.02. Your bonus pay is now $1.00.</p>\n            ","response":0,"trial_type":"html-button-response","trial_index":86,"time_elapsed":789360,"internal_node_id":"0.0-4.0-1.39","subject_id":"5d3a5858f7ddf70001353ae4","study_id":"60edd13110225f80f9f3709b","session_id":"6196c1f20e88d49ac923c347","condition":"full-information","relevant_dimensions":["antennae","legs"],"bee_group":{"antennae":"B","wings":"X","pattern":"X","legs":"F"},"bonus":1.3600000000000008},{"rt":1197,"stimulus":"bees-with-color/bee-A1SM.svg","response":0,"trial_type":"image-button-response","trial_index":87,"time_elapsed":790560,"internal_node_id":"0.0-4.0-0.40","subject_id":"5d3a5858f7ddf70001353ae4","study_id":"60edd13110225f80f9f3709b","session_id":"6196c1f20e88d49ac923c347","condition":"full-information","relevant_dimensions":["antennae","legs"],"bee_group":{"antennae":"B","wings":"X","pattern":"X","legs":"F"},"action":"harvest","summary":"good-harvest","bonus":1.3600000000000008},{"rt":1418,"stimulus":"\n                    <p><b>Action: <em>harvest</em></b></p>\n                    <p>This is the bee that you just saw.</p>\n                    <img src=\"bees-with-color/bee-A1SM.svg\" width=\"200\">\n                    <p><span class=\"greenText\"><b>Successful harvest!</b></span><br>Your pay has increased by $0.02. Your bonus pay is now $1.02.</p>\n            ","response":0,"trial_type":"html-button-response","trial_index":88,"time_elapsed":791980,"internal_node_id":"0.0-4.0-1.40","subject_id":"5d3a5858f7ddf70001353ae4","study_id":"60edd13110225f80f9f3709b","session_id":"6196c1f20e88d49ac923c347","condition":"full-information","relevant_dimensions":["antennae","legs"],"bee_group":{"antennae":"B","wings":"X","pattern":"X","legs":"F"},"bonus":1.3600000000000008},{"rt":996,"stimulus":"bees-with-color/bee-A2DM.svg","response":0,"trial_type":"image-button-response","trial_index":89,"time_elapsed":792978,"internal_node_id":"0.0-4.0-0.41","subject_id":"5d3a5858f7ddf70001353ae4","study_id":"60edd13110225f80f9f3709b","session_id":"6196c1f20e88d49ac923c347","condition":"full-information","relevant_dimensions":["antennae","legs"],"bee_group":{"antennae":"B","wings":"X","pattern":"X","legs":"F"},"action":"harvest","summary":"good-harvest","bonus":1.3600000000000008},{"rt":1179,"stimulus":"\n                    <p><b>Action: <em>harvest</em></b></p>\n                    <p>This is the bee that you just saw.</p>\n                    <img src=\"bees-with-color/bee-A2DM.svg\" width=\"200\">\n                    <p><span class=\"greenText\"><b>Successful harvest!</b></span><br>Your pay has increased by $0.02. Your bonus pay is now $1.04.</p>\n            ","response":0,"trial_type":"html-button-response","trial_index":90,"time_elapsed":794159,"internal_node_id":"0.0-4.0-1.41","subject_id":"5d3a5858f7ddf70001353ae4","study_id":"60edd13110225f80f9f3709b","session_id":"6196c1f20e88d49ac923c347","condition":"full-information","relevant_dimensions":["antennae","legs"],"bee_group":{"antennae":"B","wings":"X","pattern":"X","legs":"F"},"bonus":1.3600000000000008},{"rt":1840,"stimulus":"bees-with-color/bee-A2SF.svg","response":0,"trial_type":"image-button-response","trial_index":91,"time_elapsed":796000,"internal_node_id":"0.0-4.0-0.42","subject_id":"5d3a5858f7ddf70001353ae4","study_id":"60edd13110225f80f9f3709b","session_id":"6196c1f20e88d49ac923c347","condition":"full-information","relevant_dimensions":["antennae","legs"],"bee_group":{"antennae":"B","wings":"X","pattern":"X","legs":"F"},"action":"harvest","summary":"good-harvest","bonus":1.3600000000000008},{"rt":1637,"stimulus":"\n                    <p><b>Action: <em>harvest</em></b></p>\n                    <p>This is the bee that you just saw.</p>\n                    <img src=\"bees-with-color/bee-A2SF.svg\" width=\"200\">\n                    <p><span class=\"greenText\"><b>Successful harvest!</b></span><br>Your pay has increased by $0.02. Your bonus pay is now $1.06.</p>\n            ","response":0,"trial_type":"html-button-response","trial_index":92,"time_elapsed":797639,"internal_node_id":"0.0-4.0-1.42","subject_id":"5d3a5858f7ddf70001353ae4","study_id":"60edd13110225f80f9f3709b","session_id":"6196c1f20e88d49ac923c347","condition":"full-information","relevant_dimensions":["antennae","legs"],"bee_group":{"antennae":"B","wings":"X","pattern":"X","legs":"F"},"bonus":1.3600000000000008},{"rt":1559,"stimulus":"bees-with-color/bee-A1SF.svg","response":0,"trial_type":"image-button-response","trial_index":93,"time_elapsed":799200,"internal_node_id":"0.0-4.0-0.43","subject_id":"5d3a5858f7ddf70001353ae4","study_id":"60edd13110225f80f9f3709b","session_id":"6196c1f20e88d49ac923c347","condition":"full-information","relevant_dimensions":["antennae","legs"],"bee_group":{"antennae":"B","wings":"X","pattern":"X","legs":"F"},"action":"harvest","summary":"good-harvest","bonus":1.3600000000000008},{"rt":996,"stimulus":"\n                    <p><b>Action: <em>harvest</em></b></p>\n                    <p>This is the bee that you just saw.</p>\n                    <img src=\"bees-with-color/bee-A1SF.svg\" width=\"200\">\n                    <p><span class=\"greenText\"><b>Successful harvest!</b></span><br>Your pay has increased by $0.02. Your bonus pay is now $1.08.</p>\n            ","response":0,"trial_type":"html-button-response","trial_index":94,"time_elapsed":800198,"internal_node_id":"0.0-4.0-1.43","subject_id":"5d3a5858f7ddf70001353ae4","study_id":"60edd13110225f80f9f3709b","session_id":"6196c1f20e88d49ac923c347","condition":"full-information","relevant_dimensions":["antennae","legs"],"bee_group":{"antennae":"B","wings":"X","pattern":"X","legs":"F"},"bonus":1.3600000000000008},{"rt":1180,"stimulus":"bees-with-color/bee-A1DF.svg","response":0,"trial_type":"image-button-response","trial_index":95,"time_elapsed":801379,"internal_node_id":"0.0-4.0-0.44","subject_id":"5d3a5858f7ddf70001353ae4","study_id":"60edd13110225f80f9f3709b","session_id":"6196c1f20e88d49ac923c347","condition":"full-information","relevant_dimensions":["antennae","legs"],"bee_group":{"antennae":"B","wings":"X","pattern":"X","legs":"F"},"action":"harvest","summary":"good-harvest","bonus":1.3600000000000008},{"rt":1199,"stimulus":"\n                    <p><b>Action: <em>harvest</em></b></p>\n                    <p>This is the bee that you just saw.</p>\n                    <img src=\"bees-with-color/bee-A1DF.svg\" width=\"200\">\n                    <p><span class=\"greenText\"><b>Successful harvest!</b></span><br>Your pay has increased by $0.02. Your bonus pay is now $1.10.</p>\n            ","response":0,"trial_type":"html-button-response","trial_index":96,"time_elapsed":802580,"internal_node_id":"0.0-4.0-1.44","subject_id":"5d3a5858f7ddf70001353ae4","study_id":"60edd13110225f80f9f3709b","session_id":"6196c1f20e88d49ac923c347","condition":"full-information","relevant_dimensions":["antennae","legs"],"bee_group":{"antennae":"B","wings":"X","pattern":"X","legs":"F"},"bonus":1.3600000000000008},{"rt":1438,"stimulus":"bees-with-color/bee-B2DF.svg","response":1,"trial_type":"image-button-response","trial_index":97,"time_elapsed":804019,"internal_node_id":"0.0-4.0-0.45","subject_id":"5d3a5858f7ddf70001353ae4","study_id":"60edd13110225f80f9f3709b","session_id":"6196c1f20e88d49ac923c347","condition":"full-information","relevant_dimensions":["antennae","legs"],"bee_group":{"antennae":"B","wings":"X","pattern":"X","legs":"F"},"action":"avoid","summary":"good-avoid","bonus":1.3600000000000008},{"rt":1738,"stimulus":"\n                    <p><b>Action: <em>avoid</em></b></p>\n                    <p>This is the bee that you just saw.</p>\n                    <img src=\"bees-with-color/bee-B2DF.svg\" width=\"200\">\n                    <p><span class=\"greenText\">Good choice!</span>  This bee would have stung you.<br>Your bonus pay is unchanged, and remains at $1.10.</p>\n            ","response":0,"trial_type":"html-button-response","trial_index":98,"time_elapsed":805760,"internal_node_id":"0.0-4.0-1.45","subject_id":"5d3a5858f7ddf70001353ae4","study_id":"60edd13110225f80f9f3709b","session_id":"6196c1f20e88d49ac923c347","condition":"full-information","relevant_dimensions":["antennae","legs"],"bee_group":{"antennae":"B","wings":"X","pattern":"X","legs":"F"},"bonus":1.3600000000000008},{"rt":1658,"stimulus":"bees-with-color/bee-B1DF.svg","response":1,"trial_type":"image-button-response","trial_index":99,"time_elapsed":807420,"internal_node_id":"0.0-4.0-0.46","subject_id":"5d3a5858f7ddf70001353ae4","study_id":"60edd13110225f80f9f3709b","session_id":"6196c1f20e88d49ac923c347","condition":"full-information","relevant_dimensions":["antennae","legs"],"bee_group":{"antennae":"B","wings":"X","pattern":"X","legs":"F"},"action":"avoid","summary":"good-avoid","bonus":1.3600000000000008},{"rt":1097,"stimulus":"\n                    <p><b>Action: <em>avoid</em></b></p>\n                    <p>This is the bee that you just saw.</p>\n                    <img src=\"bees-with-color/bee-B1DF.svg\" width=\"200\">\n                    <p><span class=\"greenText\">Good choice!</span>  This bee would have stung you.<br>Your bonus pay is unchanged, and remains at $1.10.</p>\n            ","response":0,"trial_type":"html-button-response","trial_index":100,"time_elapsed":808520,"internal_node_id":"0.0-4.0-1.46","subject_id":"5d3a5858f7ddf70001353ae4","study_id":"60edd13110225f80f9f3709b","session_id":"6196c1f20e88d49ac923c347","condition":"full-information","relevant_dimensions":["antennae","legs"],"bee_group":{"antennae":"B","wings":"X","pattern":"X","legs":"F"},"bonus":1.3600000000000008},{"rt":1758,"stimulus":"bees-with-color/bee-B1SM.svg","response":0,"trial_type":"image-button-response","trial_index":101,"time_elapsed":810280,"internal_node_id":"0.0-4.0-0.47","subject_id":"5d3a5858f7ddf70001353ae4","study_id":"60edd13110225f80f9f3709b","session_id":"6196c1f20e88d49ac923c347","condition":"full-information","relevant_dimensions":["antennae","legs"],"bee_group":{"antennae":"B","wings":"X","pattern":"X","legs":"F"},"action":"harvest","summary":"good-harvest","bonus":1.3600000000000008},{"rt":1136,"stimulus":"\n                    <p><b>Action: <em>harvest</em></b></p>\n                    <p>This is the bee that you just saw.</p>\n                    <img src=\"bees-with-color/bee-B1SM.svg\" width=\"200\">\n                    <p><span class=\"greenText\"><b>Successful harvest!</b></span><br>Your pay has increased by $0.02. Your bonus pay is now $1.12.</p>\n            ","response":0,"trial_type":"html-button-response","trial_index":102,"time_elapsed":811417,"internal_node_id":"0.0-4.0-1.47","subject_id":"5d3a5858f7ddf70001353ae4","study_id":"60edd13110225f80f9f3709b","session_id":"6196c1f20e88d49ac923c347","condition":"full-information","relevant_dimensions":["antennae","legs"],"bee_group":{"antennae":"B","wings":"X","pattern":"X","legs":"F"},"bonus":1.3600000000000008},{"rt":1421,"stimulus":"bees-with-color/bee-A1SF.svg","response":0,"trial_type":"image-button-response","trial_index":103,"time_elapsed":812839,"internal_node_id":"0.0-4.0-0.48","subject_id":"5d3a5858f7ddf70001353ae4","study_id":"60edd13110225f80f9f3709b","session_id":"6196c1f20e88d49ac923c347","condition":"full-information","relevant_dimensions":["antennae","legs"],"bee_group":{"antennae":"B","wings":"X","pattern":"X","legs":"F"},"action":"harvest","summary":"good-harvest","bonus":1.3600000000000008},{"rt":1218,"stimulus":"\n                    <p><b>Action: <em>harvest</em></b></p>\n                    <p>This is the bee that you just saw.</p>\n                    <img src=\"bees-with-color/bee-A1SF.svg\" width=\"200\">\n                    <p><span class=\"greenText\"><b>Successful harvest!</b></span><br>Your pay has increased by $0.02. Your bonus pay is now $1.14.</p>\n            ","response":0,"trial_type":"html-button-response","trial_index":104,"time_elapsed":814059,"internal_node_id":"0.0-4.0-1.48","subject_id":"5d3a5858f7ddf70001353ae4","study_id":"60edd13110225f80f9f3709b","session_id":"6196c1f20e88d49ac923c347","condition":"full-information","relevant_dimensions":["antennae","legs"],"bee_group":{"antennae":"B","wings":"X","pattern":"X","legs":"F"},"bonus":1.3600000000000008},{"rt":1399,"stimulus":"bees-with-color/bee-B2DM.svg","response":0,"trial_type":"image-button-response","trial_index":105,"time_elapsed":815460,"internal_node_id":"0.0-4.0-0.49","subject_id":"5d3a5858f7ddf70001353ae4","study_id":"60edd13110225f80f9f3709b","session_id":"6196c1f20e88d49ac923c347","condition":"full-information","relevant_dimensions":["antennae","legs"],"bee_group":{"antennae":"B","wings":"X","pattern":"X","legs":"F"},"action":"harvest","summary":"good-harvest","bonus":1.3600000000000008},{"rt":1236,"stimulus":"\n                    <p><b>Action: <em>harvest</em></b></p>\n                    <p>This is the bee that you just saw.</p>\n                    <img src=\"bees-with-color/bee-B2DM.svg\" width=\"200\">\n                    <p><span class=\"greenText\"><b>Successful harvest!</b></span><br>Your pay has increased by $0.02. Your bonus pay is now $1.16.</p>\n            ","response":0,"trial_type":"html-button-response","trial_index":106,"time_elapsed":816700,"internal_node_id":"0.0-4.0-1.49","subject_id":"5d3a5858f7ddf70001353ae4","study_id":"60edd13110225f80f9f3709b","session_id":"6196c1f20e88d49ac923c347","condition":"full-information","relevant_dimensions":["antennae","legs"],"bee_group":{"antennae":"B","wings":"X","pattern":"X","legs":"F"},"bonus":1.3600000000000008},{"rt":1277,"stimulus":"bees-with-color/bee-A2DM.svg","response":0,"trial_type":"image-button-response","trial_index":107,"time_elapsed":817980,"internal_node_id":"0.0-4.0-0.50","subject_id":"5d3a5858f7ddf70001353ae4","study_id":"60edd13110225f80f9f3709b","session_id":"6196c1f20e88d49ac923c347","condition":"full-information","relevant_dimensions":["antennae","legs"],"bee_group":{"antennae":"B","wings":"X","pattern":"X","legs":"F"},"action":"harvest","summary":"good-harvest","bonus":1.3600000000000008},{"rt":1338,"stimulus":"\n                    <p><b>Action: <em>harvest</em></b></p>\n                    <p>This is the bee that you just saw.</p>\n                    <img src=\"bees-with-color/bee-A2DM.svg\" width=\"200\">\n                    <p><span class=\"greenText\"><b>Successful harvest!</b></span><br>Your pay has increased by $0.02. Your bonus pay is now $1.18.</p>\n            ","response":0,"trial_type":"html-button-response","trial_index":108,"time_elapsed":819320,"internal_node_id":"0.0-4.0-1.50","subject_id":"5d3a5858f7ddf70001353ae4","study_id":"60edd13110225f80f9f3709b","session_id":"6196c1f20e88d49ac923c347","condition":"full-information","relevant_dimensions":["antennae","legs"],"bee_group":{"antennae":"B","wings":"X","pattern":"X","legs":"F"},"bonus":1.3600000000000008},{"rt":1597,"stimulus":"bees-with-color/bee-B2DF.svg","response":1,"trial_type":"image-button-response","trial_index":109,"time_elapsed":820920,"internal_node_id":"0.0-4.0-0.51","subject_id":"5d3a5858f7ddf70001353ae4","study_id":"60edd13110225f80f9f3709b","session_id":"6196c1f20e88d49ac923c347","condition":"full-information","relevant_dimensions":["antennae","legs"],"bee_group":{"antennae":"B","wings":"X","pattern":"X","legs":"F"},"action":"avoid","summary":"good-avoid","bonus":1.3600000000000008},{"rt":1126,"stimulus":"\n                    <p><b>Action: <em>avoid</em></b></p>\n                    <p>This is the bee that you just saw.</p>\n                    <img src=\"bees-with-color/bee-B2DF.svg\" width=\"200\">\n                    <p><span class=\"greenText\">Good choice!</span>  This bee would have stung you.<br>Your bonus pay is unchanged, and remains at $1.18.</p>\n            ","response":0,"trial_type":"html-button-response","trial_index":110,"time_elapsed":822048,"internal_node_id":"0.0-4.0-1.51","subject_id":"5d3a5858f7ddf70001353ae4","study_id":"60edd13110225f80f9f3709b","session_id":"6196c1f20e88d49ac923c347","condition":"full-information","relevant_dimensions":["antennae","legs"],"bee_group":{"antennae":"B","wings":"X","pattern":"X","legs":"F"},"bonus":1.3600000000000008},{"rt":1281,"stimulus":"bees-with-color/bee-A2DF.svg","response":0,"trial_type":"image-button-response","trial_index":111,"time_elapsed":823330,"internal_node_id":"0.0-4.0-0.52","subject_id":"5d3a5858f7ddf70001353ae4","study_id":"60edd13110225f80f9f3709b","session_id":"6196c1f20e88d49ac923c347","condition":"full-information","relevant_dimensions":["antennae","legs"],"bee_group":{"antennae":"B","wings":"X","pattern":"X","legs":"F"},"action":"harvest","summary":"good-harvest","bonus":1.3600000000000008},{"rt":1755,"stimulus":"\n                    <p><b>Action: <em>harvest</em></b></p>\n                    <p>This is the bee that you just saw.</p>\n                    <img src=\"bees-with-color/bee-A2DF.svg\" width=\"200\">\n                    <p><span class=\"greenText\"><b>Successful harvest!</b></span><br>Your pay has increased by $0.02. Your bonus pay is now $1.20.</p>\n            ","response":0,"trial_type":"html-button-response","trial_index":112,"time_elapsed":825087,"internal_node_id":"0.0-4.0-1.52","subject_id":"5d3a5858f7ddf70001353ae4","study_id":"60edd13110225f80f9f3709b","session_id":"6196c1f20e88d49ac923c347","condition":"full-information","relevant_dimensions":["antennae","legs"],"bee_group":{"antennae":"B","wings":"X","pattern":"X","legs":"F"},"bonus":1.3600000000000008},{"rt":1320,"stimulus":"bees-with-color/bee-A2SF.svg","response":0,"trial_type":"image-button-response","trial_index":113,"time_elapsed":826408,"internal_node_id":"0.0-4.0-0.53","subject_id":"5d3a5858f7ddf70001353ae4","study_id":"60edd13110225f80f9f3709b","session_id":"6196c1f20e88d49ac923c347","condition":"full-information","relevant_dimensions":["antennae","legs"],"bee_group":{"antennae":"B","wings":"X","pattern":"X","legs":"F"},"action":"harvest","summary":"good-harvest","bonus":1.3600000000000008},{"rt":1621,"stimulus":"\n                    <p><b>Action: <em>harvest</em></b></p>\n                    <p>This is the bee that you just saw.</p>\n                    <img src=\"bees-with-color/bee-A2SF.svg\" width=\"200\">\n                    <p><span class=\"greenText\"><b>Successful harvest!</b></span><br>Your pay has increased by $0.02. Your bonus pay is now $1.22.</p>\n            ","response":0,"trial_type":"html-button-response","trial_index":114,"time_elapsed":828029,"internal_node_id":"0.0-4.0-1.53","subject_id":"5d3a5858f7ddf70001353ae4","study_id":"60edd13110225f80f9f3709b","session_id":"6196c1f20e88d49ac923c347","condition":"full-information","relevant_dimensions":["antennae","legs"],"bee_group":{"antennae":"B","wings":"X","pattern":"X","legs":"F"},"bonus":1.3600000000000008},{"rt":1195,"stimulus":"bees-with-color/bee-A1SM.svg","response":0,"trial_type":"image-button-response","trial_index":115,"time_elapsed":829226,"internal_node_id":"0.0-4.0-0.54","subject_id":"5d3a5858f7ddf70001353ae4","study_id":"60edd13110225f80f9f3709b","session_id":"6196c1f20e88d49ac923c347","condition":"full-information","relevant_dimensions":["antennae","legs"],"bee_group":{"antennae":"B","wings":"X","pattern":"X","legs":"F"},"action":"harvest","summary":"good-harvest","bonus":1.3600000000000008},{"rt":1240,"stimulus":"\n                    <p><b>Action: <em>harvest</em></b></p>\n                    <p>This is the bee that you just saw.</p>\n                    <img src=\"bees-with-color/bee-A1SM.svg\" width=\"200\">\n                    <p><span class=\"greenText\"><b>Successful harvest!</b></span><br>Your pay has increased by $0.02. Your bonus pay is now $1.24.</p>\n            ","response":0,"trial_type":"html-button-response","trial_index":116,"time_elapsed":830468,"internal_node_id":"0.0-4.0-1.54","subject_id":"5d3a5858f7ddf70001353ae4","study_id":"60edd13110225f80f9f3709b","session_id":"6196c1f20e88d49ac923c347","condition":"full-information","relevant_dimensions":["antennae","legs"],"bee_group":{"antennae":"B","wings":"X","pattern":"X","legs":"F"},"bonus":1.3600000000000008},{"rt":1340,"stimulus":"bees-with-color/bee-B2SF.svg","response":1,"trial_type":"image-button-response","trial_index":117,"time_elapsed":831810,"internal_node_id":"0.0-4.0-0.55","subject_id":"5d3a5858f7ddf70001353ae4","study_id":"60edd13110225f80f9f3709b","session_id":"6196c1f20e88d49ac923c347","condition":"full-information","relevant_dimensions":["antennae","legs"],"bee_group":{"antennae":"B","wings":"X","pattern":"X","legs":"F"},"action":"avoid","summary":"good-avoid","bonus":1.3600000000000008},{"rt":2696,"stimulus":"\n                    <p><b>Action: <em>avoid</em></b></p>\n                    <p>This is the bee that you just saw.</p>\n                    <img src=\"bees-with-color/bee-B2SF.svg\" width=\"200\">\n                    <p><span class=\"greenText\">Good choice!</span>  This bee would have stung you.<br>Your bonus pay is unchanged, and remains at $1.24.</p>\n            ","response":0,"trial_type":"html-button-response","trial_index":118,"time_elapsed":834508,"internal_node_id":"0.0-4.0-1.55","subject_id":"5d3a5858f7ddf70001353ae4","study_id":"60edd13110225f80f9f3709b","session_id":"6196c1f20e88d49ac923c347","condition":"full-information","relevant_dimensions":["antennae","legs"],"bee_group":{"antennae":"B","wings":"X","pattern":"X","legs":"F"},"bonus":1.3600000000000008},{"rt":2039,"stimulus":"bees-with-color/bee-A2SM.svg","response":0,"trial_type":"image-button-response","trial_index":119,"time_elapsed":836548,"internal_node_id":"0.0-4.0-0.56","subject_id":"5d3a5858f7ddf70001353ae4","study_id":"60edd13110225f80f9f3709b","session_id":"6196c1f20e88d49ac923c347","condition":"full-information","relevant_dimensions":["antennae","legs"],"bee_group":{"antennae":"B","wings":"X","pattern":"X","legs":"F"},"action":"harvest","summary":"good-harvest","bonus":1.3600000000000008},{"rt":2680,"stimulus":"\n                    <p><b>Action: <em>harvest</em></b></p>\n                    <p>This is the bee that you just saw.</p>\n                    <img src=\"bees-with-color/bee-A2SM.svg\" width=\"200\">\n                    <p><span class=\"greenText\"><b>Successful harvest!</b></span><br>Your pay has increased by $0.02. Your bonus pay is now $1.26.</p>\n            ","response":0,"trial_type":"html-button-response","trial_index":120,"time_elapsed":839230,"internal_node_id":"0.0-4.0-1.56","subject_id":"5d3a5858f7ddf70001353ae4","study_id":"60edd13110225f80f9f3709b","session_id":"6196c1f20e88d49ac923c347","condition":"full-information","relevant_dimensions":["antennae","legs"],"bee_group":{"antennae":"B","wings":"X","pattern":"X","legs":"F"},"bonus":1.3600000000000008},{"rt":1756,"stimulus":"bees-with-color/bee-B1SF.svg","response":1,"trial_type":"image-button-response","trial_index":121,"time_elapsed":840989,"internal_node_id":"0.0-4.0-0.57","subject_id":"5d3a5858f7ddf70001353ae4","study_id":"60edd13110225f80f9f3709b","session_id":"6196c1f20e88d49ac923c347","condition":"full-information","relevant_dimensions":["antennae","legs"],"bee_group":{"antennae":"B","wings":"X","pattern":"X","legs":"F"},"action":"avoid","summary":"good-avoid","bonus":1.3600000000000008},{"rt":938,"stimulus":"\n                    <p><b>Action: <em>avoid</em></b></p>\n                    <p>This is the bee that you just saw.</p>\n                    <img src=\"bees-with-color/bee-B1SF.svg\" width=\"200\">\n                    <p><span class=\"greenText\">Good choice!</span>  This bee would have stung you.<br>Your bonus pay is unchanged, and remains at $1.26.</p>\n            ","response":0,"trial_type":"html-button-response","trial_index":122,"time_elapsed":841930,"internal_node_id":"0.0-4.0-1.57","subject_id":"5d3a5858f7ddf70001353ae4","study_id":"60edd13110225f80f9f3709b","session_id":"6196c1f20e88d49ac923c347","condition":"full-information","relevant_dimensions":["antennae","legs"],"bee_group":{"antennae":"B","wings":"X","pattern":"X","legs":"F"},"bonus":1.3600000000000008},{"rt":2327,"stimulus":"bees-with-color/bee-B1SM.svg","response":0,"trial_type":"image-button-response","trial_index":123,"time_elapsed":844260,"internal_node_id":"0.0-4.0-0.58","subject_id":"5d3a5858f7ddf70001353ae4","study_id":"60edd13110225f80f9f3709b","session_id":"6196c1f20e88d49ac923c347","condition":"full-information","relevant_dimensions":["antennae","legs"],"bee_group":{"antennae":"B","wings":"X","pattern":"X","legs":"F"},"action":"harvest","summary":"good-harvest","bonus":1.3600000000000008},{"rt":1177,"stimulus":"\n                    <p><b>Action: <em>harvest</em></b></p>\n                    <p>This is the bee that you just saw.</p>\n                    <img src=\"bees-with-color/bee-B1SM.svg\" width=\"200\">\n                    <p><span class=\"greenText\"><b>Successful harvest!</b></span><br>Your pay has increased by $0.02. Your bonus pay is now $1.28.</p>\n            ","response":0,"trial_type":"html-button-response","trial_index":124,"time_elapsed":845439,"internal_node_id":"0.0-4.0-1.58","subject_id":"5d3a5858f7ddf70001353ae4","study_id":"60edd13110225f80f9f3709b","session_id":"6196c1f20e88d49ac923c347","condition":"full-information","relevant_dimensions":["antennae","legs"],"bee_group":{"antennae":"B","wings":"X","pattern":"X","legs":"F"},"bonus":1.3600000000000008},{"rt":1297,"stimulus":"bees-with-color/bee-B1DF.svg","response":1,"trial_type":"image-button-response","trial_index":125,"time_elapsed":846739,"internal_node_id":"0.0-4.0-0.59","subject_id":"5d3a5858f7ddf70001353ae4","study_id":"60edd13110225f80f9f3709b","session_id":"6196c1f20e88d49ac923c347","condition":"full-information","relevant_dimensions":["antennae","legs"],"bee_group":{"antennae":"B","wings":"X","pattern":"X","legs":"F"},"action":"avoid","summary":"good-avoid","bonus":1.3600000000000008},{"rt":1999,"stimulus":"\n                    <p><b>Action: <em>avoid</em></b></p>\n                    <p>This is the bee that you just saw.</p>\n                    <img src=\"bees-with-color/bee-B1DF.svg\" width=\"200\">\n                    <p><span class=\"greenText\">Good choice!</span>  This bee would have stung you.<br>Your bonus pay is unchanged, and remains at $1.28.</p>\n            ","response":0,"trial_type":"html-button-response","trial_index":126,"time_elapsed":848739,"internal_node_id":"0.0-4.0-1.59","subject_id":"5d3a5858f7ddf70001353ae4","study_id":"60edd13110225f80f9f3709b","session_id":"6196c1f20e88d49ac923c347","condition":"full-information","relevant_dimensions":["antennae","legs"],"bee_group":{"antennae":"B","wings":"X","pattern":"X","legs":"F"},"bonus":1.3600000000000008},{"rt":1478,"stimulus":"bees-with-color/bee-B1DM.svg","response":0,"trial_type":"image-button-response","trial_index":127,"time_elapsed":850220,"internal_node_id":"0.0-4.0-0.60","subject_id":"5d3a5858f7ddf70001353ae4","study_id":"60edd13110225f80f9f3709b","session_id":"6196c1f20e88d49ac923c347","condition":"full-information","relevant_dimensions":["antennae","legs"],"bee_group":{"antennae":"B","wings":"X","pattern":"X","legs":"F"},"action":"harvest","summary":"good-harvest","bonus":1.3600000000000008},{"rt":2296,"stimulus":"\n                    <p><b>Action: <em>harvest</em></b></p>\n                    <p>This is the bee that you just saw.</p>\n                    <img src=\"bees-with-color/bee-B1DM.svg\" width=\"200\">\n                    <p><span class=\"greenText\"><b>Successful harvest!</b></span><br>Your pay has increased by $0.02. Your bonus pay is now $1.30.</p>\n            ","response":0,"trial_type":"html-button-response","trial_index":128,"time_elapsed":852517,"internal_node_id":"0.0-4.0-1.60","subject_id":"5d3a5858f7ddf70001353ae4","study_id":"60edd13110225f80f9f3709b","session_id":"6196c1f20e88d49ac923c347","condition":"full-information","relevant_dimensions":["antennae","legs"],"bee_group":{"antennae":"B","wings":"X","pattern":"X","legs":"F"},"bonus":1.3600000000000008},{"rt":2020,"stimulus":"bees-with-color/bee-B2SM.svg","response":0,"trial_type":"image-button-response","trial_index":129,"time_elapsed":854538,"internal_node_id":"0.0-4.0-0.61","subject_id":"5d3a5858f7ddf70001353ae4","study_id":"60edd13110225f80f9f3709b","session_id":"6196c1f20e88d49ac923c347","condition":"full-information","relevant_dimensions":["antennae","legs"],"bee_group":{"antennae":"B","wings":"X","pattern":"X","legs":"F"},"action":"harvest","summary":"good-harvest","bonus":1.3600000000000008},{"rt":1458,"stimulus":"\n                    <p><b>Action: <em>harvest</em></b></p>\n                    <p>This is the bee that you just saw.</p>\n                    <img src=\"bees-with-color/bee-B2SM.svg\" width=\"200\">\n                    <p><span class=\"greenText\"><b>Successful harvest!</b></span><br>Your pay has increased by $0.02. Your bonus pay is now $1.32.</p>\n            ","response":0,"trial_type":"html-button-response","trial_index":130,"time_elapsed":855998,"internal_node_id":"0.0-4.0-1.61","subject_id":"5d3a5858f7ddf70001353ae4","study_id":"60edd13110225f80f9f3709b","session_id":"6196c1f20e88d49ac923c347","condition":"full-information","relevant_dimensions":["antennae","legs"],"bee_group":{"antennae":"B","wings":"X","pattern":"X","legs":"F"},"bonus":1.3600000000000008},{"rt":1279,"stimulus":"bees-with-color/bee-A1DM.svg","response":0,"trial_type":"image-button-response","trial_index":131,"time_elapsed":857278,"internal_node_id":"0.0-4.0-0.62","subject_id":"5d3a5858f7ddf70001353ae4","study_id":"60edd13110225f80f9f3709b","session_id":"6196c1f20e88d49ac923c347","condition":"full-information","relevant_dimensions":["antennae","legs"],"bee_group":{"antennae":"B","wings":"X","pattern":"X","legs":"F"},"action":"harvest","summary":"good-harvest","bonus":1.3600000000000008},{"rt":1379,"stimulus":"\n                    <p><b>Action: <em>harvest</em></b></p>\n                    <p>This is the bee that you just saw.</p>\n                    <img src=\"bees-with-color/bee-A1DM.svg\" width=\"200\">\n                    <p><span class=\"greenText\"><b>Successful harvest!</b></span><br>Your pay has increased by $0.02. Your bonus pay is now $1.34.</p>\n            ","response":0,"trial_type":"html-button-response","trial_index":132,"time_elapsed":858658,"internal_node_id":"0.0-4.0-1.62","subject_id":"5d3a5858f7ddf70001353ae4","study_id":"60edd13110225f80f9f3709b","session_id":"6196c1f20e88d49ac923c347","condition":"full-information","relevant_dimensions":["antennae","legs"],"bee_group":{"antennae":"B","wings":"X","pattern":"X","legs":"F"},"bonus":1.3600000000000008},{"rt":1480,"stimulus":"bees-with-color/bee-A1DF.svg","response":0,"trial_type":"image-button-response","trial_index":133,"time_elapsed":860139,"internal_node_id":"0.0-4.0-0.63","subject_id":"5d3a5858f7ddf70001353ae4","study_id":"60edd13110225f80f9f3709b","session_id":"6196c1f20e88d49ac923c347","condition":"full-information","relevant_dimensions":["antennae","legs"],"bee_group":{"antennae":"B","wings":"X","pattern":"X","legs":"F"},"action":"harvest","summary":"good-harvest","bonus":1.3600000000000008},{"rt":1572,"stimulus":"\n                    <p><b>Action: <em>harvest</em></b></p>\n                    <p>This is the bee that you just saw.</p>\n                    <img src=\"bees-with-color/bee-A1DF.svg\" width=\"200\">\n                    <p><span class=\"greenText\"><b>Successful harvest!</b></span><br>Your pay has increased by $0.02. Your bonus pay is now $1.36.</p>\n            ","response":0,"trial_type":"html-button-response","trial_index":134,"time_elapsed":861714,"internal_node_id":"0.0-4.0-1.63","subject_id":"5d3a5858f7ddf70001353ae4","study_id":"60edd13110225f80f9f3709b","session_id":"6196c1f20e88d49ac923c347","condition":"full-information","relevant_dimensions":["antennae","legs"],"bee_group":{"antennae":"B","wings":"X","pattern":"X","legs":"F"},"bonus":1.3600000000000008},{"rt":10346,"stimulus":"You have completed the first part of this experiment.<br><br>You will now begin a shorter second part, in which you will receive no feedback.<br>The same rules regarding bonus pay apply.<br><br>Press any key to begin.","response":" ","trial_type":"html-keyboard-response","trial_index":135,"time_elapsed":872063,"internal_node_id":"0.0-5.0","subject_id":"5d3a5858f7ddf70001353ae4","study_id":"60edd13110225f80f9f3709b","session_id":"6196c1f20e88d49ac923c347","condition":"full-information","relevant_dimensions":["antennae","legs"],"bee_group":{"antennae":"B","wings":"X","pattern":"X","legs":"F"},"bonus":1.3600000000000008},{"rt":5033,"stimulus":"bees-with-color/bee-A2DM.svg","response":1,"trial_type":"image-button-response","trial_index":136,"time_elapsed":877098,"internal_node_id":"0.0-6.0-0.0","subject_id":"5d3a5858f7ddf70001353ae4","study_id":"60edd13110225f80f9f3709b","session_id":"6196c1f20e88d49ac923c347","condition":"full-information","relevant_dimensions":["antennae","legs"],"bee_group":{"antennae":"B","wings":"X","pattern":"X","legs":"F"},"bonus":1.3600000000000008},{"rt":5940,"stimulus":"bees-with-color/bee-A2DF.svg","response":1,"trial_type":"image-button-response","trial_index":137,"time_elapsed":883039,"internal_node_id":"0.0-6.0-0.1","subject_id":"5d3a5858f7ddf70001353ae4","study_id":"60edd13110225f80f9f3709b","session_id":"6196c1f20e88d49ac923c347","condition":"full-information","relevant_dimensions":["antennae","legs"],"bee_group":{"antennae":"B","wings":"X","pattern":"X","legs":"F"},"bonus":1.3600000000000008},{"rt":756,"stimulus":"bees-with-color/bee-B1SM.svg","response":1,"trial_type":"image-button-response","trial_index":138,"time_elapsed":883799,"internal_node_id":"0.0-6.0-0.2","subject_id":"5d3a5858f7ddf70001353ae4","study_id":"60edd13110225f80f9f3709b","session_id":"6196c1f20e88d49ac923c347","condition":"full-information","relevant_dimensions":["antennae","legs"],"bee_group":{"antennae":"B","wings":"X","pattern":"X","legs":"F"},"bonus":1.3600000000000008},{"rt":716,"stimulus":"bees-with-color/bee-B2SM.svg","response":1,"trial_type":"image-button-response","trial_index":139,"time_elapsed":884518,"internal_node_id":"0.0-6.0-0.3","subject_id":"5d3a5858f7ddf70001353ae4","study_id":"60edd13110225f80f9f3709b","session_id":"6196c1f20e88d49ac923c347","condition":"full-information","relevant_dimensions":["antennae","legs"],"bee_group":{"antennae":"B","wings":"X","pattern":"X","legs":"F"},"bonus":1.3600000000000008},{"rt":600,"stimulus":"bees-with-color/bee-B2SF.svg","response":1,"trial_type":"image-button-response","trial_index":140,"time_elapsed":885118,"internal_node_id":"0.0-6.0-0.4","subject_id":"5d3a5858f7ddf70001353ae4","study_id":"60edd13110225f80f9f3709b","session_id":"6196c1f20e88d49ac923c347","condition":"full-information","relevant_dimensions":["antennae","legs"],"bee_group":{"antennae":"B","wings":"X","pattern":"X","legs":"F"},"bonus":1.3600000000000008},{"rt":598,"stimulus":"bees-with-color/bee-A2SM.svg","response":1,"trial_type":"image-button-response","trial_index":141,"time_elapsed":885718,"internal_node_id":"0.0-6.0-0.5","subject_id":"5d3a5858f7ddf70001353ae4","study_id":"60edd13110225f80f9f3709b","session_id":"6196c1f20e88d49ac923c347","condition":"full-information","relevant_dimensions":["antennae","legs"],"bee_group":{"antennae":"B","wings":"X","pattern":"X","legs":"F"},"bonus":1.3600000000000008},{"rt":559,"stimulus":"bees-with-color/bee-A1DM.svg","response":1,"trial_type":"image-button-response","trial_index":142,"time_elapsed":886277,"internal_node_id":"0.0-6.0-0.6","subject_id":"5d3a5858f7ddf70001353ae4","study_id":"60edd13110225f80f9f3709b","session_id":"6196c1f20e88d49ac923c347","condition":"full-information","relevant_dimensions":["antennae","legs"],"bee_group":{"antennae":"B","wings":"X","pattern":"X","legs":"F"},"bonus":1.3600000000000008},{"rt":641,"stimulus":"bees-with-color/bee-B2DF.svg","response":1,"trial_type":"image-button-response","trial_index":143,"time_elapsed":886919,"internal_node_id":"0.0-6.0-0.7","subject_id":"5d3a5858f7ddf70001353ae4","study_id":"60edd13110225f80f9f3709b","session_id":"6196c1f20e88d49ac923c347","condition":"full-information","relevant_dimensions":["antennae","legs"],"bee_group":{"antennae":"B","wings":"X","pattern":"X","legs":"F"},"bonus":1.3600000000000008},{"rt":637,"stimulus":"bees-with-color/bee-B2DM.svg","response":1,"trial_type":"image-button-response","trial_index":144,"time_elapsed":887560,"internal_node_id":"0.0-6.0-0.8","subject_id":"5d3a5858f7ddf70001353ae4","study_id":"60edd13110225f80f9f3709b","session_id":"6196c1f20e88d49ac923c347","condition":"full-information","relevant_dimensions":["antennae","legs"],"bee_group":{"antennae":"B","wings":"X","pattern":"X","legs":"F"},"bonus":1.3600000000000008},{"rt":717,"stimulus":"bees-with-color/bee-A2SF.svg","response":1,"trial_type":"image-button-response","trial_index":145,"time_elapsed":888279,"internal_node_id":"0.0-6.0-0.9","subject_id":"5d3a5858f7ddf70001353ae4","study_id":"60edd13110225f80f9f3709b","session_id":"6196c1f20e88d49ac923c347","condition":"full-information","relevant_dimensions":["antennae","legs"],"bee_group":{"antennae":"B","wings":"X","pattern":"X","legs":"F"},"bonus":1.3600000000000008},{"rt":597,"stimulus":"bees-with-color/bee-A1DF.svg","response":1,"trial_type":"image-button-response","trial_index":146,"time_elapsed":888879,"internal_node_id":"0.0-6.0-0.10","subject_id":"5d3a5858f7ddf70001353ae4","study_id":"60edd13110225f80f9f3709b","session_id":"6196c1f20e88d49ac923c347","condition":"full-information","relevant_dimensions":["antennae","legs"],"bee_group":{"antennae":"B","wings":"X","pattern":"X","legs":"F"},"bonus":1.3600000000000008},{"rt":497,"stimulus":"bees-with-color/bee-B1DM.svg","response":1,"trial_type":"image-button-response","trial_index":147,"time_elapsed":889379,"internal_node_id":"0.0-6.0-0.11","subject_id":"5d3a5858f7ddf70001353ae4","study_id":"60edd13110225f80f9f3709b","session_id":"6196c1f20e88d49ac923c347","condition":"full-information","relevant_dimensions":["antennae","legs"],"bee_group":{"antennae":"B","wings":"X","pattern":"X","legs":"F"},"bonus":1.3600000000000008},{"rt":438,"stimulus":"bees-with-color/bee-B1SF.svg","response":1,"trial_type":"image-button-response","trial_index":148,"time_elapsed":889819,"internal_node_id":"0.0-6.0-0.12","subject_id":"5d3a5858f7ddf70001353ae4","study_id":"60edd13110225f80f9f3709b","session_id":"6196c1f20e88d49ac923c347","condition":"full-information","relevant_dimensions":["antennae","legs"],"bee_group":{"antennae":"B","wings":"X","pattern":"X","legs":"F"},"bonus":1.3600000000000008},{"rt":408,"stimulus":"bees-with-color/bee-A1SM.svg","response":1,"trial_type":"image-button-response","trial_index":149,"time_elapsed":890230,"internal_node_id":"0.0-6.0-0.13","subject_id":"5d3a5858f7ddf70001353ae4","study_id":"60edd13110225f80f9f3709b","session_id":"6196c1f20e88d49ac923c347","condition":"full-information","relevant_dimensions":["antennae","legs"],"bee_group":{"antennae":"B","wings":"X","pattern":"X","legs":"F"},"bonus":1.3600000000000008},{"rt":233,"stimulus":"bees-with-color/bee-A1SF.svg","response":1,"trial_type":"image-button-response","trial_index":150,"time_elapsed":890466,"internal_node_id":"0.0-6.0-0.14","subject_id":"5d3a5858f7ddf70001353ae4","study_id":"60edd13110225f80f9f3709b","session_id":"6196c1f20e88d49ac923c347","condition":"full-information","relevant_dimensions":["antennae","legs"],"bee_group":{"antennae":"B","wings":"X","pattern":"X","legs":"F"},"bonus":1.3600000000000008},{"rt":204,"stimulus":"bees-with-color/bee-B1DF.svg","response":1,"trial_type":"image-button-response","trial_index":151,"time_elapsed":890672,"internal_node_id":"0.0-6.0-0.15","subject_id":"5d3a5858f7ddf70001353ae4","study_id":"60edd13110225f80f9f3709b","session_id":"6196c1f20e88d49ac923c347","condition":"full-information","relevant_dimensions":["antennae","legs"],"bee_group":{"antennae":"B","wings":"X","pattern":"X","legs":"F"},"bonus":1.3600000000000008},{"rt":212,"stimulus":"bees-with-color/bee-B2DM.svg","response":1,"trial_type":"image-button-response","trial_index":152,"time_elapsed":890887,"internal_node_id":"0.0-6.0-0.16","subject_id":"5d3a5858f7ddf70001353ae4","study_id":"60edd13110225f80f9f3709b","session_id":"6196c1f20e88d49ac923c347","condition":"full-information","relevant_dimensions":["antennae","legs"],"bee_group":{"antennae":"B","wings":"X","pattern":"X","legs":"F"},"bonus":1.3600000000000008},{"rt":194,"stimulus":"bees-with-color/bee-A2SM.svg","response":1,"trial_type":"image-button-response","trial_index":153,"time_elapsed":891084,"internal_node_id":"0.0-6.0-0.17","subject_id":"5d3a5858f7ddf70001353ae4","study_id":"60edd13110225f80f9f3709b","session_id":"6196c1f20e88d49ac923c347","condition":"full-information","relevant_dimensions":["antennae","legs"],"bee_group":{"antennae":"B","wings":"X","pattern":"X","legs":"F"},"bonus":1.3600000000000008},{"rt":220,"stimulus":"bees-with-color/bee-A1DF.svg","response":1,"trial_type":"image-button-response","trial_index":154,"time_elapsed":891304,"internal_node_id":"0.0-6.0-0.18","subject_id":"5d3a5858f7ddf70001353ae4","study_id":"60edd13110225f80f9f3709b","session_id":"6196c1f20e88d49ac923c347","condition":"full-information","relevant_dimensions":["antennae","legs"],"bee_group":{"antennae":"B","wings":"X","pattern":"X","legs":"F"},"bonus":1.3600000000000008},{"rt":200,"stimulus":"bees-with-color/bee-B1SF.svg","response":1,"trial_type":"image-button-response","trial_index":155,"time_elapsed":891505,"internal_node_id":"0.0-6.0-0.19","subject_id":"5d3a5858f7ddf70001353ae4","study_id":"60edd13110225f80f9f3709b","session_id":"6196c1f20e88d49ac923c347","condition":"full-information","relevant_dimensions":["antennae","legs"],"bee_group":{"antennae":"B","wings":"X","pattern":"X","legs":"F"},"bonus":1.3600000000000008},{"rt":195,"stimulus":"bees-with-color/bee-A2SF.svg","response":1,"trial_type":"image-button-response","trial_index":156,"time_elapsed":891704,"internal_node_id":"0.0-6.0-0.20","subject_id":"5d3a5858f7ddf70001353ae4","study_id":"60edd13110225f80f9f3709b","session_id":"6196c1f20e88d49ac923c347","condition":"full-information","relevant_dimensions":["antennae","legs"],"bee_group":{"antennae":"B","wings":"X","pattern":"X","legs":"F"},"bonus":1.3600000000000008},{"rt":243,"stimulus":"bees-with-color/bee-A1SF.svg","response":1,"trial_type":"image-button-response","trial_index":157,"time_elapsed":891948,"internal_node_id":"0.0-6.0-0.21","subject_id":"5d3a5858f7ddf70001353ae4","study_id":"60edd13110225f80f9f3709b","session_id":"6196c1f20e88d49ac923c347","condition":"full-information","relevant_dimensions":["antennae","legs"],"bee_group":{"antennae":"B","wings":"X","pattern":"X","legs":"F"},"bonus":1.3600000000000008},{"rt":189,"stimulus":"bees-with-color/bee-A2DM.svg","response":1,"trial_type":"image-button-response","trial_index":158,"time_elapsed":892140,"internal_node_id":"0.0-6.0-0.22","subject_id":"5d3a5858f7ddf70001353ae4","study_id":"60edd13110225f80f9f3709b","session_id":"6196c1f20e88d49ac923c347","condition":"full-information","relevant_dimensions":["antennae","legs"],"bee_group":{"antennae":"B","wings":"X","pattern":"X","legs":"F"},"bonus":1.3600000000000008},{"rt":173,"stimulus":"bees-with-color/bee-B1DF.svg","response":1,"trial_type":"image-button-response","trial_index":159,"time_elapsed":892316,"internal_node_id":"0.0-6.0-0.23","subject_id":"5d3a5858f7ddf70001353ae4","study_id":"60edd13110225f80f9f3709b","session_id":"6196c1f20e88d49ac923c347","condition":"full-information","relevant_dimensions":["antennae","legs"],"bee_group":{"antennae":"B","wings":"X","pattern":"X","legs":"F"},"bonus":1.3600000000000008},{"rt":198,"stimulus":"bees-with-color/bee-B1SM.svg","response":1,"trial_type":"image-button-response","trial_index":160,"time_elapsed":892515,"internal_node_id":"0.0-6.0-0.24","subject_id":"5d3a5858f7ddf70001353ae4","study_id":"60edd13110225f80f9f3709b","session_id":"6196c1f20e88d49ac923c347","condition":"full-information","relevant_dimensions":["antennae","legs"],"bee_group":{"antennae":"B","wings":"X","pattern":"X","legs":"F"},"bonus":1.3600000000000008},{"rt":198,"stimulus":"bees-with-color/bee-B2SM.svg","response":1,"trial_type":"image-button-response","trial_index":161,"time_elapsed":892715,"internal_node_id":"0.0-6.0-0.25","subject_id":"5d3a5858f7ddf70001353ae4","study_id":"60edd13110225f80f9f3709b","session_id":"6196c1f20e88d49ac923c347","condition":"full-information","relevant_dimensions":["antennae","legs"],"bee_group":{"ant