[{"success":true,"trial_type":"fullscreen","trial_index":0,"time_elapsed":10702,"internal_node_id":"0.0-0.0","subject_id":"61375face66135aec3d9c3bd","study_id":"6197b3f67c2b5cd3b6d9596a","session_id":"6197bba2bf906f3cf0c7a2a2","condition":"contingent","relevant_dimensions":["wings","legs"],"bee_group":{"antennae":"X","wings":"1","pattern":"X","legs":"F"},"bonus":0.980000000000001},{"success":true,"timeout":false,"failed_images":[],"failed_audio":[],"failed_video":[],"trial_type":"preload","trial_index":1,"time_elapsed":15231,"internal_node_id":"0.0-1.0","subject_id":"61375face66135aec3d9c3bd","study_id":"6197b3f67c2b5cd3b6d9596a","session_id":"6197bba2bf906f3cf0c7a2a2","condition":"contingent","relevant_dimensions":["wings","legs"],"bee_group":{"antennae":"X","wings":"1","pattern":"X","legs":"F"},"bonus":0.980000000000001},{"rt":5556.4000000059605,"stimulus":"Welcome! Press any key to begin.","response":" ","trial_type":"html-keyboard-response","trial_index":2,"time_elapsed":20790,"internal_node_id":"0.0-2.0","subject_id":"61375face66135aec3d9c3bd","study_id":"6197b3f67c2b5cd3b6d9596a","session_id":"6197bba2bf906f3cf0c7a2a2","condition":"contingent","relevant_dimensions":["wings","legs"],"bee_group":{"antennae":"X","wings":"1","pattern":"X","legs":"F"},"bonus":0.980000000000001},{"view_history":[{"page_index":0,"viewing_time":2736},{"page_index":1,"viewing_time":9400.09999999404},{"page_index":2,"viewing_time":9887.40000000596},{"page_index":3,"viewing_time":15177.5},{"page_index":4,"viewing_time":8346.5},{"page_index":5,"viewing_time":5283.5},{"page_index":6,"viewing_time":3224.5},{"page_index":7,"viewing_time":10604.799999982119},{"page_index":8,"viewing_time":2983.9000000059605},{"page_index":9,"viewing_time":4553.4000000059605},{"page_index":10,"viewing_time":2347.5},{"page_index":11,"viewing_time":7328.799999982119},{"page_index":12,"viewing_time":5579.9000000059605},{"page_index":13,"viewing_time":2028.9000000059605},{"page_index":14,"viewing_time":4030.9000000059605}],"rt":93514,"trial_type":"instructions","trial_index":3,"time_elapsed":114306,"internal_node_id":"0.0-3.0-0.0","subject_id":"61375face66135aec3d9c3bd","study_id":"6197b3f67c2b5cd3b6d9596a","session_id":"6197bba2bf906f3cf0c7a2a2","condition":"contingent","relevant_dimensions":["wings","legs"],"bee_group":{"antennae":"X","wings":"1","pattern":"X","legs":"F"},"bonus":0.980000000000001},{"rt":27472.80000001192,"response":{"Q0":["Two or six legs","Stripes or spots on body","Stinger or no stinger","Single or double wings","Antennae or no antennae"]},"question_order":[0],"trial_type":"survey-multi-select","trial_index":4,"time_elapsed":141785,"internal_node_id":"0.0-3.0-1.0","subject_id":"61375face66135aec3d9c3bd","study_id":"6197b3f67c2b5cd3b6d9596a","session_id":"6197bba2bf906f3cf0c7a2a2","condition":"contingent","relevant_dimensions":["wings","legs"],"bee_group":{"antennae":"X","wings":"1","pattern":"X","legs":"F"},"correct":false,"bonus":0.980000000000001},{"rt":54232.80000001192,"response":{"Q1":"Yes.","Q2":"Based on the four features of the bee.","Q3":"You learn if it was friendly or dangerous, but do not alter your bonus."},"question_order":[0,1,2],"trial_type":"survey-multi-choice","trial_index":5,"time_elapsed":196044,"internal_node_id":"0.0-3.0-2.0","subject_id":"61375face66135aec3d9c3bd","study_id":"6197b3f67c2b5cd3b6d9596a","session_id":"6197bba2bf906f3cf0c7a2a2","condition":"contingent","relevant_dimensions":["wings","legs"],"bee_group":{"antennae":"X","wings":"1","pattern":"X","legs":"F"},"correct":false,"bonus":0.980000000000001},{"rt":8818.90000000596,"stimulus":"<p>You did not answer all comprehension questions correctly.<br>Press <b>continue</b> to review the instructions again.</p>","response":0,"trial_type":"html-button-response","trial_index":6,"time_elapsed":204864,"internal_node_id":"0.0-3.0-3.0","subject_id":"61375face66135aec3d9c3bd","study_id":"6197b3f67c2b5cd3b6d9596a","session_id":"6197bba2bf906f3cf0c7a2a2","condition":"contingent","relevant_dimensions":["wings","legs"],"bee_group":{"antennae":"X","wings":"1","pattern":"X","legs":"F"},"bonus":0.980000000000001},{"view_history":[{"page_index":0,"viewing_time":4653.399999976158},{"page_index":1,"viewing_time":25577.40000000596},{"page_index":2,"viewing_time":17919.30000001192},{"page_index":3,"viewing_time":17131.29999998212},{"page_index":4,"viewing_time":24190.20000001788},{"page_index":5,"viewing_time":6503.5},{"page_index":6,"viewing_time":6761.9000000059605},{"page_index":7,"viewing_time":5433.5},{"page_index":8,"viewing_time":8556.199999988079},{"page_index":9,"viewing_time":6619.199999988079},{"page_index":10,"viewing_time":2781.800000011921},{"page_index":11,"viewing_time":22950.69999998808},{"page_index":12,"viewing_time":16532.5},{"page_index":13,"viewing_time":1596.7000000178814},{"page_index":14,"viewing_time":1205.5999999940395}],"rt":168413.5,"trial_type":"instructions","trial_index":7,"time_elapsed":373279,"internal_node_id":"0.0-3.0-4.0-0.0","subject_id":"61375face66135aec3d9c3bd","study_id":"6197b3f67c2b5cd3b6d9596a","session_id":"6197bba2bf906f3cf0c7a2a2","condition":"contingent","relevant_dimensions":["wings","legs"],"bee_group":{"antennae":"X","wings":"1","pattern":"X","legs":"F"},"bonus":0.980000000000001},{"rt":61948.09999999404,"response":{"Q0":["Two or six legs","Stripes or spots on body","Single or double wings","Antennae or no antennae"]},"question_order":[0],"trial_type":"survey-multi-select","trial_index":8,"time_elapsed":435233,"internal_node_id":"0.0-3.0-4.0-1.0","subject_id":"61375face66135aec3d9c3bd","study_id":"6197b3f67c2b5cd3b6d9596a","session_id":"6197bba2bf906f3cf0c7a2a2","condition":"contingent","relevant_dimensions":["wings","legs"],"bee_group":{"antennae":"X","wings":"1","pattern":"X","legs":"F"},"correct":true,"bonus":0.980000000000001},{"rt":26737.600000023842,"response":{"Q1":"No.","Q2":"Based on the four features of the bee.","Q3":"You do not learn if it was friendly or dangerous, and do not alter your bonus."},"question_order":[0,1,2],"trial_type":"survey-multi-choice","trial_index":9,"time_elapsed":461972,"internal_node_id":"0.0-3.0-4.0-2.0","subject_id":"61375face66135aec3d9c3bd","study_id":"6197b3f67c2b5cd3b6d9596a","session_id":"6197bba2bf906f3cf0c7a2a2","condition":"contingent","relevant_dimensions":["wings","legs"],"bee_group":{"antennae":"X","wings":"1","pattern":"X","legs":"F"},"correct":true,"bonus":0.980000000000001},{"rt":6061.299999982119,"stimulus":"<p>Congrats, you got everything right<br>When you're ready, click the button below to continue to the experiment.</p>","response":0,"trial_type":"html-button-response","trial_index":10,"time_elapsed":468034,"internal_node_id":"0.0-3.0-4.0-3.0","subject_id":"61375face66135aec3d9c3bd","study_id":"6197b3f67c2b5cd3b6d9596a","session_id":"6197bba2bf906f3cf0c7a2a2","condition":"contingent","relevant_dimensions":["wings","legs"],"bee_group":{"antennae":"X","wings":"1","pattern":"X","legs":"F"},"bonus":0.980000000000001},{"rt":3562.7000000178814,"stimulus":"bees-with-color/bee-B1SF.svg","response":0,"trial_type":"image-button-response","trial_index":11,"time_elapsed":471600,"internal_node_id":"0.0-4.0-0.0","subject_id":"61375face66135aec3d9c3bd","study_id":"6197b3f67c2b5cd3b6d9596a","session_id":"6197bba2bf906f3cf0c7a2a2","condition":"contingent","relevant_dimensions":["wings","legs"],"bee_group":{"antennae":"X","wings":"1","pattern":"X","legs":"F"},"action":"harvest","summary":"bad-harvest","bonus":0.980000000000001},{"rt":11223,"stimulus":"\n                    <p><b>Action: <em>harvest</em></b></p>\n                    <p>This is the bee that you just saw.</p>\n                    <img src=\"bees-with-color/bee-B1SF.svg\" width=\"200\">\n                    <p><span class=\"redText\">Bad choice, the bee was angry.</span><br><b>You have been stung!</b><br>Your pay has been decreased by $0.10. Your bonus pay is now $0.44.</p>\n            ","response":0,"trial_type":"html-button-response","trial_index":12,"time_elapsed":482825,"internal_node_id":"0.0-4.0-1.0","subject_id":"61375face66135aec3d9c3bd","study_id":"6197b3f67c2b5cd3b6d9596a","session_id":"6197bba2bf906f3cf0c7a2a2","condition":"contingent","relevant_dimensions":["wings","legs"],"bee_group":{"antennae":"X","wings":"1","pattern":"X","legs":"F"},"bonus":0.980000000000001},{"rt":2409.5,"stimulus":"bees-with-color/bee-A2SF.svg","response":0,"trial_type":"image-button-response","trial_index":13,"time_elapsed":485236,"internal_node_id":"0.0-4.0-0.1","subject_id":"61375face66135aec3d9c3bd","study_id":"6197b3f67c2b5cd3b6d9596a","session_id":"6197bba2bf906f3cf0c7a2a2","condition":"contingent","relevant_dimensions":["wings","legs"],"bee_group":{"antennae":"X","wings":"1","pattern":"X","legs":"F"},"action":"harvest","summary":"good-harvest","bonus":0.980000000000001},{"rt":1756.1000000238419,"stimulus":"\n                    <p><b>Action: <em>harvest</em></b></p>\n                    <p>This is the bee that you just saw.</p>\n                    <img src=\"bees-with-color/bee-A2SF.svg\" width=\"200\">\n                    <p><span class=\"greenText\"><b>Successful harvest!</b></span><br>Your pay has increased by $0.02. Your bonus pay is now $0.46.</p>\n            ","response":0,"trial_type":"html-button-response","trial_index":14,"time_elapsed":487091,"internal_node_id":"0.0-4.0-1.1","subject_id":"61375face66135aec3d9c3bd","study_id":"6197b3f67c2b5cd3b6d9596a","session_id":"6197bba2bf906f3cf0c7a2a2","condition":"contingent","relevant_dimensions":["wings","legs"],"bee_group":{"antennae":"X","wings":"1","pattern":"X","legs":"F"},"bonus":0.980000000000001},{"rt":1749.0999999940395,"stimulus":"bees-with-color/bee-B2DF.svg","response":0,"trial_type":"image-button-response","trial_index":15,"time_elapsed":488842,"internal_node_id":"0.0-4.0-0.2","subject_id":"61375face66135aec3d9c3bd","study_id":"6197b3f67c2b5cd3b6d9596a","session_id":"6197bba2bf906f3cf0c7a2a2","condition":"contingent","relevant_dimensions":["wings","legs"],"bee_group":{"antennae":"X","wings":"1","pattern":"X","legs":"F"},"action":"harvest","summary":"good-harvest","bonus":0.980000000000001},{"rt":3050,"stimulus":"\n                    <p><b>Action: <em>harvest</em></b></p>\n                    <p>This is the bee that you just saw.</p>\n                    <img src=\"bees-with-color/bee-B2DF.svg\" width=\"200\">\n                    <p><span class=\"greenText\"><b>Successful harvest!</b></span><br>Your pay has increased by $0.02. Your bonus pay is now $0.48.</p>\n            ","response":0,"trial_type":"html-button-response","trial_index":16,"time_elapsed":491893,"internal_node_id":"0.0-4.0-1.2","subject_id":"61375face66135aec3d9c3bd","study_id":"6197b3f67c2b5cd3b6d9596a","session_id":"6197bba2bf906f3cf0c7a2a2","condition":"contingent","relevant_dimensions":["wings","legs"],"bee_group":{"antennae":"X","wings":"1","pattern":"X","legs":"F"},"bonus":0.980000000000001},{"rt":1450.1000000238419,"stimulus":"bees-with-color/bee-B2SM.svg","response":0,"trial_type":"image-button-response","trial_index":17,"time_elapsed":493345,"internal_node_id":"0.0-4.0-0.3","subject_id":"61375face66135aec3d9c3bd","study_id":"6197b3f67c2b5cd3b6d9596a","session_id":"6197bba2bf906f3cf0c7a2a2","condition":"contingent","relevant_dimensions":["wings","legs"],"bee_group":{"antennae":"X","wings":"1","pattern":"X","legs":"F"},"action":"harvest","summary":"good-harvest","bonus":0.980000000000001},{"rt":2316.9000000059605,"stimulus":"\n                    <p><b>Action: <em>harvest</em></b></p>\n                    <p>This is the bee that you just saw.</p>\n                    <img src=\"bees-with-color/bee-B2SM.svg\" width=\"200\">\n                    <p><span class=\"greenText\"><b>Successful harvest!</b></span><br>Your pay has increased by $0.02. Your bonus pay is now $0.50.</p>\n            ","response":0,"trial_type":"html-button-response","trial_index":18,"time_elapsed":495663,"internal_node_id":"0.0-4.0-1.3","subject_id":"61375face66135aec3d9c3bd","study_id":"6197b3f67c2b5cd3b6d9596a","session_id":"6197bba2bf906f3cf0c7a2a2","condition":"contingent","relevant_dimensions":["wings","legs"],"bee_group":{"antennae":"X","wings":"1","pattern":"X","legs":"F"},"bonus":0.980000000000001},{"rt":4048.0999999940395,"stimulus":"bees-with-color/bee-A2DM.svg","response":1,"trial_type":"image-button-response","trial_index":19,"time_elapsed":499713,"internal_node_id":"0.0-4.0-0.4","subject_id":"61375face66135aec3d9c3bd","study_id":"6197b3f67c2b5cd3b6d9596a","session_id":"6197bba2bf906f3cf0c7a2a2","condition":"contingent","relevant_dimensions":["wings","legs"],"bee_group":{"antennae":"X","wings":"1","pattern":"X","legs":"F"},"action":"avoid","summary":"bad-avoid","bonus":0.980000000000001},{"rt":9915.09999999404,"stimulus":"\n                    <p><b>Action: <em>avoid</em></b></p>\n                    <p>This is the bee that you just saw.</p>\n                    <img src=\"bees-with-color/bee-A2DM.svg\" width=\"200\">\n                    <p><br>Your bonus pay is unchanged, and remains at $0.50.</p>\n            ","response":0,"trial_type":"html-button-response","trial_index":20,"time_elapsed":509630,"internal_node_id":"0.0-4.0-1.4","subject_id":"61375face66135aec3d9c3bd","study_id":"6197b3f67c2b5cd3b6d9596a","session_id":"6197bba2bf906f3cf0c7a2a2","condition":"contingent","relevant_dimensions":["wings","legs"],"bee_group":{"antennae":"X","wings":"1","pattern":"X","legs":"F"},"bonus":0.980000000000001},{"rt":2121,"stimulus":"bees-with-color/bee-A1DF.svg","response":1,"trial_type":"image-button-response","trial_index":21,"time_elapsed":511753,"internal_node_id":"0.0-4.0-0.5","subject_id":"61375face66135aec3d9c3bd","study_id":"6197b3f67c2b5cd3b6d9596a","session_id":"6197bba2bf906f3cf0c7a2a2","condition":"contingent","relevant_dimensions":["wings","legs"],"bee_group":{"antennae":"X","wings":"1","pattern":"X","legs":"F"},"action":"avoid","summary":"good-avoid","bonus":0.980000000000001},{"rt":5242.4000000059605,"stimulus":"\n                    <p><b>Action: <em>avoid</em></b></p>\n                    <p>This is the bee that you just saw.</p>\n                    <img src=\"bees-with-color/bee-A1DF.svg\" width=\"200\">\n                    <p><br>Your bonus pay is unchanged, and remains at $0.50.</p>\n            ","response":0,"trial_type":"html-button-response","trial_index":22,"time_elapsed":516996,"internal_node_id":"0.0-4.0-1.5","subject_id":"61375face66135aec3d9c3bd","study_id":"6197b3f67c2b5cd3b6d9596a","session_id":"6197bba2bf906f3cf0c7a2a2","condition":"contingent","relevant_dimensions":["wings","legs"],"bee_group":{"antennae":"X","wings":"1","pattern":"X","legs":"F"},"bonus":0.980000000000001},{"rt":1781.300000011921,"stimulus":"bees-with-color/bee-B1SM.svg","response":0,"trial_type":"image-button-response","trial_index":23,"time_elapsed":518780,"internal_node_id":"0.0-4.0-0.6","subject_id":"61375face66135aec3d9c3bd","study_id":"6197b3f67c2b5cd3b6d9596a","session_id":"6197bba2bf906f3cf0c7a2a2","condition":"contingent","relevant_dimensions":["wings","legs"],"bee_group":{"antennae":"X","wings":"1","pattern":"X","legs":"F"},"action":"harvest","summary":"good-harvest","bonus":0.980000000000001},{"rt":1616.6000000238419,"stimulus":"\n                    <p><b>Action: <em>harvest</em></b></p>\n                    <p>This is the bee that you just saw.</p>\n                    <img src=\"bees-with-color/bee-B1SM.svg\" width=\"200\">\n                    <p><span class=\"greenText\"><b>Successful harvest!</b></span><br>Your pay has increased by $0.02. Your bonus pay is now $0.52.</p>\n            ","response":0,"trial_type":"html-button-response","trial_index":24,"time_elapsed":520398,"internal_node_id":"0.0-4.0-1.6","subject_id":"61375face66135aec3d9c3bd","study_id":"6197b3f67c2b5cd3b6d9596a","session_id":"6197bba2bf906f3cf0c7a2a2","condition":"contingent","relevant_dimensions":["wings","legs"],"bee_group":{"antennae":"X","wings":"1","pattern":"X","legs":"F"},"bonus":0.980000000000001},{"rt":1615,"stimulus":"bees-with-color/bee-A1SM.svg","response":0,"trial_type":"image-button-response","trial_index":25,"time_elapsed":522015,"internal_node_id":"0.0-4.0-0.7","subject_id":"61375face66135aec3d9c3bd","study_id":"6197b3f67c2b5cd3b6d9596a","session_id":"6197bba2bf906f3cf0c7a2a2","condition":"contingent","relevant_dimensions":["wings","legs"],"bee_group":{"antennae":"X","wings":"1","pattern":"X","legs":"F"},"action":"harvest","summary":"good-harvest","bonus":0.980000000000001},{"rt":1379.5,"stimulus":"\n                    <p><b>Action: <em>harvest</em></b></p>\n                    <p>This is the bee that you just saw.</p>\n                    <img src=\"bees-with-color/bee-A1SM.svg\" width=\"200\">\n                    <p><span class=\"greenText\"><b>Successful harvest!</b></span><br>Your pay has increased by $0.02. Your bonus pay is now $0.54.</p>\n            ","response":0,"trial_type":"html-button-response","trial_index":26,"time_elapsed":523396,"internal_node_id":"0.0-4.0-1.7","subject_id":"61375face66135aec3d9c3bd","study_id":"6197b3f67c2b5cd3b6d9596a","session_id":"6197bba2bf906f3cf0c7a2a2","condition":"contingent","relevant_dimensions":["wings","legs"],"bee_group":{"antennae":"X","wings":"1","pattern":"X","legs":"F"},"bonus":0.980000000000001},{"rt":3378.300000011921,"stimulus":"bees-with-color/bee-B1DF.svg","response":0,"trial_type":"image-button-response","trial_index":27,"time_elapsed":526776,"internal_node_id":"0.0-4.0-0.8","subject_id":"61375face66135aec3d9c3bd","study_id":"6197b3f67c2b5cd3b6d9596a","session_id":"6197bba2bf906f3cf0c7a2a2","condition":"contingent","relevant_dimensions":["wings","legs"],"bee_group":{"antennae":"X","wings":"1","pattern":"X","legs":"F"},"action":"harvest","summary":"bad-harvest","bonus":0.980000000000001},{"rt":2863.5999999940395,"stimulus":"\n                    <p><b>Action: <em>harvest</em></b></p>\n                    <p>This is the bee that you just saw.</p>\n                    <img src=\"bees-with-color/bee-B1DF.svg\" width=\"200\">\n                    <p><span class=\"redText\">Bad choice, the bee was angry.</span><br><b>You have been stung!</b><br>Your pay has been decreased by $0.10. Your bonus pay is now $0.44.</p>\n            ","response":0,"trial_type":"html-button-response","trial_index":28,"time_elapsed":529641,"internal_node_id":"0.0-4.0-1.8","subject_id":"61375face66135aec3d9c3bd","study_id":"6197b3f67c2b5cd3b6d9596a","session_id":"6197bba2bf906f3cf0c7a2a2","condition":"contingent","relevant_dimensions":["wings","legs"],"bee_group":{"antennae":"X","wings":"1","pattern":"X","legs":"F"},"bonus":0.980000000000001},{"rt":1420.199999988079,"stimulus":"bees-with-color/bee-A1DM.svg","response":0,"trial_type":"image-button-response","trial_index":29,"time_elapsed":531064,"internal_node_id":"0.0-4.0-0.9","subject_id":"61375face66135aec3d9c3bd","study_id":"6197b3f67c2b5cd3b6d9596a","session_id":"6197bba2bf906f3cf0c7a2a2","condition":"contingent","relevant_dimensions":["wings","legs"],"bee_group":{"antennae":"X","wings":"1","pattern":"X","legs":"F"},"action":"harvest","summary":"good-harvest","bonus":0.980000000000001},{"rt":1450.2999999821186,"stimulus":"\n                    <p><b>Action: <em>harvest</em></b></p>\n                    <p>This is the bee that you just saw.</p>\n                    <img src=\"bees-with-color/bee-A1DM.svg\" width=\"200\">\n                    <p><span class=\"greenText\"><b>Successful harvest!</b></span><br>Your pay has increased by $0.02. Your bonus pay is now $0.46.</p>\n            ","response":0,"trial_type":"html-button-response","trial_index":30,"time_elapsed":532515,"internal_node_id":"0.0-4.0-1.9","subject_id":"61375face66135aec3d9c3bd","study_id":"6197b3f67c2b5cd3b6d9596a","session_id":"6197bba2bf906f3cf0c7a2a2","condition":"contingent","relevant_dimensions":["wings","legs"],"bee_group":{"antennae":"X","wings":"1","pattern":"X","legs":"F"},"bonus":0.980000000000001},{"rt":1544.699999988079,"stimulus":"bees-with-color/bee-A1SF.svg","response":0,"trial_type":"image-button-response","trial_index":31,"time_elapsed":534062,"internal_node_id":"0.0-4.0-0.10","subject_id":"61375face66135aec3d9c3bd","study_id":"6197b3f67c2b5cd3b6d9596a","session_id":"6197bba2bf906f3cf0c7a2a2","condition":"contingent","relevant_dimensions":["wings","legs"],"bee_group":{"antennae":"X","wings":"1","pattern":"X","legs":"F"},"action":"harvest","summary":"bad-harvest","bonus":0.980000000000001},{"rt":3863.4000000059605,"stimulus":"\n                    <p><b>Action: <em>harvest</em></b></p>\n                    <p>This is the bee that you just saw.</p>\n                    <img src=\"bees-with-color/bee-A1SF.svg\" width=\"200\">\n                    <p><span class=\"redText\">Bad choice, the bee was angry.</span><br><b>You have been stung!</b><br>Your pay has been decreased by $0.10. Your bonus pay is now $0.36.</p>\n            ","response":0,"trial_type":"html-button-response","trial_index":32,"time_elapsed":537927,"internal_node_id":"0.0-4.0-1.10","subject_id":"61375face66135aec3d9c3bd","study_id":"6197b3f67c2b5cd3b6d9596a","session_id":"6197bba2bf906f3cf0c7a2a2","condition":"contingent","relevant_dimensions":["wings","legs"],"bee_group":{"antennae":"X","wings":"1","pattern":"X","legs":"F"},"bonus":0.980000000000001},{"rt":1822,"stimulus":"bees-with-color/bee-B2DM.svg","response":0,"trial_type":"image-button-response","trial_index":33,"time_elapsed":539751,"internal_node_id":"0.0-4.0-0.11","subject_id":"61375face66135aec3d9c3bd","study_id":"6197b3f67c2b5cd3b6d9596a","session_id":"6197bba2bf906f3cf0c7a2a2","condition":"contingent","relevant_dimensions":["wings","legs"],"bee_group":{"antennae":"X","wings":"1","pattern":"X","legs":"F"},"action":"harvest","summary":"good-harvest","bonus":0.980000000000001},{"rt":1739.9000000059605,"stimulus":"\n                    <p><b>Action: <em>harvest</em></b></p>\n                    <p>This is the bee that you just saw.</p>\n                    <img src=\"bees-with-color/bee-B2DM.svg\" width=\"200\">\n                    <p><span class=\"greenText\"><b>Successful harvest!</b></span><br>Your pay has increased by $0.02. Your bonus pay is now $0.38.</p>\n            ","response":0,"trial_type":"html-button-response","trial_index":34,"time_elapsed":541492,"internal_node_id":"0.0-4.0-1.11","subject_id":"61375face66135aec3d9c3bd","study_id":"6197b3f67c2b5cd3b6d9596a","session_id":"6197bba2bf906f3cf0c7a2a2","condition":"contingent","relevant_dimensions":["wings","legs"],"bee_group":{"antennae":"X","wings":"1","pattern":"X","legs":"F"},"bonus":0.980000000000001},{"rt":2101,"stimulus":"bees-with-color/bee-B1DM.svg","response":1,"trial_type":"image-button-response","trial_index":35,"time_elapsed":543595,"internal_node_id":"0.0-4.0-0.12","subject_id":"61375face66135aec3d9c3bd","study_id":"6197b3f67c2b5cd3b6d9596a","session_id":"6197bba2bf906f3cf0c7a2a2","condition":"contingent","relevant_dimensions":["wings","legs"],"bee_group":{"antennae":"X","wings":"1","pattern":"X","legs":"F"},"action":"avoid","summary":"bad-avoid","bonus":0.980000000000001},{"rt":2822.0999999940395,"stimulus":"\n                    <p><b>Action: <em>avoid</em></b></p>\n                    <p>This is the bee that you just saw.</p>\n                    <img src=\"bees-with-color/bee-B1DM.svg\" width=\"200\">\n                    <p><br>Your bonus pay is unchanged, and remains at $0.38.</p>\n            ","response":0,"trial_type":"html-button-response","trial_index":36,"time_elapsed":546418,"internal_node_id":"0.0-4.0-1.12","subject_id":"61375face66135aec3d9c3bd","study_id":"6197b3f67c2b5cd3b6d9596a","session_id":"6197bba2bf906f3cf0c7a2a2","condition":"contingent","relevant_dimensions":["wings","legs"],"bee_group":{"antennae":"X","wings":"1","pattern":"X","legs":"F"},"bonus":0.980000000000001},{"rt":1070.5999999940395,"stimulus":"bees-with-color/bee-B2SF.svg","response":0,"trial_type":"image-button-response","trial_index":37,"time_elapsed":547491,"internal_node_id":"0.0-4.0-0.13","subject_id":"61375face66135aec3d9c3bd","study_id":"6197b3f67c2b5cd3b6d9596a","session_id":"6197bba2bf906f3cf0c7a2a2","condition":"contingent","relevant_dimensions":["wings","legs"],"bee_group":{"antennae":"X","wings":"1","pattern":"X","legs":"F"},"action":"harvest","summary":"good-harvest","bonus":0.980000000000001},{"rt":1667.699999988079,"stimulus":"\n                    <p><b>Action: <em>harvest</em></b></p>\n                    <p>This is the bee that you just saw.</p>\n                    <img src=\"bees-with-color/bee-B2SF.svg\" width=\"200\">\n                    <p><span class=\"greenText\"><b>Successful harvest!</b></span><br>Your pay has increased by $0.02. Your bonus pay is now $0.40.</p>\n            ","response":0,"trial_type":"html-button-response","trial_index":38,"time_elapsed":549160,"internal_node_id":"0.0-4.0-1.13","subject_id":"61375face66135aec3d9c3bd","study_id":"6197b3f67c2b5cd3b6d9596a","session_id":"6197bba2bf906f3cf0c7a2a2","condition":"contingent","relevant_dimensions":["wings","legs"],"bee_group":{"antennae":"X","wings":"1","pattern":"X","legs":"F"},"bonus":0.980000000000001},{"rt":1749.7999999821186,"stimulus":"bees-with-color/bee-A2SM.svg","response":0,"trial_type":"image-button-response","trial_index":39,"time_elapsed":550911,"internal_node_id":"0.0-4.0-0.14","subject_id":"61375face66135aec3d9c3bd","study_id":"6197b3f67c2b5cd3b6d9596a","session_id":"6197bba2bf906f3cf0c7a2a2","condition":"contingent","relevant_dimensions":["wings","legs"],"bee_group":{"antennae":"X","wings":"1","pattern":"X","legs":"F"},"action":"harvest","summary":"good-harvest","bonus":0.980000000000001},{"rt":1812.5,"stimulus":"\n                    <p><b>Action: <em>harvest</em></b></p>\n                    <p>This is the bee that you just saw.</p>\n                    <img src=\"bees-with-color/bee-A2SM.svg\" width=\"200\">\n                    <p><span class=\"greenText\"><b>Successful harvest!</b></span><br>Your pay has increased by $0.02. Your bonus pay is now $0.42.</p>\n            ","response":0,"trial_type":"html-button-response","trial_index":40,"time_elapsed":552725,"internal_node_id":"0.0-4.0-1.14","subject_id":"61375face66135aec3d9c3bd","study_id":"6197b3f67c2b5cd3b6d9596a","session_id":"6197bba2bf906f3cf0c7a2a2","condition":"contingent","relevant_dimensions":["wings","legs"],"bee_group":{"antennae":"X","wings":"1","pattern":"X","legs":"F"},"bonus":0.980000000000001},{"rt":3244.9000000059605,"stimulus":"bees-with-color/bee-A2DF.svg","response":1,"trial_type":"image-button-response","trial_index":41,"time_elapsed":555971,"internal_node_id":"0.0-4.0-0.15","subject_id":"61375face66135aec3d9c3bd","study_id":"6197b3f67c2b5cd3b6d9596a","session_id":"6197bba2bf906f3cf0c7a2a2","condition":"contingent","relevant_dimensions":["wings","legs"],"bee_group":{"antennae":"X","wings":"1","pattern":"X","legs":"F"},"action":"avoid","summary":"bad-avoid","bonus":0.980000000000001},{"rt":4743.4000000059605,"stimulus":"\n                    <p><b>Action: <em>avoid</em></b></p>\n                    <p>This is the bee that you just saw.</p>\n                    <img src=\"bees-with-color/bee-A2DF.svg\" width=\"200\">\n                    <p><br>Your bonus pay is unchanged, and remains at $0.42.</p>\n            ","response":0,"trial_type":"html-button-response","trial_index":42,"time_elapsed":560716,"internal_node_id":"0.0-4.0-1.15","subject_id":"61375face66135aec3d9c3bd","study_id":"6197b3f67c2b5cd3b6d9596a","session_id":"6197bba2bf906f3cf0c7a2a2","condition":"contingent","relevant_dimensions":["wings","legs"],"bee_group":{"antennae":"X","wings":"1","pattern":"X","legs":"F"},"bonus":0.980000000000001},{"rt":1575,"stimulus":"bees-with-color/bee-A1DF.svg","response":0,"trial_type":"image-button-response","trial_index":43,"time_elapsed":562292,"internal_node_id":"0.0-4.0-0.16","subject_id":"61375face66135aec3d9c3bd","study_id":"6197b3f67c2b5cd3b6d9596a","session_id":"6197bba2bf906f3cf0c7a2a2","condition":"contingent","relevant_dimensions":["wings","legs"],"bee_group":{"antennae":"X","wings":"1","pattern":"X","legs":"F"},"action":"harvest","summary":"bad-harvest","bonus":0.980000000000001},{"rt":2265.5,"stimulus":"\n                    <p><b>Action: <em>harvest</em></b></p>\n                    <p>This is the bee that you just saw.</p>\n                    <img src=\"bees-with-color/bee-A1DF.svg\" width=\"200\">\n                    <p><span class=\"redText\">Bad choice, the bee was angry.</span><br><b>You have been stung!</b><br>Your pay has been decreased by $0.10. Your bonus pay is now $0.32.</p>\n            ","response":0,"trial_type":"html-button-response","trial_index":44,"time_elapsed":564559,"internal_node_id":"0.0-4.0-1.16","subject_id":"61375face66135aec3d9c3bd","study_id":"6197b3f67c2b5cd3b6d9596a","session_id":"6197bba2bf906f3cf0c7a2a2","condition":"contingent","relevant_dimensions":["wings","legs"],"bee_group":{"antennae":"X","wings":"1","pattern":"X","legs":"F"},"bonus":0.980000000000001},{"rt":1193.3999999761581,"stimulus":"bees-with-color/bee-B2DM.svg","response":0,"trial_type":"image-button-response","trial_index":45,"time_elapsed":565753,"internal_node_id":"0.0-4.0-0.17","subject_id":"61375face66135aec3d9c3bd","study_id":"6197b3f67c2b5cd3b6d9596a","session_id":"6197bba2bf906f3cf0c7a2a2","condition":"contingent","relevant_dimensions":["wings","legs"],"bee_group":{"antennae":"X","wings":"1","pattern":"X","legs":"F"},"action":"harvest","summary":"good-harvest","bonus":0.980000000000001},{"rt":2750.5,"stimulus":"\n                    <p><b>Action: <em>harvest</em></b></p>\n                    <p>This is the bee that you just saw.</p>\n                    <img src=\"bees-with-color/bee-B2DM.svg\" width=\"200\">\n                    <p><span class=\"greenText\"><b>Successful harvest!</b></span><br>Your pay has increased by $0.02. Your bonus pay is now $0.34.</p>\n            ","response":0,"trial_type":"html-button-response","trial_index":46,"time_elapsed":568505,"internal_node_id":"0.0-4.0-1.17","subject_id":"61375face66135aec3d9c3bd","study_id":"6197b3f67c2b5cd3b6d9596a","session_id":"6197bba2bf906f3cf0c7a2a2","condition":"contingent","relevant_dimensions":["wings","legs"],"bee_group":{"antennae":"X","wings":"1","pattern":"X","legs":"F"},"bonus":0.980000000000001},{"rt":3069.2999999821186,"stimulus":"bees-with-color/bee-A1DM.svg","response":1,"trial_type":"image-button-response","trial_index":47,"time_elapsed":571576,"internal_node_id":"0.0-4.0-0.18","subject_id":"61375face66135aec3d9c3bd","study_id":"6197b3f67c2b5cd3b6d9596a","session_id":"6197bba2bf906f3cf0c7a2a2","condition":"contingent","relevant_dimensions":["wings","legs"],"bee_group":{"antennae":"X","wings":"1","pattern":"X","legs":"F"},"action":"avoid","summary":"bad-avoid","bonus":0.980000000000001},{"rt":4692.299999982119,"stimulus":"\n                    <p><b>Action: <em>avoid</em></b></p>\n                    <p>This is the bee that you just saw.</p>\n                    <img src=\"bees-with-color/bee-A1DM.svg\" width=\"200\">\n                    <p><br>Your bonus pay is unchanged, and remains at $0.34.</p>\n            ","response":0,"trial_type":"html-button-response","trial_index":48,"time_elapsed":576269,"internal_node_id":"0.0-4.0-1.18","subject_id":"61375face66135aec3d9c3bd","study_id":"6197b3f67c2b5cd3b6d9596a","session_id":"6197bba2bf906f3cf0c7a2a2","condition":"contingent","relevant_dimensions":["wings","legs"],"bee_group":{"antennae":"X","wings":"1","pattern":"X","legs":"F"},"bonus":0.980000000000001},{"rt":2461,"stimulus":"bees-with-color/bee-A2DM.svg","response":1,"trial_type":"image-button-response","trial_index":49,"time_elapsed":578732,"internal_node_id":"0.0-4.0-0.19","subject_id":"61375face66135aec3d9c3bd","study_id":"6197b3f67c2b5cd3b6d9596a","session_id":"6197bba2bf906f3cf0c7a2a2","condition":"contingent","relevant_dimensions":["wings","legs"],"bee_group":{"antennae":"X","wings":"1","pattern":"X","legs":"F"},"action":"avoid","summary":"bad-avoid","bonus":0.980000000000001},{"rt":4949.200000017881,"stimulus":"\n                    <p><b>Action: <em>avoid</em></b></p>\n                    <p>This is the bee that you just saw.</p>\n                    <img src=\"bees-with-color/bee-A2DM.svg\" width=\"200\">\n                    <p><br>Your bonus pay is unchanged, and remains at $0.34.</p>\n            ","response":0,"trial_type":"html-button-response","trial_index":50,"time_elapsed":583682,"internal_node_id":"0.0-4.0-1.19","subject_id":"61375face66135aec3d9c3bd","study_id":"6197b3f67c2b5cd3b6d9596a","session_id":"6197bba2bf906f3cf0c7a2a2","condition":"contingent","relevant_dimensions":["wings","legs"],"bee_group":{"antennae":"X","wings":"1","pattern":"X","legs":"F"},"bonus":0.980000000000001},{"rt":1667.5999999940395,"stimulus":"bees-with-color/bee-B2SM.svg","response":0,"trial_type":"image-button-response","trial_index":51,"time_elapsed":585351,"internal_node_id":"0.0-4.0-0.20","subject_id":"61375face66135aec3d9c3bd","study_id":"6197b3f67c2b5cd3b6d9596a","session_id":"6197bba2bf906f3cf0c7a2a2","condition":"contingent","relevant_dimensions":["wings","legs"],"bee_group":{"antennae":"X","wings":"1","pattern":"X","legs":"F"},"action":"harvest","summary":"good-harvest","bonus":0.980000000000001},{"rt":1513.5,"stimulus":"\n                    <p><b>Action: <em>harvest</em></b></p>\n                    <p>This is the bee that you just saw.</p>\n                    <img src=\"bees-with-color/bee-B2SM.svg\" width=\"200\">\n                    <p><span class=\"greenText\"><b>Successful harvest!</b></span><br>Your pay has increased by $0.02. Your bonus pay is now $0.36.</p>\n            ","response":0,"trial_type":"html-button-response","trial_index":52,"time_elapsed":586866,"internal_node_id":"0.0-4.0-1.20","subject_id":"61375face66135aec3d9c3bd","study_id":"6197b3f67c2b5cd3b6d9596a","session_id":"6197bba2bf906f3cf0c7a2a2","condition":"contingent","relevant_dimensions":["wings","legs"],"bee_group":{"antennae":"X","wings":"1","pattern":"X","legs":"F"},"bonus":0.980000000000001},{"rt":2193.9000000059605,"stimulus":"bees-with-color/bee-B2SF.svg","response":0,"trial_type":"image-button-response","trial_index":53,"time_elapsed":589061,"internal_node_id":"0.0-4.0-0.21","subject_id":"61375face66135aec3d9c3bd","study_id":"6197b3f67c2b5cd3b6d9596a","session_id":"6197bba2bf906f3cf0c7a2a2","condition":"contingent","relevant_dimensions":["wings","legs"],"bee_group":{"antennae":"X","wings":"1","pattern":"X","legs":"F"},"action":"harvest","summary":"good-harvest","bonus":0.980000000000001},{"rt":3506.0999999940395,"stimulus":"\n                    <p><b>Action: <em>harvest</em></b></p>\n                    <p>This is the bee that you just saw.</p>\n                    <img src=\"bees-with-color/bee-B2SF.svg\" width=\"200\">\n                    <p><span class=\"greenText\"><b>Successful harvest!</b></span><br>Your pay has increased by $0.02. Your bonus pay is now $0.38.</p>\n            ","response":0,"trial_type":"html-button-response","trial_index":54,"time_elapsed":592569,"internal_node_id":"0.0-4.0-1.21","subject_id":"61375face66135aec3d9c3bd","study_id":"6197b3f67c2b5cd3b6d9596a","session_id":"6197bba2bf906f3cf0c7a2a2","condition":"contingent","relevant_dimensions":["wings","legs"],"bee_group":{"antennae":"X","wings":"1","pattern":"X","legs":"F"},"bonus":0.980000000000001},{"rt":3286.199999988079,"stimulus":"bees-with-color/bee-A2SF.svg","response":1,"trial_type":"image-button-response","trial_index":55,"time_elapsed":595857,"internal_node_id":"0.0-4.0-0.22","subject_id":"61375face66135aec3d9c3bd","study_id":"6197b3f67c2b5cd3b6d9596a","session_id":"6197bba2bf906f3cf0c7a2a2","condition":"contingent","relevant_dimensions":["wings","legs"],"bee_group":{"antennae":"X","wings":"1","pattern":"X","legs":"F"},"action":"avoid","summary":"bad-avoid","bonus":0.980000000000001},{"rt":40591.19999998808,"stimulus":"\n                    <p><b>Action: <em>avoid</em></b></p>\n                    <p>This is the bee that you just saw.</p>\n                    <img src=\"bees-with-color/bee-A2SF.svg\" width=\"200\">\n                    <p><br>Your bonus pay is unchanged, and remains at $0.38.</p>\n            ","response":0,"trial_type":"html-button-response","trial_index":56,"time_elapsed":636449,"internal_node_id":"0.0-4.0-1.22","subject_id":"61375face66135aec3d9c3bd","study_id":"6197b3f67c2b5cd3b6d9596a","session_id":"6197bba2bf906f3cf0c7a2a2","condition":"contingent","relevant_dimensions":["wings","legs"],"bee_group":{"antennae":"X","wings":"1","pattern":"X","legs":"F"},"bonus":0.980000000000001},{"rt":1822.5,"stimulus":"bees-with-color/bee-B1SF.svg","response":0,"trial_type":"image-button-response","trial_index":57,"time_elapsed":638273,"internal_node_id":"0.0-4.0-0.23","subject_id":"61375face66135aec3d9c3bd","study_id":"6197b3f67c2b5cd3b6d9596a","session_id":"6197bba2bf906f3cf0c7a2a2","condition":"contingent","relevant_dimensions":["wings","legs"],"bee_group":{"antennae":"X","wings":"1","pattern":"X","legs":"F"},"action":"harvest","summary":"bad-harvest","bonus":0.980000000000001},{"rt":8652.40000000596,"stimulus":"\n                    <p><b>Action: <em>harvest</em></b></p>\n                    <p>This is the bee that you just saw.</p>\n                    <img src=\"bees-with-color/bee-B1SF.svg\" width=\"200\">\n                    <p><span class=\"redText\">Bad choice, the bee was angry.</span><br><b>You have been stung!</b><br>Your pay has been decreased by $0.10. Your bonus pay is now $0.28.</p>\n            ","response":0,"trial_type":"html-button-response","trial_index":58,"time_elapsed":646927,"internal_node_id":"0.0-4.0-1.23","subject_id":"61375face66135aec3d9c3bd","study_id":"6197b3f67c2b5cd3b6d9596a","session_id":"6197bba2bf906f3cf0c7a2a2","condition":"contingent","relevant_dimensions":["wings","legs"],"bee_group":{"antennae":"X","wings":"1","pattern":"X","legs":"F"},"bonus":0.980000000000001},{"rt":1945.9000000059605,"stimulus":"bees-with-color/bee-B1DM.svg","response":1,"trial_type":"image-button-response","trial_index":59,"time_elapsed":648875,"internal_node_id":"0.0-4.0-0.24","subject_id":"61375face66135aec3d9c3bd","study_id":"6197b3f67c2b5cd3b6d9596a","session_id":"6197bba2bf906f3cf0c7a2a2","condition":"contingent","relevant_dimensions":["wings","legs"],"bee_group":{"antennae":"X","wings":"1","pattern":"X","legs":"F"},"action":"avoid","summary":"bad-avoid","bonus":0.980000000000001},{"rt":3559.2999999821186,"stimulus":"\n                    <p><b>Action: <em>avoid</em></b></p>\n                    <p>This is the bee that you just saw.</p>\n                    <img src=\"bees-with-color/bee-B1DM.svg\" width=\"200\">\n                    <p><br>Your bonus pay is unchanged, and remains at $0.28.</p>\n            ","response":0,"trial_type":"html-button-response","trial_index":60,"time_elapsed":652435,"internal_node_id":"0.0-4.0-1.24","subject_id":"61375face66135aec3d9c3bd","study_id":"6197b3f67c2b5cd3b6d9596a","session_id":"6197bba2bf906f3cf0c7a2a2","condition":"contingent","relevant_dimensions":["wings","legs"],"bee_group":{"antennae":"X","wings":"1","pattern":"X","legs":"F"},"bonus":0.980000000000001},{"rt":1729.9000000059605,"stimulus":"bees-with-color/bee-A2SM.svg","response":0,"trial_type":"image-button-response","trial_index":61,"time_elapsed":654167,"internal_node_id":"0.0-4.0-0.25","subject_id":"61375face66135aec3d9c3bd","study_id":"6197b3f67c2b5cd3b6d9596a","session_id":"6197bba2bf906f3cf0c7a2a2","condition":"contingent","relevant_dimensions":["wings","legs"],"bee_group":{"antennae":"X","wings":"1","pattern":"X","legs":"F"},"action":"harvest","summary":"good-harvest","bonus":0.980000000000001},{"rt":1658.0999999940395,"stimulus":"\n                    <p><b>Action: <em>harvest</em></b></p>\n                    <p>This is the bee that you just saw.</p>\n                    <img src=\"bees-with-color/bee-A2SM.svg\" width=\"200\">\n                    <p><span class=\"greenText\"><b>Successful harvest!</b></span><br>Your pay has increased by $0.02. Your bonus pay is now $0.30.</p>\n            ","response":0,"trial_type":"html-button-response","trial_index":62,"time_elapsed":655826,"internal_node_id":"0.0-4.0-1.25","subject_id":"61375face66135aec3d9c3bd","study_id":"6197b3f67c2b5cd3b6d9596a","session_id":"6197bba2bf906f3cf0c7a2a2","condition":"contingent","relevant_dimensions":["wings","legs"],"bee_group":{"antennae":"X","wings":"1","pattern":"X","legs":"F"},"bonus":0.980000000000001},{"rt":1224.4000000059605,"stimulus":"bees-with-color/bee-A1SF.svg","response":1,"trial_type":"image-button-response","trial_index":63,"time_elapsed":657052,"internal_node_id":"0.0-4.0-0.26","subject_id":"61375face66135aec3d9c3bd","study_id":"6197b3f67c2b5cd3b6d9596a","session_id":"6197bba2bf906f3cf0c7a2a2","condition":"contingent","relevant_dimensions":["wings","legs"],"bee_group":{"antennae":"X","wings":"1","pattern":"X","legs":"F"},"action":"avoid","summary":"good-avoid","bonus":0.980000000000001},{"rt":2214.800000011921,"stimulus":"\n                    <p><b>Action: <em>avoid</em></b></p>\n                    <p>This is the bee that you just saw.</p>\n                    <img src=\"bees-with-color/bee-A1SF.svg\" width=\"200\">\n                    <p><br>Your bonus pay is unchanged, and remains at $0.30.</p>\n            ","response":0,"trial_type":"html-button-response","trial_index":64,"time_elapsed":659269,"internal_node_id":"0.0-4.0-1.26","subject_id":"61375face66135aec3d9c3bd","study_id":"6197b3f67c2b5cd3b6d9596a","session_id":"6197bba2bf906f3cf0c7a2a2","condition":"contingent","relevant_dimensions":["wings","legs"],"bee_group":{"antennae":"X","wings":"1","pattern":"X","legs":"F"},"bonus":0.980000000000001},{"rt":1193.800000011921,"stimulus":"bees-with-color/bee-B2DF.svg","response":0,"trial_type":"image-button-response","trial_index":65,"time_elapsed":660464,"internal_node_id":"0.0-4.0-0.27","subject_id":"61375face66135aec3d9c3bd","study_id":"6197b3f67c2b5cd3b6d9596a","session_id":"6197bba2bf906f3cf0c7a2a2","condition":"contingent","relevant_dimensions":["wings","legs"],"bee_group":{"antennae":"X","wings":"1","pattern":"X","legs":"F"},"action":"harvest","summary":"good-harvest","bonus":0.980000000000001},{"rt":1400,"stimulus":"\n                    <p><b>Action: <em>harvest</em></b></p>\n                    <p>This is the bee that you just saw.</p>\n                    <img src=\"bees-with-color/bee-B2DF.svg\" width=\"200\">\n                    <p><span class=\"greenText\"><b>Successful harvest!</b></span><br>Your pay has increased by $0.02. Your bonus pay is now $0.32.</p>\n            ","response":0,"trial_type":"html-button-response","trial_index":66,"time_elapsed":661865,"internal_node_id":"0.0-4.0-1.27","subject_id":"61375face66135aec3d9c3bd","study_id":"6197b3f67c2b5cd3b6d9596a","session_id":"6197bba2bf906f3cf0c7a2a2","condition":"contingent","relevant_dimensions":["wings","legs"],"bee_group":{"antennae":"X","wings":"1","pattern":"X","legs":"F"},"bonus":0.980000000000001},{"rt":1452.0999999940395,"stimulus":"bees-with-color/bee-A1SM.svg","response":1,"trial_type":"image-button-response","trial_index":67,"time_elapsed":663319,"internal_node_id":"0.0-4.0-0.28","subject_id":"61375face66135aec3d9c3bd","study_id":"6197b3f67c2b5cd3b6d9596a","session_id":"6197bba2bf906f3cf0c7a2a2","condition":"contingent","relevant_dimensions":["wings","legs"],"bee_group":{"antennae":"X","wings":"1","pattern":"X","legs":"F"},"action":"avoid","summary":"bad-avoid","bonus":0.980000000000001},{"rt":1615.9000000059605,"stimulus":"\n                    <p><b>Action: <em>avoid</em></b></p>\n                    <p>This is the bee that you just saw.</p>\n                    <img src=\"bees-with-color/bee-A1SM.svg\" width=\"200\">\n                    <p><br>Your bonus pay is unchanged, and remains at $0.32.</p>\n            ","response":0,"trial_type":"html-button-response","trial_index":68,"time_elapsed":664936,"internal_node_id":"0.0-4.0-1.28","subject_id":"61375face66135aec3d9c3bd","study_id":"6197b3f67c2b5cd3b6d9596a","session_id":"6197bba2bf906f3cf0c7a2a2","condition":"contingent","relevant_dimensions":["wings","legs"],"bee_group":{"antennae":"X","wings":"1","pattern":"X","legs":"F"},"bonus":0.980000000000001},{"rt":1060.0999999940395,"stimulus":"bees-with-color/bee-A2DF.svg","response":0,"trial_type":"image-button-response","trial_index":69,"time_elapsed":665997,"internal_node_id":"0.0-4.0-0.29","subject_id":"61375face66135aec3d9c3bd","study_id":"6197b3f67c2b5cd3b6d9596a","session_id":"6197bba2bf906f3cf0c7a2a2","condition":"contingent","relevant_dimensions":["wings","legs"],"bee_group":{"antennae":"X","wings":"1","pattern":"X","legs":"F"},"action":"harvest","summary":"good-harvest","bonus":0.980000000000001},{"rt":1999.0999999940395,"stimulus":"\n                    <p><b>Action: <em>harvest</em></b></p>\n                    <p>This is the bee that you just saw.</p>\n                    <img src=\"bees-with-color/bee-A2DF.svg\" width=\"200\">\n                    <p><span class=\"greenText\"><b>Successful harvest!</b></span><br>Your pay has increased by $0.02. Your bonus pay is now $0.34.</p>\n            ","response":0,"trial_type":"html-button-response","trial_index":70,"time_elapsed":667998,"internal_node_id":"0.0-4.0-1.29","subject_id":"61375face66135aec3d9c3bd","study_id":"6197b3f67c2b5cd3b6d9596a","session_id":"6197bba2bf906f3cf0c7a2a2","condition":"contingent","relevant_dimensions":["wings","legs"],"bee_group":{"antennae":"X","wings":"1","pattern":"X","legs":"F"},"bonus":0.980000000000001},{"rt":1090.5,"stimulus":"bees-with-color/bee-B1SM.svg","response":1,"trial_type":"image-button-response","trial_index":71,"time_elapsed":669090,"internal_node_id":"0.0-4.0-0.30","subject_id":"61375face66135aec3d9c3bd","study_id":"6197b3f67c2b5cd3b6d9596a","session_id":"6197bba2bf906f3cf0c7a2a2","condition":"contingent","relevant_dimensions":["wings","legs"],"bee_group":{"antennae":"X","wings":"1","pattern":"X","legs":"F"},"action":"avoid","summary":"bad-avoid","bonus":0.980000000000001},{"rt":2915.9000000059605,"stimulus":"\n                    <p><b>Action: <em>avoid</em></b></p>\n                    <p>This is the bee that you just saw.</p>\n                    <img src=\"bees-with-color/bee-B1SM.svg\" width=\"200\">\n                    <p><br>Your bonus pay is unchanged, and remains at $0.34.</p>\n            ","response":0,"trial_type":"html-button-response","trial_index":72,"time_elapsed":672008,"internal_node_id":"0.0-4.0-1.30","subject_id":"61375face66135aec3d9c3bd","study_id":"6197b3f67c2b5cd3b6d9596a","session_id":"6197bba2bf906f3cf0c7a2a2","condition":"contingent","relevant_dimensions":["wings","legs"],"bee_group":{"antennae":"X","wings":"1","pattern":"X","legs":"F"},"bonus":0.980000000000001},{"rt":1431.0999999940395,"stimulus":"bees-with-color/bee-B1DF.svg","response":1,"trial_type":"image-button-response","trial_index":73,"time_elapsed":673440,"internal_node_id":"0.0-4.0-0.31","subject_id":"61375face66135aec3d9c3bd","study_id":"6197b3f67c2b5cd3b6d9596a","session_id":"6197bba2bf906f3cf0c7a2a2","condition":"contingent","relevant_dimensions":["wings","legs"],"bee_group":{"antennae":"X","wings":"1","pattern":"X","legs":"F"},"action":"avoid","summary":"good-avoid","bonus":0.980000000000001},{"rt":1266.0999999940395,"stimulus":"\n                    <p><b>Action: <em>avoid</em></b></p>\n                    <p>This is the bee that you just saw.</p>\n                    <img src=\"bees-with-color/bee-B1DF.svg\" width=\"200\">\n                    <p><br>Your bonus pay is unchanged, and remains at $0.34.</p>\n            ","response":0,"trial_type":"html-button-response","trial_index":74,"time_elapsed":674708,"internal_node_id":"0.0-4.0-1.31","subject_id":"61375face66135aec3d9c3bd","study_id":"6197b3f67c2b5cd3b6d9596a","session_id":"6197bba2bf906f3cf0c7a2a2","condition":"contingent","relevant_dimensions":["wings","legs"],"bee_group":{"antennae":"X","wings":"1","pattern":"X","legs":"F"},"bonus":0.980000000000001},{"rt":1163.300000011921,"stimulus":"bees-with-color/bee-B2SM.svg","response":0,"trial_type":"image-button-response","trial_index":75,"time_elapsed":675872,"internal_node_id":"0.0-4.0-0.32","subject_id":"61375face66135aec3d9c3bd","study_id":"6197b3f67c2b5cd3b6d9596a","session_id":"6197bba2bf906f3cf0c7a2a2","condition":"contingent","relevant_dimensions":["wings","legs"],"bee_group":{"antennae":"X","wings":"1","pattern":"X","legs":"F"},"action":"harvest","summary":"good-harvest","bonus":0.980000000000001},{"rt":1153.5,"stimulus":"\n                    <p><b>Action: <em>harvest</em></b></p>\n                    <p>This is the bee that you just saw.</p>\n                    <img src=\"bees-with-color/bee-B2SM.svg\" width=\"200\">\n                    <p><span class=\"greenText\"><b>Successful harvest!</b></span><br>Your pay has increased by $0.02. Your bonus pay is now $0.36.</p>\n            ","response":0,"trial_type":"html-button-response","trial_index":76,"time_elapsed":677027,"internal_node_id":"0.0-4.0-1.32","subject_id":"61375face66135aec3d9c3bd","study_id":"6197b3f67c2b5cd3b6d9596a","session_id":"6197bba2bf906f3cf0c7a2a2","condition":"contingent","relevant_dimensions":["wings","legs"],"bee_group":{"antennae":"X","wings":"1","pattern":"X","legs":"F"},"bonus":0.980000000000001},{"rt":1328.2999999821186,"stimulus":"bees-with-color/bee-B1SF.svg","response":1,"trial_type":"image-button-response","trial_index":77,"time_elapsed":678357,"internal_node_id":"0.0-4.0-0.33","subject_id":"61375face66135aec3d9c3bd","study_id":"6197b3f67c2b5cd3b6d9596a","session_id":"6197bba2bf906f3cf0c7a2a2","condition":"contingent","relevant_dimensions":["wings","legs"],"bee_group":{"antennae":"X","wings":"1","pattern":"X","legs":"F"},"action":"avoid","summary":"good-avoid","bonus":0.980000000000001},{"rt":1327.9000000059605,"stimulus":"\n                    <p><b>Action: <em>avoid</em></b></p>\n                    <p>This is the bee that you just saw.</p>\n                    <img src=\"bees-with-color/bee-B1SF.svg\" width=\"200\">\n                    <p><br>Your bonus pay is unchanged, and remains at $0.36.</p>\n            ","response":0,"trial_type":"html-button-response","trial_index":78,"time_elapsed":679686,"internal_node_id":"0.0-4.0-1.33","subject_id":"61375face66135aec3d9c3bd","study_id":"6197b3f67c2b5cd3b6d9596a","session_id":"6197bba2bf906f3cf0c7a2a2","condition":"contingent","relevant_dimensions":["wings","legs"],"bee_group":{"antennae":"X","wings":"1","pattern":"X","legs":"F"},"bonus":0.980000000000001},{"rt":1535.1000000238419,"stimulus":"bees-with-color/bee-B1DF.svg","response":1,"trial_type":"image-button-response","trial_index":79,"time_elapsed":681223,"internal_node_id":"0.0-4.0-0.34","subject_id":"61375face66135aec3d9c3bd","study_id":"6197b3f67c2b5cd3b6d9596a","session_id":"6197bba2bf906f3cf0c7a2a2","condition":"contingent","relevant_dimensions":["wings","legs"],"bee_group":{"antennae":"X","wings":"1","pattern":"X","legs":"F"},"action":"avoid","summary":"good-avoid","bonus":0.980000000000001},{"rt":1132.2999999821186,"stimulus":"\n                    <p><b>Action: <em>avoid</em></b></p>\n                    <p>This is the bee that you just saw.</p>\n                    <img src=\"bees-with-color/bee-B1DF.svg\" width=\"200\">\n                    <p><br>Your bonus pay is unchanged, and remains at $0.36.</p>\n            ","response":0,"trial_type":"html-button-response","trial_index":80,"time_elapsed":682357,"internal_node_id":"0.0-4.0-1.34","subject_id":"61375face66135aec3d9c3bd","study_id":"6197b3f67c2b5cd3b6d9596a","session_id":"6197bba2bf906f3cf0c7a2a2","condition":"contingent","relevant_dimensions":["wings","legs"],"bee_group":{"antennae":"X","wings":"1","pattern":"X","legs":"F"},"bonus":0.980000000000001},{"rt":1112.5999999940395,"stimulus":"bees-with-color/bee-A2DM.svg","response":0,"trial_type":"image-button-response","trial_index":81,"time_elapsed":683471,"internal_node_id":"0.0-4.0-0.35","subject_id":"61375face66135aec3d9c3bd","study_id":"6197b3f67c2b5cd3b6d9596a","session_id":"6197bba2bf906f3cf0c7a2a2","condition":"contingent","relevant_dimensions":["wings","legs"],"bee_group":{"antennae":"X","wings":"1","pattern":"X","legs":"F"},"action":"harvest","summary":"good-harvest","bonus":0.980000000000001},{"rt":1080.199999988079,"stimulus":"\n                    <p><b>Action: <em>harvest</em></b></p>\n                    <p>This is the bee that you just saw.</p>\n                    <img src=\"bees-with-color/bee-A2DM.svg\" width=\"200\">\n                    <p><span class=\"greenText\"><b>Successful harvest!</b></span><br>Your pay has increased by $0.02. Your bonus pay is now $0.38.</p>\n            ","response":0,"trial_type":"html-button-response","trial_index":82,"time_elapsed":684553,"internal_node_id":"0.0-4.0-1.35","subject_id":"61375face66135aec3d9c3bd","study_id":"6197b3f67c2b5cd3b6d9596a","session_id":"6197bba2bf906f3cf0c7a2a2","condition":"contingent","relevant_dimensions":["wings","legs"],"bee_group":{"antennae":"X","wings":"1","pattern":"X","legs":"F"},"bonus":0.980000000000001},{"rt":1194,"stimulus":"bees-with-color/bee-B2DF.svg","response":0,"trial_type":"image-button-response","trial_index":83,"time_elapsed":685748,"internal_node_id":"0.0-4.0-0.36","subject_id":"61375face66135aec3d9c3bd","study_id":"6197b3f67c2b5cd3b6d9596a","session_id":"6197bba2bf906f3cf0c7a2a2","condition":"contingent","relevant_dimensions":["wings","legs"],"bee_group":{"antennae":"X","wings":"1","pattern":"X","legs":"F"},"action":"harvest","summary":"good-harvest","bonus":0.980000000000001},{"rt":1524.4000000059605,"stimulus":"\n                    <p><b>Action: <em>harvest</em></b></p>\n                    <p>This is the bee that you just saw.</p>\n                    <img src=\"bees-with-color/bee-B2DF.svg\" width=\"200\">\n                    <p><span class=\"greenText\"><b>Successful harvest!</b></span><br>Your pay has increased by $0.02. Your bonus pay is now $0.40.</p>\n            ","response":0,"trial_type":"html-button-response","trial_index":84,"time_elapsed":687274,"internal_node_id":"0.0-4.0-1.36","subject_id":"61375face66135aec3d9c3bd","study_id":"6197b3f67c2b5cd3b6d9596a","session_id":"6197bba2bf906f3cf0c7a2a2","condition":"contingent","relevant_dimensions":["wings","legs"],"bee_group":{"antennae":"X","wings":"1","pattern":"X","legs":"F"},"bonus":0.980000000000001},{"rt":1081.0999999940395,"stimulus":"bees-with-color/bee-B2SF.svg","response":0,"trial_type":"image-button-response","trial_index":85,"time_elapsed":688356,"internal_node_id":"0.0-4.0-0.37","subject_id":"61375face66135aec3d9c3bd","study_id":"6197b3f67c2b5cd3b6d9596a","session_id":"6197bba2bf906f3cf0c7a2a2","condition":"contingent","relevant_dimensions":["wings","legs"],"bee_group":{"antennae":"X","wings":"1","pattern":"X","legs":"F"},"action":"harvest","summary":"good-harvest","bonus":0.980000000000001},{"rt":1183.7000000178814,"stimulus":"\n                    <p><b>Action: <em>harvest</em></b></p>\n                    <p>This is the bee that you just saw.</p>\n                    <img src=\"bees-with-color/bee-B2SF.svg\" width=\"200\">\n                    <p><span class=\"greenText\"><b>Successful harvest!</b></span><br>Your pay has increased by $0.02. Your bonus pay is now $0.42.</p>\n            ","response":0,"trial_type":"html-button-response","trial_index":86,"time_elapsed":689541,"internal_node_id":"0.0-4.0-1.37","subject_id":"61375face66135aec3d9c3bd","study_id":"6197b3f67c2b5cd3b6d9596a","session_id":"6197bba2bf906f3cf0c7a2a2","condition":"contingent","relevant_dimensions":["wings","legs"],"bee_group":{"antennae":"X","wings":"1","pattern":"X","legs":"F"},"bonus":0.980000000000001},{"rt":1525.2999999821186,"stimulus":"bees-with-color/bee-A1SM.svg","response":1,"trial_type":"image-button-response","trial_index":87,"time_elapsed":691068,"internal_node_id":"0.0-4.0-0.38","subject_id":"61375face66135aec3d9c3bd","study_id":"6197b3f67c2b5cd3b6d9596a","session_id":"6197bba2bf906f3cf0c7a2a2","condition":"contingent","relevant_dimensions":["wings","legs"],"bee_group":{"antennae":"X","wings":"1","pattern":"X","legs":"F"},"action":"avoid","summary":"bad-avoid","bonus":0.980000000000001},{"rt":2884.399999976158,"stimulus":"\n                    <p><b>Action: <em>avoid</em></b></p>\n                    <p>This is the bee that you just saw.</p>\n                    <img src=\"bees-with-color/bee-A1SM.svg\" width=\"200\">\n                    <p><br>Your bonus pay is unchanged, and remains at $0.42.</p>\n            ","response":0,"trial_type":"html-button-response","trial_index":88,"time_elapsed":693953,"internal_node_id":"0.0-4.0-1.38","subject_id":"61375face66135aec3d9c3bd","study_id":"6197b3f67c2b5cd3b6d9596a","session_id":"6197bba2bf906f3cf0c7a2a2","condition":"contingent","relevant_dimensions":["wings","legs"],"bee_group":{"antennae":"X","wings":"1","pattern":"X","legs":"F"},"bonus":0.980000000000001},{"rt":1102.5999999940395,"stimulus":"bees-with-color/bee-A2DF.svg","response":0,"trial_type":"image-button-response","trial_index":89,"time_elapsed":695057,"internal_node_id":"0.0-4.0-0.39","subject_id":"61375face66135aec3d9c3bd","study_id":"6197b3f67c2b5cd3b6d9596a","session_id":"6197bba2bf906f3cf0c7a2a2","condition":"contingent","relevant_dimensions":["wings","legs"],"bee_group":{"antennae":"X","wings":"1","pattern":"X","legs":"F"},"action":"harvest","summary":"good-harvest","bonus":0.980000000000001},{"rt":1431.2000000178814,"stimulus":"\n                    <p><b>Action: <em>harvest</em></b></p>\n                    <p>This is the bee that you just saw.</p>\n                    <img src=\"bees-with-color/bee-A2DF.svg\" width=\"200\">\n                    <p><span class=\"greenText\"><b>Successful harvest!</b></span><br>Your pay has increased by $0.02. Your bonus pay is now $0.44.</p>\n            ","response":0,"trial_type":"html-button-response","trial_index":90,"time_elapsed":696489,"internal_node_id":"0.0-4.0-1.39","subject_id":"61375face66135aec3d9c3bd","study_id":"6197b3f67c2b5cd3b6d9596a","session_id":"6197bba2bf906f3cf0c7a2a2","condition":"contingent","relevant_dimensions":["wings","legs"],"bee_group":{"antennae":"X","wings":"1","pattern":"X","legs":"F"},"bonus":0.980000000000001},{"rt":1782.9000000059605,"stimulus":"bees-with-color/bee-B1SM.svg","response":1,"trial_type":"image-button-response","trial_index":91,"time_elapsed":698273,"internal_node_id":"0.0-4.0-0.40","subject_id":"61375face66135aec3d9c3bd","study_id":"6197b3f67c2b5cd3b6d9596a","session_id":"6197bba2bf906f3cf0c7a2a2","condition":"contingent","relevant_dimensions":["wings","legs"],"bee_group":{"antennae":"X","wings":"1","pattern":"X","legs":"F"},"action":"avoid","summary":"bad-avoid","bonus":0.980000000000001},{"rt":1255.6000000238419,"stimulus":"\n                    <p><b>Action: <em>avoid</em></b></p>\n                    <p>This is the bee that you just saw.</p>\n                    <img src=\"bees-with-color/bee-B1SM.svg\" width=\"200\">\n                    <p><br>Your bonus pay is unchanged, and remains at $0.44.</p>\n            ","response":0,"trial_type":"html-button-response","trial_index":92,"time_elapsed":699530,"internal_node_id":"0.0-4.0-1.40","subject_id":"61375face66135aec3d9c3bd","study_id":"6197b3f67c2b5cd3b6d9596a","session_id":"6197bba2bf906f3cf0c7a2a2","condition":"contingent","relevant_dimensions":["wings","legs"],"bee_group":{"antennae":"X","wings":"1","pattern":"X","legs":"F"},"bonus":0.980000000000001},{"rt":1205.1000000238419,"stimulus":"bees-with-color/bee-B1DM.svg","response":1,"trial_type":"image-button-response","trial_index":93,"time_elapsed":700737,"internal_node_id":"0.0-4.0-0.41","subject_id":"61375face66135aec3d9c3bd","study_id":"6197b3f67c2b5cd3b6d9596a","session_id":"6197bba2bf906f3cf0c7a2a2","condition":"contingent","relevant_dimensions":["wings","legs"],"bee_group":{"antennae":"X","wings":"1","pattern":"X","legs":"F"},"action":"avoid","summary":"bad-avoid","bonus":0.980000000000001},{"rt":1132.9000000059605,"stimulus":"\n                    <p><b>Action: <em>avoid</em></b></p>\n                    <p>This is the bee that you just saw.</p>\n                    <img src=\"bees-with-color/bee-B1DM.svg\" width=\"200\">\n                    <p><br>Your bonus pay is unchanged, and remains at $0.44.</p>\n            ","response":0,"trial_type":"html-button-response","trial_index":94,"time_elapsed":701871,"internal_node_id":"0.0-4.0-1.41","subject_id":"61375face66135aec3d9c3bd","study_id":"6197b3f67c2b5cd3b6d9596a","session_id":"6197bba2bf906f3cf0c7a2a2","condition":"contingent","relevant_dimensions":["wings","legs"],"bee_group":{"antennae":"X","wings":"1","pattern":"X","legs":"F"},"bonus":0.980000000000001},{"rt":1111.9000000059605,"stimulus":"bees-with-color/bee-B2DM.svg","response":0,"trial_type":"image-button-response","trial_index":95,"time_elapsed":702984,"internal_node_id":"0.0-4.0-0.42","subject_id":"61375face66135aec3d9c3bd","study_id":"6197b3f67c2b5cd3b6d9596a","session_id":"6197bba2bf906f3cf0c7a2a2","condition":"contingent","relevant_dimensions":["wings","legs"],"bee_group":{"antennae":"X","wings":"1","pattern":"X","legs":"F"},"action":"harvest","summary":"good-harvest","bonus":0.980000000000001},{"rt":1205.199999988079,"stimulus":"\n                    <p><b>Action: <em>harvest</em></b></p>\n                    <p>This is the bee that you just saw.</p>\n                    <img src=\"bees-with-color/bee-B2DM.svg\" width=\"200\">\n                    <p><span class=\"greenText\"><b>Successful harvest!</b></span><br>Your pay has increased by $0.02. Your bonus pay is now $0.46.</p>\n            ","response":0,"trial_type":"html-button-response","trial_index":96,"time_elapsed":704190,"internal_node_id":"0.0-4.0-1.42","subject_id":"61375face66135aec3d9c3bd","study_id":"6197b3f67c2b5cd3b6d9596a","session_id":"6197bba2bf906f3cf0c7a2a2","condition":"contingent","relevant_dimensions":["wings","legs"],"bee_group":{"antennae":"X","wings":"1","pattern":"X","legs":"F"},"bonus":0.980000000000001},{"rt":1184.0999999940395,"stimulus":"bees-with-color/bee-A1DF.svg","response":1,"trial_type":"image-button-response","trial_index":97,"time_elapsed":705375,"internal_node_id":"0.0-4.0-0.43","subject_id":"61375face66135aec3d9c3bd","study_id":"6197b3f67c2b5cd3b6d9596a","session_id":"6197bba2bf906f3cf0c7a2a2","condition":"contingent","relevant_dimensions":["wings","legs"],"bee_group":{"antennae":"X","wings":"1","pattern":"X","legs":"F"},"action":"avoid","summary":"good-avoid","bonus":0.980000000000001},{"rt":1463.5999999940395,"stimulus":"\n                    <p><b>Action: <em>avoid</em></b></p>\n                    <p>This is the bee that you just saw.</p>\n                    <img src=\"bees-with-color/bee-A1DF.svg\" width=\"200\">\n                    <p><br>Your bonus pay is unchanged, and remains at $0.46.</p>\n            ","response":0,"trial_type":"html-button-response","trial_index":98,"time_elapsed":706840,"internal_node_id":"0.0-4.0-1.43","subject_id":"61375face66135aec3d9c3bd","study_id":"6197b3f67c2b5cd3b6d9596a","session_id":"6197bba2bf906f3cf0c7a2a2","condition":"contingent","relevant_dimensions":["wings","legs"],"bee_group":{"antennae":"X","wings":"1","pattern":"X","legs":"F"},"bonus":0.980000000000001},{"rt":1049.5999999940395,"stimulus":"bees-with-color/bee-A1SF.svg","response":1,"trial_type":"image-button-response","trial_index":99,"time_elapsed":707891,"internal_node_id":"0.0-4.0-0.44","subject_id":"61375face66135aec3d9c3bd","study_id":"6197b3f67c2b5cd3b6d9596a","session_id":"6197bba2bf906f3cf0c7a2a2","condition":"contingent","relevant_dimensions":["wings","legs"],"bee_group":{"antennae":"X","wings":"1","pattern":"X","legs":"F"},"action":"avoid","summary":"good-avoid","bonus":0.980000000000001},{"rt":1133.0999999940395,"stimulus":"\n                    <p><b>Action: <em>avoid</em></b></p>\n                    <p>This is the bee that you just saw.</p>\n                    <img src=\"bees-with-color/bee-A1SF.svg\" width=\"200\">\n                    <p><br>Your bonus pay is unchanged, and remains at $0.46.</p>\n            ","response":0,"trial_type":"html-button-response","trial_index":100,"time_elapsed":709025,"internal_node_id":"0.0-4.0-1.44","subject_id":"61375face66135aec3d9c3bd","study_id":"6197b3f67c2b5cd3b6d9596a","session_id":"6197bba2bf906f3cf0c7a2a2","condition":"contingent","relevant_dimensions":["wings","legs"],"bee_group":{"antennae":"X","wings":"1","pattern":"X","legs":"F"},"bonus":0.980000000000001},{"rt":1132.7000000178814,"stimulus":"bees-with-color/bee-A2SM.svg","response":0,"trial_type":"image-button-response","trial_index":101,"time_elapsed":710159,"internal_node_id":"0.0-4.0-0.45","subject_id":"61375face66135aec3d9c3bd","study_id":"6197b3f67c2b5cd3b6d9596a","session_id":"6197bba2bf906f3cf0c7a2a2","condition":"contingent","relevant_dimensions":["wings","legs"],"bee_group":{"antennae":"X","wings":"1","pattern":"X","legs":"F"},"action":"harvest","summary":"good-harvest","bonus":0.980000000000001},{"rt":1195,"stimulus":"\n                    <p><b>Action: <em>harvest</em></b></p>\n                    <p>This is the bee that you just saw.</p>\n                    <img src=\"bees-with-color/bee-A2SM.svg\" width=\"200\">\n                    <p><span class=\"greenText\"><b>Successful harvest!</b></span><br>Your pay has increased by $0.02. Your bonus pay is now $0.48.</p>\n            ","response":0,"trial_type":"html-button-response","trial_index":102,"time_elapsed":711355,"internal_node_id":"0.0-4.0-1.45","subject_id":"61375face66135aec3d9c3bd","study_id":"6197b3f67c2b5cd3b6d9596a","session_id":"6197bba2bf906f3cf0c7a2a2","condition":"contingent","relevant_dimensions":["wings","legs"],"bee_group":{"antennae":"X","wings":"1","pattern":"X","legs":"F"},"bonus":0.980000000000001},{"rt":957.2999999821186,"stimulus":"bees-with-color/bee-A2SF.svg","response":0,"trial_type":"image-button-response","trial_index":103,"time_elapsed":712314,"internal_node_id":"0.0-4.0-0.46","subject_id":"61375face66135aec3d9c3bd","study_id":"6197b3f67c2b5cd3b6d9596a","session_id":"6197bba2bf906f3cf0c7a2a2","condition":"contingent","relevant_dimensions":["wings","legs"],"bee_group":{"antennae":"X","wings":"1","pattern":"X","legs":"F"},"action":"harvest","summary":"good-harvest","bonus":0.980000000000001},{"rt":1370.199999988079,"stimulus":"\n                    <p><b>Action: <em>harvest</em></b></p>\n                    <p>This is the bee that you just saw.</p>\n                    <img src=\"bees-with-color/bee-A2SF.svg\" width=\"200\">\n                    <p><span class=\"greenText\"><b>Successful harvest!</b></span><br>Your pay has increased by $0.02. Your bonus pay is now $0.50.</p>\n            ","response":0,"trial_type":"html-button-response","trial_index":104,"time_elapsed":713685,"internal_node_id":"0.0-4.0-1.46","subject_id":"61375face66135aec3d9c3bd","study_id":"6197b3f67c2b5cd3b6d9596a","session_id":"6197bba2bf906f3cf0c7a2a2","condition":"contingent","relevant_dimensions":["wings","legs"],"bee_group":{"antennae":"X","wings":"1","pattern":"X","legs":"F"},"bonus":0.980000000000001},{"rt":1648.300000011921,"stimulus":"bees-with-color/bee-A1DM.svg","response":1,"trial_type":"image-button-response","trial_index":105,"time_elapsed":715334,"internal_node_id":"0.0-4.0-0.47","subject_id":"61375face66135aec3d9c3bd","study_id":"6197b3f67c2b5cd3b6d9596a","session_id":"6197bba2bf906f3cf0c7a2a2","condition":"contingent","relevant_dimensions":["wings","legs"],"bee_group":{"antennae":"X","wings":"1","pattern":"X","legs":"F"},"action":"avoid","summary":"bad-avoid","bonus":0.980000000000001},{"rt":1421,"stimulus":"\n                    <p><b>Action: <em>avoid</em></b></p>\n                    <p>This is the bee that you just saw.</p>\n                    <img src=\"bees-with-color/bee-A1DM.svg\" width=\"200\">\n                    <p><br>Your bonus pay is unchanged, and remains at $0.50.</p>\n            ","response":0,"trial_type":"html-button-response","trial_index":106,"time_elapsed":716757,"internal_node_id":"0.0-4.0-1.47","subject_id":"61375face66135aec3d9c3bd","study_id":"6197b3f67c2b5cd3b6d9596a","session_id":"6197bba2bf906f3cf0c7a2a2","condition":"contingent","relevant_dimensions":["wings","legs"],"bee_group":{"antennae":"X","wings":"1","pattern":"X","legs":"F"},"bonus":0.980000000000001},{"rt":1081.4000000059605,"stimulus":"bees-with-color/bee-B2SM.svg","response":0,"trial_type":"image-button-response","trial_index":107,"time_elapsed":717839,"internal_node_id":"0.0-4.0-0.48","subject_id":"61375face66135aec3d9c3bd","study_id":"6197b3f67c2b5cd3b6d9596a","session_id":"6197bba2bf906f3cf0c7a2a2","condition":"contingent","relevant_dimensions":["wings","legs"],"bee_group":{"antennae":"X","wings":"1","pattern":"X","legs":"F"},"action":"harvest","summary":"good-harvest","bonus":0.980000000000001},{"rt":1112.2000000178814,"stimulus":"\n                    <p><b>Action: <em>harvest</em></b></p>\n                    <p>This is the bee that you just saw.</p>\n                    <img src=\"bees-with-color/bee-B2SM.svg\" width=\"200\">\n                    <p><span class=\"greenText\"><b>Successful harvest!</b></span><br>Your pay has increased by $0.02. Your bonus pay is now $0.52.</p>\n            ","response":0,"trial_type":"html-button-response","trial_index":108,"time_elapsed":718953,"internal_node_id":"0.0-4.0-1.48","subject_id":"61375face66135aec3d9c3bd","study_id":"6197b3f67c2b5cd3b6d9596a","session_id":"6197bba2bf906f3cf0c7a2a2","condition":"contingent","relevant_dimensions":["wings","legs"],"bee_group":{"antennae":"X","wings":"1","pattern":"X","legs":"F"},"bonus":0.980000000000001},{"rt":1420.5,"stimulus":"bees-with-color/bee-B1SF.svg","response":1,"trial_type":"image-button-response","trial_index":109,"time_elapsed":720375,"internal_node_id":"0.0-4.0-0.49","subject_id":"61375face66135aec3d9c3bd","study_id":"6197b3f67c2b5cd3b6d9596a","session_id":"6197bba2bf906f3cf0c7a2a2","condition":"contingent","relevant_dimensions":["wings","legs"],"bee_group":{"antennae":"X","wings":"1","pattern":"X","legs":"F"},"action":"avoid","summary":"good-avoid","bonus":0.980000000000001},{"rt":1132.800000011921,"stimulus":"\n                    <p><b>Action: <em>avoid</em></b></p>\n                    <p>This is the bee that you just saw.</p>\n                    <img src=\"bees-with-color/bee-B1SF.svg\" width=\"200\">\n                    <p><br>Your bonus pay is unchanged, and remains at $0.52.</p>\n            ","response":0,"trial_type":"html-button-response","trial_index":110,"time_elapsed":721509,"internal_node_id":"0.0-4.0-1.49","subject_id":"61375face66135aec3d9c3bd","study_id":"6197b3f67c2b5cd3b6d9596a","session_id":"6197bba2bf906f3cf0c7a2a2","condition":"contingent","relevant_dimensions":["wings","legs"],"bee_group":{"antennae":"X","wings":"1","pattern":"X","legs":"F"},"bonus":0.980000000000001},{"rt":1060.5,"stimulus":"bees-with-color/bee-B2DM.svg","response":0,"trial_type":"image-button-response","trial_index":111,"time_elapsed":722571,"internal_node_id":"0.0-4.0-0.50","subject_id":"61375face66135aec3d9c3bd","study_id":"6197b3f67c2b5cd3b6d9596a","session_id":"6197bba2bf906f3cf0c7a2a2","condition":"contingent","relevant_dimensions":["wings","legs"],"bee_group":{"antennae":"X","wings":"1","pattern":"X","legs":"F"},"action":"harvest","summary":"good-harvest","bonus":0.980000000000001},{"rt":977.5999999940395,"stimulus":"\n                    <p><b>Action: <em>harvest</em></b></p>\n                    <p>This is the bee that you just saw.</p>\n                    <img src=\"bees-with-color/bee-B2DM.svg\" width=\"200\">\n                    <p><span class=\"greenText\"><b>Successful harvest!</b></span><br>Your pay has increased by $0.02. Your bonus pay is now $0.54.</p>\n            ","response":0,"trial_type":"html-button-response","trial_index":112,"time_elapsed":723550,"internal_node_id":"0.0-4.0-1.50","subject_id":"61375face66135aec3d9c3bd","study_id":"6197b3f67c2b5cd3b6d9596a","session_id":"6197bba2bf906f3cf0c7a2a2","condition":"contingent","relevant_dimensions":["wings","legs"],"bee_group":{"antennae":"X","wings":"1","pattern":"X","legs":"F"},"bonus":0.980000000000001},{"rt":1102.6000000238419,"stimulus":"bees-with-color/bee-A2DM.svg","response":0,"trial_type":"image-button-response","trial_index":113,"time_elapsed":724654,"internal_node_id":"0.0-4.0-0.51","subject_id":"61375face66135aec3d9c3bd","study_id":"6197b3f67c2b5cd3b6d9596a","session_id":"6197bba2bf906f3cf0c7a2a2","condition":"contingent","relevant_dimensions":["wings","legs"],"bee_group":{"antennae":"X","wings":"1","pattern":"X","legs":"F"},"action":"harvest","summary":"good-harvest","bonus":0.980000000000001},{"rt":1348.5,"stimulus":"\n                    <p><b>Action: <em>harvest</em></b></p>\n                    <p>This is the bee that you just saw.</p>\n                    <img src=\"bees-with-color/bee-A2DM.svg\" width=\"200\">\n                    <p><span class=\"greenText\"><b>Successful harvest!</b></span><br>Your pay has increased by $0.02. Your bonus pay is now $0.56.</p>\n            ","response":0,"trial_type":"html-button-response","trial_index":114,"time_elapsed":726004,"internal_node_id":"0.0-4.0-1.51","subject_id":"61375face66135aec3d9c3bd","study_id":"6197b3f67c2b5cd3b6d9596a","session_id":"6197bba2bf906f3cf0c7a2a2","condition":"contingent","relevant_dimensions":["wings","legs"],"bee_group":{"antennae":"X","wings":"1","pattern":"X","legs":"F"},"bonus":0.980000000000001},{"rt":1844.8999999761581,"stimulus":"bees-with-color/bee-A1SF.svg","response":1,"trial_type":"image-button-response","trial_index":115,"time_elapsed":727850,"internal_node_id":"0.0-4.0-0.52","subject_id":"61375face66135aec3d9c3bd","study_id":"6197b3f67c2b5cd3b6d9596a","session_id":"6197bba2bf906f3cf0c7a2a2","condition":"contingent","relevant_dimensions":["wings","legs"],"bee_group":{"antennae":"X","wings":"1","pattern":"X","legs":"F"},"action":"avoid","summary":"good-avoid","bonus":0.980000000000001},{"rt":916,"stimulus":"\n                    <p><b>Action: <em>avoid</em></b></p>\n                    <p>This is the bee that you just saw.</p>\n                    <img src=\"bees-with-color/bee-A1SF.svg\" width=\"200\">\n                    <p><br>Your bonus pay is unchanged, and remains at $0.56.</p>\n            ","response":0,"trial_type":"html-button-response","trial_index":116,"time_elapsed":728767,"internal_node_id":"0.0-4.0-1.52","subject_id":"61375face66135aec3d9c3bd","study_id":"6197b3f67c2b5cd3b6d9596a","session_id":"6197bba2bf906f3cf0c7a2a2","condition":"contingent","relevant_dimensions":["wings","legs"],"bee_group":{"antennae":"X","wings":"1","pattern":"X","legs":"F"},"bonus":0.980000000000001},{"rt":967.9000000059605,"stimulus":"bees-with-color/bee-A2SM.svg","response":0,"trial_type":"image-button-response","trial_index":117,"time_elapsed":729736,"internal_node_id":"0.0-4.0-0.53","subject_id":"61375face66135aec3d9c3bd","study_id":"6197b3f67c2b5cd3b6d9596a","session_id":"6197bba2bf906f3cf0c7a2a2","condition":"contingent","relevant_dimensions":["wings","legs"],"bee_group":{"antennae":"X","wings":"1","pattern":"X","legs":"F"},"action":"harvest","summary":"good-harvest","bonus":0.980000000000001},{"rt":1235.699999988079,"stimulus":"\n                    <p><b>Action: <em>harvest</em></b></p>\n                    <p>This is the bee that you just saw.</p>\n                    <img src=\"bees-with-color/bee-A2SM.svg\" width=\"200\">\n                    <p><span class=\"greenText\"><b>Successful harvest!</b></span><br>Your pay has increased by $0.02. Your bonus pay is now $0.58.</p>\n            ","response":0,"trial_type":"html-button-response","trial_index":118,"time_elapsed":730973,"internal_node_id":"0.0-4.0-1.53","subject_id":"61375face66135aec3d9c3bd","study_id":"6197b3f67c2b5cd3b6d9596a","session_id":"6197bba2bf906f3cf0c7a2a2","condition":"contingent","relevant_dimensions":["wings","legs"],"bee_group":{"antennae":"X","wings":"1","pattern":"X","legs":"F"},"bonus":0.980000000000001},{"rt":1617.699999988079,"stimulus":"bees-with-color/bee-A1SM.svg","response":1,"trial_type":"image-button-response","trial_index":119,"time_elapsed":732592,"internal_node_id":"0.0-4.0-0.54","subject_id":"61375face66135aec3d9c3bd","study_id":"6197b3f67c2b5cd3b6d9596a","session_id":"6197bba2bf906f3cf0c7a2a2","condition":"contingent","relevant_dimensions":["wings","legs"],"bee_group":{"antennae":"X","wings":"1","pattern":"X","legs":"F"},"action":"avoid","summary":"bad-avoid","bonus":0.980000000000001},{"rt":1153,"stimulus":"\n                    <p><b>Action: <em>avoid</em></b></p>\n                    <p>This is the bee that you just saw.</p>\n                    <img src=\"bees-with-color/bee-A1SM.svg\" width=\"200\">\n                    <p><br>Your bonus pay is unchanged, and remains at $0.58.</p>\n            ","response":0,"trial_type":"html-button-response","trial_index":120,"time_elapsed":733747,"internal_node_id":"0.0-4.0-1.54","subject_id":"61375face66135aec3d9c3bd","study_id":"6197b3f67c2b5cd3b6d9596a","session_id":"6197bba2bf906f3cf0c7a2a2","condition":"contingent","relevant_dimensions":["wings","legs"],"bee_group":{"antennae":"X","wings":"1","pattern":"X","legs":"F"},"bonus":0.980000000000001},{"rt":1071.0999999940395,"stimulus":"bees-with-color/bee-A2DF.svg","response":0,"trial_type":"image-button-response","trial_index":121,"time_elapsed":734819,"internal_node_id":"0.0-4.0-0.55","subject_id":"61375face66135aec3d9c3bd","study_id":"6197b3f67c2b5cd3b6d9596a","session_id":"6197bba2bf906f3cf0c7a2a2","condition":"contingent","relevant_dimensions":["wings","legs"],"bee_group":{"antennae":"X","wings":"1","pattern":"X","legs":"F"},"action":"harvest","summary":"good-harvest","bonus":0.980000000000001},{"rt":1060.199999988079,"stimulus":"\n                    <p><b>Action: <em>harvest</em></b></p>\n                    <p>This is the bee that you just saw.</p>\n                    <img src=\"bees-with-color/bee-A2DF.svg\" width=\"200\">\n                    <p><span class=\"greenText\"><b>Successful harvest!</b></span><br>Your pay has increased by $0.02. Your bonus pay is now $0.60.</p>\n            ","response":0,"trial_type":"html-button-response","trial_index":122,"time_elapsed":735881,"internal_node_id":"0.0-4.0-1.55","subject_id":"61375face66135aec3d9c3bd","study_id":"6197b3f67c2b5cd3b6d9596a","session_id":"6197bba2bf906f3cf0c7a2a2","condition":"contingent","relevant_dimensions":["wings","legs"],"bee_group":{"antennae":"X","wings":"1","pattern":"X","legs":"F"},"bonus":0.980000000000001},{"rt":1360,"stimulus":"bees-with-color/bee-A1DF.svg","response":1,"trial_type":"image-button-response","trial_index":123,"time_elapsed":737242,"internal_node_id":"0.0-4.0-0.56","subject_id":"61375face66135aec3d9c3bd","study_id":"6197b3f67c2b5cd3b6d9596a","session_id":"6197bba2bf906f3cf0c7a2a2","condition":"contingent","relevant_dimensions":["wings","legs"],"bee_group":{"antennae":"X","wings":"1","pattern":"X","legs":"F"},"action":"avoid","summary":"good-avoid","bonus":0.980000000000001},{"rt":1008.5,"stimulus":"\n                    <p><b>Action: <em>avoid</em></b></p>\n                    <p>This is the bee that you just saw.</p>\n                    <img src=\"bees-with-color/bee-A1DF.svg\" width=\"200\">\n                    <p><br>Your bonus pay is unchanged, and remains at $0.60.</p>\n            ","response":0,"trial_type":"html-button-response","trial_index":124,"time_elapsed":738252,"internal_node_id":"0.0-4.0-1.56","subject_id":"61375face66135aec3d9c3bd","study_id":"6197b3f67c2b5cd3b6d9596a","session_id":"6197bba2bf906f3cf0c7a2a2","condition":"contingent","relevant_dimensions":["wings","legs"],"bee_group":{"antennae":"X","wings":"1","pattern":"X","legs":"F"},"bonus":0.980000000000001},{"rt":1493.7000000178814,"stimulus":"bees-with-color/bee-B1DM.svg","response":1,"trial_type":"image-button-response","trial_index":125,"time_elapsed":739747,"internal_node_id":"0.0-4.0-0.57","subject_id":"61375face66135aec3d9c3bd","study_id":"6197b3f67c2b5cd3b6d9596a","session_id":"6197bba2bf906f3cf0c7a2a2","condition":"contingent","relevant_dimensions":["wings","legs"],"bee_group":{"antennae":"X","wings":"1","pattern":"X","legs":"F"},"action":"avoid","summary":"bad-avoid","bonus":0.980000000000001},{"rt":1049.5999999940395,"stimulus":"\n                    <p><b>Action: <em>avoid</em></b></p>\n                    <p>This is the bee that you just saw.</p>\n                    <img src=\"bees-with-color/bee-B1DM.svg\" width=\"200\">\n                    <p><br>Your bonus pay is unchanged, and remains at $0.60.</p>\n            ","response":0,"trial_type":"html-button-response","trial_index":126,"time_elapsed":740799,"internal_node_id":"0.0-4.0-1.57","subject_id":"61375face66135aec3d9c3bd","study_id":"6197b3f67c2b5cd3b6d9596a","session_id":"6197bba2bf906f3cf0c7a2a2","condition":"contingent","relevant_dimensions":["wings","legs"],"bee_group":{"antennae":"X","wings":"1","pattern":"X","legs":"F"},"bonus":0.980000000000001},{"rt":1360.0999999940395,"stimulus":"bees-with-color/bee-B1DF.svg","response":1,"trial_type":"image-button-response","trial_index":127,"time_elapsed":742161,"internal_node_id":"0.0-4.0-0.58","subject_id":"61375face66135aec3d9c3bd","study_id":"6197b3f67c2b5cd3b6d9596a","session_id":"6197bba2bf906f3cf0c7a2a2","condition":"contingent","relevant_dimensions":["wings","legs"],"bee_group":{"antennae":"X","wings":"1","pattern":"X","legs":"F"},"action":"avoid","summary":"good-avoid","bonus":0.980000000000001},{"rt":1173.5,"stimulus":"\n                    <p><b>Action: <em>avoid</em></b></p>\n                    <p>This is the bee that you just saw.</p>\n                    <img src=\"bees-with-color/bee-B1DF.svg\" width=\"200\">\n                    <p><br>Your bonus pay is unchanged, and remains at $0.60.</p>\n            ","response":0,"trial_type":"html-button-response","trial_index":128,"time_elapsed":743336,"internal_node_id":"0.0-4.0-1.58","subject_id":"61375face66135aec3d9c3bd","study_id":"6197b3f67c2b5cd3b6d9596a","session_id":"6197bba2bf906f3cf0c7a2a2","condition":"contingent","relevant_dimensions":["wings","legs"],"bee_group":{"antennae":"X","wings":"1","pattern":"X","legs":"F"},"bonus":0.980000000000001},{"rt":1112,"stimulus":"bees-with-color/bee-B1SM.svg","response":1,"trial_type":"image-button-response","trial_index":129,"time_elapsed":744449,"internal_node_id":"0.0-4.0-0.59","subject_id":"61375face66135aec3d9c3bd","study_id":"6197b3f67c2b5cd3b6d9596a","session_id":"6197bba2bf906f3cf0c7a2a2","condition":"contingent","relevant_dimensions":["wings","legs"],"bee_group":{"antennae":"X","wings":"1","pattern":"X","legs":"F"},"action":"avoid","summary":"bad-avoid","bonus":0.980000000000001},{"rt":905.7999999821186,"stimulus":"\n                    <p><b>Action: <em>avoid</em></b></p>\n                    <p>This is the bee that you just saw.</p>\n                    <img src=\"bees-with-color/bee-B1SM.svg\" width=\"200\">\n                    <p><br>Your bonus pay is unchanged, and remains at $0.60.</p>\n            ","response":0,"trial_type":"html-button-response","trial_index":130,"time_elapsed":745357,"internal_node_id":"0.0-4.0-1.59","subject_id":"61375face66135aec3d9c3bd","study_id":"6197b3f67c2b5cd3b6d9596a","session_id":"6197bba2bf906f3cf0c7a2a2","condition":"contingent","relevant_dimensions":["wings","legs"],"bee_group":{"antennae":"X","wings":"1","pattern":"X","legs":"F"},"bonus":0.980000000000001},{"rt":1606.300000011921,"stimulus":"bees-with-color/bee-B2SF.svg","response":0,"trial_type":"image-button-response","trial_index":131,"time_elapsed":746965,"internal_node_id":"0.0-4.0-0.60","subject_id":"61375face66135aec3d9c3bd","study_id":"6197b3f67c2b5cd3b6d9596a","session_id":"6197bba2bf906f3cf0c7a2a2","condition":"contingent","relevant_dimensions":["wings","legs"],"bee_group":{"antennae":"X","wings":"1","pattern":"X","legs":"F"},"action":"harvest","summary":"good-harvest","bonus":0.980000000000001},{"rt":1463.300000011921,"stimulus":"\n                    <p><b>Action: <em>harvest</em></b></p>\n                    <p>This is the bee that you just saw.</p>\n                    <img src=\"bees-with-color/bee-B2SF.svg\" width=\"200\">\n                    <p><span class=\"greenText\"><b>Successful harvest!</b></span><br>Your pay has increased by $0.02. Your bonus pay is now $0.62.</p>\n            ","response":0,"trial_type":"html-button-response","trial_index":132,"time_elapsed":748429,"internal_node_id":"0.0-4.0-1.60","subject_id":"61375face66135aec3d9c3bd","study_id":"6197b3f67c2b5cd3b6d9596a","session_id":"6197bba2bf906f3cf0c7a2a2","condition":"contingent","relevant_dimensions":["wings","legs"],"bee_group":{"antennae":"X","wings":"1","pattern":"X","legs":"F"},"bonus":0.980000000000001},{"rt":1266.699999988079,"stimulus":"bees-with-color/bee-A1DM.svg","response":1,"trial_type":"image-button-response","trial_index":133,"time_elapsed":749698,"internal_node_id":"0.0-4.0-0.61","subject_id":"61375face66135aec3d9c3bd","study_id":"6197b3f67c2b5cd3b6d9596a","session_id":"6197bba2bf906f3cf0c7a2a2","condition":"contingent","relevant_dimensions":["wings","legs"],"bee_group":{"antennae":"X","wings":"1","pattern":"X","legs":"F"},"action":"avoid","summary":"bad-avoid","bonus":0.980000000000001},{"rt":1205.0999999940395,"stimulus":"\n                    <p><b>Action: <em>avoid</em></b></p>\n                    <p>This is the bee that you just saw.</p>\n                    <img src=\"bees-with-color/bee-A1DM.svg\" width=\"200\">\n                    <p><br>Your bonus pay is unchanged, and remains at $0.62.</p>\n            ","response":0,"trial_type":"html-button-response","trial_index":134,"time_elapsed":750904,"internal_node_id":"0.0-4.0-1.61","subject_id":"61375face66135aec3d9c3bd","study_id":"6197b3f67c2b5cd3b6d9596a","session_id":"6197bba2bf906f3cf0c7a2a2","condition":"contingent","relevant_dimensions":["wings","legs"],"bee_group":{"antennae":"X","wings":"1","pattern":"X","legs":"F"},"bonus":0.980000000000001},{"rt":1142.5999999940395,"stimulus":"bees-with-color/bee-B2DF.svg","response":0,"trial_type":"image-button-response","trial_index":135,"time_elapsed":752048,"internal_node_id":"0.0-4.0-0.62","subject_id":"61375face66135aec3d9c3bd","study_id":"6197b3f67c2b5cd3b6d9596a","session_id":"6197bba2bf906f3cf0c7a2a2","condition":"contingent","relevant_dimensions":["wings","legs"],"bee_group":{"antennae":"X","wings":"1","pattern":"X","legs":"F"},"action":"harvest","summary":"good-harvest","bonus":0.980000000000001},{"rt":1463,"stimulus":"\n                    <p><b>Action: <em>harvest</em></b></p>\n                    <p>This is the bee that you just saw.</p>\n                    <img src=\"bees-with-color/bee-B2DF.svg\" width=\"200\">\n                    <p><span class=\"greenText\"><b>Successful harvest!</b></span><br>Your pay has increased by $0.02. Your bonus pay is now $0.64.</p>\n            ","response":0,"trial_type":"html-button-response","trial_index":136,"time_elapsed":753512,"internal_node_id":"0.0-4.0-1.62","subject_id":"61375face66135aec3d9c3bd","study_id":"6197b3f67c2b5cd3b6d9596a","session_id":"6197bba2bf906f3cf0c7a2a2","condition":"contingent","relevant_dimensions":["wings","legs"],"bee_group":{"antennae":"X","wings":"1","pattern":"X","legs":"F"},"bonus":0.980000000000001},{"rt":2546.300000011921,"stimulus":"bees-with-color/bee-A2SF.svg","response":0,"trial_type":"image-button-response","trial_index":137,"time_elapsed":756060,"internal_node_id":"0.0-4.0-0.63","subject_id":"61375face66135aec3d9c3bd","study_id":"6197b3f67c2b5cd3b6d9596a","session_id":"6197bba2bf906f3cf0c7a2a2","condition":"contingent","relevant_dimensions":["wings","legs"],"bee_group":{"antennae":"X","wings":"1","pattern":"X","legs":"F"},"action":"harvest","summary":"good-harvest","bonus":0.980000000000001},{"rt":1153.699999988079,"stimulus":"\n                    <p><b>Action: <em>harvest</em></b></p>\n                    <p>This is the bee that you just saw.</p>\n                    <img src=\"bees-with-color/bee-A2SF.svg\" width=\"200\">\n                    <p><span class=\"greenText\"><b>Successful harvest!</b></span><br>Your pay has increased by $0.02. Your bonus pay is now $0.66.</p>\n            ","response":0,"trial_type":"html-button-response","trial_index":138,"time_elapsed":757215,"internal_node_id":"0.0-4.0-1.63","subject_id":"61375face66135aec3d9c3bd","study_id":"6197b3f67c2b5cd3b6d9596a","session_id":"6197bba2bf906f3cf0c7a2a2","condition":"contingent","relevant_dimensions":["wings","legs"],"bee_group":{"antennae":"X","wings":"1","pattern":"X","legs":"F"},"bonus":0.980000000000001},{"rt":5213.300000011921,"stimulus":"You have completed the first part of this experiment.<br><br>You will now begin a shorter second part, in which you will receive no feedback.<br>The same rules regarding bonus pay apply.<br><br>Press any key to begin.","response":" ","trial_type":"html-keyboard-response","trial_index":139,"time_elapsed":762430,"internal_node_id":"0.0-5.0","subject_id":"61375face66135aec3d9c3bd","study_id":"6197b3f67c2b5cd3b6d9596a","session_id":"6197bba2bf906f3cf0c7a2a2","condition":"contingent","relevant_dimensions":["wings","legs"],"bee_group":{"antennae":"X","wings":"1","pattern":"X","legs":"F"},"bonus":0.980000000000001},{"rt":4593.399999976158,"stimulus":"bees-with-color/bee-A1SF.svg","response":1,"trial_type":"image-button-response","trial_index":140,"time_elapsed":767169,"internal_node_id":"0.0-6.0-0.0","subject_id":"61375face66135aec3d9c3bd","study_id":"6197b3f67c2b5cd3b6d9596a","session_id":"6197bba2bf906f3cf0c7a2a2","condition":"contingent","relevant_dimensions":["wings","legs"],"bee_group":{"antennae":"X","wings":"1","pattern":"X","legs":"F"},"bonus":0.980000000000001},{"rt":3745,"stimulus":"bees-with-color/bee-B1DF.svg","response":1,"trial_type":"image-button-response","trial_index":141,"time_elapsed":770916,"internal_node_id":"0.0-6.0-0.1","subject_id":"61375face66135aec3d9c3bd","study_id":"6197b3f67c2b5cd3b6d9596a","session_id":"6197bba2bf906f3cf0c7a2a2","condition":"contingent","relevant_dimensions":["wings","legs"],"bee_group":{"antennae":"X","wings":"1","pattern":"X","legs":"F"},"bonus":0.980000000000001},{"rt":2071.0999999940395,"stimulus":"bees-with-color/bee-B1SM.svg","response":1,"trial_type":"image-button-response","trial_index":142,"time_elapsed":772989,"internal_node_id":"0.0-6.0-0.2","subject_id":"61375face66135aec3d9c3bd","study_id":"6197b3f67c2b5cd3b6d9596a","session_id":"6197bba2bf906f3cf0c7a2a2","condition":"contingent","relevant_dimensions":["wings","legs"],"bee_group":{"antennae":"X","wings":"1","pattern":"X","legs":"F"},"bonus":0.980000000000001},{"rt":1101.699999988079,"stimulus":"bees-with-color/bee-B2DM.svg","response":0,"trial_type":"image-button-response","trial_index":143,"time_elapsed":774092,"internal_node_id":"0.0-6.0-0.3","subject_id":"61375face66135aec3d9c3bd","study_id":"6197b3f67c2b5cd3b6d9596a","session_id":"6197bba2bf906f3cf0c7a2a2","condition":"contingent","relevant_dimensions":["wings","legs"],"bee_group":{"antennae":"X","wings":"1","pattern":"X","legs":"F"},"bonus":0.980000000000001},{"rt":1915.699999988079,"stimulus":"bees-with-color/bee-A1SM.svg","response":1,"trial_type":"image-button-response","trial_index":144,"time_elapsed":776009,"internal_node_id":"0.0-6.0-0.4","subject_id":"61375face66135aec3d9c3bd","study_id":"6197b3f67c2b5cd3b6d9596a","session_id":"6197bba2bf906f3cf0c7a2a2","condition":"contingent","relevant_dimensions":["wings","legs"],"bee_group":{"antennae":"X","wings":"1","pattern":"X","legs":"F"},"bonus":0.980000000000001},{"rt":1102.2000000178814,"stimulus":"bees-with-color/bee-B2DF.svg","response":0,"trial_type":"image-button-response","trial_index":145,"time_elapsed":777114,"internal_node_id":"0.0-6.0-0.5","subject_id":"61375face66135aec3d9c3bd","study_id":"6197b3f67c2b5cd3b6d9596a","session_id":"6197bba2bf906f3cf0c7a2a2","condition":"contingent","relevant_dimensions":["wings","legs"],"bee_group":{"antennae":"X","wings":"1","pattern":"X","legs":"F"},"bonus":0.980000000000001},{"rt":2472.5999999940395,"stimulus":"bees-with-color/bee-A2DF.svg","response":0,"trial_type":"image-button-response","trial_index":146,"time_elapsed":779588,"internal_node_id":"0.0-6.0-0.6","subject_id":"61375face66135aec3d9c3bd","study_id":"6197b3f67c2b5cd3b6d9596a","session_id":"6197bba2bf906f3cf0c7a2a2","condition":"contingent","relevant_dimensions":["wings","legs"],"bee_group":{"antennae":"X","wings":"1","pattern":"X","legs":"F"},"bonus":0.980000000000001},{"rt":1214.9000000059605,"stimulus":"bees-with-color/bee-A2SF.svg","response":0,"trial_type":"image-button-response","trial_index":147,"time_elapsed":780805,"internal_node_id":"0.0-6.0-0.7","subject_id":"61375face66135aec3d9c3bd","study_id":"6197b3f67c2b5cd3b6d9596a","session_id":"6197bba2bf906f3cf0c7a2a2","condition":"contingent","relevant_dimensions":["wings","legs"],"bee_group":{"antennae":"X","wings":"1","pattern":"X","legs":"F"},"bonus":0.980000000000001},{"rt":1040.4000000059605,"stimulus":"bees-with-color/bee-B1DM.svg","response":1,"trial_type":"image-button-response","trial_index":148,"time_elapsed":781847,"internal_node_id":"0.0-6.0-0.8","subject_id":"61375face66135aec3d9c3bd","study_id":"6197b3f67c2b5cd3b6d9596a","session_id":"6197bba2bf906f3cf0c7a2a2","condition":"contingent","relevant_dimensions":["wings","legs"],"bee_group":{"antennae":"X","wings":"1","pattern":"X","legs":"F"},"bonus":0.980000000000001},{"rt":1132.2000000178814,"stimulus":"bees-with-color/bee-A1DF.svg","response":1,"trial_type":"image-button-response","trial_index":149,"time_elapsed":782981,"internal_node_id":"0.0-6.0-0.9","subject_id":"61375face66135aec3d9c3bd","study_id":"6197b3f67c2b5cd3b6d9596a","session_id":"6197bba2bf906f3cf0c7a2a2","condition":"contingent","relevant_dimensions":["wings","legs"],"bee_group":{"antennae":"X","wings":"1","pattern":"X","legs":"F"},"bonus":0.980000000000001},{"rt":854.0999999940395,"stimulus":"bees-with-color/bee-A1DM.svg","response":1,"trial_type":"image-button-response","trial_index":150,"time_elapsed":783837,"internal_node_id":"0.0-6.0-0.10","subject_id":"61375face66135aec3d9c3bd","study_id":"6197b3f67c2b5cd3b6d9596a","session_id":"6197bba2bf906f3cf0c7a2a2","condition":"contingent","relevant_dimensions":["wings","legs"],"bee_group":{"antennae":"X","wings":"1","pattern":"X","legs":"F"},"bonus":0.980000000000001},{"rt":1163.5999999940395,"stimulus":"bees-with-color/bee-B2SM.svg","response":0,"trial_type":"image-button-response","trial_index":151,"time_elapsed":785002,"internal_node_id":"0.0-6.0-0.11","subject_id":"61375face66135aec3d9c3bd","study_id":"6197b3f67c2b5cd3b6d9596a","session_id":"6197bba2bf906f3cf0c7a2a2","condition":"contingent","relevant_dimensions":["wings","legs"],"bee_group":{"antennae":"X","wings":"1","pattern":"X","legs":"F"},"bonus":0.980000000000001},{"rt":2802.800000011921,"stimulus":"bees-with-color/bee-A2SM.svg","response":0,"trial_type":"image-button-response","trial_index":152,"time_elapsed":787806,"internal_node_id":"0.0-6.0-0.12","subject_id":"61375face66135aec3d9c3bd","study_id":"6197b3f67c2b5cd3b6d9596a","session_id":"6197bba2bf906f3cf0c7a2a2","condition":"contingent","relevant_dimensions":["wings","legs"],"bee_group":{"antennae":"X","wings":"1","pattern":"X","legs":"F"},"bonus":0.980000000000001},{"rt":1194.4000000059605,"stimulus":"bees-with-color/bee-B1SF.svg","response":1,"trial_type":"image-button-response","trial_index":153,"time_elapsed":789003,"internal_node_id":"0.0-6.0-0.13","subject_id":"61375face66135aec3d9c3bd","study_id":"6197b3f67c2b5cd3b6d9596a","session_id":"6197bba2bf906f3cf0c7a2a2","condition":"contingent","relevant_dimensions":["wings","legs"],"bee_group":{"antennae":"X","wings":"1","pattern":"X","legs":"F"},"bonus":0.980000000000001},{"rt":895.1000000238419,"stimulus":"bees-with-color/bee-B2SF.svg","response":0,"trial_type":"image-button-response","trial_index":154,"time_elapsed":789900,"internal_node_id":"0.0-6.0-0.14","subject_id":"61375face66135aec3d9c3bd","study_id":"6197b3f67c2b5cd3b6d9596a","session_id":"6197bba2bf906f3cf0c7a2a2","condition":"contingent","relevant_dimensions":["wings","legs"],"bee_group":{"antennae":"X","wings":"1","pattern":"X","legs":"F"},"bonus":0.980000000000001},{"rt":1091.300000011921,"stimulus":"bees-with-color/bee-A2DM.svg","response":0,"trial_type":"image-button-response","trial_index":155,"time_elapsed":790993,"internal_node_id":"0.0-6.0-0.15","subject_id":"61375face66135aec3d9c3bd","study_id":"6197b3f67c2b5cd3b6d9596a","session_id":"6197bba2bf906f3cf0c7a2a2","condition":"contingent","relevant_dimensions":["wings","legs"],"bee_group":{"antennae":"X","wings":"1","pattern":"X","legs":"F"},"bonus":0.980000000000001},{"rt":1123.0999999940395,"stimulus":"bees-with-color/bee-B2SF.svg","response":0,"trial_type":"image-button-response","trial_index":156,"time_elapsed":792118,"internal_node_id":"0.0-6.0-0.16","subject_id":"61375face66135aec3d9c3bd","study_id":"6197b3f67c2b5cd3b6d9596a","session_id":"6197bba2bf906f3cf0c7a2a2","condition":"contingent","relevant_dimensions":["wings","legs"],"bee_group":{"antennae":"X","wings":"1","pattern":"X","legs":"F"},"bonus":0.980000000000001},{"rt":1822.4000000059605,"stimulus":"bees-with-color/bee-B1SM.svg","response":1,"trial_type":"image-button-response","trial_index":157,"time_elapsed":793942,"internal_node_id":"0.0-6.0-0.17","subject_id":"61375face66135aec3d9c3bd","study_id":"6197b3f67c2b5cd3b6d9596a","session_id":"6197bba2bf906f3cf0c7a2a2","condition":"contingent","relevant_dimensions":["wings","legs"],"bee_group":{"antennae":"X","wings":"1","pattern":"X","legs":"F"},"bonus":0.980000000000001},{"rt":1019.9000000059605,"stimulus":"bees-with-color/bee-A2SM.svg","response":0,"trial_type":"image-button-response","trial_index":158,"time_elapsed":794963,"internal_node_id":"0.0-6.0-0.18","subject_id":"61375face66135aec3d9c3bd","study_id":"6197b3f67c2b5cd3b6d9596a","session_id":"6197bba2bf906f3cf0c7a2a2","condition":"contingent","relevant_dimensions":["wings","legs"],"bee_group":{"antennae":"X","wings":"1","pattern":"X","legs":"F"},"bonus":0.980000000000001},{"rt":1493.7999999821186,"stimulus":"bees-with-color/bee-A2DF.svg","response":0,"trial_type":"image-button-response","trial_index":159,"time_elapsed":796458,"internal_node_id":"0.0-6.0-0.19","subject_id":"61375face66135aec3d9c3bd","study_id":"6197b3f67c2b5cd3b6d9596a","session_id":"6197bba2bf906f3cf0c7a2a2","condition":"contingent","relevant_dimensions":["wings","legs"],"bee_group":{"antennae":"X","wings":"1","pattern":"X","legs":"F"},"bonus":0.980000000000001},{"rt":2225,"stimulus":"bees-with-color/bee-B1SF.svg","response":1,"trial_type":"image-button-response","trial_index":160,"time_elapsed":798685,"internal_node_id":"0.0-6.0-0.20","subject_id":"61375face66135aec3d9c3bd","study_id":"6197b3f67c2b5cd3b6d9596a","session_id":"6197bba2bf906f3cf0c7a2a2","condition":"contingent","relevant_dimensions":["wings","legs"],"bee_group":{"antennae":"X","wings":"1","pattern":"X","legs":"F"},"bonus":0.980000000000001},{"rt":1040.7999999821186,"stimulus":"bees-with-color/bee-A2DM.svg","response":0,"trial_type":"image-button-response","trial_index":161,"time_elapsed":799727,"internal_node_id":"0.0-6.0-0.21","subject_id":"61375face66135aec3d9c3bd","study_id":"6197b3f67c2b5cd3b6d9596a","session_id":"6197bba2bf906f3cf0c7a2a2","condition":"contingent","relevant_dimensions":["wings","legs"],"bee_group":{"antennae":"X","wings":"1","pattern":"X","legs":"F"},"bonus":0.980000000000001},{"rt":1153.5,"stimulus":"bees-with-color/bee-A1DF.svg","response":1,"trial_type":"image-button-response","trial_index":162,"time_elapsed":800882,"internal_node_id":"0.0-6.0-0.22","subject_id":"61375face66135aec3d9c3bd","study_id":"6197b3f67c2b5cd3b6d9596a","session_id":"6197bba2bf906f3cf0c7a2a2","condition":"contingent","relevant_dimensions":["wings","legs"],"bee_group":{"antennae":"X","wings":"1","pattern":"X","legs":"F"},"bonus":0.980000000000001},{"rt":1205.300000011921,"stimulus":"bees-with-colo