[{"success":true,"trial_type":"fullscreen","trial_index":0,"time_elapsed":4593,"internal_node_id":"0.0-0.0","subject_id":"5fd9e1d7f35a0e508fd433d1","study_id":"60edd13110225f80f9f3709b","session_id":"6196c705936b0bb6baf9db1c","condition":"contingent","relevant_dimensions":["antennae","legs"],"bee_group":{"antennae":"A","wings":"X","pattern":"X","legs":"F"},"bonus":0.020000000000000004},{"success":true,"timeout":false,"failed_images":[],"failed_audio":[],"failed_video":[],"trial_type":"preload","trial_index":1,"time_elapsed":10695,"internal_node_id":"0.0-1.0","subject_id":"5fd9e1d7f35a0e508fd433d1","study_id":"60edd13110225f80f9f3709b","session_id":"6196c705936b0bb6baf9db1c","condition":"contingent","relevant_dimensions":["antennae","legs"],"bee_group":{"antennae":"A","wings":"X","pattern":"X","legs":"F"},"bonus":0.020000000000000004},{"rt":3593.600000000093,"stimulus":"Welcome! Press any key to begin.","response":"k","trial_type":"html-keyboard-response","trial_index":2,"time_elapsed":14293,"internal_node_id":"0.0-2.0","subject_id":"5fd9e1d7f35a0e508fd433d1","study_id":"60edd13110225f80f9f3709b","session_id":"6196c705936b0bb6baf9db1c","condition":"contingent","relevant_dimensions":["antennae","legs"],"bee_group":{"antennae":"A","wings":"X","pattern":"X","legs":"F"},"bonus":0.020000000000000004},{"view_history":[{"page_index":0,"viewing_time":45017.40000000014},{"page_index":1,"viewing_time":60583.19999999972},{"page_index":2,"viewing_time":175912.40000000037},{"page_index":3,"viewing_time":97540.09999999963},{"page_index":4,"viewing_time":30880.200000000186},{"page_index":5,"viewing_time":19248.399999999907},{"page_index":6,"viewing_time":99880.5},{"page_index":7,"viewing_time":23051.600000000093},{"page_index":8,"viewing_time":13595.700000000186},{"page_index":9,"viewing_time":6647.699999999721},{"page_index":10,"viewing_time":9576.899999999907},{"page_index":11,"viewing_time":60755.5},{"page_index":12,"viewing_time":40788.10000000009},{"page_index":13,"viewing_time":2660},{"page_index":14,"viewing_time":7343.899999999907}],"rt":693482.4000000001,"trial_type":"instructions","trial_index":3,"time_elapsed":707776,"internal_node_id":"0.0-3.0-0.0","subject_id":"5fd9e1d7f35a0e508fd433d1","study_id":"60edd13110225f80f9f3709b","session_id":"6196c705936b0bb6baf9db1c","condition":"contingent","relevant_dimensions":["antennae","legs"],"bee_group":{"antennae":"A","wings":"X","pattern":"X","legs":"F"},"bonus":0.020000000000000004},{"rt":28163.799999999814,"response":{"Q0":["Two or six legs","Stripes or spots on body","Single or double wings","Antennae or no antennae"]},"question_order":[0],"trial_type":"survey-multi-select","trial_index":4,"time_elapsed":736001,"internal_node_id":"0.0-3.0-1.0","subject_id":"5fd9e1d7f35a0e508fd433d1","study_id":"60edd13110225f80f9f3709b","session_id":"6196c705936b0bb6baf9db1c","condition":"contingent","relevant_dimensions":["antennae","legs"],"bee_group":{"antennae":"A","wings":"X","pattern":"X","legs":"F"},"correct":true,"bonus":0.020000000000000004},{"rt":66891.79999999981,"response":{"Q1":"Yes.","Q2":"Based on the order in which you see the bees.","Q3":"You do not learn if it was friendly or dangerous, and do not alter your bonus."},"question_order":[0,1,2],"trial_type":"survey-multi-choice","trial_index":5,"time_elapsed":802957,"internal_node_id":"0.0-3.0-2.0","subject_id":"5fd9e1d7f35a0e508fd433d1","study_id":"60edd13110225f80f9f3709b","session_id":"6196c705936b0bb6baf9db1c","condition":"contingent","relevant_dimensions":["antennae","legs"],"bee_group":{"antennae":"A","wings":"X","pattern":"X","legs":"F"},"correct":false,"bonus":0.020000000000000004},{"rt":3778,"stimulus":"<p>You did not answer all comprehension questions correctly.<br>Press <b>continue</b> to review the instructions again.</p>","response":0,"trial_type":"html-button-response","trial_index":6,"time_elapsed":806826,"internal_node_id":"0.0-3.0-3.0","subject_id":"5fd9e1d7f35a0e508fd433d1","study_id":"60edd13110225f80f9f3709b","session_id":"6196c705936b0bb6baf9db1c","condition":"contingent","relevant_dimensions":["antennae","legs"],"bee_group":{"antennae":"A","wings":"X","pattern":"X","legs":"F"},"bonus":0.020000000000000004},{"view_history":[{"page_index":0,"viewing_time":15448.69999999972},{"page_index":1,"viewing_time":30864.30000000028},{"page_index":2,"viewing_time":29108.099999999627},{"page_index":3,"viewing_time":41815.80000000028},{"page_index":4,"viewing_time":7412.100000000093},{"page_index":5,"viewing_time":13236.5},{"page_index":6,"viewing_time":58820},{"page_index":7,"viewing_time":19919.69999999972},{"page_index":8,"viewing_time":8112},{"page_index":9,"viewing_time":6616},{"page_index":10,"viewing_time":6232.200000000186},{"page_index":11,"viewing_time":24391.899999999907},{"page_index":12,"viewing_time":20156.299999999814},{"page_index":13,"viewing_time":2159.8000000002794},{"page_index":14,"viewing_time":3631.7999999998137}],"rt":287926,"trial_type":"instructions","trial_index":7,"time_elapsed":1094753,"internal_node_id":"0.0-3.0-4.0-0.0","subject_id":"5fd9e1d7f35a0e508fd433d1","study_id":"60edd13110225f80f9f3709b","session_id":"6196c705936b0bb6baf9db1c","condition":"contingent","relevant_dimensions":["antennae","legs"],"bee_group":{"antennae":"A","wings":"X","pattern":"X","legs":"F"},"bonus":0.020000000000000004},{"rt":29232.700000000186,"response":{"Q0":["Two or six legs","Stripes or spots on body","Single or double wings","Antennae or no antennae"]},"question_order":[0],"trial_type":"survey-multi-select","trial_index":8,"time_elapsed":1123993,"internal_node_id":"0.0-3.0-4.0-1.0","subject_id":"5fd9e1d7f35a0e508fd433d1","study_id":"60edd13110225f80f9f3709b","session_id":"6196c705936b0bb6baf9db1c","condition":"contingent","relevant_dimensions":["antennae","legs"],"bee_group":{"antennae":"A","wings":"X","pattern":"X","legs":"F"},"correct":true,"bonus":0.020000000000000004},{"rt":199237.7000000002,"response":{"Q1":"No.","Q2":"Based on the four features of the bee.","Q3":"You do not learn if it was friendly or dangerous, and do not alter your bonus."},"question_order":[0,1,2],"trial_type":"survey-multi-choice","trial_index":9,"time_elapsed":1323233,"internal_node_id":"0.0-3.0-4.0-2.0","subject_id":"5fd9e1d7f35a0e508fd433d1","study_id":"60edd13110225f80f9f3709b","session_id":"6196c705936b0bb6baf9db1c","condition":"contingent","relevant_dimensions":["antennae","legs"],"bee_group":{"antennae":"A","wings":"X","pattern":"X","legs":"F"},"correct":true,"bonus":0.020000000000000004},{"rt":28436.899999999907,"stimulus":"<p>Congrats, you got everything right<br>When you're ready, click the button below to continue to the experiment.</p>","response":0,"trial_type":"html-button-response","trial_index":10,"time_elapsed":1351673,"internal_node_id":"0.0-3.0-4.0-3.0","subject_id":"5fd9e1d7f35a0e508fd433d1","study_id":"60edd13110225f80f9f3709b","session_id":"6196c705936b0bb6baf9db1c","condition":"contingent","relevant_dimensions":["antennae","legs"],"bee_group":{"antennae":"A","wings":"X","pattern":"X","legs":"F"},"bonus":0.020000000000000004},{"rt":8408.69999999972,"stimulus":"bees-with-color/bee-B2DM.svg","response":1,"trial_type":"image-button-response","trial_index":11,"time_elapsed":1360086,"internal_node_id":"0.0-4.0-0.0","subject_id":"5fd9e1d7f35a0e508fd433d1","study_id":"60edd13110225f80f9f3709b","session_id":"6196c705936b0bb6baf9db1c","condition":"contingent","relevant_dimensions":["antennae","legs"],"bee_group":{"antennae":"A","wings":"X","pattern":"X","legs":"F"},"action":"avoid","summary":"bad-avoid","bonus":0.020000000000000004},{"rt":8091.100000000093,"stimulus":"\n                    <p><b>Action: <em>avoid</em></b></p>\n                    <p>This is the bee that you just saw.</p>\n                    <img src=\"bees-with-color/bee-B2DM.svg\" width=\"200\">\n                    <p><br>Your bonus pay is unchanged, and remains at $0.54.</p>\n            ","response":0,"trial_type":"html-button-response","trial_index":12,"time_elapsed":1368441,"internal_node_id":"0.0-4.0-1.0","subject_id":"5fd9e1d7f35a0e508fd433d1","study_id":"60edd13110225f80f9f3709b","session_id":"6196c705936b0bb6baf9db1c","condition":"contingent","relevant_dimensions":["antennae","legs"],"bee_group":{"antennae":"A","wings":"X","pattern":"X","legs":"F"},"bonus":0.020000000000000004},{"rt":3789,"stimulus":"bees-with-color/bee-B1DM.svg","response":0,"trial_type":"image-button-response","trial_index":13,"time_elapsed":1372233,"internal_node_id":"0.0-4.0-0.1","subject_id":"5fd9e1d7f35a0e508fd433d1","study_id":"60edd13110225f80f9f3709b","session_id":"6196c705936b0bb6baf9db1c","condition":"contingent","relevant_dimensions":["antennae","legs"],"bee_group":{"antennae":"A","wings":"X","pattern":"X","legs":"F"},"action":"harvest","summary":"good-harvest","bonus":0.020000000000000004},{"rt":15033.69999999972,"stimulus":"\n                    <p><b>Action: <em>harvest</em></b></p>\n                    <p>This is the bee that you just saw.</p>\n                    <img src=\"bees-with-color/bee-B1DM.svg\" width=\"200\">\n                    <p><span class=\"greenText\"><b>Successful harvest!</b></span><br>Your pay has increased by $0.02. Your bonus pay is now $0.56.</p>\n            ","response":0,"trial_type":"html-button-response","trial_index":14,"time_elapsed":1387269,"internal_node_id":"0.0-4.0-1.1","subject_id":"5fd9e1d7f35a0e508fd433d1","study_id":"60edd13110225f80f9f3709b","session_id":"6196c705936b0bb6baf9db1c","condition":"contingent","relevant_dimensions":["antennae","legs"],"bee_group":{"antennae":"A","wings":"X","pattern":"X","legs":"F"},"bonus":0.020000000000000004},{"rt":3157.399999999907,"stimulus":"bees-with-color/bee-B1SM.svg","response":0,"trial_type":"image-button-response","trial_index":15,"time_elapsed":1390430,"internal_node_id":"0.0-4.0-0.2","subject_id":"5fd9e1d7f35a0e508fd433d1","study_id":"60edd13110225f80f9f3709b","session_id":"6196c705936b0bb6baf9db1c","condition":"contingent","relevant_dimensions":["antennae","legs"],"bee_group":{"antennae":"A","wings":"X","pattern":"X","legs":"F"},"action":"harvest","summary":"good-harvest","bonus":0.020000000000000004},{"rt":2720.600000000093,"stimulus":"\n                    <p><b>Action: <em>harvest</em></b></p>\n                    <p>This is the bee that you just saw.</p>\n                    <img src=\"bees-with-color/bee-B1SM.svg\" width=\"200\">\n                    <p><span class=\"greenText\"><b>Successful harvest!</b></span><br>Your pay has increased by $0.02. Your bonus pay is now $0.58.</p>\n            ","response":0,"trial_type":"html-button-response","trial_index":16,"time_elapsed":1393153,"internal_node_id":"0.0-4.0-1.2","subject_id":"5fd9e1d7f35a0e508fd433d1","study_id":"60edd13110225f80f9f3709b","session_id":"6196c705936b0bb6baf9db1c","condition":"contingent","relevant_dimensions":["antennae","legs"],"bee_group":{"antennae":"A","wings":"X","pattern":"X","legs":"F"},"bonus":0.020000000000000004},{"rt":4201.5,"stimulus":"bees-with-color/bee-A1DF.svg","response":0,"trial_type":"image-button-response","trial_index":17,"time_elapsed":1397358,"internal_node_id":"0.0-4.0-0.3","subject_id":"5fd9e1d7f35a0e508fd433d1","study_id":"60edd13110225f80f9f3709b","session_id":"6196c705936b0bb6baf9db1c","condition":"contingent","relevant_dimensions":["antennae","legs"],"bee_group":{"antennae":"A","wings":"X","pattern":"X","legs":"F"},"action":"harvest","summary":"bad-harvest","bonus":0.020000000000000004},{"rt":4577.899999999907,"stimulus":"\n                    <p><b>Action: <em>harvest</em></b></p>\n                    <p>This is the bee that you just saw.</p>\n                    <img src=\"bees-with-color/bee-A1DF.svg\" width=\"200\">\n                    <p><span class=\"redText\">Bad choice, the bee was angry.</span><br><b>You have been stung!</b><br>Your pay has been decreased by $0.10. Your bonus pay is now $0.48.</p>\n            ","response":0,"trial_type":"html-button-response","trial_index":18,"time_elapsed":1401938,"internal_node_id":"0.0-4.0-1.3","subject_id":"5fd9e1d7f35a0e508fd433d1","study_id":"60edd13110225f80f9f3709b","session_id":"6196c705936b0bb6baf9db1c","condition":"contingent","relevant_dimensions":["antennae","legs"],"bee_group":{"antennae":"A","wings":"X","pattern":"X","legs":"F"},"bonus":0.020000000000000004},{"rt":2352.5,"stimulus":"bees-with-color/bee-A2SF.svg","response":0,"trial_type":"image-button-response","trial_index":19,"time_elapsed":1404294,"internal_node_id":"0.0-4.0-0.4","subject_id":"5fd9e1d7f35a0e508fd433d1","study_id":"60edd13110225f80f9f3709b","session_id":"6196c705936b0bb6baf9db1c","condition":"contingent","relevant_dimensions":["antennae","legs"],"bee_group":{"antennae":"A","wings":"X","pattern":"X","legs":"F"},"action":"harvest","summary":"bad-harvest","bonus":0.020000000000000004},{"rt":2669.1999999997206,"stimulus":"\n                    <p><b>Action: <em>harvest</em></b></p>\n                    <p>This is the bee that you just saw.</p>\n                    <img src=\"bees-with-color/bee-A2SF.svg\" width=\"200\">\n                    <p><span class=\"redText\">Bad choice, the bee was angry.</span><br><b>You have been stung!</b><br>Your pay has been decreased by $0.10. Your bonus pay is now $0.38.</p>\n            ","response":0,"trial_type":"html-button-response","trial_index":20,"time_elapsed":1406966,"internal_node_id":"0.0-4.0-1.4","subject_id":"5fd9e1d7f35a0e508fd433d1","study_id":"60edd13110225f80f9f3709b","session_id":"6196c705936b0bb6baf9db1c","condition":"contingent","relevant_dimensions":["antennae","legs"],"bee_group":{"antennae":"A","wings":"X","pattern":"X","legs":"F"},"bonus":0.020000000000000004},{"rt":1548.6000000000931,"stimulus":"bees-with-color/bee-A2SM.svg","response":0,"trial_type":"image-button-response","trial_index":21,"time_elapsed":1408517,"internal_node_id":"0.0-4.0-0.5","subject_id":"5fd9e1d7f35a0e508fd433d1","study_id":"60edd13110225f80f9f3709b","session_id":"6196c705936b0bb6baf9db1c","condition":"contingent","relevant_dimensions":["antennae","legs"],"bee_group":{"antennae":"A","wings":"X","pattern":"X","legs":"F"},"action":"harvest","summary":"good-harvest","bonus":0.020000000000000004},{"rt":2253.399999999907,"stimulus":"\n                    <p><b>Action: <em>harvest</em></b></p>\n                    <p>This is the bee that you just saw.</p>\n                    <img src=\"bees-with-color/bee-A2SM.svg\" width=\"200\">\n                    <p><span class=\"greenText\"><b>Successful harvest!</b></span><br>Your pay has increased by $0.02. Your bonus pay is now $0.40.</p>\n            ","response":0,"trial_type":"html-button-response","trial_index":22,"time_elapsed":1410773,"internal_node_id":"0.0-4.0-1.5","subject_id":"5fd9e1d7f35a0e508fd433d1","study_id":"60edd13110225f80f9f3709b","session_id":"6196c705936b0bb6baf9db1c","condition":"contingent","relevant_dimensions":["antennae","legs"],"bee_group":{"antennae":"A","wings":"X","pattern":"X","legs":"F"},"bonus":0.020000000000000004},{"rt":2901.2999999998137,"stimulus":"bees-with-color/bee-B2DF.svg","response":1,"trial_type":"image-button-response","trial_index":23,"time_elapsed":1413678,"internal_node_id":"0.0-4.0-0.6","subject_id":"5fd9e1d7f35a0e508fd433d1","study_id":"60edd13110225f80f9f3709b","session_id":"6196c705936b0bb6baf9db1c","condition":"contingent","relevant_dimensions":["antennae","legs"],"bee_group":{"antennae":"A","wings":"X","pattern":"X","legs":"F"},"action":"avoid","summary":"bad-avoid","bonus":0.020000000000000004},{"rt":2854,"stimulus":"\n                    <p><b>Action: <em>avoid</em></b></p>\n                    <p>This is the bee that you just saw.</p>\n                    <img src=\"bees-with-color/bee-B2DF.svg\" width=\"200\">\n                    <p><br>Your bonus pay is unchanged, and remains at $0.40.</p>\n            ","response":0,"trial_type":"html-button-response","trial_index":24,"time_elapsed":1416534,"internal_node_id":"0.0-4.0-1.6","subject_id":"5fd9e1d7f35a0e508fd433d1","study_id":"60edd13110225f80f9f3709b","session_id":"6196c705936b0bb6baf9db1c","condition":"contingent","relevant_dimensions":["antennae","legs"],"bee_group":{"antennae":"A","wings":"X","pattern":"X","legs":"F"},"bonus":0.020000000000000004},{"rt":1565.6000000000931,"stimulus":"bees-with-color/bee-B1SF.svg","response":0,"trial_type":"image-button-response","trial_index":25,"time_elapsed":1418101,"internal_node_id":"0.0-4.0-0.7","subject_id":"5fd9e1d7f35a0e508fd433d1","study_id":"60edd13110225f80f9f3709b","session_id":"6196c705936b0bb6baf9db1c","condition":"contingent","relevant_dimensions":["antennae","legs"],"bee_group":{"antennae":"A","wings":"X","pattern":"X","legs":"F"},"action":"harvest","summary":"good-harvest","bonus":0.020000000000000004},{"rt":2070.0999999996275,"stimulus":"\n                    <p><b>Action: <em>harvest</em></b></p>\n                    <p>This is the bee that you just saw.</p>\n                    <img src=\"bees-with-color/bee-B1SF.svg\" width=\"200\">\n                    <p><span class=\"greenText\"><b>Successful harvest!</b></span><br>Your pay has increased by $0.02. Your bonus pay is now $0.42.</p>\n            ","response":0,"trial_type":"html-button-response","trial_index":26,"time_elapsed":1420174,"internal_node_id":"0.0-4.0-1.7","subject_id":"5fd9e1d7f35a0e508fd433d1","study_id":"60edd13110225f80f9f3709b","session_id":"6196c705936b0bb6baf9db1c","condition":"contingent","relevant_dimensions":["antennae","legs"],"bee_group":{"antennae":"A","wings":"X","pattern":"X","legs":"F"},"bonus":0.020000000000000004},{"rt":1476.8999999999069,"stimulus":"bees-with-color/bee-A1SF.svg","response":0,"trial_type":"image-button-response","trial_index":27,"time_elapsed":1421654,"internal_node_id":"0.0-4.0-0.8","subject_id":"5fd9e1d7f35a0e508fd433d1","study_id":"60edd13110225f80f9f3709b","session_id":"6196c705936b0bb6baf9db1c","condition":"contingent","relevant_dimensions":["antennae","legs"],"bee_group":{"antennae":"A","wings":"X","pattern":"X","legs":"F"},"action":"harvest","summary":"bad-harvest","bonus":0.020000000000000004},{"rt":1421.1999999997206,"stimulus":"\n                    <p><b>Action: <em>harvest</em></b></p>\n                    <p>This is the bee that you just saw.</p>\n                    <img src=\"bees-with-color/bee-A1SF.svg\" width=\"200\">\n                    <p><span class=\"redText\">Bad choice, the bee was angry.</span><br><b>You have been stung!</b><br>Your pay has been decreased by $0.10. Your bonus pay is now $0.32.</p>\n            ","response":0,"trial_type":"html-button-response","trial_index":28,"time_elapsed":1423077,"internal_node_id":"0.0-4.0-1.8","subject_id":"5fd9e1d7f35a0e508fd433d1","study_id":"60edd13110225f80f9f3709b","session_id":"6196c705936b0bb6baf9db1c","condition":"contingent","relevant_dimensions":["antennae","legs"],"bee_group":{"antennae":"A","wings":"X","pattern":"X","legs":"F"},"bonus":0.020000000000000004},{"rt":1629.6999999997206,"stimulus":"bees-with-color/bee-B2SF.svg","response":0,"trial_type":"image-button-response","trial_index":29,"time_elapsed":1424710,"internal_node_id":"0.0-4.0-0.9","subject_id":"5fd9e1d7f35a0e508fd433d1","study_id":"60edd13110225f80f9f3709b","session_id":"6196c705936b0bb6baf9db1c","condition":"contingent","relevant_dimensions":["antennae","legs"],"bee_group":{"antennae":"A","wings":"X","pattern":"X","legs":"F"},"action":"harvest","summary":"good-harvest","bonus":0.020000000000000004},{"rt":1037.8999999999069,"stimulus":"\n                    <p><b>Action: <em>harvest</em></b></p>\n                    <p>This is the bee that you just saw.</p>\n                    <img src=\"bees-with-color/bee-B2SF.svg\" width=\"200\">\n                    <p><span class=\"greenText\"><b>Successful harvest!</b></span><br>Your pay has increased by $0.02. Your bonus pay is now $0.34.</p>\n            ","response":0,"trial_type":"html-button-response","trial_index":30,"time_elapsed":1425750,"internal_node_id":"0.0-4.0-1.9","subject_id":"5fd9e1d7f35a0e508fd433d1","study_id":"60edd13110225f80f9f3709b","session_id":"6196c705936b0bb6baf9db1c","condition":"contingent","relevant_dimensions":["antennae","legs"],"bee_group":{"antennae":"A","wings":"X","pattern":"X","legs":"F"},"bonus":0.020000000000000004},{"rt":1417.6000000000931,"stimulus":"bees-with-color/bee-A1DM.svg","response":0,"trial_type":"image-button-response","trial_index":31,"time_elapsed":1427169,"internal_node_id":"0.0-4.0-0.10","subject_id":"5fd9e1d7f35a0e508fd433d1","study_id":"60edd13110225f80f9f3709b","session_id":"6196c705936b0bb6baf9db1c","condition":"contingent","relevant_dimensions":["antennae","legs"],"bee_group":{"antennae":"A","wings":"X","pattern":"X","legs":"F"},"action":"harvest","summary":"good-harvest","bonus":0.020000000000000004},{"rt":1357.7999999998137,"stimulus":"\n                    <p><b>Action: <em>harvest</em></b></p>\n                    <p>This is the bee that you just saw.</p>\n                    <img src=\"bees-with-color/bee-A1DM.svg\" width=\"200\">\n                    <p><span class=\"greenText\"><b>Successful harvest!</b></span><br>Your pay has increased by $0.02. Your bonus pay is now $0.36.</p>\n            ","response":0,"trial_type":"html-button-response","trial_index":32,"time_elapsed":1428529,"internal_node_id":"0.0-4.0-1.10","subject_id":"5fd9e1d7f35a0e508fd433d1","study_id":"60edd13110225f80f9f3709b","session_id":"6196c705936b0bb6baf9db1c","condition":"contingent","relevant_dimensions":["antennae","legs"],"bee_group":{"antennae":"A","wings":"X","pattern":"X","legs":"F"},"bonus":0.020000000000000004},{"rt":2897.7999999998137,"stimulus":"bees-with-color/bee-A1SM.svg","response":0,"trial_type":"image-button-response","trial_index":33,"time_elapsed":1431430,"internal_node_id":"0.0-4.0-0.11","subject_id":"5fd9e1d7f35a0e508fd433d1","study_id":"60edd13110225f80f9f3709b","session_id":"6196c705936b0bb6baf9db1c","condition":"contingent","relevant_dimensions":["antennae","legs"],"bee_group":{"antennae":"A","wings":"X","pattern":"X","legs":"F"},"action":"harvest","summary":"good-harvest","bonus":0.020000000000000004},{"rt":1341.7000000001863,"stimulus":"\n                    <p><b>Action: <em>harvest</em></b></p>\n                    <p>This is the bee that you just saw.</p>\n                    <img src=\"bees-with-color/bee-A1SM.svg\" width=\"200\">\n                    <p><span class=\"greenText\"><b>Successful harvest!</b></span><br>Your pay has increased by $0.02. Your bonus pay is now $0.38.</p>\n            ","response":0,"trial_type":"html-button-response","trial_index":34,"time_elapsed":1432774,"internal_node_id":"0.0-4.0-1.11","subject_id":"5fd9e1d7f35a0e508fd433d1","study_id":"60edd13110225f80f9f3709b","session_id":"6196c705936b0bb6baf9db1c","condition":"contingent","relevant_dimensions":["antennae","legs"],"bee_group":{"antennae":"A","wings":"X","pattern":"X","legs":"F"},"bonus":0.020000000000000004},{"rt":3101.5999999996275,"stimulus":"bees-with-color/bee-B1DF.svg","response":0,"trial_type":"image-button-response","trial_index":35,"time_elapsed":1435878,"internal_node_id":"0.0-4.0-0.12","subject_id":"5fd9e1d7f35a0e508fd433d1","study_id":"60edd13110225f80f9f3709b","session_id":"6196c705936b0bb6baf9db1c","condition":"contingent","relevant_dimensions":["antennae","legs"],"bee_group":{"antennae":"A","wings":"X","pattern":"X","legs":"F"},"action":"harvest","summary":"good-harvest","bonus":0.020000000000000004},{"rt":1609,"stimulus":"\n                    <p><b>Action: <em>harvest</em></b></p>\n                    <p>This is the bee that you just saw.</p>\n                    <img src=\"bees-with-color/bee-B1DF.svg\" width=\"200\">\n                    <p><span class=\"greenText\"><b>Successful harvest!</b></span><br>Your pay has increased by $0.02. Your bonus pay is now $0.40.</p>\n            ","response":0,"trial_type":"html-button-response","trial_index":36,"time_elapsed":1437489,"internal_node_id":"0.0-4.0-1.12","subject_id":"5fd9e1d7f35a0e508fd433d1","study_id":"60edd13110225f80f9f3709b","session_id":"6196c705936b0bb6baf9db1c","condition":"contingent","relevant_dimensions":["antennae","legs"],"bee_group":{"antennae":"A","wings":"X","pattern":"X","legs":"F"},"bonus":0.020000000000000004},{"rt":2065.2999999998137,"stimulus":"bees-with-color/bee-A2DM.svg","response":0,"trial_type":"image-button-response","trial_index":37,"time_elapsed":1439557,"internal_node_id":"0.0-4.0-0.13","subject_id":"5fd9e1d7f35a0e508fd433d1","study_id":"60edd13110225f80f9f3709b","session_id":"6196c705936b0bb6baf9db1c","condition":"contingent","relevant_dimensions":["antennae","legs"],"bee_group":{"antennae":"A","wings":"X","pattern":"X","legs":"F"},"action":"harvest","summary":"good-harvest","bonus":0.020000000000000004},{"rt":1477.7000000001863,"stimulus":"\n                    <p><b>Action: <em>harvest</em></b></p>\n                    <p>This is the bee that you just saw.</p>\n                    <img src=\"bees-with-color/bee-A2DM.svg\" width=\"200\">\n                    <p><span class=\"greenText\"><b>Successful harvest!</b></span><br>Your pay has increased by $0.02. Your bonus pay is now $0.42.</p>\n            ","response":0,"trial_type":"html-button-response","trial_index":38,"time_elapsed":1441037,"internal_node_id":"0.0-4.0-1.13","subject_id":"5fd9e1d7f35a0e508fd433d1","study_id":"60edd13110225f80f9f3709b","session_id":"6196c705936b0bb6baf9db1c","condition":"contingent","relevant_dimensions":["antennae","legs"],"bee_group":{"antennae":"A","wings":"X","pattern":"X","legs":"F"},"bonus":0.020000000000000004},{"rt":1037.5,"stimulus":"bees-with-color/bee-A2DF.svg","response":0,"trial_type":"image-button-response","trial_index":39,"time_elapsed":1442077,"internal_node_id":"0.0-4.0-0.14","subject_id":"5fd9e1d7f35a0e508fd433d1","study_id":"60edd13110225f80f9f3709b","session_id":"6196c705936b0bb6baf9db1c","condition":"contingent","relevant_dimensions":["antennae","legs"],"bee_group":{"antennae":"A","wings":"X","pattern":"X","legs":"F"},"action":"harvest","summary":"bad-harvest","bonus":0.020000000000000004},{"rt":1157.6000000000931,"stimulus":"\n                    <p><b>Action: <em>harvest</em></b></p>\n                    <p>This is the bee that you just saw.</p>\n                    <img src=\"bees-with-color/bee-A2DF.svg\" width=\"200\">\n                    <p><span class=\"redText\">Bad choice, the bee was angry.</span><br><b>You have been stung!</b><br>Your pay has been decreased by $0.10. Your bonus pay is now $0.32.</p>\n            ","response":0,"trial_type":"html-button-response","trial_index":40,"time_elapsed":1443237,"internal_node_id":"0.0-4.0-1.14","subject_id":"5fd9e1d7f35a0e508fd433d1","study_id":"60edd13110225f80f9f3709b","session_id":"6196c705936b0bb6baf9db1c","condition":"contingent","relevant_dimensions":["antennae","legs"],"bee_group":{"antennae":"A","wings":"X","pattern":"X","legs":"F"},"bonus":0.020000000000000004},{"rt":1333.7999999998137,"stimulus":"bees-with-color/bee-B2SM.svg","response":0,"trial_type":"image-button-response","trial_index":41,"time_elapsed":1444573,"internal_node_id":"0.0-4.0-0.15","subject_id":"5fd9e1d7f35a0e508fd433d1","study_id":"60edd13110225f80f9f3709b","session_id":"6196c705936b0bb6baf9db1c","condition":"contingent","relevant_dimensions":["antennae","legs"],"bee_group":{"antennae":"A","wings":"X","pattern":"X","legs":"F"},"action":"harvest","summary":"good-harvest","bonus":0.020000000000000004},{"rt":1229.7000000001863,"stimulus":"\n                    <p><b>Action: <em>harvest</em></b></p>\n                    <p>This is the bee that you just saw.</p>\n                    <img src=\"bees-with-color/bee-B2SM.svg\" width=\"200\">\n                    <p><span class=\"greenText\"><b>Successful harvest!</b></span><br>Your pay has increased by $0.02. Your bonus pay is now $0.34.</p>\n            ","response":0,"trial_type":"html-button-response","trial_index":42,"time_elapsed":1445806,"internal_node_id":"0.0-4.0-1.15","subject_id":"5fd9e1d7f35a0e508fd433d1","study_id":"60edd13110225f80f9f3709b","session_id":"6196c705936b0bb6baf9db1c","condition":"contingent","relevant_dimensions":["antennae","legs"],"bee_group":{"antennae":"A","wings":"X","pattern":"X","legs":"F"},"bonus":0.020000000000000004},{"rt":893.7000000001863,"stimulus":"bees-with-color/bee-B1DF.svg","response":0,"trial_type":"image-button-response","trial_index":43,"time_elapsed":1446701,"internal_node_id":"0.0-4.0-0.16","subject_id":"5fd9e1d7f35a0e508fd433d1","study_id":"60edd13110225f80f9f3709b","session_id":"6196c705936b0bb6baf9db1c","condition":"contingent","relevant_dimensions":["antennae","legs"],"bee_group":{"antennae":"A","wings":"X","pattern":"X","legs":"F"},"action":"harvest","summary":"good-harvest","bonus":0.020000000000000004},{"rt":1125.5999999996275,"stimulus":"\n                    <p><b>Action: <em>harvest</em></b></p>\n                    <p>This is the bee that you just saw.</p>\n                    <img src=\"bees-with-color/bee-B1DF.svg\" width=\"200\">\n                    <p><span class=\"greenText\"><b>Successful harvest!</b></span><br>Your pay has increased by $0.02. Your bonus pay is now $0.36.</p>\n            ","response":0,"trial_type":"html-button-response","trial_index":44,"time_elapsed":1447830,"internal_node_id":"0.0-4.0-1.16","subject_id":"5fd9e1d7f35a0e508fd433d1","study_id":"60edd13110225f80f9f3709b","session_id":"6196c705936b0bb6baf9db1c","condition":"contingent","relevant_dimensions":["antennae","legs"],"bee_group":{"antennae":"A","wings":"X","pattern":"X","legs":"F"},"bonus":0.020000000000000004},{"rt":965.3000000002794,"stimulus":"bees-with-color/bee-B2SF.svg","response":0,"trial_type":"image-button-response","trial_index":45,"time_elapsed":1448797,"internal_node_id":"0.0-4.0-0.17","subject_id":"5fd9e1d7f35a0e508fd433d1","study_id":"60edd13110225f80f9f3709b","session_id":"6196c705936b0bb6baf9db1c","condition":"contingent","relevant_dimensions":["antennae","legs"],"bee_group":{"antennae":"A","wings":"X","pattern":"X","legs":"F"},"action":"harvest","summary":"good-harvest","bonus":0.020000000000000004},{"rt":1125.2000000001863,"stimulus":"\n                    <p><b>Action: <em>harvest</em></b></p>\n                    <p>This is the bee that you just saw.</p>\n                    <img src=\"bees-with-color/bee-B2SF.svg\" width=\"200\">\n                    <p><span class=\"greenText\"><b>Successful harvest!</b></span><br>Your pay has increased by $0.02. Your bonus pay is now $0.38.</p>\n            ","response":0,"trial_type":"html-button-response","trial_index":46,"time_elapsed":1449926,"internal_node_id":"0.0-4.0-1.17","subject_id":"5fd9e1d7f35a0e508fd433d1","study_id":"60edd13110225f80f9f3709b","session_id":"6196c705936b0bb6baf9db1c","condition":"contingent","relevant_dimensions":["antennae","legs"],"bee_group":{"antennae":"A","wings":"X","pattern":"X","legs":"F"},"bonus":0.020000000000000004},{"rt":1077.5,"stimulus":"bees-with-color/bee-B1DM.svg","response":0,"trial_type":"image-button-response","trial_index":47,"time_elapsed":1451005,"internal_node_id":"0.0-4.0-0.18","subject_id":"5fd9e1d7f35a0e508fd433d1","study_id":"60edd13110225f80f9f3709b","session_id":"6196c705936b0bb6baf9db1c","condition":"contingent","relevant_dimensions":["antennae","legs"],"bee_group":{"antennae":"A","wings":"X","pattern":"X","legs":"F"},"action":"harvest","summary":"good-harvest","bonus":0.020000000000000004},{"rt":1142.1000000000931,"stimulus":"\n                    <p><b>Action: <em>harvest</em></b></p>\n                    <p>This is the bee that you just saw.</p>\n                    <img src=\"bees-with-color/bee-B1DM.svg\" width=\"200\">\n                    <p><span class=\"greenText\"><b>Successful harvest!</b></span><br>Your pay has increased by $0.02. Your bonus pay is now $0.40.</p>\n            ","response":0,"trial_type":"html-button-response","trial_index":48,"time_elapsed":1452150,"internal_node_id":"0.0-4.0-1.18","subject_id":"5fd9e1d7f35a0e508fd433d1","study_id":"60edd13110225f80f9f3709b","session_id":"6196c705936b0bb6baf9db1c","condition":"contingent","relevant_dimensions":["antennae","legs"],"bee_group":{"antennae":"A","wings":"X","pattern":"X","legs":"F"},"bonus":0.020000000000000004},{"rt":1709.1000000000931,"stimulus":"bees-with-color/bee-A2SF.svg","response":0,"trial_type":"image-button-response","trial_index":49,"time_elapsed":1453861,"internal_node_id":"0.0-4.0-0.19","subject_id":"5fd9e1d7f35a0e508fd433d1","study_id":"60edd13110225f80f9f3709b","session_id":"6196c705936b0bb6baf9db1c","condition":"contingent","relevant_dimensions":["antennae","legs"],"bee_group":{"antennae":"A","wings":"X","pattern":"X","legs":"F"},"action":"harvest","summary":"bad-harvest","bonus":0.020000000000000004},{"rt":1309.8999999999069,"stimulus":"\n                    <p><b>Action: <em>harvest</em></b></p>\n                    <p>This is the bee that you just saw.</p>\n                    <img src=\"bees-with-color/bee-A2SF.svg\" width=\"200\">\n                    <p><span class=\"redText\">Bad choice, the bee was angry.</span><br><b>You have been stung!</b><br>Your pay has been decreased by $0.10. Your bonus pay is now $0.30.</p>\n            ","response":0,"trial_type":"html-button-response","trial_index":50,"time_elapsed":1455173,"internal_node_id":"0.0-4.0-1.19","subject_id":"5fd9e1d7f35a0e508fd433d1","study_id":"60edd13110225f80f9f3709b","session_id":"6196c705936b0bb6baf9db1c","condition":"contingent","relevant_dimensions":["antennae","legs"],"bee_group":{"antennae":"A","wings":"X","pattern":"X","legs":"F"},"bonus":0.020000000000000004},{"rt":1246.2999999998137,"stimulus":"bees-with-color/bee-B2SM.svg","response":0,"trial_type":"image-button-response","trial_index":51,"time_elapsed":1456421,"internal_node_id":"0.0-4.0-0.20","subject_id":"5fd9e1d7f35a0e508fd433d1","study_id":"60edd13110225f80f9f3709b","session_id":"6196c705936b0bb6baf9db1c","condition":"contingent","relevant_dimensions":["antennae","legs"],"bee_group":{"antennae":"A","wings":"X","pattern":"X","legs":"F"},"action":"harvest","summary":"good-harvest","bonus":0.020000000000000004},{"rt":1310.3000000002794,"stimulus":"\n                    <p><b>Action: <em>harvest</em></b></p>\n                    <p>This is the bee that you just saw.</p>\n                    <img src=\"bees-with-color/bee-B2SM.svg\" width=\"200\">\n                    <p><span class=\"greenText\"><b>Successful harvest!</b></span><br>Your pay has increased by $0.02. Your bonus pay is now $0.32.</p>\n            ","response":0,"trial_type":"html-button-response","trial_index":52,"time_elapsed":1457733,"internal_node_id":"0.0-4.0-1.20","subject_id":"5fd9e1d7f35a0e508fd433d1","study_id":"60edd13110225f80f9f3709b","session_id":"6196c705936b0bb6baf9db1c","condition":"contingent","relevant_dimensions":["antennae","legs"],"bee_group":{"antennae":"A","wings":"X","pattern":"X","legs":"F"},"bonus":0.020000000000000004},{"rt":1205.1000000000931,"stimulus":"bees-with-color/bee-B2DF.svg","response":0,"trial_type":"image-button-response","trial_index":53,"time_elapsed":1458941,"internal_node_id":"0.0-4.0-0.21","subject_id":"5fd9e1d7f35a0e508fd433d1","study_id":"60edd13110225f80f9f3709b","session_id":"6196c705936b0bb6baf9db1c","condition":"contingent","relevant_dimensions":["antennae","legs"],"bee_group":{"antennae":"A","wings":"X","pattern":"X","legs":"F"},"action":"harvest","summary":"good-harvest","bonus":0.020000000000000004},{"rt":1102.7999999998137,"stimulus":"\n                    <p><b>Action: <em>harvest</em></b></p>\n                    <p>This is the bee that you just saw.</p>\n                    <img src=\"bees-with-color/bee-B2DF.svg\" width=\"200\">\n                    <p><span class=\"greenText\"><b>Successful harvest!</b></span><br>Your pay has increased by $0.02. Your bonus pay is now $0.34.</p>\n            ","response":0,"trial_type":"html-button-response","trial_index":54,"time_elapsed":1460046,"internal_node_id":"0.0-4.0-1.21","subject_id":"5fd9e1d7f35a0e508fd433d1","study_id":"60edd13110225f80f9f3709b","session_id":"6196c705936b0bb6baf9db1c","condition":"contingent","relevant_dimensions":["antennae","legs"],"bee_group":{"antennae":"A","wings":"X","pattern":"X","legs":"F"},"bonus":0.020000000000000004},{"rt":1357.7999999998137,"stimulus":"bees-with-color/bee-B1SF.svg","response":0,"trial_type":"image-button-response","trial_index":55,"time_elapsed":1461406,"internal_node_id":"0.0-4.0-0.22","subject_id":"5fd9e1d7f35a0e508fd433d1","study_id":"60edd13110225f80f9f3709b","session_id":"6196c705936b0bb6baf9db1c","condition":"contingent","relevant_dimensions":["antennae","legs"],"bee_group":{"antennae":"A","wings":"X","pattern":"X","legs":"F"},"action":"harvest","summary":"good-harvest","bonus":0.020000000000000004},{"rt":1253.6000000000931,"stimulus":"\n                    <p><b>Action: <em>harvest</em></b></p>\n                    <p>This is the bee that you just saw.</p>\n                    <img src=\"bees-with-color/bee-B1SF.svg\" width=\"200\">\n                    <p><span class=\"greenText\"><b>Successful harvest!</b></span><br>Your pay has increased by $0.02. Your bonus pay is now $0.36.</p>\n            ","response":0,"trial_type":"html-button-response","trial_index":56,"time_elapsed":1462661,"internal_node_id":"0.0-4.0-1.22","subject_id":"5fd9e1d7f35a0e508fd433d1","study_id":"60edd13110225f80f9f3709b","session_id":"6196c705936b0bb6baf9db1c","condition":"contingent","relevant_dimensions":["antennae","legs"],"bee_group":{"antennae":"A","wings":"X","pattern":"X","legs":"F"},"bonus":0.020000000000000004},{"rt":1165.8999999999069,"stimulus":"bees-with-color/bee-A2DF.svg","response":0,"trial_type":"image-button-response","trial_index":57,"time_elapsed":1463829,"internal_node_id":"0.0-4.0-0.23","subject_id":"5fd9e1d7f35a0e508fd433d1","study_id":"60edd13110225f80f9f3709b","session_id":"6196c705936b0bb6baf9db1c","condition":"contingent","relevant_dimensions":["antennae","legs"],"bee_group":{"antennae":"A","wings":"X","pattern":"X","legs":"F"},"action":"harvest","summary":"bad-harvest","bonus":0.020000000000000004},{"rt":1217.8999999999069,"stimulus":"\n                    <p><b>Action: <em>harvest</em></b></p>\n                    <p>This is the bee that you just saw.</p>\n                    <img src=\"bees-with-color/bee-A2DF.svg\" width=\"200\">\n                    <p><span class=\"redText\">Bad choice, the bee was angry.</span><br><b>You have been stung!</b><br>Your pay has been decreased by $0.10. Your bonus pay is now $0.26.</p>\n            ","response":0,"trial_type":"html-button-response","trial_index":58,"time_elapsed":1465049,"internal_node_id":"0.0-4.0-1.23","subject_id":"5fd9e1d7f35a0e508fd433d1","study_id":"60edd13110225f80f9f3709b","session_id":"6196c705936b0bb6baf9db1c","condition":"contingent","relevant_dimensions":["antennae","legs"],"bee_group":{"antennae":"A","wings":"X","pattern":"X","legs":"F"},"bonus":0.020000000000000004},{"rt":2157.9000000003725,"stimulus":"bees-with-color/bee-A2DM.svg","response":1,"trial_type":"image-button-response","trial_index":59,"time_elapsed":1467209,"internal_node_id":"0.0-4.0-0.24","subject_id":"5fd9e1d7f35a0e508fd433d1","study_id":"60edd13110225f80f9f3709b","session_id":"6196c705936b0bb6baf9db1c","condition":"contingent","relevant_dimensions":["antennae","legs"],"bee_group":{"antennae":"A","wings":"X","pattern":"X","legs":"F"},"action":"avoid","summary":"bad-avoid","bonus":0.020000000000000004},{"rt":1410.2000000001863,"stimulus":"\n                    <p><b>Action: <em>avoid</em></b></p>\n                    <p>This is the bee that you just saw.</p>\n                    <img src=\"bees-with-color/bee-A2DM.svg\" width=\"200\">\n                    <p><br>Your bonus pay is unchanged, and remains at $0.26.</p>\n            ","response":0,"trial_type":"html-button-response","trial_index":60,"time_elapsed":1468621,"internal_node_id":"0.0-4.0-1.24","subject_id":"5fd9e1d7f35a0e508fd433d1","study_id":"60edd13110225f80f9f3709b","session_id":"6196c705936b0bb6baf9db1c","condition":"contingent","relevant_dimensions":["antennae","legs"],"bee_group":{"antennae":"A","wings":"X","pattern":"X","legs":"F"},"bonus":0.020000000000000004},{"rt":1605.7999999998137,"stimulus":"bees-with-color/bee-B1SM.svg","response":0,"trial_type":"image-button-response","trial_index":61,"time_elapsed":1470230,"internal_node_id":"0.0-4.0-0.25","subject_id":"5fd9e1d7f35a0e508fd433d1","study_id":"60edd13110225f80f9f3709b","session_id":"6196c705936b0bb6baf9db1c","condition":"contingent","relevant_dimensions":["antennae","legs"],"bee_group":{"antennae":"A","wings":"X","pattern":"X","legs":"F"},"action":"harvest","summary":"good-harvest","bonus":0.020000000000000004},{"rt":1229.2999999998137,"stimulus":"\n                    <p><b>Action: <em>harvest</em></b></p>\n                    <p>This is the bee that you just saw.</p>\n                    <img src=\"bees-with-color/bee-B1SM.svg\" width=\"200\">\n                    <p><span class=\"greenText\"><b>Successful harvest!</b></span><br>Your pay has increased by $0.02. Your bonus pay is now $0.28.</p>\n            ","response":0,"trial_type":"html-button-response","trial_index":62,"time_elapsed":1471461,"internal_node_id":"0.0-4.0-1.25","subject_id":"5fd9e1d7f35a0e508fd433d1","study_id":"60edd13110225f80f9f3709b","session_id":"6196c705936b0bb6baf9db1c","condition":"contingent","relevant_dimensions":["antennae","legs"],"bee_group":{"antennae":"A","wings":"X","pattern":"X","legs":"F"},"bonus":0.020000000000000004},{"rt":2497.899999999907,"stimulus":"bees-with-color/bee-A1DF.svg","response":0,"trial_type":"image-button-response","trial_index":63,"time_elapsed":1473961,"internal_node_id":"0.0-4.0-0.26","subject_id":"5fd9e1d7f35a0e508fd433d1","study_id":"60edd13110225f80f9f3709b","session_id":"6196c705936b0bb6baf9db1c","condition":"contingent","relevant_dimensions":["antennae","legs"],"bee_group":{"antennae":"A","wings":"X","pattern":"X","legs":"F"},"action":"harvest","summary":"bad-harvest","bonus":0.020000000000000004},{"rt":1221.7000000001863,"stimulus":"\n                    <p><b>Action: <em>harvest</em></b></p>\n                    <p>This is the bee that you just saw.</p>\n                    <img src=\"bees-with-color/bee-A1DF.svg\" width=\"200\">\n                    <p><span class=\"redText\">Bad choice, the bee was angry.</span><br><b>You have been stung!</b><br>Your pay has been decreased by $0.10. Your bonus pay is now $0.18.</p>\n            ","response":0,"trial_type":"html-button-response","trial_index":64,"time_elapsed":1475185,"internal_node_id":"0.0-4.0-1.26","subject_id":"5fd9e1d7f35a0e508fd433d1","study_id":"60edd13110225f80f9f3709b","session_id":"6196c705936b0bb6baf9db1c","condition":"contingent","relevant_dimensions":["antennae","legs"],"bee_group":{"antennae":"A","wings":"X","pattern":"X","legs":"F"},"bonus":0.020000000000000004},{"rt":1442.7000000001863,"stimulus":"bees-with-color/bee-B2DM.svg","response":1,"trial_type":"image-button-response","trial_index":65,"time_elapsed":1476630,"internal_node_id":"0.0-4.0-0.27","subject_id":"5fd9e1d7f35a0e508fd433d1","study_id":"60edd13110225f80f9f3709b","session_id":"6196c705936b0bb6baf9db1c","condition":"contingent","relevant_dimensions":["antennae","legs"],"bee_group":{"antennae":"A","wings":"X","pattern":"X","legs":"F"},"action":"avoid","summary":"bad-avoid","bonus":0.020000000000000004},{"rt":868.7000000001863,"stimulus":"\n                    <p><b>Action: <em>avoid</em></b></p>\n                    <p>This is the bee that you just saw.</p>\n                    <img src=\"bees-with-color/bee-B2DM.svg\" width=\"200\">\n                    <p><br>Your bonus pay is unchanged, and remains at $0.18.</p>\n            ","response":0,"trial_type":"html-button-response","trial_index":66,"time_elapsed":1477502,"internal_node_id":"0.0-4.0-1.27","subject_id":"5fd9e1d7f35a0e508fd433d1","study_id":"60edd13110225f80f9f3709b","session_id":"6196c705936b0bb6baf9db1c","condition":"contingent","relevant_dimensions":["antennae","legs"],"bee_group":{"antennae":"A","wings":"X","pattern":"X","legs":"F"},"bonus":0.020000000000000004},{"rt":893.6000000000931,"stimulus":"bees-with-color/bee-A1SF.svg","response":0,"trial_type":"image-button-response","trial_index":67,"time_elapsed":1478397,"internal_node_id":"0.0-4.0-0.28","subject_id":"5fd9e1d7f35a0e508fd433d1","study_id":"60edd13110225f80f9f3709b","session_id":"6196c705936b0bb6baf9db1c","condition":"contingent","relevant_dimensions":["antennae","legs"],"bee_group":{"antennae":"A","wings":"X","pattern":"X","legs":"F"},"action":"harvest","summary":"bad-harvest","bonus":0.020000000000000004},{"rt":1097.8000000002794,"stimulus":"\n                    <p><b>Action: <em>harvest</em></b></p>\n                    <p>This is the bee that you just saw.</p>\n                    <img src=\"bees-with-color/bee-A1SF.svg\" width=\"200\">\n                    <p><span class=\"redText\">Bad choice, the bee was angry.</span><br><b>You have been stung!</b><br>Your pay has been decreased by $0.10. Your bonus pay is now $0.08.</p>\n            ","response":0,"trial_type":"html-button-response","trial_index":68,"time_elapsed":1479498,"internal_node_id":"0.0-4.0-1.28","subject_id":"5fd9e1d7f35a0e508fd433d1","study_id":"60edd13110225f80f9f3709b","session_id":"6196c705936b0bb6baf9db1c","condition":"contingent","relevant_dimensions":["antennae","legs"],"bee_group":{"antennae":"A","wings":"X","pattern":"X","legs":"F"},"bonus":0.020000000000000004},{"rt":2685.2999999998137,"stimulus":"bees-with-color/bee-A1SM.svg","response":1,"trial_type":"image-button-response","trial_index":69,"time_elapsed":1482186,"internal_node_id":"0.0-4.0-0.29","subject_id":"5fd9e1d7f35a0e508fd433d1","study_id":"60edd13110225f80f9f3709b","session_id":"6196c705936b0bb6baf9db1c","condition":"contingent","relevant_dimensions":["antennae","legs"],"bee_group":{"antennae":"A","wings":"X","pattern":"X","legs":"F"},"action":"avoid","summary":"bad-avoid","bonus":0.020000000000000004},{"rt":1037.3999999999069,"stimulus":"\n                    <p><b>Action: <em>avoid</em></b></p>\n                    <p>This is the bee that you just saw.</p>\n                    <img src=\"bees-with-color/bee-A1SM.svg\" width=\"200\">\n                    <p><br>Your bonus pay is unchanged, and remains at $0.08.</p>\n            ","response":0,"trial_type":"html-button-response","trial_index":70,"time_elapsed":1483225,"internal_node_id":"0.0-4.0-1.29","subject_id":"5fd9e1d7f35a0e508fd433d1","study_id":"60edd13110225f80f9f3709b","session_id":"6196c705936b0bb6baf9db1c","condition":"contingent","relevant_dimensions":["antennae","legs"],"bee_group":{"antennae":"A","wings":"X","pattern":"X","legs":"F"},"bonus":0.020000000000000004},{"rt":1053.1000000000931,"stimulus":"bees-with-color/bee-A2SM.svg","response":0,"trial_type":"image-button-response","trial_index":71,"time_elapsed":1484281,"internal_node_id":"0.0-4.0-0.30","subject_id":"5fd9e1d7f35a0e508fd433d1","study_id":"60edd13110225f80f9f3709b","session_id":"6196c705936b0bb6baf9db1c","condition":"contingent","relevant_dimensions":["antennae","legs"],"bee_group":{"antennae":"A","wings":"X","pattern":"X","legs":"F"},"action":"harvest","summary":"good-harvest","bonus":0.020000000000000004},{"rt":122217.8999999999,"stimulus":"\n                    <p><b>Action: <em>harvest</em></b></p>\n                    <p>This is the bee that you just saw.</p>\n                    <img src=\"bees-with-color/bee-A2SM.svg\" width=\"200\">\n                    <p><span class=\"greenText\"><b>Successful harvest!</b></span><br>Your pay has increased by $0.02. Your bonus pay is now $0.10.</p>\n            ","response":0,"trial_type":"html-button-response","trial_index":72,"time_elapsed":1606501,"internal_node_id":"0.0-4.0-1.30","subject_id":"5fd9e1d7f35a0e508fd433d1","study_id":"60edd13110225f80f9f3709b","session_id":"6196c705936b0bb6baf9db1c","condition":"contingent","relevant_dimensions":["antennae","legs"],"bee_group":{"antennae":"A","wings":"X","pattern":"X","legs":"F"},"bonus":0.020000000000000004},{"rt":1580.7000000001863,"stimulus":"bees-with-color/bee-A1DM.svg","response":1,"trial_type":"image-button-response","trial_index":73,"time_elapsed":1608085,"internal_node_id":"0.0-4.0-0.31","subject_id":"5fd9e1d7f35a0e508fd433d1","study_id":"60edd13110225f80f9f3709b","session_id":"6196c705936b0bb6baf9db1c","condition":"contingent","relevant_dimensions":["antennae","legs"],"bee_group":{"antennae":"A","wings":"X","pattern":"X","legs":"F"},"action":"avoid","summary":"bad-avoid","bonus":0.020000000000000004},{"rt":1822,"stimulus":"\n                    <p><b>Action: <em>avoid</em></b></p>\n                    <p>This is the bee that you just saw.</p>\n                    <img src=\"bees-with-color/bee-A1DM.svg\" width=\"200\">\n                    <p><br>Your bonus pay is unchanged, and remains at $0.10.</p>\n            ","response":0,"trial_type":"html-button-response","trial_index":74,"time_elapsed":1609909,"internal_node_id":"0.0-4.0-1.31","subject_id":"5fd9e1d7f35a0e508fd433d1","study_id":"60edd13110225f80f9f3709b","session_id":"6196c705936b0bb6baf9db1c","condition":"contingent","relevant_dimensions":["antennae","legs"],"bee_group":{"antennae":"A","wings":"X","pattern":"X","legs":"F"},"bonus":0.020000000000000004},{"rt":1702.1000000000931,"stimulus":"bees-with-color/bee-B1SM.svg","response":0,"trial_type":"image-button-response","trial_index":75,"time_elapsed":1611613,"internal_node_id":"0.0-4.0-0.32","subject_id":"5fd9e1d7f35a0e508fd433d1","study_id":"60edd13110225f80f9f3709b","session_id":"6196c705936b0bb6baf9db1c","condition":"contingent","relevant_dimensions":["antennae","legs"],"bee_group":{"antennae":"A","wings":"X","pattern":"X","legs":"F"},"action":"harvest","summary":"good-harvest","bonus":0.020000000000000004},{"rt":1782,"stimulus":"\n                    <p><b>Action: <em>harvest</em></b></p>\n                    <p>This is the bee that you just saw.</p>\n                    <img src=\"bees-with-color/bee-B1SM.svg\" width=\"200\">\n                    <p><span class=\"greenText\"><b>Successful harvest!</b></span><br>Your pay has increased by $0.02. Your bonus pay is now $0.12.</p>\n            ","response":0,"trial_type":"html-button-response","trial_index":76,"time_elapsed":1613397,"internal_node_id":"0.0-4.0-1.32","subject_id":"5fd9e1d7f35a0e508fd433d1","study_id":"60edd13110225f80f9f3709b","session_id":"6196c705936b0bb6baf9db1c","condition":"contingent","relevant_dimensions":["antennae","legs"],"bee_group":{"antennae":"A","wings":"X","pattern":"X","legs":"F"},"bonus":0.020000000000000004},{"rt":1126.1999999997206,"stimulus":"bees-with-color/bee-B1DM.svg","response":0,"trial_type":"image-button-response","trial_index":77,"time_elapsed":1614526,"internal_node_id":"0.0-4.0-0.33","subject_id":"5fd9e1d7f35a0e508fd433d1","study_id":"60edd13110225f80f9f3709b","session_id":"6196c705936b0bb6baf9db1c","condition":"contingent","relevant_dimensions":["antennae","legs"],"bee_group":{"antennae":"A","wings":"X","pattern":"X","legs":"F"},"action":"harvest","summary":"good-harvest","bonus":0.020000000000000004},{"rt":1121.2999999998137,"stimulus":"\n                    <p><b>Action: <em>harvest</em></b></p>\n                    <p>This is the bee that you just saw.</p>\n                    <img src=\"bees-with-color/bee-B1DM.svg\" width=\"200\">\n                    <p><span class=\"greenText\"><b>Successful harvest!</b></span><br>Your pay has increased by $0.02. Your bonus pay is now $0.14.</p>\n            ","response":0,"trial_type":"html-button-response","trial_index":78,"time_elapsed":1615650,"internal_node_id":"0.0-4.0-1.33","subject_id":"5fd9e1d7f35a0e508fd433d1","study_id":"60edd13110225f80f9f3709b","session_id":"6196c705936b0bb6baf9db1c","condition":"contingent","relevant_dimensions":["antennae","legs"],"bee_group":{"antennae":"A","wings":"X","pattern":"X","legs":"F"},"bonus":0.020000000000000004},{"rt":1089.2999999998137,"stimulus":"bees-with-color/bee-B2SM.svg","response":0,"trial_type":"image-button-response","trial_index":79,"time_elapsed":1616741,"internal_node_id":"0.0-4.0-0.34","subject_id":"5fd9e1d7f35a0e508fd433d1","study_id":"60edd13110225f80f9f3709b","session_id":"6196c705936b0bb6baf9db1c","condition":"contingent","relevant_dimensions":["antennae","legs"],"bee_group":{"antennae":"A","wings":"X","pattern":"X","legs":"F"},"action":"harvest","summary":"good-harvest","bonus":0.020000000000000004},{"rt":1039.3999999999069,"stimulus":"\n                    <p><b>Action: <em>harvest</em></b></p>\n                    <p>This is the bee that you just saw.</p>\n                    <img src=\"bees-with-color/bee-B2SM.svg\" width=\"200\">\n                    <p><span class=\"greenText\"><b>Successful harvest!</b></span><br>Your pay has increased by $0.02. Your bonus pay is now $0.16.</p>\n            ","response":0,"trial_type":"html-button-response","trial_index":80,"time_elapsed":1617782,"internal_node_id":"0.0-4.0-1.34","subject_id":"5fd9e1d7f35a0e508fd433d1","study_id":"60edd13110225f80f9f3709b","session_id":"6196c705936b0bb6baf9db1c","condition":"contingent","relevant_dimensions":["antennae","legs"],"bee_group":{"antennae":"A","wings":"X","pattern":"X","legs":"F"},"bonus":0.020000000000000004},{"rt":1317.1000000000931,"stimulus":"bees-with-color/bee-A1SF.svg","response":0,"trial_type":"image-button-response","trial_index":81,"time_elapsed":1619101,"internal_node_id":"0.0-4.0-0.35","subject_id":"5fd9e1d7f35a0e508fd433d1","study_id":"60edd13110225f80f9f3709b","session_id":"6196c705936b0bb6baf9db1c","condition":"contingent","relevant_dimensions":["antennae","legs"],"bee_group":{"antennae":"A","wings":"X","pattern":"X","legs":"F"},"action":"harvest","summary":"bad-harvest","bonus":0.020000000000000004},{"rt":1221.7999999998137,"stimulus":"\n                    <p><b>Action: <em>harvest</em></b></p>\n                    <p>This is the bee that you just saw.</p>\n                    <img src=\"bees-with-color/bee-A1SF.svg\" width=\"200\">\n                    <p><span class=\"redText\">Bad choice, the bee was angry.</span><br><b>You have been stung!</b><br>Your pay has been decreased by $0.10. Your bonus pay is now $0.06.</p>\n            ","response":0,"trial_type":"html-button-response","trial_index":82,"time_elapsed":1620325,"internal_node_id":"0.0-4.0-1.35","subject_id":"5fd9e1d7f35a0e508fd433d1","study_id":"60edd13110225f80f9f3709b","session_id":"6196c705936b0bb6baf9db1c","condition":"contingent","relevant_dimensions":["antennae","legs"],"bee_group":{"antennae":"A","wings":"X","pattern":"X","legs":"F"},"bonus":0.020000000000000004},{"rt":1053.7999999998137,"stimulus":"bees-with-color/bee-B2DM.svg","response":1,"trial_type":"image-button-response","trial_index":83,"time_elapsed":1621381,"internal_node_id":"0.0-4.0-0.36","subject_id":"5fd9e1d7f35a0e508fd433d1","study_id":"60edd13110225f80f9f3709b","session_id":"6196c705936b0bb6baf9db1c","condition":"contingent","relevant_dimensions":["antennae","legs"],"bee_group":{"antennae":"A","wings":"X","pattern":"X","legs":"F"},"action":"avoid","summary":"bad-avoid","bonus":0.020000000000000004},{"rt":989.5999999996275,"stimulus":"\n                    <p><b>Action: <em>avoid</em></b></p>\n                    <p>This is the bee that you just saw.</p>\n                    <img src=\"bees-with-color/bee-B2DM.svg\" width=\"200\">\n                    <p><br>Your bonus pay is unchanged, and remains at $0.06.</p>\n            ","response":0,"trial_type":"html-button-response","trial_index":84,"time_elapsed":1622374,"internal_node_id":"0.0-4.0-1.36","subject_id":"5fd9e1d7f35a0e508fd433d1","study_id":"60edd13110225f80f9f3709b","session_id":"6196c705936b0bb6baf9db1c","condition":"contingent","relevant_dimensions":["antennae","legs"],"bee_group":{"antennae":"A","wings":"X","pattern":"X","legs":"F"},"bonus":0.020000000000000004},{"rt":677.3000000002794,"stimulus":"bees-with-color/bee-B2SF.svg","response":0,"trial_type":"image-button-response","trial_index":85,"time_elapsed":1623053,"internal_node_id":"0.0-4.0-0.37","subject_id":"5fd9e1d7f35a0e508fd433d1","study_id":"60edd13110225f80f9f3709b","session_id":"6196c705936b0bb6baf9db1c","condition":"contingent","relevant_dimensions":["antennae","legs"],"bee_group":{"antennae":"A","wings":"X","pattern":"X","legs":"F"},"action":"harvest","summary":"good-harvest","bonus":0.020000000000000004},{"rt":1067.3999999999069,"stimulus":"\n                    <p><b>Action: <em>harvest</em></b></p>\n                    <p>This is the bee that you just saw.</p>\n                    <img src=\"bees-with-color/bee-B2SF.svg\" width=\"200\">\n                    <p><span class=\"greenText\"><b>Successful harvest!</b></span><br>Your pay has increased by $0.02. Your bonus pay is now $0.08.</p>\n            ","response":0,"trial_type":"html-button-response","trial_index":86,"time_elapsed":1624123,"internal_node_id":"0.0-4.0-1.37","subject_id":"5fd9e1d7f35a0e508fd433d1","study_id":"60edd13110225f80f9f3709b","session_id":"6196c705936b0bb6baf9db1c","condition":"contingent","relevant_dimensions":["antennae","legs"],"bee_group":{"antennae":"A","wings":"X","pattern":"X","legs":"F"},"bonus":0.020000000000000004},{"rt":750.2999999998137,"stimulus":"bees-with-color/bee-B2DF.svg","response":0,"trial_type":"image-button-response","trial_index":87,"time_elapsed":1624877,"internal_node_id":"0.0-4.0-0.38","subject_id":"5fd9e1d7f35a0e508fd433d1","study_id":"60edd13110225f80f9f3709b","session_id":"6196c705936b0bb6baf9db1c","condition":"contingent","relevant_dimensions":["antennae","legs"],"bee_group":{"antennae":"A","wings":"X","pattern":"X","legs":"F"},"action":"harvest","summary":"good-harvest","bonus":0.020000000000000004},{"rt":1076.9000000003725,"stimulus":"\n                    <p><b>Action: <em>harvest</em></b></p>\n                    <p>This is the bee that you just saw.</p>\n                    <img src=\"bees-with-color/bee-B2DF.svg\" width=\"200\">\n                    <p><span class=\"greenText\"><b>Successful harvest!</b></span><br>Your pay has increased by $0.02. Your bonus pay is now $0.10.</p>\n            ","response":0,"trial_type":"html-button-response","trial_index":88,"time_elapsed":1625957,"internal_node_id":"0.0-4.0-1.38","subject_id":"5fd9e1d7f35a0e508fd433d1","study_id":"60edd13110225f80f9f3709b","session_id":"6196c705936b0bb6baf9db1c","condition":"contingent","relevant_dimensions":["antennae","legs"],"bee_group":{"antennae":"A","wings":"X","pattern":"X","legs":"F"},"bonus":0.020000000000000004},{"rt":2389.5,"stimulus":"bees-with-color/bee-A1DF.svg","response":0,"trial_type":"image-button-response","trial_index":89,"time_elapsed":1628349,"internal_node_id":"0.0-4.0-0.39","subject_id":"5fd9e1d7f35a0e508fd433d1","study_id":"60edd13110225f80f9f3709b","session_id":"6196c705936b0bb6baf9db1c","condition":"contingent","relevant_dimensions":["antennae","legs"],"bee_group":{"antennae":"A","wings":"X","pattern":"X","legs":"F"},"action":"harvest","summary":"bad-harvest","bonus":0.020000000000000004},{"rt":1181.7000000001863,"stimulus":"\n                    <p><b>Action: <em>harvest</em></b></p>\n                    <p>This is the bee that you just saw.</p>\n                    <img src=\"bees-with-color/bee-A1DF.svg\" width=\"200\">\n                    <p><span class=\"redText\">Bad choice, the bee was angry.</span><br><b>You have been stung!</b><br>Your pay has been decreased by $0.10. Your bonus pay is now $0.00.</p>\n            ","response":0,"trial_type":"html-button-response","trial_index":90,"time_elapsed":1629533,"internal_node_id":"0.0-4.0-1.39","subject_id":"5fd9e1d7f35a0e508fd433d1","study_id":"60edd13110225f80f9f3709b","session_id":"6196c705936b0bb6baf9db1c","condition":"contingent","relevant_dimensions":["antennae","legs"],"bee_group":{"antennae":"A","wings":"X","pattern":"X","legs":"F"},"bonus":0.020000000000000004},{"rt":1197.5,"stimulus":"bees-with-color/bee-B1DF.svg","response":0,"trial_type":"image-button-response","trial_index":91,"time_elapsed":1630733,"internal_node_id":"0.0-4.0-0.40","subject_id":"5fd9e1d7f35a0e508fd433d1","study_id":"60edd13110225f80f9f3709b","session_id":"6196c705936b0bb6baf9db1c","condition":"contingent","relevant_dimensions":["antennae","legs"],"bee_group":{"antennae":"A","wings":"X","pattern":"X","legs":"F"},"action":"harvest","summary":"good-harvest","bonus":0.020000000000000004},{"rt":1165.7000000001863,"stimulus":"\n                    <p><b>Action: <em>harvest</em></b></p>\n                    <p>This is the bee that you just saw.</p>\n                    <img src=\"bees-with-color/bee-B1DF.svg\" width=\"200\">\n                    <p><span class=\"greenText\"><b>Successful harvest!</b></span><br>Your pay has increased by $0.02. Your bonus pay is now $0.02.</p>\n            ","response":0,"trial_type":"html-button-response","trial_index":92,"time_elapsed":1631901,"internal_node_id":"0.0-4.0-1.40","subject_id":"5fd9e1d7f35a0e508fd433d1","study_id":"60edd13110225f80f9f3709b","session_id":"6196c705936b0bb6baf9db1c","condition":"contingent","relevant_dimensions":["antennae","legs"],"bee_group":{"antennae":"A","wings":"X","pattern":"X","legs":"F"},"bonus":0.020000000000000004},{"rt":990,"stimulus":"bees-with-color/bee-A2SM.svg","response":1,"trial_type":"image-button-response","trial_index":93,"time_elapsed":1632894,"internal_node_id":"0.0-4.0-0.41","subject_id":"5fd9e1d7f35a0e508fd433d1","study_id":"60edd13110225f80f9f3709b","session_id":"6196c705936b0bb6baf9db1c","condition":"contingent","relevant_dimensions":["antennae","legs"],"bee_group":{"antennae":"A","wings":"X","pattern":"X","legs":"F"},"action":"avoid","summary":"bad-avoid","bonus":0.020000000000000004},{"rt":980.8999999999069,"stimulus":"\n                    <p><b>Action: <em>avoid</em></b></p>\n                    <p>This is the bee that you just saw.</p>\n                    <img src=\"bees-with-color/bee-A2SM.svg\" width=\"200\">\n                    <p><br>Your bonus pay is unchanged, and remains at $0.02.</p>\n            ","response":0,"trial_type":"html-button-response","trial_index":94,"time_elapsed":1633878,"internal_node_id":"0.0-4.0-1.41","subject_id":"5fd9e1d7f35a0e508fd433d1","study_id":"60edd13110225f80f9f3709b","session_id":"6196c705936b0bb6baf9db1c","condition":"contingent","relevant_dimensions":["antennae","legs"],"bee_group":{"antennae":"A","wings":"X","pattern":"X","legs":"F"},"bonus":0.020000000000000004},{"rt":773.6000000000931,"stimulus":"bees-with-color/bee-A2DF.svg","response":0,"trial_type":"image-button-response","trial_index":95,"time_elapsed":1634653,"internal_node_id":"0.0-4.0-0.42","subject_id":"5fd9e1d7f35a0e508fd433d1","study_id":"60edd13110225f80f9f3709b","session_id":"6196c705936b0bb6baf9db1c","condition":"contingent","relevant_dimensions":["antennae","legs"],"bee_group":{"antennae":"A","wings":"X","pattern":"X","legs":"F"},"action":"harvest","summary":"bad-harvest","bonus":0.020000000000000004},{"rt":1526,"stimulus":"\n                    <p><b>Action: <em>harvest</em></b></p>\n                    <p>This is the bee that you just saw.</p>\n                    <img src=\"bees-with-color/bee-A2DF.svg\" width=\"200\">\n                    <p><span class=\"redText\">Bad choice, the bee was angry.</span><br><b>You have been stung!</b><br>Your pay has been decreased by $0.10. Your bonus pay is now $0.00.</p>\n            ","response":0,"trial_type":"html-button-response","trial_index":96,"time_elapsed":1636182,"internal_node_id":"0.0-4.0-1.42","subject_id":"5fd9e1d7f35a0e508fd433d1","study_id":"60edd13110225f80f9f3709b","session_id":"6196c705936b0bb6baf9db1c","condition":"contingent","relevant_dimensions":["antennae","legs"],"bee_group":{"antennae":"A","wings":"X","pattern":"X","legs":"F"},"bonus":0.020000000000000004},{"rt":1101.6999999997206,"stimulus":"bees-with-color/bee-A2SF.svg","response":0,"trial_type":"image-button-response","trial_index":97,"time_elapsed":1637285,"internal_node_id":"0.0-4.0-0.43","subject_id":"5fd9e1d7f35a0e508fd433d1","study_id":"60edd13110225f80f9f3709b","session_id":"6196c705936b0bb6baf9db1c","condition":"contingent","relevant_dimensions":["antennae","legs"],"bee_group":{"antennae":"A","wings":"X","pattern":"X","legs":"F"},"action":"harvest","summary":"bad-harvest","bonus":0.020000000000000004},{"rt":1438.0999999996275,"stimulus":"\n                    <p><b>Action: <em>harvest</em></b></p>\n                    <p>This is the bee that you just saw.</p>\n                    <img src=\"bees-with-color/bee-A2SF.svg\" width=\"200\">\n                    <p><span class=\"redText\">Bad choice, the bee was angry.</span><br><b>You have been stung!</b><br>Your pay has been decreased by $0.10. Your bonus pay is now $0.00.</p>\n            ","response":0,"trial_type":"html-button-response","trial_index":98,"time_elapsed":1638725,"internal_node_id":"0.0-4.0-1.43","subject_id":"5fd9e1d7f35a0e508fd433d1","study_id":"60edd13110225f80f9f3709b","session_id":"6196c705936b0bb6baf9db1c","condition":"contingent","relevant_dimensions":["antennae","legs"],"bee_group":{"antennae":"A","wings":"X","pattern":"X","legs":"F"},"bonus":0.020000000000000004},{"rt":837.7999999998137,"stimulus":"bees-with-color/bee-A1DM.svg","response":1,"trial_type":"image-button-response","trial_index":99,"time_elapsed":1639565,"internal_node_id":"0.0-4.0-0.44","subject_id":"5fd9e1d7f35a0e508fd433d1","study_id":"60edd13110225f80f9f3709b","session_id":"6196c705936b0bb6baf9db1c","condition":"contingent","relevant_dimensions":["antennae","legs"],"bee_group":{"antennae":"A","wings":"X","pattern":"X","legs":"F"},"action":"avoid","summary":"bad-avoid","bonus":0.020000000000000004},{"rt":1077.9000000003725,"stimulus":"\n                    <p><b>Action: <em>avoid</em></b></p>\n                    <p>This is the bee that you just saw.</p>\n                    <img src=\"bees-with-color/bee-A1DM.svg\" width=\"200\">\n                    <p><br>Your bonus pay is unchanged, and remains at $0.00.</p>\n            ","response":0,"trial_type":"html-button-response","trial_index":100,"time_elapsed":1640645,"internal_node_id":"0.0-4.0-1.44","subject_id":"5fd9e1d7f35a0e508fd433d1","study_id":"60edd13110225f80f9f3709b","session_id":"6196c705936b0bb6baf9db1c","condition":"contingent","relevant_dimensions":["antennae","legs"],"bee_group":{"antennae":"A","wings":"X","pattern":"X","legs":"F"},"bonus":0.020000000000000004},{"rt":1077.8999999999069,"stimulus":"bees-with-color/bee-A1SM.svg","response":0,"trial_type":"image-button-response","trial_index":101,"time_elapsed":1641725,"internal_node_id":"0.0-4.0-0.45","subject_id":"5fd9e1d7f35a0e508fd433d1","study_id":"60edd13110225f80f9f3709b","session_id":"6196c705936b0bb6baf9db1c","condition":"contingent","relevant_dimensions":["antennae","legs"],"bee_group":{"antennae":"A","wings":"X","pattern":"X","legs":"F"},"action":"harvest","summary":"good-harvest","bonus":0.020000000000000004},{"rt":1013.8000000002794,"stimulus":"\n                    <p><b>Action: <em>harvest</em></b></p>\n                    <p>This is the bee that you just saw.</p>\n                    <img src=\"bees-with-color/bee-A1SM.svg\" width=\"200\">\n                    <p><span class=\"greenText\"><b>Successful harvest!</b></span><br>Your pay has increased by $0.02. Your bonus pay is now $0.02.</p>\n            ","response":0,"trial_type":"html-button-response","trial_index":102,"time_elapsed":1642741,"internal_node_id":"0.0-4.0-1.45","subject_id":"5fd9e1d7f35a0e508fd433d1","study_id":"60edd13110225f80f9f3709b","session_id":"6196c705936b0bb6baf9db1c","condition":"contingent","relevant_dimensions":["antennae","legs"],"bee_group":{"antennae":"A","wings":"X","pattern":"X","legs":"F"},"bonus":0.020000000000000004},{"rt":831.2999999998137,"stimulus":"bees-with-color/bee-A2DM.svg","response":0,"trial_type":"image-button-response","trial_index":103,"time_elapsed":1643574,"internal_node_id":"0.0-4.0-0.46","subject_id":"5fd9e1d7f35a0e508fd433d1","study_id":"60edd13110225f80f9f3709b","session_id":"6196c705936b0bb6baf9db1c","condition":"contingent","relevant_dimensions":["antennae","legs"],"bee_group":{"antennae":"A","wings":"X","pattern":"X","legs":"F"},"action":"harvest","summary":"good-harvest","bonus":0.020000000000000004},{"rt":917,"stimulus":"\n                    <p><b>Action: <em>harvest</em></b></p>\n                    <p>This is the bee that you just saw.</p>\n                    <img src=\"bees-with-color/bee-A2DM.svg\" width=\"200\">\n                    <p><span class=\"greenText\"><b>Successful harvest!</b></span><br>Your pay has increased by $0.02. Your bonus pay is now $0.04.</p>\n            ","response":0,"trial_type":"html-button-response","trial_index":104,"time_elapsed":1644493,"internal_node_id":"0.0-4.0-1.46","subject_id":"5fd9e1d7f35a0e508fd433d1","study_id":"60edd13110225f80f9f3709b","session_id":"6196c705936b0bb6baf9db1c","condition":"contingent","relevant_dimensions":["antennae","legs"],"bee_group":{"antennae":"A","wings":"X","pattern":"X","legs":"F"},"bonus":0.020000000000000004},{"rt":830.3000000002794,"stimulus":"bees-with-color/bee-B1SF.svg","response":0,"trial_type":"image-button-response","trial_index":105,"time_elapsed":1645325,"internal_node_id":"0.0-4.0-0.47","subject_id":"5fd9e1d7f35a0e508fd433d1","study_id":"60edd13110225f80f9f3709b","session_id":"6196c705936b0bb6baf9db1c","condition":"contingent","relevant_dimensions":["antennae","legs"],"bee_group":{"antennae":"A","wings":"X","pattern":"X","legs":"F"},"action":"harvest","summary":"good-harvest","bonus":0.020000000000000004},{"rt":965.7999999998137,"stimulus":"\n                    <p><b>Action: <em>harvest</em></b></p>\n                    <p>This is the bee that you just saw.</p>\n                    <img src=\"bees-with-color/bee-B1SF.svg\" width=\"200\">\n                    <p><span class=\"greenText\"><b>Successful harvest!</b></span><br>Your pay has increased by $0.02. Your bonus pay is now $0.06.</p>\n            ","response":0,"trial_type":"html-button-response","trial_index":106,"time_elapsed":1646293,"internal_node_id":"0.0-4.0-1.47","subject_id":"5fd9e1d7f35a0e508fd433d1","study_id":"60edd13110225f80f9f3709b","session_id":"6196c705936b0bb6baf9db1c","condition":"contingent","relevant_dimensions":["antennae","legs"],"bee_group":{"antennae":"A","wings":"X","pattern":"X","legs":"F"},"bonus":0.020000000000000004},{"rt":862,"stimulus":"bees-with-color/bee-B1DF.svg","response":0,"trial_type":"image-button-response","trial_index":107,"time_elapsed":1647157,"internal_node_id":"0.0-4.0-0.48","subject_id":"5fd9e1d7f35a0e508fd433d1","study_id":"60edd13110225f80f9f3709b","session_id":"6196c705936b0bb6baf9db1c","condition":"contingent","relevant_dimensions":["antennae","legs"],"bee_group":{"antennae":"A","wings":"X","pattern":"X","legs":"F"},"action":"harvest","summary":"good-harvest","bonus":0.020000000000000004},{"rt":965.8999999999069,"stimulus":"\n                    <p><b>Action: <em>harvest</em></b></p>\n                    <p>This is the bee that you just saw.</p>\n                    <img src=\"bees-with-color/bee-B1DF.svg\" width=\"200\">\n                    <p><span class=\"greenText\"><b>Successful harvest!</b></span><br>Your pay has increased by $0.02. Your bonus pay is now $0.08.</p>\n            ","response":0,"trial_type":"html-button-response","trial_index":108,"time_elapsed":1648125,"internal_node_id":"0.0-4.0-1.48","subject_id":"5fd9e1d7f35a0e508fd433d1","study_id":"60edd13110225f80f9f3709b","session_id":"6196c705936b0bb6baf9db1c","condition":"contingent","relevant_dimensions":["antennae","legs"],"bee_group":{"antennae":"A","wings":"X","pattern":"X","legs":"F"},"bonus":0.020000000000000004},{"rt":733.7999999998137,"stimulus":"bees-with-color/bee-A2SF.svg","response":0,"trial_type":"image-button-response","trial_index":109,"time_elapsed":1648861,"internal_node_id":"0.0-4.0-0.49","subject_id":"5fd9e1d7f35a0e508fd433d1","study_id":"60edd13110225f80f9f3709b","session_id":"6196c705936b0bb6baf9db1c","condition":"contingent","relevant_dimensions":["antennae","legs"],"bee_group":{"antennae":"A","wings":"X","pattern":"X","legs":"F"},"action":"harvest","summary":"bad-harvest","bonus":0.020000000000000004},{"rt":1181.8999999999069,"stimulus":"\n                    <p><b>Action: <em>harvest</em></b></p>\n                    <p>This is the bee that you just saw.</p>\n                    <img src=\"bees-with-color/bee-A2SF.svg\" width=\"200\">\n                    <p><span class=\"redText\">Bad choice, the bee was angry.</span><br><b>You have been stung!</b><br>Your pay has been decreased by $0.10. Your bonus pay is now $0.00.</p>\n            ","response":0,"trial_type":"html-button-response","trial_index":110,"time_elapsed":1650046,"internal_node_id":"0.0-4.0-1.49","subject_id":"5fd9e1d7f35a0e508fd433d1","study_id":"60edd13110225f80f9f3709b","session_id":"6196c705936b0bb6baf9db1c","condition":"contingent","relevant_dimensions":["antennae","legs"],"bee_group":{"antennae":"A","wings":"X","pattern":"X","legs":"F"},"bonus":0.020000000000000004},{"rt":925.3000000002794,"stimulus":"bees-with-color/bee-A2DM.svg","response":0,"trial_type":"image-button-response","trial_index":111,"time_elapsed":1650973,"internal_node_id":"0.0-4.0-0.50","subject_id":"5fd9e1d7f35a0e508fd433d1","study_id":"60edd13110225f80f9f3709b","session_id":"6196c705936b0bb6baf9db1c","condition":"contingent","relevant_dimensions":["antennae","legs"],"bee_group":{"antennae":"A","wings":"X","pattern":"X","legs":"F"},"action":"harvest","summary":"good-harvest","bonus":0.020000000000000004},{"rt":1038,"stimulus":"\n                    <p><b>Action: <em>harvest</em></b></p>\n                    <p>This is the bee that you just saw.</p>\n                    <img src=\"bees-with-color/bee-A2DM.svg\" width=\"200\">\n                    <p><span class=\"greenText\"><b>Successful harvest!</b></span><br>Your pay has increased by $0.02. Your bonus pay is now $0.02.</p>\n            ","response":0,"trial_type":"html-button-response","trial_index":112,"time_elapsed":1652013,"internal_node_id":"0.0-4.0-1.50","subject_id":"5fd9e1d7f35a0e508fd433d1","study_id":"60edd13110225f80f9f3709b","session_id":"6196c705936b0bb6baf9db1c","condition":"contingent","relevant_dimensions":["antennae","legs"],"bee_group":{"antennae":"A","wings":"X","pattern":"X","legs":"F"},"bonus":0.020000000000000004},{"rt":702.8999999999069,"stimulus":"bees-with-color/bee-A1DM.svg","response":0,"trial_type":"image-button-response","trial_index":113,"time_elapsed":1652718,"internal_node_id":"0.0-4.0-0.51","subject_id":"5fd9e1d7f35a0e508fd433d1","study_id":"60edd13110225f80f9f3709b","session_id":"6196c705936b0bb6baf9db1c","condition":"contingent","relevant_dimensions":["antennae","legs"],"bee_group":{"antennae":"A","wings":"X","pattern":"X","legs":"F"},"action":"harvest","summary":"good-harvest","bonus":0.020000000000000004},{"rt":788.5,"stimulus":"\n                    <p><b>Action: <em>harvest</em></b></p>\n                    <p>This is the bee that you just saw.</p>\n                    <img src=\"bees-with-color/bee-A1DM.svg\" width=\"200\">\n                    <p><span class=\"greenText\"><b>Successful harvest!</b></span><br>Your pay has increased by $0.02. Your bonus pay is now $0.04.</p>\n            ","response":0,"trial_type":"html-button-response","trial_index":114,"time_elapsed":1653510,"internal_node_id":"0.0-4.0-1.51","subject_id":"5fd9e1d7f35a0e508fd433d1","study_id":"60edd13110225f80f9f3709b","session_id":"6196c705936b0bb6baf9db1c","condition":"contingent","relevant_dimensions":["antennae","legs"],"bee_group":{"antennae":"A","wings":"X","pattern":"X","legs":"F"},"bonus":0.020000000000000004},{"rt":741.5,"stimulus":"bees-with-color/bee-B1SF.svg","response":0,"trial_type":"image-button-response","trial_index":115,"time_elapsed":1654253,"internal_node_id":"0.0-4.0-0.52","subject_id":"5fd9e1d7f35a0e508fd433d1","study_id":"60edd13110225f80f9f3709b","session_id":"6196c705936b0bb6baf9db1c","condition":"contingent","relevant_dimensions":["antennae","legs"],"bee_group":{"antennae":"A","wings":"X","pattern":"X","legs":"F"},"action":"harvest","summary":"good-harvest","bonus":0.020000000000000004},{"rt":814,"stimulus":"\n                    <p><b>Action: <em>harvest</em></b></p>\n                    <p>This is the bee that you just saw.</p>\n                    <img src=\"bees-with-color/bee-B1SF.svg\" width=\"200\">\n                    <p><span class=\"greenText\"><b>Successful harvest!</b></span><br>Your pay has increased by $0.02. Your bonus pay is now $0.06.</p>\n            ","response":0,"trial_type":"html-button-response","trial_index":116,"time_elapsed":1655070,"internal_node_id":"0.0-4.0-1.52","subject_id":"5fd9e1d7f35a0e508fd433d1","study_id":"60edd13110225f80f9f3709b","session_id":"6196c705936b0bb6baf9db1c","condition":"contingent","relevant_dimensions":["antennae","legs"],"bee_group":{"antennae":"A","wings":"X","pattern":"X","legs":"F"},"bonus":0.020000000000000004},{"rt":749.7999999998137,"stimulus":"bees-with-color/bee-B2SF.svg","response":0,"trial_type":"image-button-response","trial_index":117,"time_elapsed":1655821,"internal_node_id":"0.0-4.0-0.53","subject_id":"5fd9e1d7f35a0e508fd433d1","study_id":"60edd13110225f80f9f3709b","session_id":"6196c705936b0bb6baf9db1c","condition":"contingent","relevant_dimensions":["antennae","legs"],"bee_group":{"antennae":"A","wings":"X","pattern":"X","legs":"F"},"action":"harvest","summary":"good-harvest","bonus":0.020000000000000004},{"rt":765.7999999998137,"stimulus":"\n                    <p><b>Action: <em>harvest</em></b></p>\n                    <p>This is the bee that you just saw.</p>\n                    <img src=\"bees-with-color/bee-B2SF.svg\" width=\"200\">\n                    <p><span class=\"greenText\"><b>Successful harvest!</b></span><br>Your pay has increased by $0.02. Your bonus pay is now $0.08.</p>\n            ","response":0,"trial_type":"html-button-response","trial_index":118,"time_elapsed":1656589,"internal_node_id":"0.0-4.0-1.53","subject_id":"5fd9e1d7f35a0e508fd433d1","study_id":"60edd13110225f80f9f3709b","session_id":"6196c705936b0bb6baf9db1c","condition":"contingent","relevant_dimensions":["antennae","legs"],"bee_group":{"antennae":"A","wings":"X","pattern":"X","legs":"F"},"bonus":0.020000000000000004},{"rt":1105.8999999999069,"stimulus":"bees-with-color/bee-B2DM.svg","response":0,"trial_type":"image-button-response","trial_index":119,"time_elapsed":1657697,"internal_node_id":"0.0-4.0-0.54","subject_id":"5fd9e1d7f35a0e508fd433d1","study_id":"60edd13110225f80f9f3709b","session_id":"6196c705936b0bb6baf9db1c","condition":"contingent","relevant_dimensions":["antennae","legs"],"bee_group":{"antennae":"A","wings":"X","pattern":"X","legs":"F"},"action":"harvest","summary":"good-harvest","bonus":0.020000000000000004},{"rt":969.6999999997206,"stimulus":"\n                    <p><b>Action: <em>harvest</em></b></p>\n                    <p>This is the bee that you just saw.</p>\n                    <img src=\"bees-with-color/bee-B2DM.svg\" width=\"200\">\n                    <p><span class=\"greenText\"><b>Successful harvest!</b></span><br>Your pay has increased by $0.02. Your bonus pay is now $0.10.</p>\n            ","response":0,"trial_type":"html-button-response","trial_index":120,"time_elapsed":1658670,"internal_node_id":"0.0-4.0-1.54","subject_id":"5fd9e1d7f35a0e508fd433d1","study_id":"60edd13110225f80f9f3709b","session_id":"6196c705936b0bb6baf9db1c","condition":"contingent","relevant_dimensions":["antennae","legs"],"bee_group":{"antennae":"A","wings":"X","pattern":"X","legs":"F"},"bonus":0.020000000000000004},{"rt":877.2999999998137,"stimulus":"bees-with-color/bee-A1SF.svg","response":0,"trial_type":"image-button-response","trial_index":121,"time_elapsed":1659549,"internal_node_id":"0.0-4.0-0.55","subject_id":"5fd9e1d7f35a0e508fd433d1","study_id":"60edd13110225f80f9f3709b","session_id":"6196c705936b0bb6baf9db1c","condition":"contingent","relevant_dimensions":["antennae","legs"],"bee_group":{"antennae":"A","wings":"X","pattern":"X","legs":"F"},"action":"harvest","summary":"bad-harvest","bonus":0.020000000000000004},{"rt":1385.7999999998137,"stimulus":"\n                    <p><b>Action: <em>harvest</em></b></p>\n                    <p>This is the bee that you just saw.</p>\n                    <img src=\"bees-with-color/bee-A1SF.svg\" width=\"200\">\n                    <p><span class=\"redText\">Bad choice, the bee was angry.</span><br><b>You have been stung!</b><br>Your pay has been decreased by $0.10. Your bonus pay is now $0.00.</p>\n            ","response":0,"trial_type":"html-button-response","trial_index":122,"time_elapsed":1660937,"internal_node_id":"0.0-4.0-1.55","subject_id":"5fd9e1d7f35a0e508fd433d1","study_id":"60edd13110225f80f9f3709b","session_id":"6196c705936b0bb6baf9db1c","condition":"contingent","relevant_dimensions":["antennae","legs"],"bee_group":{"antennae":"A","wings":"X","pattern":"X","legs":"F"},"bonus":0.020000000000000004},{"rt":833.7000000001863,"stimulus":"bees-with-color/bee-B2SM.svg","response":0,"trial_type":"image-button-response","trial_index":123,"time_elapsed":1661773,"internal_node_id":"0.0-4.0-0.56","subject_id":"5fd9e1d7f35a0e508fd433d1","study_id":"60edd13110225f80f9f3709b","session_id":"6196c705936b0bb6baf9db1c","condition":"contingent","relevant_dimensions":["antennae","legs"],"bee_group":{"antennae":"A","wings":"X","pattern":"X","legs":"F"},"action":"harvest","summary":"good-harvest","bonus":0.020000000000000004},{"rt":1805,"stimulus":"\n                    <p><b>Action: <em>harvest</em></b></p>\n                    <p>This is the bee that you just saw.</p>\n                    <img src=\"bees-with-color/bee-B2SM.svg\" width=\"200\">\n                    <p><span class=\"greenText\"><b>Successful harvest!</b></span><br>Your pay has increased by $0.02. Your bonus pay is now $0.02.</p>\n            ","response":0,"trial_type":"html-button-response","trial_index":124,"time_elapsed":1663581,"internal_node_id":"0.0-4.0-1.56","subject_id":"5fd9e1d7f35a0e508fd433d1","study_id":"60edd13110225f80f9f3709b","session_id":"6196c705936b0bb6baf9db1c","condition":"contingent","relevant_dimensions":["antennae","legs"],"bee_group":{"antennae":"A","wings":"X","pattern":"X","legs":"F"},"bonus":0.020000000000000004},{"rt":694.2999999998137,"stimulus":"bees-with-color/bee-A2SM.svg","response":0,"trial_type":"image-button-response","trial_index":125,"time_elapsed":1664278,"internal_node_id":"0.0-4.0-0.57","subject_id":"5fd9e1d7f35a0e508fd433d1","study_id":"60edd13110225f80f9f3709b","session_id":"6196c705936b0bb6baf9db1c","condition":"contingent","relevant_dimensions":["antennae","legs"],"bee_group":{"antennae":"A","wings":"X","pattern":"X","legs":"F"},"action":"harvest","summary":"good-harvest","bonus":0.020000000000000004},{"rt":965.8999999999069,"stimulus":"\n                    <p><b>Action: <em>harvest</em></b></p>\n                    <p>This is the bee that you just saw.</p>\n                    <img src=\"bees-with-color/bee-A2SM.svg\" width=\"200\">\n                    <p><span class=\"greenText\"><b>Successful harvest!</b></span><br>Your pay has increased by $0.02. Your bonus pay is now $0.04.</p>\n            ","response":0,"trial_type":"html-button-response","trial_index":126,"time_elapsed":1665246,"internal_node_id":"0.0-4.0-1.57","subject_id":"5fd9e1d7f35a0e508fd433d1","study_id":"60edd13110225f80f9f3709b","session_id":"6196c705936b0bb6baf9db1c","condition":"contingent","relevant_dimensions":["antennae","legs"],"bee_group":{"antennae":"A","wings":"X","pattern":"X","legs":"F"},"bonus":0.020000000000000004},{"rt":805,"stimulus":"bees-with-color/bee-A1DF.svg","response":0,"trial_type":"image-button-response","trial_index":127,"time_elapsed":1666053,"internal_node_id":"0.0-4.0-0.58","subject_id":"5fd9e1d7f35a0e508fd433d1","study_id":"60edd13110225f80f9f3709b","session_id":"6196c705936b0bb6baf9db1c","condition":"contingent","relevant_dimensions":["antennae","legs"],"bee_group":{"antennae":"A","wings":"X","pattern":"X","legs":"F"},"action":"harvest","summary":"bad-harvest","bonus":0.020000000000000004},{"rt":901.8000000002794,"stimulus":"\n                    <p><b>Action: <em>harvest</em></b></p>\n                    <p>This is the bee that you just saw.</p>\n                    <img src=\"bees-with-color/bee-A1DF.svg\" width=\"200\">\n                    <p><span class=\"redText\">Bad choice, the bee was angry.</span><br><b>You have been stung!</b><br>Your pay has been decreased by $0.10. Your bonus pay is now $0.00.</p>\n            ","response":0,"trial_type":"html-button-response","trial_index":128,"time_elapsed":1666957,"internal_node_id":"0.0-4.0-1.58","subject_id":"5fd9e1d7f35a0e508fd433d1","study_id":"60edd13110225f80f9f3709b","session_id":"6196c705936b0bb6baf9db1c","condition":"contingent","relevant_dimensions":["antennae","legs"],"bee_group":{"antennae":"A","wings":"X","pattern":"X","legs":"F"},"bonus":0.020000000000000004},{"rt":910.4000000003725,"stimulus":"bees-with-color/bee-B2DF.svg","response":0,"trial_type":"image-button-response","trial_index":129,"time_elapsed":1667869,"internal_node_id":"0.0-4.0-0.59","subject_id":"5fd9e1d7f35a0e508fd433d1","study_id":"60edd13110225f80f9f3709b","session_id":"6196c705936b0bb6baf9db1c","condition":"contingent","relevant_dimensions":["antennae","legs"],"bee_group":{"antennae":"A","wings":"X","pattern":"X","legs":"F"},"action":"harvest","summary":"good-harvest","bonus":0.020000000000000004},{"rt":1430,"stimulus":"\n                    <p><b>Action: <em>harvest</em></b></p>\n                    <p>This is the bee that you just saw.</p>\n                    <img src=\"bees-with-color/bee-B2DF.svg\" width=\"200\">\n                    <p><span class=\"greenText\"><b>Successful harvest!</b></span><br>Your pay has increased by $0.02. Your bonus pay is now $0.02.</p>\n            ","response":0,"trial_type":"html-button-response","trial_index":130,"time_elapsed":1669301,"internal_node_id":"0.0-4.0-1.59","subject_id":"5fd9e1d7f35a0e508fd433d1","study_id":"60edd13110225f80f9f3709b","session_id":"6196c705936b0bb6baf9db1c","condition":"contingent","relevant_dimensions":["antennae","legs"],"bee_group":{"antennae":"A","wings":"X","pattern":"X","legs":"F"},"bonus":0.020000000000000004},{"rt":771,"stimulus":"bees-with-color/bee-A1SM.svg","response":0,"trial_type":"image-button-response","trial_index":131,"time_elapsed":1670074,"internal_node_id":"0.0-4.0-0.60","subject_id":"5fd9e1d7f35a0e508fd433d1","study_id":"60edd13110225f80f9f3709b","session_id":"6196c705936b0bb6baf9db1c","condition":"contingent","relevant_dimensions":["antennae","legs"],"bee_group":{"antennae":"A","wings":"X","pattern":"X","legs":"F"},"action":"harvest","summary":"good-harvest","bonus":0.020000000000000004},{"rt":1073.7999999998137,"stimulus":"\n                    <p><b>Action: <em>harvest</em></b></p>\n                    <p>This is the bee that you just saw.</p>\n                    <img src=\"bees-with-color/bee-A1SM.svg\" width=\"200\">\n                    <p><span class=\"greenText\"><b>Successful harvest!</b></span><br>Your pay has increased by $0.02. Your bonus pay is now $0.04.</p>\n            ","response":0,"trial_type":"html-button-response","trial_index":132,"time_elapsed":1671150,"internal_node_id":"0.0-4.0-1.60","subject_id":"5fd9e1d7f35a0e508fd433d1","study_id":"60edd13110225f80f9f3709b","session_id":"6196c705936b0bb6baf9db1c","condition":"contingent","relevant_dimensions":["antennae","legs"],"bee_group":{"antennae":"A","wings":"X","pattern":"X","legs":"F"},"bonus":0.020000000000000004},{"rt":781.7999999998137,"stimulus":"bees-with-color/bee-A2DF.svg","response":0,"trial_type":"image-button-response","trial_index":133,"time_elapsed":1671934,"internal_node_id":"0.0-4.0-0.61","subject_id":"5fd9e1d7f35a0e508fd433d1","study_id":"60edd13110225f80f9f3709b","session_id":"6196c705936b0bb6baf9db1c","condition":"contingent","relevant_dimensions":["antennae","legs"],"bee_group":{"antennae":"A","wings":"X","pattern":"X","legs":"F"},"action":"harvest","summary":"bad-harvest","bonus":0.020000000000000004},{"rt":1437.3999999999069,"stimulus":"\n                    <p><b>Action: <em>harvest</em></b></p>\n                    <p>This is the bee that you just saw.</p>\n                    <img src=\"bees-with-color/bee-A2DF.svg\" width=\"200\">\n                    <p><span class=\"redText\">Bad choice, the bee was angry.</span><br><b>You have been stung!</b><br>Your pay has been decreased by $0.10. Your bonus pay is now $0.00.</p>\n            ","response":0,"trial_type":"html-button-response","trial_index":134,"time_elapsed":1673373,"internal_node_id":"0.0-4.0-1.61","subject_id":"5fd9e1d7f35a0e508fd433d1","study_id":"60edd13110225f80f9f3709b","session_id":"6196c705936b0bb6baf9db1c","condition":"contingent","relevant_dimensions":["antennae","legs"],"bee_group":{"antennae":"A","wings":"X","pattern":"X","legs":"F"},"bonus":0.020000000000000004},{"rt":750.3000000002794,"stimulus":"bees-with-color/bee-B1DM.svg","response":0,"trial_type":"image-button-response","trial_index":135,"time_elapsed":1674126,"internal_node_id":"0.0-4.0-0.62","subject_id":"5fd9e1d7f35a0e508fd433d1","study_id":"60edd13110225f80f9f3709b","session_id":"6196c705936b0bb6baf9db1c","condition":"contingent","relevant_dimensions":["antennae","legs"],"bee_group":{"antennae":"A","wings":"X","pattern":"X","legs":"F"},"action":"harvest","summary":"good-harvest","bonus":0.020000000000000004},{"rt":1353.6999999997206,"stimulus":"\n                    <p><b>Action: <em>harvest</em></b></p>\n                    <p>This is the bee that you just saw.</p>\n                    <img src=\"bees-with-color/bee-B1DM.svg\" width=\"200\">\n                    <p><span class=\"greenText\"><b>Successful harvest!</b></span><br>Your pay has increased by $0.02. Your bonus pay is now $0.02.</p>\n            ","response":0,"trial_type":"html-button-response","trial_index":136,"time_elapsed":1675482,"internal_node_id":"0.0-4.0-1.62","subject_id":"5fd9e1d7f35a0e508fd433d1","study_id":"60edd13110225f80f9f3709b","session_id":"6196c705936b0bb6baf9db1c","condition":"contingent","relevant_dimensions":["antennae","legs"],"bee_group":{"antennae":"A","wings":"X","pattern":"X","legs":"F"},"bonus":0.020000000000000004},{"rt":1365.9000000003725,"stimulus":"bees-with-color/bee-B1SM.svg","response":0,"trial_type":"image-button-response","trial_index":137,"time_elapsed":1676850,"internal_node_id":"0.0-4.0-0.63","subject_id":"5fd9e1d7f35a0e508fd433d1","study_id":"60edd13110225f80f9f3709b","session_id":"6196c705936b0bb6baf9db1c","condition":"contingent","relevant_dimensions":["antennae","legs"],"bee_group":{"antennae":"A","wings":"X","pattern":"X","legs":"F"},"action":"harvest","summary":"good-harvest","bonus":0.020000000000000004},{"rt":970.5,"stimulus":"\n                    <p><b>Action: <em>harvest</em></b></p>\n                    <p>This is the bee that you just saw.</p>\n                    <img src=\"bees-with-color/bee-B1SM.svg\" width=\"200\">\n                    <p><span class=\"greenText\"><b>Successful harvest!</b></span><br>Your pay has increased by $0.02. Your bonus pay is now $0.04.</p>\n            ","response":0,"trial_type":"html-button-response","trial_index":138,"time_elapsed":1677822,"internal_node_id":"0.0-4.0-1.63","subject_id":"5fd9e1d7f35a0e508fd433d1","study_id":"60edd13110225f80f9f3709b","session_id":"6196c705936b0bb6baf9db1c","condition":"contingent","relevant_dimensions":["antennae","legs"],"bee_group":{"antennae":"A","wings":"X","pattern":"X","legs":"F"},"bonus":0.020000000000000004},{"rt":11846.399999999907,"stimulus":"You have completed the first part of this experiment.<br><br>You will now begin a shorter second part, in which you will receive no feedback.<br>The same rules regarding bonus pay apply.<br><br>Press any key to begin.","response":"k","trial_type":"html-keyboard-response","trial_index":139,"time_elapsed":1689670,"internal_node_id":"0.0-5.0","subject_id":"5fd9e1d7f35a0e508fd433d1","study_id":"60edd13110225f80f9f3709b","session_id":"6196c705936b0bb6baf9db1c","condition":"contingent","relevant_dimensions":["antennae","legs"],"bee_group":{"antennae":"A","wings":"X","pattern":"X","legs":"F"},"bonus":0.020000000000000004},{"rt":2190.5,"stimulus":"bees-with-color/bee-B2SF.svg","response":0,"trial_type":"image-button-response","trial_index":140,"time_elapsed":1692010,"internal_node_id":"0.0-6.0-0.0","subject_id":"5fd9e1d7f35a0e508fd433d1","study_id":"60edd13110225f80f9f3709b","session_id":"6196c705936b0bb6baf9db1c","condition":"contingent","relevant_dimensions":["antennae","legs"],"bee_group":{"antennae":"A","wings":"X","pattern":"X","legs":"F"},"bonus":0.020000000000000004},{"rt":2921,"stimulus":"bees-with-color/bee-B1SF.svg","response":0,"trial_type":"image-button-response","trial_index":141,"time_elapsed":1694934,"internal_node_id":"0.0-6.0-0.1","subject_id":"5fd9e1d7f35a0e508fd433d1","study_id":"60edd13110225f80f9f3709b","session_id":"6196c705936b0bb6baf9db1c","condition":"contingent","relevant_dimensions":["antennae","legs"],"bee_group":{"antennae":"A","wings":"X","pattern":"X","legs":"F"},"bonus":0.020000000000000004},{"rt":940.8999999999069,"stimulus":"bees-with-color/bee-B2DF.svg","response":1,"trial_type":"image-button-response","trial_index":142,"time_elapsed":1695878,"internal_node_id":"0.0-6.0-0.2","subject_id":"5fd9e1d7f35a0e508fd433d1","study_id":"60edd13110225f80f9f3709b","session_id":"6196c705936b0bb6baf9db1c","condition":"contingent","relevant_dimensions":["antennae","legs"],"bee_group":{"antennae":"A","wings":"X","pattern":"X","legs":"F"},"bonus":0.020000000000000004},{"rt":464.20000000018626,"stimulus":"bees-with-color/bee-B1SM.svg","response":0,"trial_type":"image-button-response","trial_index":143,"time_elapsed":1696345,"internal_node_id":"0.0-6.0-0.3","subject_id":"5fd9e1d7f35a0e508fd433d1","study_id":"60edd13110225f80f9f3709b","session_id":"6196c705936b0bb6baf9db1c","condition":"contingent","relevant_dimensions":["antennae","legs"],"bee_group":{"antennae":"A","wings":"X","pattern":"X","legs":"F"},"bonus":0.020000000000000004},{"rt":541.5,"stimulus":"bees-with-color/bee-A2SF.svg","response":0,"trial_type":"image-button-response","trial_index":144,"time_elapsed":1696890,"internal_node_id":"0.0-6.0-0.4","subject_id":"5fd9e1d7f35a0e508fd433d1","study_id":"60edd13110225f80f9f3709b","session_id":"6196c705936b0bb6baf9db1c","condition":"contingent","relevant_dimensions":["antennae","legs"],"bee_group":{"antennae":"A","wings":"X","pattern":"X","legs":"F"},"bonus":0.020000000000000004},{"rt":553.5,"stimulus":"bees-with-color/bee-B2SM.svg","response":1,"trial_type":"image-button-response","trial_index":145,"time_elapsed":1697447,"internal_node_id":"0.0-6.0-0.5","subject_id":"5fd9e1d7f35a0e508fd433d1","study_id":"60edd13110225f80f9f3709b","session_id":"6196c705936b0bb6baf9db1c","condition":"contingent","relevant_dimensions":["antennae","legs"],"bee_group":{"antennae":"A","wings":"X","pattern":"X","legs":"F"},"bonus":0.020000000000000004},{"rt":431.6999999997206,"stimulus":"bees-with-color/bee-A2SM.svg","response":0,"trial_type":"image-button-response","trial_index":146,"time_elapsed":1697882,"internal_node_id":"0.0-6.0-0.6","subject_id":"5fd9e1d7f35a0e508fd433d1","study_id":"60edd13110225f80f9f3709b","session_id":"6196c705936b0bb6baf9db1c","condition":"contingent","relevant_dimensions":["antennae","legs"],"bee_group":{"antennae":"A","wings":"X","pattern":"X","legs":"F"},"bonus":0.020000000000000004},{"rt":532.6999999997206,"stimulus":"bees-with-color/bee-A2DF.svg","response":1,"trial_type":"image-button-response","trial_index":147,"time_elapsed":1698418,"internal_node_id":"0.0-6.0-0.7","subject_id":"5fd9e1d7f35a0e508fd433d1","study_id":"60edd13110225f80f9f3709b","session_id":"6196c705936b0bb6baf9db1c","condition":"contingent","relevant_dimensions":["antennae","legs"],"bee_group":{"antennae":"A","wings":"X","pattern":"X","legs":"F"},"bonus":0.020000000000000004},{"rt":412.60000000009313,"stimulus":"bees-with-color/bee-A2DM.svg","response":0,"trial_type":"image-button-response","trial_index":148,"time_elapsed":1698834,"internal_node_id":"0.0-6.0-0.8","subject_id":"5fd9e1d7f35a0e508fd433d1","study_id":"60edd13110225f80f9f3709b","session_id":"6196c705936b0bb6baf9db1c","condition":"contingent","relevant_dimensions":["antennae","legs"],"bee_group":{"antennae":"A","wings":"X","pattern":"X","legs":"F"},"bonus":0.020000000000000004},{"rt":1061,"stimulus":"bees-with-color/bee-B1DF.svg","response":0,"trial_type":"image-button-response","trial_index":149,"time_elapsed":1699897,"internal_node_id":"0.0-6.0-0.9","subject_id":"5fd9e1d7f35a0e508fd433d1","study_id":"60edd13110225f80f9f3709b","session_id":"6196c705936b0bb6baf9db1c","condition":"contingent","relevant_dimensions":["antennae","legs"],"bee_group":{"antennae":"A","wings":"X","pattern":"X","legs":"F"},"bonus":0.020000000000000004},{"rt":309.79999999981374,"stimulus":"bees-with-color/bee-A1DM.svg","response":0,"trial_type":"image-button-response","trial_index":150,"time_elapsed":1700209,"internal_node_id":"0.0-6.0-0.10","subject_id":"5fd9e1d7f35a0e508fd433d1","study_id":"60edd13110225f80f9f3709b","session_id":"6196c705936b0bb6baf9db1c","condition":"contingent","relevant_dimensions":["antennae","legs"],"bee_group":{"antennae":"A","wings":"X","pattern":"X","legs":"F"},"bonus":0.020000000000000004},{"rt":765.8000000002794,"stimulus":"bees-with-color/bee-A1SF.svg","response":0,"trial_type":"image-button-response","trial_index":151,"time_elapsed":1700978,"internal_node_id":"0.0-6.0-0.11","subject_id":"5fd9e1d7f35a0e508fd433d1","study_id":"60edd13110225f80f9f3709b","session_id":"6196c705936b0bb6baf9db1c","condition":"contingent","relevant_dimensions":["antennae","legs"],"bee_group":{"antennae":"A","wings":"X","pattern":"X","legs":"F"},"bonus":0.020000000000000004},{"rt":1036.8999999999069,"stimulus":"bees-with-color/bee-A1SM.svg","response":1,"trial_type":"image-button-response","trial_index":152,"time_elapsed":1702018,"internal_node_id":"0.0-6.0-0.12","subject_id":"5fd9e1d7f35a0e508fd433d1","study_id":"60edd13110225f80f9f3709b","session_id":"6196c705936b0bb6baf9db1c","condition":"contingent","relevant_dimensions":["antennae","legs"],"bee_group":{"antennae":"A","wings":"X","pattern":"X","legs":"F"},"bonus":0.020000000000000004},{"rt":1261.3999999999069,"stimulus":"bees-with-color/bee-B1DM.svg","response":1,"trial_type":"image-button-response","trial_index":153,"time_elapsed":1703282,"internal_node_id":"0.0-6.0-0.13","subject_id":"5fd9e1d7f35a0e508fd433d1","study_id":"60edd13110225f80f9f3709b","session_id":"6196c705936b0bb6baf9db1c","condition":"contingent","relevant_dimensions":["antennae","legs"],"bee_group":{"antennae":"A","wings":"X","pattern":"X","legs":"F"},"bonus":0.020000000000000004},{"rt":789.5,"stimulus":"bees-with-color/bee-A1DF.svg","response":0,"trial_type":"image-button-response","trial_index":154,"time_elapsed":1704074,"internal_node_id":"0.0-6.0-0.14","subject_id":"5fd9e1d7f35a0e508fd433d1","study_id":"60edd13110225f80f9f3709b","session_id":"6196c705936b0bb6baf9db1c","condition":"contingent","relevant_dimensions":["antennae","legs"],"bee_group":{"antennae":"A","wings":"X","pattern":"X","legs":"F"},"bonus":0.020000000000000004},{"rt":669.1999999997206,"stimulus":"bees-with-color/bee-B2DM.svg","response":0,"trial_type":"image-button-response","trial_index":155,"time_elapsed":1704746,"internal_node_id":"0.0-6.0-0.15","subject_id":"5fd9e1d7f35a0e508fd433d1","study_id":"60edd13110225f80f9f3709b","session_id":"6196c705936b0bb6baf9db1c","condition":"contingent","relevant_dimensions":["antennae","legs"],"bee_group":{"antennae":"A","wings":"X","pattern":"X","legs":"F"},"bonus":0.020000000000000004},{"rt":449.79999999981374,"stimulus":"bees-with-color/bee-B1SM.svg","response":0,"trial_type":"image-button-response","trial_index":156,"time_elapsed":1705198,"internal_node_id":"0.0-6.0-0.16","subject_id":"5fd9e1d7f35a0e508fd433d1","study_id":"60edd13110225f80f9f3709b","session_id":"6196c705936b0bb6baf9db1c","condition"