[{"success":true,"trial_type":"fullscreen","trial_index":0,"time_elapsed":2501,"internal_node_id":"0.0-0.0","subject_id":"5928c9e661fd8f00017ff206","study_id":"6197b3f67c2b5cd3b6d9596a","session_id":"619bfbde65a741b130667104","condition":"full-information","relevant_dimensions":["wings","pattern"],"bee_group":{"antennae":"X","wings":"2","pattern":"S","legs":"X"},"bonus":0.980000000000001},{"success":true,"timeout":false,"failed_images":[],"failed_audio":[],"failed_video":[],"trial_type":"preload","trial_index":1,"time_elapsed":3894,"internal_node_id":"0.0-1.0","subject_id":"5928c9e661fd8f00017ff206","study_id":"6197b3f67c2b5cd3b6d9596a","session_id":"619bfbde65a741b130667104","condition":"full-information","relevant_dimensions":["wings","pattern"],"bee_group":{"antennae":"X","wings":"2","pattern":"S","legs":"X"},"bonus":0.980000000000001},{"rt":2550,"stimulus":"Welcome! Press any key to begin.","response":"arrowright","trial_type":"html-keyboard-response","trial_index":2,"time_elapsed":6446,"internal_node_id":"0.0-2.0","subject_id":"5928c9e661fd8f00017ff206","study_id":"6197b3f67c2b5cd3b6d9596a","session_id":"619bfbde65a741b130667104","condition":"full-information","relevant_dimensions":["wings","pattern"],"bee_group":{"antennae":"X","wings":"2","pattern":"S","legs":"X"},"bonus":0.980000000000001},{"view_history":[{"page_index":0,"viewing_time":3961},{"page_index":1,"viewing_time":15299},{"page_index":2,"viewing_time":13035},{"page_index":3,"viewing_time":13930},{"page_index":4,"viewing_time":10497},{"page_index":5,"viewing_time":7718},{"page_index":6,"viewing_time":18518},{"page_index":7,"viewing_time":5819},{"page_index":8,"viewing_time":7638},{"page_index":9,"viewing_time":5086},{"page_index":10,"viewing_time":3426},{"page_index":11,"viewing_time":9058},{"page_index":12,"viewing_time":12228},{"page_index":13,"viewing_time":1536},{"page_index":14,"viewing_time":1924}],"rt":129674,"trial_type":"instructions","trial_index":3,"time_elapsed":136121,"internal_node_id":"0.0-3.0-0.0","subject_id":"5928c9e661fd8f00017ff206","study_id":"6197b3f67c2b5cd3b6d9596a","session_id":"619bfbde65a741b130667104","condition":"full-information","relevant_dimensions":["wings","pattern"],"bee_group":{"antennae":"X","wings":"2","pattern":"S","legs":"X"},"bonus":0.980000000000001},{"rt":8659,"response":{"Q0":["Two or six legs","Stripes or spots on body","Single or double wings","Antennae or no antennae"]},"question_order":[0],"trial_type":"survey-multi-select","trial_index":4,"time_elapsed":144788,"internal_node_id":"0.0-3.0-1.0","subject_id":"5928c9e661fd8f00017ff206","study_id":"6197b3f67c2b5cd3b6d9596a","session_id":"619bfbde65a741b130667104","condition":"full-information","relevant_dimensions":["wings","pattern"],"bee_group":{"antennae":"X","wings":"2","pattern":"S","legs":"X"},"correct":true,"bonus":0.980000000000001},{"rt":18382,"response":{"Q1":"No.","Q2":"Based on the four features of the bee.","Q3":"You learn if it was friendly or dangerous, but do not alter your bonus."},"question_order":[0,1,2],"trial_type":"survey-multi-choice","trial_index":5,"time_elapsed":163177,"internal_node_id":"0.0-3.0-2.0","subject_id":"5928c9e661fd8f00017ff206","study_id":"6197b3f67c2b5cd3b6d9596a","session_id":"619bfbde65a741b130667104","condition":"full-information","relevant_dimensions":["wings","pattern"],"bee_group":{"antennae":"X","wings":"2","pattern":"S","legs":"X"},"correct":true,"bonus":0.980000000000001},{"rt":2291,"stimulus":"<p>Congrats, you got everything right<br>When you're ready, click the button below to continue to the experiment.</p>","response":0,"trial_type":"html-button-response","trial_index":6,"time_elapsed":165470,"internal_node_id":"0.0-3.0-3.0","subject_id":"5928c9e661fd8f00017ff206","study_id":"6197b3f67c2b5cd3b6d9596a","session_id":"619bfbde65a741b130667104","condition":"full-information","relevant_dimensions":["wings","pattern"],"bee_group":{"antennae":"X","wings":"2","pattern":"S","legs":"X"},"bonus":0.980000000000001},{"rt":7085,"stimulus":"bees-with-color/bee-A1SM.svg","response":0,"trial_type":"image-button-response","trial_index":7,"time_elapsed":172560,"internal_node_id":"0.0-4.0-0.0","subject_id":"5928c9e661fd8f00017ff206","study_id":"6197b3f67c2b5cd3b6d9596a","session_id":"619bfbde65a741b130667104","condition":"full-information","relevant_dimensions":["wings","pattern"],"bee_group":{"antennae":"X","wings":"2","pattern":"S","legs":"X"},"action":"harvest","summary":"good-harvest","bonus":0.980000000000001},{"rt":6909,"stimulus":"\n                    <p><b>Action: <em>harvest</em></b></p>\n                    <p>This is the bee that you just saw.</p>\n                    <img src=\"bees-with-color/bee-A1SM.svg\" width=\"200\">\n                    <p><span class=\"greenText\"><b>Successful harvest!</b></span><br>Your pay has increased by $0.02. Your bonus pay is now $0.56.</p>\n            ","response":0,"trial_type":"html-button-response","trial_index":8,"time_elapsed":179473,"internal_node_id":"0.0-4.0-1.0","subject_id":"5928c9e661fd8f00017ff206","study_id":"6197b3f67c2b5cd3b6d9596a","session_id":"619bfbde65a741b130667104","condition":"full-information","relevant_dimensions":["wings","pattern"],"bee_group":{"antennae":"X","wings":"2","pattern":"S","legs":"X"},"bonus":0.980000000000001},{"rt":1774,"stimulus":"bees-with-color/bee-B1DF.svg","response":0,"trial_type":"image-button-response","trial_index":9,"time_elapsed":181253,"internal_node_id":"0.0-4.0-0.1","subject_id":"5928c9e661fd8f00017ff206","study_id":"6197b3f67c2b5cd3b6d9596a","session_id":"619bfbde65a741b130667104","condition":"full-information","relevant_dimensions":["wings","pattern"],"bee_group":{"antennae":"X","wings":"2","pattern":"S","legs":"X"},"action":"harvest","summary":"good-harvest","bonus":0.980000000000001},{"rt":3383,"stimulus":"\n                    <p><b>Action: <em>harvest</em></b></p>\n                    <p>This is the bee that you just saw.</p>\n                    <img src=\"bees-with-color/bee-B1DF.svg\" width=\"200\">\n                    <p><span class=\"greenText\"><b>Successful harvest!</b></span><br>Your pay has increased by $0.02. Your bonus pay is now $0.58.</p>\n            ","response":0,"trial_type":"html-button-response","trial_index":10,"time_elapsed":184638,"internal_node_id":"0.0-4.0-1.1","subject_id":"5928c9e661fd8f00017ff206","study_id":"6197b3f67c2b5cd3b6d9596a","session_id":"619bfbde65a741b130667104","condition":"full-information","relevant_dimensions":["wings","pattern"],"bee_group":{"antennae":"X","wings":"2","pattern":"S","legs":"X"},"bonus":0.980000000000001},{"rt":1764,"stimulus":"bees-with-color/bee-B2SM.svg","response":0,"trial_type":"image-button-response","trial_index":11,"time_elapsed":186405,"internal_node_id":"0.0-4.0-0.2","subject_id":"5928c9e661fd8f00017ff206","study_id":"6197b3f67c2b5cd3b6d9596a","session_id":"619bfbde65a741b130667104","condition":"full-information","relevant_dimensions":["wings","pattern"],"bee_group":{"antennae":"X","wings":"2","pattern":"S","legs":"X"},"action":"harvest","summary":"bad-harvest","bonus":0.980000000000001},{"rt":11719,"stimulus":"\n                    <p><b>Action: <em>harvest</em></b></p>\n                    <p>This is the bee that you just saw.</p>\n                    <img src=\"bees-with-color/bee-B2SM.svg\" width=\"200\">\n                    <p><span class=\"redText\">Bad choice, the bee was angry.</span><br><b>You have been stung!</b><br>Your pay has been decreased by $0.10. Your bonus pay is now $0.48.</p>\n            ","response":0,"trial_type":"html-button-response","trial_index":12,"time_elapsed":198126,"internal_node_id":"0.0-4.0-1.2","subject_id":"5928c9e661fd8f00017ff206","study_id":"6197b3f67c2b5cd3b6d9596a","session_id":"619bfbde65a741b130667104","condition":"full-information","relevant_dimensions":["wings","pattern"],"bee_group":{"antennae":"X","wings":"2","pattern":"S","legs":"X"},"bonus":0.980000000000001},{"rt":5095,"stimulus":"bees-with-color/bee-B2SF.svg","response":0,"trial_type":"image-button-response","trial_index":13,"time_elapsed":203224,"internal_node_id":"0.0-4.0-0.3","subject_id":"5928c9e661fd8f00017ff206","study_id":"6197b3f67c2b5cd3b6d9596a","session_id":"619bfbde65a741b130667104","condition":"full-information","relevant_dimensions":["wings","pattern"],"bee_group":{"antennae":"X","wings":"2","pattern":"S","legs":"X"},"action":"harvest","summary":"bad-harvest","bonus":0.980000000000001},{"rt":16401,"stimulus":"\n                    <p><b>Action: <em>harvest</em></b></p>\n                    <p>This is the bee that you just saw.</p>\n                    <img src=\"bees-with-color/bee-B2SF.svg\" width=\"200\">\n                    <p><span class=\"redText\">Bad choice, the bee was angry.</span><br><b>You have been stung!</b><br>Your pay has been decreased by $0.10. Your bonus pay is now $0.38.</p>\n            ","response":0,"trial_type":"html-button-response","trial_index":14,"time_elapsed":219630,"internal_node_id":"0.0-4.0-1.3","subject_id":"5928c9e661fd8f00017ff206","study_id":"6197b3f67c2b5cd3b6d9596a","session_id":"619bfbde65a741b130667104","condition":"full-information","relevant_dimensions":["wings","pattern"],"bee_group":{"antennae":"X","wings":"2","pattern":"S","legs":"X"},"bonus":0.980000000000001},{"rt":2723,"stimulus":"bees-with-color/bee-A1SF.svg","response":0,"trial_type":"image-button-response","trial_index":15,"time_elapsed":222357,"internal_node_id":"0.0-4.0-0.4","subject_id":"5928c9e661fd8f00017ff206","study_id":"6197b3f67c2b5cd3b6d9596a","session_id":"619bfbde65a741b130667104","condition":"full-information","relevant_dimensions":["wings","pattern"],"bee_group":{"antennae":"X","wings":"2","pattern":"S","legs":"X"},"action":"harvest","summary":"good-harvest","bonus":0.980000000000001},{"rt":1119,"stimulus":"\n                    <p><b>Action: <em>harvest</em></b></p>\n                    <p>This is the bee that you just saw.</p>\n                    <img src=\"bees-with-color/bee-A1SF.svg\" width=\"200\">\n                    <p><span class=\"greenText\"><b>Successful harvest!</b></span><br>Your pay has increased by $0.02. Your bonus pay is now $0.40.</p>\n            ","response":0,"trial_type":"html-button-response","trial_index":16,"time_elapsed":223478,"internal_node_id":"0.0-4.0-1.4","subject_id":"5928c9e661fd8f00017ff206","study_id":"6197b3f67c2b5cd3b6d9596a","session_id":"619bfbde65a741b130667104","condition":"full-information","relevant_dimensions":["wings","pattern"],"bee_group":{"antennae":"X","wings":"2","pattern":"S","legs":"X"},"bonus":0.980000000000001},{"rt":2318,"stimulus":"bees-with-color/bee-B1DM.svg","response":0,"trial_type":"image-button-response","trial_index":17,"time_elapsed":225799,"internal_node_id":"0.0-4.0-0.5","subject_id":"5928c9e661fd8f00017ff206","study_id":"6197b3f67c2b5cd3b6d9596a","session_id":"619bfbde65a741b130667104","condition":"full-information","relevant_dimensions":["wings","pattern"],"bee_group":{"antennae":"X","wings":"2","pattern":"S","legs":"X"},"action":"harvest","summary":"good-harvest","bonus":0.980000000000001},{"rt":1129,"stimulus":"\n                    <p><b>Action: <em>harvest</em></b></p>\n                    <p>This is the bee that you just saw.</p>\n                    <img src=\"bees-with-color/bee-B1DM.svg\" width=\"200\">\n                    <p><span class=\"greenText\"><b>Successful harvest!</b></span><br>Your pay has increased by $0.02. Your bonus pay is now $0.42.</p>\n            ","response":0,"trial_type":"html-button-response","trial_index":18,"time_elapsed":226932,"internal_node_id":"0.0-4.0-1.5","subject_id":"5928c9e661fd8f00017ff206","study_id":"6197b3f67c2b5cd3b6d9596a","session_id":"619bfbde65a741b130667104","condition":"full-information","relevant_dimensions":["wings","pattern"],"bee_group":{"antennae":"X","wings":"2","pattern":"S","legs":"X"},"bonus":0.980000000000001},{"rt":2172,"stimulus":"bees-with-color/bee-B2DF.svg","response":0,"trial_type":"image-button-response","trial_index":19,"time_elapsed":229107,"internal_node_id":"0.0-4.0-0.6","subject_id":"5928c9e661fd8f00017ff206","study_id":"6197b3f67c2b5cd3b6d9596a","session_id":"619bfbde65a741b130667104","condition":"full-information","relevant_dimensions":["wings","pattern"],"bee_group":{"antennae":"X","wings":"2","pattern":"S","legs":"X"},"action":"harvest","summary":"good-harvest","bonus":0.980000000000001},{"rt":994,"stimulus":"\n                    <p><b>Action: <em>harvest</em></b></p>\n                    <p>This is the bee that you just saw.</p>\n                    <img src=\"bees-with-color/bee-B2DF.svg\" width=\"200\">\n                    <p><span class=\"greenText\"><b>Successful harvest!</b></span><br>Your pay has increased by $0.02. Your bonus pay is now $0.44.</p>\n            ","response":0,"trial_type":"html-button-response","trial_index":20,"time_elapsed":230103,"internal_node_id":"0.0-4.0-1.6","subject_id":"5928c9e661fd8f00017ff206","study_id":"6197b3f67c2b5cd3b6d9596a","session_id":"619bfbde65a741b130667104","condition":"full-information","relevant_dimensions":["wings","pattern"],"bee_group":{"antennae":"X","wings":"2","pattern":"S","legs":"X"},"bonus":0.980000000000001},{"rt":1842,"stimulus":"bees-with-color/bee-B1SF.svg","response":0,"trial_type":"image-button-response","trial_index":21,"time_elapsed":231946,"internal_node_id":"0.0-4.0-0.7","subject_id":"5928c9e661fd8f00017ff206","study_id":"6197b3f67c2b5cd3b6d9596a","session_id":"619bfbde65a741b130667104","condition":"full-information","relevant_dimensions":["wings","pattern"],"bee_group":{"antennae":"X","wings":"2","pattern":"S","legs":"X"},"action":"harvest","summary":"good-harvest","bonus":0.980000000000001},{"rt":959,"stimulus":"\n                    <p><b>Action: <em>harvest</em></b></p>\n                    <p>This is the bee that you just saw.</p>\n                    <img src=\"bees-with-color/bee-B1SF.svg\" width=\"200\">\n                    <p><span class=\"greenText\"><b>Successful harvest!</b></span><br>Your pay has increased by $0.02. Your bonus pay is now $0.46.</p>\n            ","response":0,"trial_type":"html-button-response","trial_index":22,"time_elapsed":232913,"internal_node_id":"0.0-4.0-1.7","subject_id":"5928c9e661fd8f00017ff206","study_id":"6197b3f67c2b5cd3b6d9596a","session_id":"619bfbde65a741b130667104","condition":"full-information","relevant_dimensions":["wings","pattern"],"bee_group":{"antennae":"X","wings":"2","pattern":"S","legs":"X"},"bonus":0.980000000000001},{"rt":1576,"stimulus":"bees-with-color/bee-A2DM.svg","response":0,"trial_type":"image-button-response","trial_index":23,"time_elapsed":234490,"internal_node_id":"0.0-4.0-0.8","subject_id":"5928c9e661fd8f00017ff206","study_id":"6197b3f67c2b5cd3b6d9596a","session_id":"619bfbde65a741b130667104","condition":"full-information","relevant_dimensions":["wings","pattern"],"bee_group":{"antennae":"X","wings":"2","pattern":"S","legs":"X"},"action":"harvest","summary":"good-harvest","bonus":0.980000000000001},{"rt":1002,"stimulus":"\n                    <p><b>Action: <em>harvest</em></b></p>\n                    <p>This is the bee that you just saw.</p>\n                    <img src=\"bees-with-color/bee-A2DM.svg\" width=\"200\">\n                    <p><span class=\"greenText\"><b>Successful harvest!</b></span><br>Your pay has increased by $0.02. Your bonus pay is now $0.48.</p>\n            ","response":0,"trial_type":"html-button-response","trial_index":24,"time_elapsed":235494,"internal_node_id":"0.0-4.0-1.8","subject_id":"5928c9e661fd8f00017ff206","study_id":"6197b3f67c2b5cd3b6d9596a","session_id":"619bfbde65a741b130667104","condition":"full-information","relevant_dimensions":["wings","pattern"],"bee_group":{"antennae":"X","wings":"2","pattern":"S","legs":"X"},"bonus":0.980000000000001},{"rt":2313,"stimulus":"bees-with-color/bee-A2SM.svg","response":0,"trial_type":"image-button-response","trial_index":25,"time_elapsed":237808,"internal_node_id":"0.0-4.0-0.9","subject_id":"5928c9e661fd8f00017ff206","study_id":"6197b3f67c2b5cd3b6d9596a","session_id":"619bfbde65a741b130667104","condition":"full-information","relevant_dimensions":["wings","pattern"],"bee_group":{"antennae":"X","wings":"2","pattern":"S","legs":"X"},"action":"harvest","summary":"bad-harvest","bonus":0.980000000000001},{"rt":6057,"stimulus":"\n                    <p><b>Action: <em>harvest</em></b></p>\n                    <p>This is the bee that you just saw.</p>\n                    <img src=\"bees-with-color/bee-A2SM.svg\" width=\"200\">\n                    <p><span class=\"redText\">Bad choice, the bee was angry.</span><br><b>You have been stung!</b><br>Your pay has been decreased by $0.10. Your bonus pay is now $0.38.</p>\n            ","response":0,"trial_type":"html-button-response","trial_index":26,"time_elapsed":243869,"internal_node_id":"0.0-4.0-1.9","subject_id":"5928c9e661fd8f00017ff206","study_id":"6197b3f67c2b5cd3b6d9596a","session_id":"619bfbde65a741b130667104","condition":"full-information","relevant_dimensions":["wings","pattern"],"bee_group":{"antennae":"X","wings":"2","pattern":"S","legs":"X"},"bonus":0.980000000000001},{"rt":1254,"stimulus":"bees-with-color/bee-A1DF.svg","response":0,"trial_type":"image-button-response","trial_index":27,"time_elapsed":245125,"internal_node_id":"0.0-4.0-0.10","subject_id":"5928c9e661fd8f00017ff206","study_id":"6197b3f67c2b5cd3b6d9596a","session_id":"619bfbde65a741b130667104","condition":"full-information","relevant_dimensions":["wings","pattern"],"bee_group":{"antennae":"X","wings":"2","pattern":"S","legs":"X"},"action":"harvest","summary":"good-harvest","bonus":0.980000000000001},{"rt":1136,"stimulus":"\n                    <p><b>Action: <em>harvest</em></b></p>\n                    <p>This is the bee that you just saw.</p>\n                    <img src=\"bees-with-color/bee-A1DF.svg\" width=\"200\">\n                    <p><span class=\"greenText\"><b>Successful harvest!</b></span><br>Your pay has increased by $0.02. Your bonus pay is now $0.40.</p>\n            ","response":0,"trial_type":"html-button-response","trial_index":28,"time_elapsed":246262,"internal_node_id":"0.0-4.0-1.10","subject_id":"5928c9e661fd8f00017ff206","study_id":"6197b3f67c2b5cd3b6d9596a","session_id":"619bfbde65a741b130667104","condition":"full-information","relevant_dimensions":["wings","pattern"],"bee_group":{"antennae":"X","wings":"2","pattern":"S","legs":"X"},"bonus":0.980000000000001},{"rt":1226,"stimulus":"bees-with-color/bee-B2DM.svg","response":0,"trial_type":"image-button-response","trial_index":29,"time_elapsed":247491,"internal_node_id":"0.0-4.0-0.11","subject_id":"5928c9e661fd8f00017ff206","study_id":"6197b3f67c2b5cd3b6d9596a","session_id":"619bfbde65a741b130667104","condition":"full-information","relevant_dimensions":["wings","pattern"],"bee_group":{"antennae":"X","wings":"2","pattern":"S","legs":"X"},"action":"harvest","summary":"good-harvest","bonus":0.980000000000001},{"rt":987,"stimulus":"\n                    <p><b>Action: <em>harvest</em></b></p>\n                    <p>This is the bee that you just saw.</p>\n                    <img src=\"bees-with-color/bee-B2DM.svg\" width=\"200\">\n                    <p><span class=\"greenText\"><b>Successful harvest!</b></span><br>Your pay has increased by $0.02. Your bonus pay is now $0.42.</p>\n            ","response":0,"trial_type":"html-button-response","trial_index":30,"time_elapsed":248481,"internal_node_id":"0.0-4.0-1.11","subject_id":"5928c9e661fd8f00017ff206","study_id":"6197b3f67c2b5cd3b6d9596a","session_id":"619bfbde65a741b130667104","condition":"full-information","relevant_dimensions":["wings","pattern"],"bee_group":{"antennae":"X","wings":"2","pattern":"S","legs":"X"},"bonus":0.980000000000001},{"rt":2018,"stimulus":"bees-with-color/bee-B1SM.svg","response":0,"trial_type":"image-button-response","trial_index":31,"time_elapsed":250501,"internal_node_id":"0.0-4.0-0.12","subject_id":"5928c9e661fd8f00017ff206","study_id":"6197b3f67c2b5cd3b6d9596a","session_id":"619bfbde65a741b130667104","condition":"full-information","relevant_dimensions":["wings","pattern"],"bee_group":{"antennae":"X","wings":"2","pattern":"S","legs":"X"},"action":"harvest","summary":"good-harvest","bonus":0.980000000000001},{"rt":1129,"stimulus":"\n                    <p><b>Action: <em>harvest</em></b></p>\n                    <p>This is the bee that you just saw.</p>\n                    <img src=\"bees-with-color/bee-B1SM.svg\" width=\"200\">\n                    <p><span class=\"greenText\"><b>Successful harvest!</b></span><br>Your pay has increased by $0.02. Your bonus pay is now $0.44.</p>\n            ","response":0,"trial_type":"html-button-response","trial_index":32,"time_elapsed":251630,"internal_node_id":"0.0-4.0-1.12","subject_id":"5928c9e661fd8f00017ff206","study_id":"6197b3f67c2b5cd3b6d9596a","session_id":"619bfbde65a741b130667104","condition":"full-information","relevant_dimensions":["wings","pattern"],"bee_group":{"antennae":"X","wings":"2","pattern":"S","legs":"X"},"bonus":0.980000000000001},{"rt":2272,"stimulus":"bees-with-color/bee-A2SF.svg","response":1,"trial_type":"image-button-response","trial_index":33,"time_elapsed":253905,"internal_node_id":"0.0-4.0-0.13","subject_id":"5928c9e661fd8f00017ff206","study_id":"6197b3f67c2b5cd3b6d9596a","session_id":"619bfbde65a741b130667104","condition":"full-information","relevant_dimensions":["wings","pattern"],"bee_group":{"antennae":"X","wings":"2","pattern":"S","legs":"X"},"action":"avoid","summary":"good-avoid","bonus":0.980000000000001},{"rt":2667,"stimulus":"\n                    <p><b>Action: <em>avoid</em></b></p>\n                    <p>This is the bee that you just saw.</p>\n                    <img src=\"bees-with-color/bee-A2SF.svg\" width=\"200\">\n                    <p><span class=\"greenText\">Good choice!</span>  This bee would have stung you.<br>Your bonus pay is unchanged, and remains at $0.44.</p>\n            ","response":0,"trial_type":"html-button-response","trial_index":34,"time_elapsed":256575,"internal_node_id":"0.0-4.0-1.13","subject_id":"5928c9e661fd8f00017ff206","study_id":"6197b3f67c2b5cd3b6d9596a","session_id":"619bfbde65a741b130667104","condition":"full-information","relevant_dimensions":["wings","pattern"],"bee_group":{"antennae":"X","wings":"2","pattern":"S","legs":"X"},"bonus":0.980000000000001},{"rt":1454,"stimulus":"bees-with-color/bee-A2DF.svg","response":0,"trial_type":"image-button-response","trial_index":35,"time_elapsed":258031,"internal_node_id":"0.0-4.0-0.14","subject_id":"5928c9e661fd8f00017ff206","study_id":"6197b3f67c2b5cd3b6d9596a","session_id":"619bfbde65a741b130667104","condition":"full-information","relevant_dimensions":["wings","pattern"],"bee_group":{"antennae":"X","wings":"2","pattern":"S","legs":"X"},"action":"harvest","summary":"good-harvest","bonus":0.980000000000001},{"rt":1075,"stimulus":"\n                    <p><b>Action: <em>harvest</em></b></p>\n                    <p>This is the bee that you just saw.</p>\n                    <img src=\"bees-with-color/bee-A2DF.svg\" width=\"200\">\n                    <p><span class=\"greenText\"><b>Successful harvest!</b></span><br>Your pay has increased by $0.02. Your bonus pay is now $0.46.</p>\n            ","response":0,"trial_type":"html-button-response","trial_index":36,"time_elapsed":259106,"internal_node_id":"0.0-4.0-1.14","subject_id":"5928c9e661fd8f00017ff206","study_id":"6197b3f67c2b5cd3b6d9596a","session_id":"619bfbde65a741b130667104","condition":"full-information","relevant_dimensions":["wings","pattern"],"bee_group":{"antennae":"X","wings":"2","pattern":"S","legs":"X"},"bonus":0.980000000000001},{"rt":1369,"stimulus":"bees-with-color/bee-A1DM.svg","response":0,"trial_type":"image-button-response","trial_index":37,"time_elapsed":260477,"internal_node_id":"0.0-4.0-0.15","subject_id":"5928c9e661fd8f00017ff206","study_id":"6197b3f67c2b5cd3b6d9596a","session_id":"619bfbde65a741b130667104","condition":"full-information","relevant_dimensions":["wings","pattern"],"bee_group":{"antennae":"X","wings":"2","pattern":"S","legs":"X"},"action":"harvest","summary":"good-harvest","bonus":0.980000000000001},{"rt":1078,"stimulus":"\n                    <p><b>Action: <em>harvest</em></b></p>\n                    <p>This is the bee that you just saw.</p>\n                    <img src=\"bees-with-color/bee-A1DM.svg\" width=\"200\">\n                    <p><span class=\"greenText\"><b>Successful harvest!</b></span><br>Your pay has increased by $0.02. Your bonus pay is now $0.48.</p>\n            ","response":0,"trial_type":"html-button-response","trial_index":38,"time_elapsed":261559,"internal_node_id":"0.0-4.0-1.15","subject_id":"5928c9e661fd8f00017ff206","study_id":"6197b3f67c2b5cd3b6d9596a","session_id":"619bfbde65a741b130667104","condition":"full-information","relevant_dimensions":["wings","pattern"],"bee_group":{"antennae":"X","wings":"2","pattern":"S","legs":"X"},"bonus":0.980000000000001},{"rt":1083,"stimulus":"bees-with-color/bee-A1DF.svg","response":0,"trial_type":"image-button-response","trial_index":39,"time_elapsed":262644,"internal_node_id":"0.0-4.0-0.16","subject_id":"5928c9e661fd8f00017ff206","study_id":"6197b3f67c2b5cd3b6d9596a","session_id":"619bfbde65a741b130667104","condition":"full-information","relevant_dimensions":["wings","pattern"],"bee_group":{"antennae":"X","wings":"2","pattern":"S","legs":"X"},"action":"harvest","summary":"good-harvest","bonus":0.980000000000001},{"rt":1062,"stimulus":"\n                    <p><b>Action: <em>harvest</em></b></p>\n                    <p>This is the bee that you just saw.</p>\n                    <img src=\"bees-with-color/bee-A1DF.svg\" width=\"200\">\n                    <p><span class=\"greenText\"><b>Successful harvest!</b></span><br>Your pay has increased by $0.02. Your bonus pay is now $0.50.</p>\n            ","response":0,"trial_type":"html-button-response","trial_index":40,"time_elapsed":263706,"internal_node_id":"0.0-4.0-1.16","subject_id":"5928c9e661fd8f00017ff206","study_id":"6197b3f67c2b5cd3b6d9596a","session_id":"619bfbde65a741b130667104","condition":"full-information","relevant_dimensions":["wings","pattern"],"bee_group":{"antennae":"X","wings":"2","pattern":"S","legs":"X"},"bonus":0.980000000000001},{"rt":995,"stimulus":"bees-with-color/bee-B2DF.svg","response":0,"trial_type":"image-button-response","trial_index":41,"time_elapsed":264704,"internal_node_id":"0.0-4.0-0.17","subject_id":"5928c9e661fd8f00017ff206","study_id":"6197b3f67c2b5cd3b6d9596a","session_id":"619bfbde65a741b130667104","condition":"full-information","relevant_dimensions":["wings","pattern"],"bee_group":{"antennae":"X","wings":"2","pattern":"S","legs":"X"},"action":"harvest","summary":"good-harvest","bonus":0.980000000000001},{"rt":964,"stimulus":"\n                    <p><b>Action: <em>harvest</em></b></p>\n                    <p>This is the bee that you just saw.</p>\n                    <img src=\"bees-with-color/bee-B2DF.svg\" width=\"200\">\n                    <p><span class=\"greenText\"><b>Successful harvest!</b></span><br>Your pay has increased by $0.02. Your bonus pay is now $0.52.</p>\n            ","response":0,"trial_type":"html-button-response","trial_index":42,"time_elapsed":265671,"internal_node_id":"0.0-4.0-1.17","subject_id":"5928c9e661fd8f00017ff206","study_id":"6197b3f67c2b5cd3b6d9596a","session_id":"619bfbde65a741b130667104","condition":"full-information","relevant_dimensions":["wings","pattern"],"bee_group":{"antennae":"X","wings":"2","pattern":"S","legs":"X"},"bonus":0.980000000000001},{"rt":1612,"stimulus":"bees-with-color/bee-B1SM.svg","response":1,"trial_type":"image-button-response","trial_index":43,"time_elapsed":267286,"internal_node_id":"0.0-4.0-0.18","subject_id":"5928c9e661fd8f00017ff206","study_id":"6197b3f67c2b5cd3b6d9596a","session_id":"619bfbde65a741b130667104","condition":"full-information","relevant_dimensions":["wings","pattern"],"bee_group":{"antennae":"X","wings":"2","pattern":"S","legs":"X"},"action":"avoid","summary":"bad-avoid","bonus":0.980000000000001},{"rt":4950,"stimulus":"\n                    <p><b>Action: <em>avoid</em></b></p>\n                    <p>This is the bee that you just saw.</p>\n                    <img src=\"bees-with-color/bee-B1SM.svg\" width=\"200\">\n                    <p><span class=\"redText\">Bad choice,</span> the bee was friendly.<br>Your bonus pay is unchanged, and remains at $0.52.</p>\n            ","response":0,"trial_type":"html-button-response","trial_index":44,"time_elapsed":272238,"internal_node_id":"0.0-4.0-1.18","subject_id":"5928c9e661fd8f00017ff206","study_id":"6197b3f67c2b5cd3b6d9596a","session_id":"619bfbde65a741b130667104","condition":"full-information","relevant_dimensions":["wings","pattern"],"bee_group":{"antennae":"X","wings":"2","pattern":"S","legs":"X"},"bonus":0.980000000000001},{"rt":2480,"stimulus":"bees-with-color/bee-A2SF.svg","response":1,"trial_type":"image-button-response","trial_index":45,"time_elapsed":274719,"internal_node_id":"0.0-4.0-0.19","subject_id":"5928c9e661fd8f00017ff206","study_id":"6197b3f67c2b5cd3b6d9596a","session_id":"619bfbde65a741b130667104","condition":"full-information","relevant_dimensions":["wings","pattern"],"bee_group":{"antennae":"X","wings":"2","pattern":"S","legs":"X"},"action":"avoid","summary":"good-avoid","bonus":0.980000000000001},{"rt":1370,"stimulus":"\n                    <p><b>Action: <em>avoid</em></b></p>\n                    <p>This is the bee that you just saw.</p>\n                    <img src=\"bees-with-color/bee-A2SF.svg\" width=\"200\">\n                    <p><span class=\"greenText\">Good choice!</span>  This bee would have stung you.<br>Your bonus pay is unchanged, and remains at $0.52.</p>\n            ","response":0,"trial_type":"html-button-response","trial_index":46,"time_elapsed":276091,"internal_node_id":"0.0-4.0-1.19","subject_id":"5928c9e661fd8f00017ff206","study_id":"6197b3f67c2b5cd3b6d9596a","session_id":"619bfbde65a741b130667104","condition":"full-information","relevant_dimensions":["wings","pattern"],"bee_group":{"antennae":"X","wings":"2","pattern":"S","legs":"X"},"bonus":0.980000000000001},{"rt":3181,"stimulus":"bees-with-color/bee-B2SM.svg","response":1,"trial_type":"image-button-response","trial_index":47,"time_elapsed":279275,"internal_node_id":"0.0-4.0-0.20","subject_id":"5928c9e661fd8f00017ff206","study_id":"6197b3f67c2b5cd3b6d9596a","session_id":"619bfbde65a741b130667104","condition":"full-information","relevant_dimensions":["wings","pattern"],"bee_group":{"antennae":"X","wings":"2","pattern":"S","legs":"X"},"action":"avoid","summary":"good-avoid","bonus":0.980000000000001},{"rt":1138,"stimulus":"\n                    <p><b>Action: <em>avoid</em></b></p>\n                    <p>This is the bee that you just saw.</p>\n                    <img src=\"bees-with-color/bee-B2SM.svg\" width=\"200\">\n                    <p><span class=\"greenText\">Good choice!</span>  This bee would have stung you.<br>Your bonus pay is unchanged, and remains at $0.52.</p>\n            ","response":0,"trial_type":"html-button-response","trial_index":48,"time_elapsed":280417,"internal_node_id":"0.0-4.0-1.20","subject_id":"5928c9e661fd8f00017ff206","study_id":"6197b3f67c2b5cd3b6d9596a","session_id":"619bfbde65a741b130667104","condition":"full-information","relevant_dimensions":["wings","pattern"],"bee_group":{"antennae":"X","wings":"2","pattern":"S","legs":"X"},"bonus":0.980000000000001},{"rt":1196,"stimulus":"bees-with-color/bee-B1DM.svg","response":0,"trial_type":"image-button-response","trial_index":49,"time_elapsed":281615,"internal_node_id":"0.0-4.0-0.21","subject_id":"5928c9e661fd8f00017ff206","study_id":"6197b3f67c2b5cd3b6d9596a","session_id":"619bfbde65a741b130667104","condition":"full-information","relevant_dimensions":["wings","pattern"],"bee_group":{"antennae":"X","wings":"2","pattern":"S","legs":"X"},"action":"harvest","summary":"good-harvest","bonus":0.980000000000001},{"rt":908,"stimulus":"\n                    <p><b>Action: <em>harvest</em></b></p>\n                    <p>This is the bee that you just saw.</p>\n                    <img src=\"bees-with-color/bee-B1DM.svg\" width=\"200\">\n                    <p><span class=\"greenText\"><b>Successful harvest!</b></span><br>Your pay has increased by $0.02. Your bonus pay is now $0.54.</p>\n            ","response":0,"trial_type":"html-button-response","trial_index":50,"time_elapsed":282524,"internal_node_id":"0.0-4.0-1.21","subject_id":"5928c9e661fd8f00017ff206","study_id":"6197b3f67c2b5cd3b6d9596a","session_id":"619bfbde65a741b130667104","condition":"full-information","relevant_dimensions":["wings","pattern"],"bee_group":{"antennae":"X","wings":"2","pattern":"S","legs":"X"},"bonus":0.980000000000001},{"rt":1069,"stimulus":"bees-with-color/bee-A1DM.svg","response":0,"trial_type":"image-button-response","trial_index":51,"time_elapsed":283594,"internal_node_id":"0.0-4.0-0.22","subject_id":"5928c9e661fd8f00017ff206","study_id":"6197b3f67c2b5cd3b6d9596a","session_id":"619bfbde65a741b130667104","condition":"full-information","relevant_dimensions":["wings","pattern"],"bee_group":{"antennae":"X","wings":"2","pattern":"S","legs":"X"},"action":"harvest","summary":"good-harvest","bonus":0.980000000000001},{"rt":899,"stimulus":"\n                    <p><b>Action: <em>harvest</em></b></p>\n                    <p>This is the bee that you just saw.</p>\n                    <img src=\"bees-with-color/bee-A1DM.svg\" width=\"200\">\n                    <p><span class=\"greenText\"><b>Successful harvest!</b></span><br>Your pay has increased by $0.02. Your bonus pay is now $0.56.</p>\n            ","response":0,"trial_type":"html-button-response","trial_index":52,"time_elapsed":284495,"internal_node_id":"0.0-4.0-1.22","subject_id":"5928c9e661fd8f00017ff206","study_id":"6197b3f67c2b5cd3b6d9596a","session_id":"619bfbde65a741b130667104","condition":"full-information","relevant_dimensions":["wings","pattern"],"bee_group":{"antennae":"X","wings":"2","pattern":"S","legs":"X"},"bonus":0.980000000000001},{"rt":1360,"stimulus":"bees-with-color/bee-A2DF.svg","response":1,"trial_type":"image-button-response","trial_index":53,"time_elapsed":285857,"internal_node_id":"0.0-4.0-0.23","subject_id":"5928c9e661fd8f00017ff206","study_id":"6197b3f67c2b5cd3b6d9596a","session_id":"619bfbde65a741b130667104","condition":"full-information","relevant_dimensions":["wings","pattern"],"bee_group":{"antennae":"X","wings":"2","pattern":"S","legs":"X"},"action":"avoid","summary":"bad-avoid","bonus":0.980000000000001},{"rt":2967,"stimulus":"\n                    <p><b>Action: <em>avoid</em></b></p>\n                    <p>This is the bee that you just saw.</p>\n                    <img src=\"bees-with-color/bee-A2DF.svg\" width=\"200\">\n                    <p><span class=\"redText\">Bad choice,</span> the bee was friendly.<br>Your bonus pay is unchanged, and remains at $0.56.</p>\n            ","response":0,"trial_type":"html-button-response","trial_index":54,"time_elapsed":288827,"internal_node_id":"0.0-4.0-1.23","subject_id":"5928c9e661fd8f00017ff206","study_id":"6197b3f67c2b5cd3b6d9596a","session_id":"619bfbde65a741b130667104","condition":"full-information","relevant_dimensions":["wings","pattern"],"bee_group":{"antennae":"X","wings":"2","pattern":"S","legs":"X"},"bonus":0.980000000000001},{"rt":1490,"stimulus":"bees-with-color/bee-B1SF.svg","response":0,"trial_type":"image-button-response","trial_index":55,"time_elapsed":290318,"internal_node_id":"0.0-4.0-0.24","subject_id":"5928c9e661fd8f00017ff206","study_id":"6197b3f67c2b5cd3b6d9596a","session_id":"619bfbde65a741b130667104","condition":"full-information","relevant_dimensions":["wings","pattern"],"bee_group":{"antennae":"X","wings":"2","pattern":"S","legs":"X"},"action":"harvest","summary":"good-harvest","bonus":0.980000000000001},{"rt":1035,"stimulus":"\n                    <p><b>Action: <em>harvest</em></b></p>\n                    <p>This is the bee that you just saw.</p>\n                    <img src=\"bees-with-color/bee-B1SF.svg\" width=\"200\">\n                    <p><span class=\"greenText\"><b>Successful harvest!</b></span><br>Your pay has increased by $0.02. Your bonus pay is now $0.58.</p>\n            ","response":0,"trial_type":"html-button-response","trial_index":56,"time_elapsed":291357,"internal_node_id":"0.0-4.0-1.24","subject_id":"5928c9e661fd8f00017ff206","study_id":"6197b3f67c2b5cd3b6d9596a","session_id":"619bfbde65a741b130667104","condition":"full-information","relevant_dimensions":["wings","pattern"],"bee_group":{"antennae":"X","wings":"2","pattern":"S","legs":"X"},"bonus":0.980000000000001},{"rt":1388,"stimulus":"bees-with-color/bee-A1SF.svg","response":0,"trial_type":"image-button-response","trial_index":57,"time_elapsed":292746,"internal_node_id":"0.0-4.0-0.25","subject_id":"5928c9e661fd8f00017ff206","study_id":"6197b3f67c2b5cd3b6d9596a","session_id":"619bfbde65a741b130667104","condition":"full-information","relevant_dimensions":["wings","pattern"],"bee_group":{"antennae":"X","wings":"2","pattern":"S","legs":"X"},"action":"harvest","summary":"good-harvest","bonus":0.980000000000001},{"rt":830,"stimulus":"\n                    <p><b>Action: <em>harvest</em></b></p>\n                    <p>This is the bee that you just saw.</p>\n                    <img src=\"bees-with-color/bee-A1SF.svg\" width=\"200\">\n                    <p><span class=\"greenText\"><b>Successful harvest!</b></span><br>Your pay has increased by $0.02. Your bonus pay is now $0.60.</p>\n            ","response":0,"trial_type":"html-button-response","trial_index":58,"time_elapsed":293578,"internal_node_id":"0.0-4.0-1.25","subject_id":"5928c9e661fd8f00017ff206","study_id":"6197b3f67c2b5cd3b6d9596a","session_id":"619bfbde65a741b130667104","condition":"full-information","relevant_dimensions":["wings","pattern"],"bee_group":{"antennae":"X","wings":"2","pattern":"S","legs":"X"},"bonus":0.980000000000001},{"rt":2105,"stimulus":"bees-with-color/bee-B2SF.svg","response":1,"trial_type":"image-button-response","trial_index":59,"time_elapsed":295687,"internal_node_id":"0.0-4.0-0.26","subject_id":"5928c9e661fd8f00017ff206","study_id":"6197b3f67c2b5cd3b6d9596a","session_id":"619bfbde65a741b130667104","condition":"full-information","relevant_dimensions":["wings","pattern"],"bee_group":{"antennae":"X","wings":"2","pattern":"S","legs":"X"},"action":"avoid","summary":"good-avoid","bonus":0.980000000000001},{"rt":1080,"stimulus":"\n                    <p><b>Action: <em>avoid</em></b></p>\n                    <p>This is the bee that you just saw.</p>\n                    <img src=\"bees-with-color/bee-B2SF.svg\" width=\"200\">\n                    <p><span class=\"greenText\">Good choice!</span>  This bee would have stung you.<br>Your bonus pay is unchanged, and remains at $0.60.</p>\n            ","response":0,"trial_type":"html-button-response","trial_index":60,"time_elapsed":296768,"internal_node_id":"0.0-4.0-1.26","subject_id":"5928c9e661fd8f00017ff206","study_id":"6197b3f67c2b5cd3b6d9596a","session_id":"619bfbde65a741b130667104","condition":"full-information","relevant_dimensions":["wings","pattern"],"bee_group":{"antennae":"X","wings":"2","pattern":"S","legs":"X"},"bonus":0.980000000000001},{"rt":1272,"stimulus":"bees-with-color/bee-B1DF.svg","response":0,"trial_type":"image-button-response","trial_index":61,"time_elapsed":298043,"internal_node_id":"0.0-4.0-0.27","subject_id":"5928c9e661fd8f00017ff206","study_id":"6197b3f67c2b5cd3b6d9596a","session_id":"619bfbde65a741b130667104","condition":"full-information","relevant_dimensions":["wings","pattern"],"bee_group":{"antennae":"X","wings":"2","pattern":"S","legs":"X"},"action":"harvest","summary":"good-harvest","bonus":0.980000000000001},{"rt":823,"stimulus":"\n                    <p><b>Action: <em>harvest</em></b></p>\n                    <p>This is the bee that you just saw.</p>\n                    <img src=\"bees-with-color/bee-B1DF.svg\" width=\"200\">\n                    <p><span class=\"greenText\"><b>Successful harvest!</b></span><br>Your pay has increased by $0.02. Your bonus pay is now $0.62.</p>\n            ","response":0,"trial_type":"html-button-response","trial_index":62,"time_elapsed":298866,"internal_node_id":"0.0-4.0-1.27","subject_id":"5928c9e661fd8f00017ff206","study_id":"6197b3f67c2b5cd3b6d9596a","session_id":"619bfbde65a741b130667104","condition":"full-information","relevant_dimensions":["wings","pattern"],"bee_group":{"antennae":"X","wings":"2","pattern":"S","legs":"X"},"bonus":0.980000000000001},{"rt":4213,"stimulus":"bees-with-color/bee-A2SM.svg","response":1,"trial_type":"image-button-response","trial_index":63,"time_elapsed":303083,"internal_node_id":"0.0-4.0-0.28","subject_id":"5928c9e661fd8f00017ff206","study_id":"6197b3f67c2b5cd3b6d9596a","session_id":"619bfbde65a741b130667104","condition":"full-information","relevant_dimensions":["wings","pattern"],"bee_group":{"antennae":"X","wings":"2","pattern":"S","legs":"X"},"action":"avoid","summary":"good-avoid","bonus":0.980000000000001},{"rt":1468,"stimulus":"\n                    <p><b>Action: <em>avoid</em></b></p>\n                    <p>This is the bee that you just saw.</p>\n                    <img src=\"bees-with-color/bee-A2SM.svg\" width=\"200\">\n                    <p><span class=\"greenText\">Good choice!</span>  This bee would have stung you.<br>Your bonus pay is unchanged, and remains at $0.62.</p>\n            ","response":0,"trial_type":"html-button-response","trial_index":64,"time_elapsed":304553,"internal_node_id":"0.0-4.0-1.28","subject_id":"5928c9e661fd8f00017ff206","study_id":"6197b3f67c2b5cd3b6d9596a","session_id":"619bfbde65a741b130667104","condition":"full-information","relevant_dimensions":["wings","pattern"],"bee_group":{"antennae":"X","wings":"2","pattern":"S","legs":"X"},"bonus":0.980000000000001},{"rt":1251,"stimulus":"bees-with-color/bee-A1SM.svg","response":0,"trial_type":"image-button-response","trial_index":65,"time_elapsed":305806,"internal_node_id":"0.0-4.0-0.29","subject_id":"5928c9e661fd8f00017ff206","study_id":"6197b3f67c2b5cd3b6d9596a","session_id":"619bfbde65a741b130667104","condition":"full-information","relevant_dimensions":["wings","pattern"],"bee_group":{"antennae":"X","wings":"2","pattern":"S","legs":"X"},"action":"harvest","summary":"good-harvest","bonus":0.980000000000001},{"rt":963,"stimulus":"\n                    <p><b>Action: <em>harvest</em></b></p>\n                    <p>This is the bee that you just saw.</p>\n                    <img src=\"bees-with-color/bee-A1SM.svg\" width=\"200\">\n                    <p><span class=\"greenText\"><b>Successful harvest!</b></span><br>Your pay has increased by $0.02. Your bonus pay is now $0.64.</p>\n            ","response":0,"trial_type":"html-button-response","trial_index":66,"time_elapsed":306775,"internal_node_id":"0.0-4.0-1.29","subject_id":"5928c9e661fd8f00017ff206","study_id":"6197b3f67c2b5cd3b6d9596a","session_id":"619bfbde65a741b130667104","condition":"full-information","relevant_dimensions":["wings","pattern"],"bee_group":{"antennae":"X","wings":"2","pattern":"S","legs":"X"},"bonus":0.980000000000001},{"rt":2267,"stimulus":"bees-with-color/bee-A2DM.svg","response":0,"trial_type":"image-button-response","trial_index":67,"time_elapsed":309045,"internal_node_id":"0.0-4.0-0.30","subject_id":"5928c9e661fd8f00017ff206","study_id":"6197b3f67c2b5cd3b6d9596a","session_id":"619bfbde65a741b130667104","condition":"full-information","relevant_dimensions":["wings","pattern"],"bee_group":{"antennae":"X","wings":"2","pattern":"S","legs":"X"},"action":"harvest","summary":"good-harvest","bonus":0.980000000000001},{"rt":925,"stimulus":"\n                    <p><b>Action: <em>harvest</em></b></p>\n                    <p>This is the bee that you just saw.</p>\n                    <img src=\"bees-with-color/bee-A2DM.svg\" width=\"200\">\n                    <p><span class=\"greenText\"><b>Successful harvest!</b></span><br>Your pay has increased by $0.02. Your bonus pay is now $0.66.</p>\n            ","response":0,"trial_type":"html-button-response","trial_index":68,"time_elapsed":309974,"internal_node_id":"0.0-4.0-1.30","subject_id":"5928c9e661fd8f00017ff206","study_id":"6197b3f67c2b5cd3b6d9596a","session_id":"619bfbde65a741b130667104","condition":"full-information","relevant_dimensions":["wings","pattern"],"bee_group":{"antennae":"X","wings":"2","pattern":"S","legs":"X"},"bonus":0.980000000000001},{"rt":1477,"stimulus":"bees-with-color/bee-B2DM.svg","response":0,"trial_type":"image-button-response","trial_index":69,"time_elapsed":311452,"internal_node_id":"0.0-4.0-0.31","subject_id":"5928c9e661fd8f00017ff206","study_id":"6197b3f67c2b5cd3b6d9596a","session_id":"619bfbde65a741b130667104","condition":"full-information","relevant_dimensions":["wings","pattern"],"bee_group":{"antennae":"X","wings":"2","pattern":"S","legs":"X"},"action":"harvest","summary":"good-harvest","bonus":0.980000000000001},{"rt":803,"stimulus":"\n                    <p><b>Action: <em>harvest</em></b></p>\n                    <p>This is the bee that you just saw.</p>\n                    <img src=\"bees-with-color/bee-B2DM.svg\" width=\"200\">\n                    <p><span class=\"greenText\"><b>Successful harvest!</b></span><br>Your pay has increased by $0.02. Your bonus pay is now $0.68.</p>\n            ","response":0,"trial_type":"html-button-response","trial_index":70,"time_elapsed":312258,"internal_node_id":"0.0-4.0-1.31","subject_id":"5928c9e661fd8f00017ff206","study_id":"6197b3f67c2b5cd3b6d9596a","session_id":"619bfbde65a741b130667104","condition":"full-information","relevant_dimensions":["wings","pattern"],"bee_group":{"antennae":"X","wings":"2","pattern":"S","legs":"X"},"bonus":0.980000000000001},{"rt":1849,"stimulus":"bees-with-color/bee-A2DM.svg","response":0,"trial_type":"image-button-response","trial_index":71,"time_elapsed":314108,"internal_node_id":"0.0-4.0-0.32","subject_id":"5928c9e661fd8f00017ff206","study_id":"6197b3f67c2b5cd3b6d9596a","session_id":"619bfbde65a741b130667104","condition":"full-information","relevant_dimensions":["wings","pattern"],"bee_group":{"antennae":"X","wings":"2","pattern":"S","legs":"X"},"action":"harvest","summary":"good-harvest","bonus":0.980000000000001},{"rt":897,"stimulus":"\n                    <p><b>Action: <em>harvest</em></b></p>\n                    <p>This is the bee that you just saw.</p>\n                    <img src=\"bees-with-color/bee-A2DM.svg\" width=\"200\">\n                    <p><span class=\"greenText\"><b>Successful harvest!</b></span><br>Your pay has increased by $0.02. Your bonus pay is now $0.70.</p>\n            ","response":0,"trial_type":"html-button-response","trial_index":72,"time_elapsed":315008,"internal_node_id":"0.0-4.0-1.32","subject_id":"5928c9e661fd8f00017ff206","study_id":"6197b3f67c2b5cd3b6d9596a","session_id":"619bfbde65a741b130667104","condition":"full-information","relevant_dimensions":["wings","pattern"],"bee_group":{"antennae":"X","wings":"2","pattern":"S","legs":"X"},"bonus":0.980000000000001},{"rt":1062,"stimulus":"bees-with-color/bee-A2DF.svg","response":0,"trial_type":"image-button-response","trial_index":73,"time_elapsed":316070,"internal_node_id":"0.0-4.0-0.33","subject_id":"5928c9e661fd8f00017ff206","study_id":"6197b3f67c2b5cd3b6d9596a","session_id":"619bfbde65a741b130667104","condition":"full-information","relevant_dimensions":["wings","pattern"],"bee_group":{"antennae":"X","wings":"2","pattern":"S","legs":"X"},"action":"harvest","summary":"good-harvest","bonus":0.980000000000001},{"rt":1031,"stimulus":"\n                    <p><b>Action: <em>harvest</em></b></p>\n                    <p>This is the bee that you just saw.</p>\n                    <img src=\"bees-with-color/bee-A2DF.svg\" width=\"200\">\n                    <p><span class=\"greenText\"><b>Successful harvest!</b></span><br>Your pay has increased by $0.02. Your bonus pay is now $0.72.</p>\n            ","response":0,"trial_type":"html-button-response","trial_index":74,"time_elapsed":317103,"internal_node_id":"0.0-4.0-1.33","subject_id":"5928c9e661fd8f00017ff206","study_id":"6197b3f67c2b5cd3b6d9596a","session_id":"619bfbde65a741b130667104","condition":"full-information","relevant_dimensions":["wings","pattern"],"bee_group":{"antennae":"X","wings":"2","pattern":"S","legs":"X"},"bonus":0.980000000000001},{"rt":2342,"stimulus":"bees-with-color/bee-B2SF.svg","response":1,"trial_type":"image-button-response","trial_index":75,"time_elapsed":319446,"internal_node_id":"0.0-4.0-0.34","subject_id":"5928c9e661fd8f00017ff206","study_id":"6197b3f67c2b5cd3b6d9596a","session_id":"619bfbde65a741b130667104","condition":"full-information","relevant_dimensions":["wings","pattern"],"bee_group":{"antennae":"X","wings":"2","pattern":"S","legs":"X"},"action":"avoid","summary":"good-avoid","bonus":0.980000000000001},{"rt":971,"stimulus":"\n                    <p><b>Action: <em>avoid</em></b></p>\n                    <p>This is the bee that you just saw.</p>\n                    <img src=\"bees-with-color/bee-B2SF.svg\" width=\"200\">\n                    <p><span class=\"greenText\">Good choice!</span>  This bee would have stung you.<br>Your bonus pay is unchanged, and remains at $0.72.</p>\n            ","response":0,"trial_type":"html-button-response","trial_index":76,"time_elapsed":320421,"internal_node_id":"0.0-4.0-1.34","subject_id":"5928c9e661fd8f00017ff206","study_id":"6197b3f67c2b5cd3b6d9596a","session_id":"619bfbde65a741b130667104","condition":"full-information","relevant_dimensions":["wings","pattern"],"bee_group":{"antennae":"X","wings":"2","pattern":"S","legs":"X"},"bonus":0.980000000000001},{"rt":2413,"stimulus":"bees-with-color/bee-B2SM.svg","response":1,"trial_type":"image-button-response","trial_index":77,"time_elapsed":322836,"internal_node_id":"0.0-4.0-0.35","subject_id":"5928c9e661fd8f00017ff206","study_id":"6197b3f67c2b5cd3b6d9596a","session_id":"619bfbde65a741b130667104","condition":"full-information","relevant_dimensions":["wings","pattern"],"bee_group":{"antennae":"X","wings":"2","pattern":"S","legs":"X"},"action":"avoid","summary":"good-avoid","bonus":0.980000000000001},{"rt":878,"stimulus":"\n                    <p><b>Action: <em>avoid</em></b></p>\n                    <p>This is the bee that you just saw.</p>\n                    <img src=\"bees-with-color/bee-B2SM.svg\" width=\"200\">\n                    <p><span class=\"greenText\">Good choice!</span>  This bee would have stung you.<br>Your bonus pay is unchanged, and remains at $0.72.</p>\n            ","response":0,"trial_type":"html-button-response","trial_index":78,"time_elapsed":323716,"internal_node_id":"0.0-4.0-1.35","subject_id":"5928c9e661fd8f00017ff206","study_id":"6197b3f67c2b5cd3b6d9596a","session_id":"619bfbde65a741b130667104","condition":"full-information","relevant_dimensions":["wings","pattern"],"bee_group":{"antennae":"X","wings":"2","pattern":"S","legs":"X"},"bonus":0.980000000000001},{"rt":1417,"stimulus":"bees-with-color/bee-A1SF.svg","response":0,"trial_type":"image-button-response","trial_index":79,"time_elapsed":325134,"internal_node_id":"0.0-4.0-0.36","subject_id":"5928c9e661fd8f00017ff206","study_id":"6197b3f67c2b5cd3b6d9596a","session_id":"619bfbde65a741b130667104","condition":"full-information","relevant_dimensions":["wings","pattern"],"bee_group":{"antennae":"X","wings":"2","pattern":"S","legs":"X"},"action":"harvest","summary":"good-harvest","bonus":0.980000000000001},{"rt":873,"stimulus":"\n                    <p><b>Action: <em>harvest</em></b></p>\n                    <p>This is the bee that you just saw.</p>\n                    <img src=\"bees-with-color/bee-A1SF.svg\" width=\"200\">\n                    <p><span class=\"greenText\"><b>Successful harvest!</b></span><br>Your pay has increased by $0.02. Your bonus pay is now $0.74.</p>\n            ","response":0,"trial_type":"html-button-response","trial_index":80,"time_elapsed":326010,"internal_node_id":"0.0-4.0-1.36","subject_id":"5928c9e661fd8f00017ff206","study_id":"6197b3f67c2b5cd3b6d9596a","session_id":"619bfbde65a741b130667104","condition":"full-information","relevant_dimensions":["wings","pattern"],"bee_group":{"antennae":"X","wings":"2","pattern":"S","legs":"X"},"bonus":0.980000000000001},{"rt":1894,"stimulus":"bees-with-color/bee-B1SM.svg","response":0,"trial_type":"image-button-response","trial_index":81,"time_elapsed":327907,"internal_node_id":"0.0-4.0-0.37","subject_id":"5928c9e661fd8f00017ff206","study_id":"6197b3f67c2b5cd3b6d9596a","session_id":"619bfbde65a741b130667104","condition":"full-information","relevant_dimensions":["wings","pattern"],"bee_group":{"antennae":"X","wings":"2","pattern":"S","legs":"X"},"action":"harvest","summary":"good-harvest","bonus":0.980000000000001},{"rt":937,"stimulus":"\n                    <p><b>Action: <em>harvest</em></b></p>\n                    <p>This is the bee that you just saw.</p>\n                    <img src=\"bees-with-color/bee-B1SM.svg\" width=\"200\">\n                    <p><span class=\"greenText\"><b>Successful harvest!</b></span><br>Your pay has increased by $0.02. Your bonus pay is now $0.76.</p>\n            ","response":0,"trial_type":"html-button-response","trial_index":82,"time_elapsed":328847,"internal_node_id":"0.0-4.0-1.37","subject_id":"5928c9e661fd8f00017ff206","study_id":"6197b3f67c2b5cd3b6d9596a","session_id":"619bfbde65a741b130667104","condition":"full-information","relevant_dimensions":["wings","pattern"],"bee_group":{"antennae":"X","wings":"2","pattern":"S","legs":"X"},"bonus":0.980000000000001},{"rt":1088,"stimulus":"bees-with-color/bee-B2DM.svg","response":0,"trial_type":"image-button-response","trial_index":83,"time_elapsed":329936,"internal_node_id":"0.0-4.0-0.38","subject_id":"5928c9e661fd8f00017ff206","study_id":"6197b3f67c2b5cd3b6d9596a","session_id":"619bfbde65a741b130667104","condition":"full-information","relevant_dimensions":["wings","pattern"],"bee_group":{"antennae":"X","wings":"2","pattern":"S","legs":"X"},"action":"harvest","summary":"good-harvest","bonus":0.980000000000001},{"rt":807,"stimulus":"\n                    <p><b>Action: <em>harvest</em></b></p>\n                    <p>This is the bee that you just saw.</p>\n                    <img src=\"bees-with-color/bee-B2DM.svg\" width=\"200\">\n                    <p><span class=\"greenText\"><b>Successful harvest!</b></span><br>Your pay has increased by $0.02. Your bonus pay is now $0.78.</p>\n            ","response":0,"trial_type":"html-button-response","trial_index":84,"time_elapsed":330746,"internal_node_id":"0.0-4.0-1.38","subject_id":"5928c9e661fd8f00017ff206","study_id":"6197b3f67c2b5cd3b6d9596a","session_id":"619bfbde65a741b130667104","condition":"full-information","relevant_dimensions":["wings","pattern"],"bee_group":{"antennae":"X","wings":"2","pattern":"S","legs":"X"},"bonus":0.980000000000001},{"rt":1306,"stimulus":"bees-with-color/bee-B1SF.svg","response":0,"trial_type":"image-button-response","trial_index":85,"time_elapsed":332055,"internal_node_id":"0.0-4.0-0.39","subject_id":"5928c9e661fd8f00017ff206","study_id":"6197b3f67c2b5cd3b6d9596a","session_id":"619bfbde65a741b130667104","condition":"full-information","relevant_dimensions":["wings","pattern"],"bee_group":{"antennae":"X","wings":"2","pattern":"S","legs":"X"},"action":"harvest","summary":"good-harvest","bonus":0.980000000000001},{"rt":913,"stimulus":"\n                    <p><b>Action: <em>harvest</em></b></p>\n                    <p>This is the bee that you just saw.</p>\n                    <img src=\"bees-with-color/bee-B1SF.svg\" width=\"200\">\n                    <p><span class=\"greenText\"><b>Successful harvest!</b></span><br>Your pay has increased by $0.02. Your bonus pay is now $0.80.</p>\n            ","response":0,"trial_type":"html-button-response","trial_index":86,"time_elapsed":332970,"internal_node_id":"0.0-4.0-1.39","subject_id":"5928c9e661fd8f00017ff206","study_id":"6197b3f67c2b5cd3b6d9596a","session_id":"619bfbde65a741b130667104","condition":"full-information","relevant_dimensions":["wings","pattern"],"bee_group":{"antennae":"X","wings":"2","pattern":"S","legs":"X"},"bonus":0.980000000000001},{"rt":1129,"stimulus":"bees-with-color/bee-A1DF.svg","response":0,"trial_type":"image-button-response","trial_index":87,"time_elapsed":334100,"internal_node_id":"0.0-4.0-0.40","subject_id":"5928c9e661fd8f00017ff206","study_id":"6197b3f67c2b5cd3b6d9596a","session_id":"619bfbde65a741b130667104","condition":"full-information","relevant_dimensions":["wings","pattern"],"bee_group":{"antennae":"X","wings":"2","pattern":"S","legs":"X"},"action":"harvest","summary":"good-harvest","bonus":0.980000000000001},{"rt":950,"stimulus":"\n                    <p><b>Action: <em>harvest</em></b></p>\n                    <p>This is the bee that you just saw.</p>\n                    <img src=\"bees-with-color/bee-A1DF.svg\" width=\"200\">\n                    <p><span class=\"greenText\"><b>Successful harvest!</b></span><br>Your pay has increased by $0.02. Your bonus pay is now $0.82.</p>\n            ","response":0,"trial_type":"html-button-response","trial_index":88,"time_elapsed":335053,"internal_node_id":"0.0-4.0-1.40","subject_id":"5928c9e661fd8f00017ff206","study_id":"6197b3f67c2b5cd3b6d9596a","session_id":"619bfbde65a741b130667104","condition":"full-information","relevant_dimensions":["wings","pattern"],"bee_group":{"antennae":"X","wings":"2","pattern":"S","legs":"X"},"bonus":0.980000000000001},{"rt":1938,"stimulus":"bees-with-color/bee-A1SM.svg","response":0,"trial_type":"image-button-response","trial_index":89,"time_elapsed":336995,"internal_node_id":"0.0-4.0-0.41","subject_id":"5928c9e661fd8f00017ff206","study_id":"6197b3f67c2b5cd3b6d9596a","session_id":"619bfbde65a741b130667104","condition":"full-information","relevant_dimensions":["wings","pattern"],"bee_group":{"antennae":"X","wings":"2","pattern":"S","legs":"X"},"action":"harvest","summary":"good-harvest","bonus":0.980000000000001},{"rt":826,"stimulus":"\n                    <p><b>Action: <em>harvest</em></b></p>\n                    <p>This is the bee that you just saw.</p>\n                    <img src=\"bees-with-color/bee-A1SM.svg\" width=\"200\">\n                    <p><span class=\"greenText\"><b>Successful harvest!</b></span><br>Your pay has increased by $0.02. Your bonus pay is now $0.84.</p>\n            ","response":0,"trial_type":"html-button-response","trial_index":90,"time_elapsed":337824,"internal_node_id":"0.0-4.0-1.41","subject_id":"5928c9e661fd8f00017ff206","study_id":"6197b3f67c2b5cd3b6d9596a","session_id":"619bfbde65a741b130667104","condition":"full-information","relevant_dimensions":["wings","pattern"],"bee_group":{"antennae":"X","wings":"2","pattern":"S","legs":"X"},"bonus":0.980000000000001},{"rt":1174,"stimulus":"bees-with-color/bee-B2DF.svg","response":0,"trial_type":"image-button-response","trial_index":91,"time_elapsed":339003,"internal_node_id":"0.0-4.0-0.42","subject_id":"5928c9e661fd8f00017ff206","study_id":"6197b3f67c2b5cd3b6d9596a","session_id":"619bfbde65a741b130667104","condition":"full-information","relevant_dimensions":["wings","pattern"],"bee_group":{"antennae":"X","wings":"2","pattern":"S","legs":"X"},"action":"harvest","summary":"good-harvest","bonus":0.980000000000001},{"rt":921,"stimulus":"\n                    <p><b>Action: <em>harvest</em></b></p>\n                    <p>This is the bee that you just saw.</p>\n                    <img src=\"bees-with-color/bee-B2DF.svg\" width=\"200\">\n                    <p><span class=\"greenText\"><b>Successful harvest!</b></span><br>Your pay has increased by $0.02. Your bonus pay is now $0.86.</p>\n            ","response":0,"trial_type":"html-button-response","trial_index":92,"time_elapsed":339927,"internal_node_id":"0.0-4.0-1.42","subject_id":"5928c9e661fd8f00017ff206","study_id":"6197b3f67c2b5cd3b6d9596a","session_id":"619bfbde65a741b130667104","condition":"full-information","relevant_dimensions":["wings","pattern"],"bee_group":{"antennae":"X","wings":"2","pattern":"S","legs":"X"},"bonus":0.980000000000001},{"rt":984,"stimulus":"bees-with-color/bee-B1DM.svg","response":0,"trial_type":"image-button-response","trial_index":93,"time_elapsed":340915,"internal_node_id":"0.0-4.0-0.43","subject_id":"5928c9e661fd8f00017ff206","study_id":"6197b3f67c2b5cd3b6d9596a","session_id":"619bfbde65a741b130667104","condition":"full-information","relevant_dimensions":["wings","pattern"],"bee_group":{"antennae":"X","wings":"2","pattern":"S","legs":"X"},"action":"harvest","summary":"good-harvest","bonus":0.980000000000001},{"rt":932,"stimulus":"\n                    <p><b>Action: <em>harvest</em></b></p>\n                    <p>This is the bee that you just saw.</p>\n                    <img src=\"bees-with-color/bee-B1DM.svg\" width=\"200\">\n                    <p><span class=\"greenText\"><b>Successful harvest!</b></span><br>Your pay has increased by $0.02. Your bonus pay is now $0.88.</p>\n            ","response":0,"trial_type":"html-button-response","trial_index":94,"time_elapsed":341848,"internal_node_id":"0.0-4.0-1.43","subject_id":"5928c9e661fd8f00017ff206","study_id":"6197b3f67c2b5cd3b6d9596a","session_id":"619bfbde65a741b130667104","condition":"full-information","relevant_dimensions":["wings","pattern"],"bee_group":{"antennae":"X","wings":"2","pattern":"S","legs":"X"},"bonus":0.980000000000001},{"rt":1078,"stimulus":"bees-with-color/bee-B1DF.svg","response":0,"trial_type":"image-button-response","trial_index":95,"time_elapsed":342930,"internal_node_id":"0.0-4.0-0.44","subject_id":"5928c9e661fd8f00017ff206","study_id":"6197b3f67c2b5cd3b6d9596a","session_id":"619bfbde65a741b130667104","condition":"full-information","relevant_dimensions":["wings","pattern"],"bee_group":{"antennae":"X","wings":"2","pattern":"S","legs":"X"},"action":"harvest","summary":"good-harvest","bonus":0.980000000000001},{"rt":975,"stimulus":"\n                    <p><b>Action: <em>harvest</em></b></p>\n                    <p>This is the bee that you just saw.</p>\n                    <img src=\"bees-with-color/bee-B1DF.svg\" width=\"200\">\n                    <p><span class=\"greenText\"><b>Successful harvest!</b></span><br>Your pay has increased by $0.02. Your bonus pay is now $0.90.</p>\n            ","response":0,"trial_type":"html-button-response","trial_index":96,"time_elapsed":343906,"internal_node_id":"0.0-4.0-1.44","subject_id":"5928c9e661fd8f00017ff206","study_id":"6197b3f67c2b5cd3b6d9596a","session_id":"619bfbde65a741b130667104","condition":"full-information","relevant_dimensions":["wings","pattern"],"bee_group":{"antennae":"X","wings":"2","pattern":"S","legs":"X"},"bonus":0.980000000000001},{"rt":2978,"stimulus":"bees-with-color/bee-A2SM.svg","response":1,"trial_type":"image-button-response","trial_index":97,"time_elapsed":346888,"internal_node_id":"0.0-4.0-0.45","subject_id":"5928c9e661fd8f00017ff206","study_id":"6197b3f67c2b5cd3b6d9596a","session_id":"619bfbde65a741b130667104","condition":"full-information","relevant_dimensions":["wings","pattern"],"bee_group":{"antennae":"X","wings":"2","pattern":"S","legs":"X"},"action":"avoid","summary":"good-avoid","bonus":0.980000000000001},{"rt":1147,"stimulus":"\n                    <p><b>Action: <em>avoid</em></b></p>\n                    <p>This is the bee that you just saw.</p>\n                    <img src=\"bees-with-color/bee-A2SM.svg\" width=\"200\">\n                    <p><span class=\"greenText\">Good choice!</span>  This bee would have stung you.<br>Your bonus pay is unchanged, and remains at $0.90.</p>\n            ","response":0,"trial_type":"html-button-response","trial_index":98,"time_elapsed":348037,"internal_node_id":"0.0-4.0-1.45","subject_id":"5928c9e661fd8f00017ff206","study_id":"6197b3f67c2b5cd3b6d9596a","session_id":"619bfbde65a741b130667104","condition":"full-information","relevant_dimensions":["wings","pattern"],"bee_group":{"antennae":"X","wings":"2","pattern":"S","legs":"X"},"bonus":0.980000000000001},{"rt":996,"stimulus":"bees-with-color/bee-A1DM.svg","response":0,"trial_type":"image-button-response","trial_index":99,"time_elapsed":349036,"internal_node_id":"0.0-4.0-0.46","subject_id":"5928c9e661fd8f00017ff206","study_id":"6197b3f67c2b5cd3b6d9596a","session_id":"619bfbde65a741b130667104","condition":"full-information","relevant_dimensions":["wings","pattern"],"bee_group":{"antennae":"X","wings":"2","pattern":"S","legs":"X"},"action":"harvest","summary":"good-harvest","bonus":0.980000000000001},{"rt":949,"stimulus":"\n                    <p><b>Action: <em>harvest</em></b></p>\n                    <p>This is the bee that you just saw.</p>\n                    <img src=\"bees-with-color/bee-A1DM.svg\" width=\"200\">\n                    <p><span class=\"greenText\"><b>Successful harvest!</b></span><br>Your pay has increased by $0.02. Your bonus pay is now $0.92.</p>\n            ","response":0,"trial_type":"html-button-response","trial_index":100,"time_elapsed":349988,"internal_node_id":"0.0-4.0-1.46","subject_id":"5928c9e661fd8f00017ff206","study_id":"6197b3f67c2b5cd3b6d9596a","session_id":"619bfbde65a741b130667104","condition":"full-information","relevant_dimensions":["wings","pattern"],"bee_group":{"antennae":"X","wings":"2","pattern":"S","legs":"X"},"bonus":0.980000000000001},{"rt":2537,"stimulus":"bees-with-color/bee-A2SF.svg","response":1,"trial_type":"image-button-response","trial_index":101,"time_elapsed":352526,"internal_node_id":"0.0-4.0-0.47","subject_id":"5928c9e661fd8f00017ff206","study_id":"6197b3f67c2b5cd3b6d9596a","session_id":"619bfbde65a741b130667104","condition":"full-information","relevant_dimensions":["wings","pattern"],"bee_group":{"antennae":"X","wings":"2","pattern":"S","legs":"X"},"action":"avoid","summary":"good-avoid","bonus":0.980000000000001},{"rt":1076,"stimulus":"\n                    <p><b>Action: <em>avoid</em></b></p>\n                    <p>This is the bee that you just saw.</p>\n                    <img src=\"bees-with-color/bee-A2SF.svg\" width=\"200\">\n                    <p><span class=\"greenText\">Good choice!</span>  This bee would have stung you.<br>Your bonus pay is unchanged, and remains at $0.92.</p>\n            ","response":0,"trial_type":"html-button-response","trial_index":102,"time_elapsed":353604,"internal_node_id":"0.0-4.0-1.47","subject_id":"5928c9e661fd8f00017ff206","study_id":"6197b3f67c2b5cd3b6d9596a","session_id":"619bfbde65a741b130667104","condition":"full-information","relevant_dimensions":["wings","pattern"],"bee_group":{"antennae":"X","wings":"2","pattern":"S","legs":"X"},"bonus":0.980000000000001},{"rt":978,"stimulus":"bees-with-color/bee-A2DF.svg","response":0,"trial_type":"image-button-response","trial_index":103,"time_elapsed":354586,"internal_node_id":"0.0-4.0-0.48","subject_id":"5928c9e661fd8f00017ff206","study_id":"6197b3f67c2b5cd3b6d9596a","session_id":"619bfbde65a741b130667104","condition":"full-information","relevant_dimensions":["wings","pattern"],"bee_group":{"antennae":"X","wings":"2","pattern":"S","legs":"X"},"action":"harvest","summary":"good-harvest","bonus":0.980000000000001},{"rt":1407,"stimulus":"\n                    <p><b>Action: <em>harvest</em></b></p>\n                    <p>This is the bee that you just saw.</p>\n                    <img src=\"bees-with-color/bee-A2DF.svg\" width=\"200\">\n                    <p><span class=\"greenText\"><b>Successful harvest!</b></span><br>Your pay has increased by $0.02. Your bonus pay is now $0.94.</p>\n            ","response":0,"trial_type":"html-button-response","trial_index":104,"time_elapsed":355996,"internal_node_id":"0.0-4.0-1.48","subject_id":"5928c9e661fd8f00017ff206","study_id":"6197b3f67c2b5cd3b6d9596a","session_id":"619bfbde65a741b130667104","condition":"full-information","relevant_dimensions":["wings","pattern"],"bee_group":{"antennae":"X","wings":"2","pattern":"S","legs":"X"},"bonus":0.980000000000001},{"rt":1280,"stimulus":"bees-with-color/bee-B1DF.svg","response":0,"trial_type":"image-button-response","trial_index":105,"time_elapsed":357278,"internal_node_id":"0.0-4.0-0.49","subject_id":"5928c9e661fd8f00017ff206","study_id":"6197b3f67c2b5cd3b6d9596a","session_id":"619bfbde65a741b130667104","condition":"full-information","relevant_dimensions":["wings","pattern"],"bee_group":{"antennae":"X","wings":"2","pattern":"S","legs":"X"},"action":"harvest","summary":"good-harvest","bonus":0.980000000000001},{"rt":1270,"stimulus":"\n                    <p><b>Action: <em>harvest</em></b></p>\n                    <p>This is the bee that you just saw.</p>\n                    <img src=\"bees-with-color/bee-B1DF.svg\" width=\"200\">\n                    <p><span class=\"greenText\"><b>Successful harvest!</b></span><br>Your pay has increased by $0.02. Your bonus pay is now $0.96.</p>\n            ","response":0,"trial_type":"html-button-response","trial_index":106,"time_elapsed":358551,"internal_node_id":"0.0-4.0-1.49","subject_id":"5928c9e661fd8f00017ff206","study_id":"6197b3f67c2b5cd3b6d9596a","session_id":"619bfbde65a741b130667104","condition":"full-information","relevant_dimensions":["wings","pattern"],"bee_group":{"antennae":"X","wings":"2","pattern":"S","legs":"X"},"bonus":0.980000000000001},{"rt":2296,"stimulus":"bees-with-color/bee-A2SF.svg","response":1,"trial_type":"image-button-response","trial_index":107,"time_elapsed":360849,"internal_node_id":"0.0-4.0-0.50","subject_id":"5928c9e661fd8f00017ff206","study_id":"6197b3f67c2b5cd3b6d9596a","session_id":"619bfbde65a741b130667104","condition":"full-information","relevant_dimensions":["wings","pattern"],"bee_group":{"antennae":"X","wings":"2","pattern":"S","legs":"X"},"action":"avoid","summary":"good-avoid","bonus":0.980000000000001},{"rt":1017,"stimulus":"\n                    <p><b>Action: <em>avoid</em></b></p>\n                    <p>This is the bee that you just saw.</p>\n                    <img src=\"bees-with-color/bee-A2SF.svg\" width=\"200\">\n                    <p><span class=\"greenText\">Good choice!</span>  This bee would have stung you.<br>Your bonus pay is unchanged, and remains at $0.96.</p>\n            ","response":0,"trial_type":"html-button-response","trial_index":108,"time_elapsed":361869,"internal_node_id":"0.0-4.0-1.50","subject_id":"5928c9e661fd8f00017ff206","study_id":"6197b3f67c2b5cd3b6d9596a","session_id":"619bfbde65a741b130667104","condition":"full-information","relevant_dimensions":["wings","pattern"],"bee_group":{"antennae":"X","wings":"2","pattern":"S","legs":"X"},"bonus":0.980000000000001},{"rt":1125,"stimulus":"bees-with-color/bee-A1SF.svg","response":0,"trial_type":"image-button-response","trial_index":109,"time_elapsed":362997,"internal_node_id":"0.0-4.0-0.51","subject_id":"5928c9e661fd8f00017ff206","study_id":"6197b3f67c2b5cd3b6d9596a","session_id":"619bfbde65a741b130667104","condition":"full-information","relevant_dimensions":["wings","pattern"],"bee_group":{"antennae":"X","wings":"2","pattern":"S","legs":"X"},"action":"harvest","summary":"good-harvest","bonus":0.980000000000001},{"rt":773,"stimulus":"\n                    <p><b>Action: <em>harvest</em></b></p>\n                    <p>This is the bee that you just saw.</p>\n                    <img src=\"bees-with-color/bee-A1SF.svg\" width=\"200\">\n                    <p><span class=\"greenText\"><b>Successful harvest!</b></span><br>Your pay has increased by $0.02. Your bonus pay is now $0.98.</p>\n            ","response":0,"trial_type":"html-button-response","trial_index":110,"time_elapsed":363775,"internal_node_id":"0.0-4.0-1.51","subject_id":"5928c9e661fd8f00017ff206","study_id":"6197b3f67c2b5cd3b6d9596a","session_id":"619bfbde65a741b130667104","condition":"full-information","relevant_dimensions":["wings","pattern"],"bee_group":{"antennae":"X","wings":"2","pattern":"S","legs":"X"},"bonus":0.980000000000001},{"rt":998,"stimulus":"bees-with-color/bee-B2DM.svg","response":0,"trial_type":"image-button-response","trial_index":111,"time_elapsed":364776,"internal_node_id":"0.0-4.0-0.52","subject_id":"5928c9e661fd8f00017ff206","study_id":"6197b3f67c2b5cd3b6d9596a","session_id":"619bfbde65a741b130667104","condition":"full-information","relevant_dimensions":["wings","pattern"],"bee_group":{"antennae":"X","wings":"2","pattern":"S","legs":"X"},"action":"harvest","summary":"good-harvest","bonus":0.980000000000001},{"rt":1368,"stimulus":"\n                    <p><b>Action: <em>harvest</em></b></p>\n                    <p>This is the bee that you just saw.</p>\n                    <img src=\"bees-with-color/bee-B2DM.svg\" width=\"200\">\n                    <p><span class=\"greenText\"><b>Successful harvest!</b></span><br>Your pay has increased by $0.02. Your bonus pay is now $1.00.</p>\n            ","response":0,"trial_type":"html-button-response","trial_index":112,"time_elapsed":366147,"internal_node_id":"0.0-4.0-1.52","subject_id":"5928c9e661fd8f00017ff206","study_id":"6197b3f67c2b5cd3b6d9596a","session_id":"619bfbde65a741b130667104","condition":"full-information","relevant_dimensions":["wings","pattern"],"bee_group":{"antennae":"X","wings":"2","pattern":"S","legs":"X"},"bonus":0.980000000000001},{"rt":1007,"stimulus":"bees-with-color/bee-A1DM.svg","response":0,"trial_type":"image-button-response","trial_index":113,"time_elapsed":367156,"internal_node_id":"0.0-4.0-0.53","subject_id":"5928c9e661fd8f00017ff206","study_id":"6197b3f67c2b5cd3b6d9596a","session_id":"619bfbde65a741b130667104","condition":"full-information","relevant_dimensions":["wings","pattern"],"bee_group":{"antennae":"X","wings":"2","pattern":"S","legs":"X"},"action":"harvest","summary":"good-harvest","bonus":0.980000000000001},{"rt":879,"stimulus":"\n                    <p><b>Action: <em>harvest</em></b></p>\n                    <p>This is the bee that you just saw.</p>\n                    <img src=\"bees-with-color/bee-A1DM.svg\" width=\"200\">\n                    <p><span class=\"greenText\"><b>Successful harvest!</b></span><br>Your pay has increased by $0.02. Your bonus pay is now $1.02.</p>\n            ","response":0,"trial_type":"html-button-response","trial_index":114,"time_elapsed":368037,"internal_node_id":"0.0-4.0-1.53","subject_id":"5928c9e661fd8f00017ff206","study_id":"6197b3f67c2b5cd3b6d9596a","session_id":"619bfbde65a741b130667104","condition":"full-information","relevant_dimensions":["wings","pattern"],"bee_group":{"antennae":"X","wings":"2","pattern":"S","legs":"X"},"bonus":0.980000000000001},{"rt":1757,"stimulus":"bees-with-color/bee-A2SM.svg","response":1,"trial_type":"image-button-response","trial_index":115,"time_elapsed":369796,"internal_node_id":"0.0-4.0-0.54","subject_id":"5928c9e661fd8f00017ff206","study_id":"6197b3f67c2b5cd3b6d9596a","session_id":"619bfbde65a741b130667104","condition":"full-information","relevant_dimensions":["wings","pattern"],"bee_group":{"antennae":"X","wings":"2","pattern":"S","legs":"X"},"action":"avoid","summary":"good-avoid","bonus":0.980000000000001},{"rt":925,"stimulus":"\n                    <p><b>Action: <em>avoid</em></b></p>\n                    <p>This is the bee that you just saw.</p>\n                    <img src=\"bees-with-color/bee-A2SM.svg\" width=\"200\">\n                    <p><span class=\"greenText\">Good choice!</span>  This bee would have stung you.<br>Your bonus pay is unchanged, and remains at $1.02.</p>\n            ","response":0,"trial_type":"html-button-response","trial_index":116,"time_elapsed":370722,"internal_node_id":"0.0-4.0-1.54","subject_id":"5928c9e661fd8f00017ff206","study_id":"6197b3f67c2b5cd3b6d9596a","session_id":"619bfbde65a741b130667104","condition":"full-information","relevant_dimensions":["wings","pattern"],"bee_group":{"antennae":"X","wings":"2","pattern":"S","legs":"X"},"bonus":0.980000000000001},{"rt":1049,"stimulus":"bees-with-color/bee-B2DF.svg","response":0,"trial_type":"image-button-response","trial_index":117,"time_elapsed":371775,"internal_node_id":"0.0-4.0-0.55","subject_id":"5928c9e661fd8f00017ff206","study_id":"6197b3f67c2b5cd3b6d9596a","session_id":"619bfbde65a741b130667104","condition":"full-information","relevant_dimensions":["wings","pattern"],"bee_group":{"antennae":"X","wings":"2","pattern":"S","legs":"X"},"action":"harvest","summary":"good-harvest","bonus":0.980000000000001},{"rt":844,"stimulus":"\n                    <p><b>Action: <em>harvest</em></b></p>\n                    <p>This is the bee that you just saw.</p>\n                    <img src=\"bees-with-color/bee-B2DF.svg\" width=\"200\">\n                    <p><span class=\"greenText\"><b>Successful harvest!</b></span><br>Your pay has increased by $0.02. Your bonus pay is now $1.04.</p>\n            ","response":0,"trial_type":"html-button-response","trial_index":118,"time_elapsed":372620,"internal_node_id":"0.0-4.0-1.55","subject_id":"5928c9e661fd8f00017ff206","study_id":"6197b3f67c2b5cd3b6d9596a","session_id":"619bfbde65a741b130667104","condition":"full-information","relevant_dimensions":["wings","pattern"],"bee_group":{"antennae":"X","wings":"2","pattern":"S","legs":"X"},"bonus":0.980000000000001},{"rt":2514,"stimulus":"bees-with-color/bee-B2SM.svg","response":1,"trial_type":"image-button-response","trial_index":119,"time_elapsed":375136,"internal_node_id":"0.0-4.0-0.56","subject_id":"5928c9e661fd8f00017ff206","study_id":"6197b3f67c2b5cd3b6d9596a","session_id":"619bfbde65a741b130667104","condition":"full-information","relevant_dimensions":["wings","pattern"],"bee_group":{"antennae":"X","wings":"2","pattern":"S","legs":"X"},"action":"avoid","summary":"good-avoid","bonus":0.980000000000001},{"rt":908,"stimulus":"\n                    <p><b>Action: <em>avoid</em></b></p>\n                    <p>This is the bee that you just saw.</p>\n                    <img src=\"bees-with-color/bee-B2SM.svg\" width=\"200\">\n                    <p><span class=\"greenText\">Good choice!</span>  This bee would have stung you.<br>Your bonus pay is unchanged, and remains at $1.04.</p>\n            ","response":0,"trial_type":"html-button-response","trial_index":120,"time_elapsed":376047,"internal_node_id":"0.0-4.0-1.56","subject_id":"5928c9e661fd8f00017ff206","study_id":"6197b3f67c2b5cd3b6d9596a","session_id":"619bfbde65a741b130667104","condition":"full-information","relevant_dimensions":["wings","pattern"],"bee_group":{"antennae":"X","wings":"2","pattern":"S","legs":"X"},"bonus":0.980000000000001},{"rt":1727,"stimulus":"bees-with-color/bee-A1SM.svg","response":0,"trial_type":"image-button-response","trial_index":121,"time_elapsed":377778,"internal_node_id":"0.0-4.0-0.57","subject_id":"5928c9e661fd8f00017ff206","study_id":"6197b3f67c2b5cd3b6d9596a","session_id":"619bfbde65a741b130667104","condition":"full-information","relevant_dimensions":["wings","pattern"],"bee_group":{"antennae":"X","wings":"2","pattern":"S","legs":"X"},"action":"harvest","summary":"good-harvest","bonus":0.980000000000001},{"rt":784,"stimulus":"\n                    <p><b>Action: <em>harvest</em></b></p>\n                    <p>This is the bee that you just saw.</p>\n                    <img src=\"bees-with-color/bee-A1SM.svg\" width=\"200\">\n                    <p><span class=\"greenText\"><b>Successful harvest!</b></span><br>Your pay has increased by $0.02. Your bonus pay is now $1.06.</p>\n            ","response":0,"trial_type":"html-button-response","trial_index":122,"time_elapsed":378564,"internal_node_id":"0.0-4.0-1.57","subject_id":"5928c9e661fd8f00017ff206","study_id":"6197b3f67c2b5cd3b6d9596a","session_id":"619bfbde65a741b130667104","condition":"full-information","relevant_dimensions":["wings","pattern"],"bee_group":{"antennae":"X","wings":"2","pattern":"S","legs":"X"},"bonus":0.980000000000001},{"rt":1393,"stimulus":"bees-with-color/bee-B1DM.svg","response":0,"trial_type":"image-button-response","trial_index":123,"time_elapsed":379960,"internal_node_id":"0.0-4.0-0.58","subject_id":"5928c9e661fd8f00017ff206","study_id":"6197b3f67c2b5cd3b6d9596a","session_id":"619bfbde65a741b130667104","condition":"full-information","relevant_dimensions":["wings","pattern"],"bee_group":{"antennae":"X","wings":"2","pattern":"S","legs":"X"},"action":"harvest","summary":"good-harvest","bonus":0.980000000000001},{"rt":887,"stimulus":"\n                    <p><b>Action: <em>harvest</em></b></p>\n                    <p>This is the bee that you just saw.</p>\n                    <img src=\"bees-with-color/bee-B1DM.svg\" width=\"200\">\n                    <p><span class=\"greenText\"><b>Successful harvest!</b></span><br>Your pay has increased by $0.02. Your bonus pay is now $1.08.</p>\n            ","response":0,"trial_type":"html-button-response","trial_index":124,"time_elapsed":380848,"internal_node_id":"0.0-4.0-1.58","subject_id":"5928c9e661fd8f00017ff206","study_id":"6197b3f67c2b5cd3b6d9596a","session_id":"619bfbde65a741b130667104","condition":"full-information","relevant_dimensions":["wings","pattern"],"bee_group":{"antennae":"X","wings":"2","pattern":"S","legs":"X"},"bonus":0.980000000000001},{"rt":1285,"stimulus":"bees-with-color/bee-B1SF.svg","response":0,"trial_type":"image-button-response","trial_index":125,"time_elapsed":382136,"internal_node_id":"0.0-4.0-0.59","subject_id":"5928c9e661fd8f00017ff206","study_id":"6197b3f67c2b5cd3b6d9596a","session_id":"619bfbde65a741b130667104","condition":"full-information","relevant_dimensions":["wings","pattern"],"bee_group":{"antennae":"X","wings":"2","pattern":"S","legs":"X"},"action":"harvest","summary":"good-harvest","bonus":0.980000000000001},{"rt":849,"stimulus":"\n                    <p><b>Action: <em>harvest</em></b></p>\n                    <p>This is the bee that you just saw.</p>\n                    <img src=\"bees-with-color/bee-B1SF.svg\" width=\"200\">\n                    <p><span class=\"greenText\"><b>Successful harvest!</b></span><br>Your pay has increased by $0.02. Your bonus pay is now $1.10.</p>\n            ","response":0,"trial_type":"html-button-response","trial_index":126,"time_elapsed":382988,"internal_node_id":"0.0-4.0-1.59","subject_id":"5928c9e661fd8f00017ff206","study_id":"6197b3f67c2b5cd3b6d9596a","session_id":"619bfbde65a741b130667104","condition":"full-information","relevant_dimensions":["wings","pattern"],"bee_group":{"antennae":"X","wings":"2","pattern":"S","legs":"X"},"bonus":0.980000000000001},{"rt":1829,"stimulus":"bees-with-color/bee-B2SF.svg","response":1,"trial_type":"image-button-response","trial_index":127,"time_elapsed":384820,"internal_node_id":"0.0-4.0-0.60","subject_id":"5928c9e661fd8f00017ff206","study_id":"6197b3f67c2b5cd3b6d9596a","session_id":"619bfbde65a741b130667104","condition":"full-information","relevant_dimensions":["wings","pattern"],"bee_group":{"antennae":"X","wings":"2","pattern":"S","legs":"X"},"action":"avoid","summary":"good-avoid","bonus":0.980000000000001},{"rt":1029,"stimulus":"\n                    <p><b>Action: <em>avoid</em></b></p>\n                    <p>This is the bee that you just saw.</p>\n                    <img src=\"bees-with-color/bee-B2SF.svg\" width=\"200\">\n                    <p><span class=\"greenText\">Good choice!</span>  This bee would have stung you.<br>Your bonus pay is unchanged, and remains at $1.10.</p>\n            ","response":0,"trial_type":"html-button-response","trial_index":128,"time_elapsed":385852,"internal_node_id":"0.0-4.0-1.60","subject_id":"5928c9e661fd8f00017ff206","study_id":"6197b3f67c2b5cd3b6d9596a","session_id":"619bfbde65a741b130667104","condition":"full-information","relevant_dimensions":["wings","pattern"],"bee_group":{"antennae":"X","wings":"2","pattern":"S","legs":"X"},"bonus":0.980000000000001},{"rt":1353,"stimulus":"bees-with-color/bee-B1SM.svg","response":0,"trial_type":"image-button-response","trial_index":129,"time_elapsed":387205,"internal_node_id":"0.0-4.0-0.61","subject_id":"5928c9e661fd8f00017ff206","study_id":"6197b3f67c2b5cd3b6d9596a","session_id":"619bfbde65a741b130667104","condition":"full-information","relevant_dimensions":["wings","pattern"],"bee_group":{"antennae":"X","wings":"2","pattern":"S","legs":"X"},"action":"harvest","summary":"good-harvest","bonus":0.980000000000001},{"rt":850,"stimulus":"\n                    <p><b>Action: <em>harvest</em></b></p>\n                    <p>This is the bee that you just saw.</p>\n                    <img src=\"bees-with-color/bee-B1SM.svg\" width=\"200\">\n                    <p><span class=\"greenText\"><b>Successful harvest!</b></span><br>Your pay has increased by $0.02. Your bonus pay is now $1.12.</p>\n            ","response":0,"trial_type":"html-button-response","trial_index":130,"time_elapsed":388057,"internal_node_id":"0.0-4.0-1.61","subject_id":"5928c9e661fd8f00017ff206","study_id":"6197b3f67c2b5cd3b6d9596a","session_id":"619bfbde65a741b130667104","condition":"full-information","relevant_dimensions":["wings","pattern"],"bee_group":{"antennae":"X","wings":"2","pattern":"S","legs":"X"},"bonus":0.980000000000001},{"rt":1324,"stimulus":"bees-with-color/bee-A2DM.svg","response":0,"trial_type":"image-button-response","trial_index":131,"time_elapsed":389383,"internal_node_id":"0.0-4.0-0.62","subject_id":"5928c9e661fd8f00017ff206","study_id":"6197b3f67c2b5cd3b6d9596a","session_id":"619bfbde65a741b130667104","condition":"full-information","relevant_dimensions":["wings","pattern"],"bee_group":{"antennae":"X","wings":"2","pattern":"S","legs":"X"},"action":"harvest","summary":"good-harvest","bonus":0.980000000000001},{"rt":855,"stimulus":"\n                    <p><b>Action: <em>harvest</em></b></p>\n                    <p>This is the bee that you just saw.</p>\n                    <img src=\"bees-with-color/bee-A2DM.svg\" width=\"200\">\n                    <p><span class=\"greenText\"><b>Successful harvest!</b></span><br>Your pay has increased by $0.02. Your bonus pay is now $1.14.</p>\n            ","response":0,"trial_type":"html-button-response","trial_index":132,"time_elapsed":390241,"internal_node_id":"0.0-4.0-1.62","subject_id":"5928c9e661fd8f00017ff206","study_id":"6197b3f67c2b5cd3b6d9596a","session_id":"619bfbde65a741b130667104","condition":"full-information","relevant_dimensions":["wings","pattern"],"bee_group":{"antennae":"X","wings":"2","pattern":"S","legs":"X"},"bonus":0.980000000000001},{"rt":1205,"stimulus":"bees-with-color/bee-A1DF.svg","response":0,"trial_type":"image-button-response","trial_index":133,"time_elapsed":391449,"internal_node_id":"0.0-4.0-0.63","subject_id":"5928c9e661fd8f00017ff206","study_id":"6197b3f67c2b5cd3b6d9596a","session_id":"619bfbde65a741b130667104","condition":"full-information","relevant_dimensions":["wings","pattern"],"bee_group":{"antennae":"X","wings":"2","pattern":"S","legs":"X"},"action":"harvest","summary":"good-harvest","bonus":0.980000000000001},{"rt":969,"stimulus":"\n                    <p><b>Action: <em>harvest</em></b></p>\n                    <p>This is the bee that you just saw.</p>\n                    <img src=\"bees-with-color/bee-A1DF.svg\" width=\"200\">\n                    <p><span class=\"greenText\"><b>Successful harvest!</b></span><br>Your pay has increased by $0.02. Your bonus pay is now $1.16.</p>\n            ","response":0,"trial_type":"html-button-response","trial_index":134,"time_elapsed":392422,"internal_node_id":"0.0-4.0-1.63","subject_id":"5928c9e661fd8f00017ff206","study_id":"6197b3f67c2b5cd3b6d9596a","session_id":"619bfbde65a741b130667104","condition":"full-information","relevant_dimensions":["wings","pattern"],"bee_group":{"antennae":"X","wings":"2","pattern":"S","legs":"X"},"bonus":0.980000000000001},{"rt":7708,"stimulus":"You have completed the first part of this experiment.<br><br>You will now begin a shorter second part, in which you will receive no feedback.<br>The same rules regarding bonus pay apply.<br><br>Press any key to begin.","response":"arrowright","trial_type":"html-keyboard-response","trial_index":135,"time_elapsed":400133,"internal_node_id":"0.0-5.0","subject_id":"5928c9e661fd8f00017ff206","study_id":"6197b3f67c2b5cd3b6d9596a","session_id":"619bfbde65a741b130667104","condition":"full-information","relevant_dimensions":["wings","pattern"],"bee_group":{"antennae":"X","wings":"2","pattern":"S","legs":"X"},"bonus":0.980000000000001},{"rt":3149,"stimulus":"bees-with-color/bee-A2SF.svg","response":0,"trial_type":"image-button-response","trial_index":136,"time_elapsed":403285,"internal_node_id":"0.0-6.0-0.0","subject_id":"5928c9e661fd8f00017ff206","study_id":"6197b3f67c2b5cd3b6d9596a","session_id":"619bfbde65a741b130667104","condition":"full-information","relevant_dimensions":["wings","pattern"],"bee_group":{"antennae":"X","wings":"2","pattern":"S","legs":"X"},"bonus":0.980000000000001},{"rt":2490,"stimulus":"bees-with-color/bee-B1SF.svg","response":1,"trial_type":"image-button-response","trial_index":137,"time_elapsed":405779,"internal_node_id":"0.0-6.0-0.1","subject_id":"5928c9e661fd8f00017ff206","study_id":"6197b3f67c2b5cd3b6d9596a","session_id":"619bfbde65a741b130667104","condition":"full-information","relevant_dimensions":["wings","pattern"],"bee_group":{"antennae":"X","wings":"2","pattern":"S","legs":"X"},"bonus":0.980000000000001},{"rt":1853,"stimulus":"bees-with-color/bee-A1SF.svg","response":0,"trial_type":"image-button-response","trial_index":138,"time_elapsed":407633,"internal_node_id":"0.0-6.0-0.2","subject_id":"5928c9e661fd8f00017ff206","study_id":"6197b3f67c2b5cd3b6d9596a","session_id":"619bfbde65a741b130667104","condition":"full-information","relevant_dimensions":["wings","pattern"],"bee_group":{"antennae":"X","wings":"2","pattern":"S","legs":"X"},"bonus":0.980000000000001},{"rt":1287,"stimulus":"bees-with-color/bee-A2DM.svg","response":0,"trial_type":"image-button-response","trial_index":139,"time_elapsed":408921,"internal_node_id":"0.0-6.0-0.3","subject_id":"5928c9e661fd8f00017ff206","study_id":"6197b3f67c2b5cd3b6d9596a","session_id":"619bfbde65a741b130667104","condition":"full-information","relevant_dimensions":["wings","pattern"],"bee_group":{"antennae":"X","wings":"2","pattern":"S","legs":"X"},"bonus":0.980000000000001},{"rt":797,"stimulus":"bees-with-color/bee-A2DF.svg","response":0,"trial_type":"image-button-response","trial_index":140,"time_elapsed":409722,"internal_node_id":"0.0-6.0-0.4","subject_id":"5928c9e661fd8f00017ff206","study_id":"6197b3f67c2b5cd3b6d9596a","session_id":"619bfbde65a741b130667104","condition":"full-information","relevant_dimensions":["wings","pattern"],"bee_group":{"antennae":"X","wings":"2","pattern":"S","legs":"X"},"bonus":0.980000000000001},{"rt":783,"stimulus":"bees-with-color/bee-B2DF.svg","response":0,"trial_type":"image-button-response","trial_index":141,"time_elapsed":410507,"internal_node_id":"0.0-6.0-0.5","subject_id":"5928c9e661fd8f00017ff206","study_id":"6197b3f67c2b5cd3b6d9596a","session_id":"619bfbde65a741b130667104","condition":"full-information","relevant_dimensions":["wings","pattern"],"bee_group":{"antennae":"X","wings":"2","pattern":"S","legs":"X"},"bonus":0.980000000000001},{"rt":872,"stimulus":"bees-with-color/bee-B2SM.svg","response":0,"trial_type":"image-button-response","trial_index":142,"time_elapsed":411381,"internal_node_id":"0.0-6.0-0.6","subject_id":"5928c9e661fd8f00017ff206","study_id":"6197b3f67c2b5cd3b6d9596a","session_id":"619bfbde65a741b130667104","condition":"full-information","relevant_dimensions":["wings","pattern"],"bee_group":{"antennae":"X","wings":"2","pattern":"S","legs":"X"},"bonus":0.980000000000001},{"rt":897,"stimulus":"bees-with-color/bee-A1SM.svg","response":0,"trial_type":"image-button-response","trial_index":143,"time_elapsed":412282,"internal_node_id":"0.0-6.0-0.7","subject_id":"5928c9e661fd8f00017ff206","study_id":"6197b3f67c2b5cd3b6d9596a","session_id":"619bfbde65a741b130667104","condition":"full-information","relevant_dimensions":["wings","pattern"],"bee_group":{"antennae":"X","wings":"2","pattern":"S","legs":"X"},"bonus":0.980000000000001},{"rt":1292,"stimulus":"bees-with-color/bee-B1SM.svg","response":1,"trial_type":"image-button-response","trial_index":144,"time_elapsed":413576,"internal_node_id":"0.0-6.0-0.8","subject_id":"5928c9e661fd8f00017ff206","study_id":"6197b3f67c2b5cd3b6d9596a","session_id":"619bfbde65a741b130667104","condition":"full-information","relevant_dimensions":["wings","pattern"],"bee_group":{"antennae":"X","wings":"2","pattern":"S","legs":"X"},"bonus":0.980000000000001},{"rt":1491,"stimulus":"bees-with-color/bee-B1DF.svg","response":0,"trial_type":"image-button-response","trial_index":145,"time_elapsed":415068,"internal_node_id":"0.0-6.0-0.9","subject_id":"5928c9e661fd8f00017ff206","study_id":"6197b3f67c2b5cd3b6d9596a","session_id":"619bfbde65a741b130667104","condition":"full-information","relevant_dimensions":["wings","pattern"],"bee_group":{"antennae":"X","wings":"2","pattern":"S","legs":"X"},"bonus":0.980000000000001},{"rt":684,"stimulus":"bees-with-color/bee-B2DM.svg","response":0,"trial_type":"image-button-response","trial_index":146,"time_elapsed":415753,"internal_node_id":"0.0-6.0-0.10","subject_id":"5928c9e661fd8f00017ff206","study_id":"6197b3f67c2b5cd3b6d9596a","session_id":"619bfbde65a741b130667104","condition":"full-information","relevant_dimensions":["wings","pattern"],"bee_group":{"antennae":"X","wings":"2","pattern":"S","legs":"X"},"bonus":0.980000000000001},{"rt":555,"stimulus":"bees-with-color/bee-A1DM.svg","response":0,"trial_type":"image-button-response","trial_index":147,"time_elapsed":416313,"internal_node_id":"0.0-6.0-0.11","subject_id":"5928c9e661fd8f00017ff206","study_id":"6197b3f67c2b5cd3b6d9596a","session_id":"619bfbde65a741b130667104","condition":"full-information","relevant_dimensions":["wings","pattern"],"bee_group":{"antennae":"X","wings":"2","pattern":"S","legs":"X"},"bonus":0.980000000000001},{"rt":448,"stimulus":"bees-with-color/bee-B1DM.svg","response":0,"trial_type":"image-button-response","trial_index":148,"time_elapsed":416763,"internal_node_id":"0.0-6.0-0.12","subject_id":"5928c9e661fd8f00017ff206","study_id":"6197b3f67c2b5cd3b6d9596a","session_id":"619bfbde65a741b130667104","condition":"full-information","relevant_dimensions":["wings","pattern"],"bee_group":{"antennae":"X","wings":"2","pattern":"S","legs":"X"},"bonus":0.980000000000001},{"rt":524,"stimulus":"bees-with-color/bee-B2SF.svg","response":0,"trial_type":"image-button-response","trial_index":149,"time_elapsed":417289,"internal_node_id":"0.0-6.0-0.13","subject_id":"5928c9e661fd8f00017ff206","study_id":"6197b3f67c2b5cd3b6d9596a","session_id":"619bfbde65a741b130667104","condition":"full-information","relevant_dimensions":["wings","pattern"],"bee_group":{"antennae":"X","wings":"2","pattern":"S","legs":"X"},"bonus":0.980000000000001},{"rt":932,"stimulus":"bees-with-color/bee-A1DF.svg","response":0,"trial_type":"image-button-response","trial_index":150,"time_elapsed":418225,"internal_node_id":"0.0-6.0-0.14","subject_id":"5928c9e661fd8f00017ff206","study_id":"6197b3f67c2b5cd3b6d9596a","session_id":"619bfbde65a741b130667104","condition":"full-information","relevant_dimensions":["wings","pattern"],"bee_group":{"antennae":"X","wings":"2","pattern":"S","legs":"X"},"bonus":0.980000000000001},{"rt":647,"stimulus":"bees-with-color/bee-A2SM.svg","response":0,"trial_type":"image-button-response","trial_index":151,"time_elapsed":418873,"internal_node_id":"0.0-6.0-0.15","subject_id":"5928c9e661fd8f00017ff206","study_id":"6197b3f67c2b5cd3b6d9596a","session_id":"619bfbde65a741b130667104","condition":"full-information","relevant_dimensions":["wings","pattern"],"bee_group":{"antennae":"X","wings":"2","pattern":"S","legs":"X"},"bonus":0.980000000000001},{"rt":588,"stimulus":"bees-with-color/bee-A1DM.svg","response":0,"trial_type":"image-button-response","trial_index":152,"time_elapsed":419462,"internal_node_id":"0.0-6.0-0.16","subject_id":"5928c9e661fd8f00017ff206","study_id":"6197b3f67c2b5cd3b6d9596a","session_id":"619bfbde65a741b130667104","condition":"full-information","relevant_dimensions":["wings","pattern"],"bee_group":{"antennae":"X","wings":"2","pattern":"S","legs":"X"},"bonus":0.980000000000001},{"rt":808,"stimulus":"bees-with-color/bee-A2SM.svg","response":1,"trial_type":"image-button-response","trial_index":153,"time_elapsed":420271,"internal_node_id":"0.0-6.0-0.17","subject_id":"5928c9e661fd8f00017ff206","study_id":"6197b3f67c2b5cd3b6d9596a","session_id":"619bfbde65a741b130667104","condition":"full-information","relevant_dimensions":["wings","pattern"],"bee_group":{"antennae":"X","wings":"2","pattern":"S","legs":"X"},"bonus":0.980000000000001},{"rt":731,"stimulus":"bees-with-color/bee-B2SM.svg","response":0,"trial_type":"image-button-response","trial_index":154,"time_elapsed":421004,"internal_node_id":"0.0-6.0-0.18","subject_id":"5928c9e661fd8f00017ff206","study_id":"6197b3f67c2b5cd3b6d9596a","session_id":"619bfbde65a741b130667104","condition":"full-information","relevant_dimensions":["wings","pattern"],"bee_group":{"antennae":"X","wings":"2","pattern":"S","legs":"X"},"bonus":0.980000000000001},{"rt":430,"stimulus":"bees-with-color/bee-B1DF.svg","response":0,"trial_type":"image-button-response","trial_index":155,"time_elapsed":421436,"internal_node_id":"0.0-6.0-0.19","subject_id":"5928c9e661fd8f00017ff206","study_id":"6197b3f67c2b5cd3b6d9596a","session_id":"619bfbde65a741b130667104","condition":"full-information","relevant_dimensions":["wings","pattern"],"bee_group":{"antennae":"X","wings":"2","pattern":"S","legs":"X"},"bonus":0.980000000000001},{"rt":358,"stimulus":"bees-with-color/bee-A1SF.svg","response":0,"trial_type":"image-button-response","trial_index":156,"time_elapsed":421798,"internal_node_id":"0.0-6.0-0.20","subject_id":"5928c9e661fd8f00017ff206","study_id":"6197b3f67c2b5cd3b6d9596a","session_id":"619bfbde65a741b130667104","condition":"full-information","relevant_dimensions":["wings","pattern"],"bee_group":{"antennae":"X","wings":"2","pattern":"S","legs":"X"},"bonus":0.980000000000001},{"rt":384,"stimulus":"bees-with-color/bee-B1SM.svg","response":0,"trial_type":"image-button-response","trial_index":157,"time_elapsed":422183,"internal_node_id":"0.0-6.0-0.21","subject_id":"5928c9e661fd8f00017ff206","study_id":"6197b3f67c2b5cd3b6d9596a","session_id":"619bfbde65a741b130667104","condition":"full-information","relevant_dimensions":["wings","pattern"],"bee_group":{"antennae":"X","wings":"2","pattern":"S","legs":"X"},"bonus":0.980000000000001},{"rt":437,"stimulus":"bees-with-color/bee-A2DF.svg","response":0,"trial_type":"image-button-response","trial_index":158,"time_elapsed":422622,"internal_node_id":"0.0-6.0-0.22","subject_id":"5928c9e661fd8f00017ff206","study_id":"6197b3f67c2b5cd3b6d9596a","session_id":"619bfbde65a741b130667104","condition":"full-information","relevant_dimensions":["wings","pattern"],"bee_group":{"antennae":"X","wings":"2","pattern":"S","legs":"X"},"bonus":0.980000000000001},{"rt":789,"stimulus":"bees-with-color/bee-A2DM.svg","response":1,"trial_type":"image-button-response","trial_index":159,"time_elapsed":423415,"internal_node_id":"0.0-6.0-0.23","subject_id":"5928c9e661fd8f00017ff206","study_id":"6197b3f67c2b5cd3b6d9596a","session_id":"619bfbde65a741b130667104","condition":"full-information","relevant_dimensions":["wings","pattern"],"bee_group":{"antennae":"X","wings":"2","pattern":"S","legs":"X"},"bonus":0.980000000000001},{"rt":788,"stimulus":"bees-with-color/bee-A1DF.svg","response":0,"trial_type":"image-button-response","trial_index":160,"time_elapsed":424207,"internal_node_id":"0.0-6.0-0.24","subject_id":"5928c9e661fd8f00017ff206","study_id":"6197b3f67c2b5cd3b6d9596a","session_id":"619bfbde65a741b130667104","condition":"full-information","relevant_dimensions":["wings","pattern"],"bee_group":{"antennae":"X","wings":"2","pattern":"S","legs":"X"},"bonus":0.980000000000001},{"rt":367,"stimulus":"bees-with-color/bee-B1DM.svg","response":0,"trial_type":"image-button-response","trial_index":161,"time_elapsed":424577,"internal_node_id":"0.0-6.0-0.25","subject_id":"5928c9e661fd8f00017ff206","study_id":"6197b3f67c2b5cd3b6d9596a","session_id":"619bfbde65a741b130667104","condition":"full-information","relevant_dimensions":["wings","pattern"],"bee_group":{"antennae":"X",