[{"success":true,"trial_type":"fullscreen","trial_index":0,"time_elapsed":17333,"internal_node_id":"0.0-0.0","subject_id":"5fcc24a22987de29caf1c5c3","study_id":"6197b3f67c2b5cd3b6d9596a","session_id":"6197b9e92117c8d2f125d028","condition":"full-information","relevant_dimensions":["antennae","legs"],"bee_group":{"antennae":"A","wings":"X","pattern":"X","legs":"F"},"bonus":0.04},{"success":true,"timeout":false,"failed_images":[],"failed_audio":[],"failed_video":[],"trial_type":"preload","trial_index":1,"time_elapsed":19118,"internal_node_id":"0.0-1.0","subject_id":"5fcc24a22987de29caf1c5c3","study_id":"6197b3f67c2b5cd3b6d9596a","session_id":"6197b9e92117c8d2f125d028","condition":"full-information","relevant_dimensions":["antennae","legs"],"bee_group":{"antennae":"A","wings":"X","pattern":"X","legs":"F"},"bonus":0.04},{"rt":1742.3999999761581,"stimulus":"Welcome! Press any key to begin.","response":" ","trial_type":"html-keyboard-response","trial_index":2,"time_elapsed":20862,"internal_node_id":"0.0-2.0","subject_id":"5fcc24a22987de29caf1c5c3","study_id":"6197b3f67c2b5cd3b6d9596a","session_id":"6197b9e92117c8d2f125d028","condition":"full-information","relevant_dimensions":["antennae","legs"],"bee_group":{"antennae":"A","wings":"X","pattern":"X","legs":"F"},"bonus":0.04},{"view_history":[{"page_index":0,"viewing_time":9988.599999964237},{"page_index":1,"viewing_time":11071.5},{"page_index":2,"viewing_time":10985.400000035763},{"page_index":3,"viewing_time":13625.199999988079},{"page_index":4,"viewing_time":3904.899999976158},{"page_index":5,"viewing_time":8738.300000011921},{"page_index":6,"viewing_time":6813.800000011921},{"page_index":7,"viewing_time":6349},{"page_index":8,"viewing_time":4046.100000023842},{"page_index":9,"viewing_time":3860.7999999523163},{"page_index":10,"viewing_time":3513.2000000476837},{"page_index":11,"viewing_time":11317.399999976158},{"page_index":12,"viewing_time":13741.399999976158},{"page_index":13,"viewing_time":1101.7000000476837},{"page_index":14,"viewing_time":1623.2999999523163}],"rt":110680.80000001192,"trial_type":"instructions","trial_index":3,"time_elapsed":131543,"internal_node_id":"0.0-3.0-0.0","subject_id":"5fcc24a22987de29caf1c5c3","study_id":"6197b3f67c2b5cd3b6d9596a","session_id":"6197b9e92117c8d2f125d028","condition":"full-information","relevant_dimensions":["antennae","legs"],"bee_group":{"antennae":"A","wings":"X","pattern":"X","legs":"F"},"bonus":0.04},{"rt":13369.600000023842,"response":{"Q0":["Two or six legs","Stripes or spots on body","Single or double wings","Antennae or no antennae"]},"question_order":[0],"trial_type":"survey-multi-select","trial_index":4,"time_elapsed":144916,"internal_node_id":"0.0-3.0-1.0","subject_id":"5fcc24a22987de29caf1c5c3","study_id":"6197b3f67c2b5cd3b6d9596a","session_id":"6197b9e92117c8d2f125d028","condition":"full-information","relevant_dimensions":["antennae","legs"],"bee_group":{"antennae":"A","wings":"X","pattern":"X","legs":"F"},"correct":true,"bonus":0.04},{"rt":16393.30000001192,"response":{"Q1":"No.","Q2":"Based on the four features of the bee.","Q3":"You learn if it was friendly or dangerous, but do not alter your bonus."},"question_order":[0,1,2],"trial_type":"survey-multi-choice","trial_index":5,"time_elapsed":161310,"internal_node_id":"0.0-3.0-2.0","subject_id":"5fcc24a22987de29caf1c5c3","study_id":"6197b3f67c2b5cd3b6d9596a","session_id":"6197b9e92117c8d2f125d028","condition":"full-information","relevant_dimensions":["antennae","legs"],"bee_group":{"antennae":"A","wings":"X","pattern":"X","legs":"F"},"correct":true,"bonus":0.04},{"rt":3184.399999976158,"stimulus":"<p>Congrats, you got everything right<br>When you're ready, click the button below to continue to the experiment.</p>","response":0,"trial_type":"html-button-response","trial_index":6,"time_elapsed":164496,"internal_node_id":"0.0-3.0-3.0","subject_id":"5fcc24a22987de29caf1c5c3","study_id":"6197b3f67c2b5cd3b6d9596a","session_id":"6197b9e92117c8d2f125d028","condition":"full-information","relevant_dimensions":["antennae","legs"],"bee_group":{"antennae":"A","wings":"X","pattern":"X","legs":"F"},"bonus":0.04},{"rt":3790.399999976158,"stimulus":"bees-with-color/bee-B2SM.svg","response":0,"trial_type":"image-button-response","trial_index":7,"time_elapsed":168288,"internal_node_id":"0.0-4.0-0.0","subject_id":"5fcc24a22987de29caf1c5c3","study_id":"6197b3f67c2b5cd3b6d9596a","session_id":"6197b9e92117c8d2f125d028","condition":"full-information","relevant_dimensions":["antennae","legs"],"bee_group":{"antennae":"A","wings":"X","pattern":"X","legs":"F"},"action":"harvest","summary":"good-harvest","bonus":0.04},{"rt":6374.099999964237,"stimulus":"\n                    <p><b>Action: <em>harvest</em></b></p>\n                    <p>This is the bee that you just saw.</p>\n                    <img src=\"bees-with-color/bee-B2SM.svg\" width=\"200\">\n                    <p><span class=\"greenText\"><b>Successful harvest!</b></span><br>Your pay has increased by $0.02. Your bonus pay is now $0.56.</p>\n            ","response":0,"trial_type":"html-button-response","trial_index":8,"time_elapsed":174664,"internal_node_id":"0.0-4.0-1.0","subject_id":"5fcc24a22987de29caf1c5c3","study_id":"6197b3f67c2b5cd3b6d9596a","session_id":"6197b9e92117c8d2f125d028","condition":"full-information","relevant_dimensions":["antennae","legs"],"bee_group":{"antennae":"A","wings":"X","pattern":"X","legs":"F"},"bonus":0.04},{"rt":1960.3999999761581,"stimulus":"bees-with-color/bee-A1SF.svg","response":0,"trial_type":"image-button-response","trial_index":9,"time_elapsed":176626,"internal_node_id":"0.0-4.0-0.1","subject_id":"5fcc24a22987de29caf1c5c3","study_id":"6197b3f67c2b5cd3b6d9596a","session_id":"6197b9e92117c8d2f125d028","condition":"full-information","relevant_dimensions":["antennae","legs"],"bee_group":{"antennae":"A","wings":"X","pattern":"X","legs":"F"},"action":"harvest","summary":"bad-harvest","bonus":0.04},{"rt":10934.699999988079,"stimulus":"\n                    <p><b>Action: <em>harvest</em></b></p>\n                    <p>This is the bee that you just saw.</p>\n                    <img src=\"bees-with-color/bee-A1SF.svg\" width=\"200\">\n                    <p><span class=\"redText\">Bad choice, the bee was angry.</span><br><b>You have been stung!</b><br>Your pay has been decreased by $0.10. Your bonus pay is now $0.46.</p>\n            ","response":0,"trial_type":"html-button-response","trial_index":10,"time_elapsed":187562,"internal_node_id":"0.0-4.0-1.1","subject_id":"5fcc24a22987de29caf1c5c3","study_id":"6197b3f67c2b5cd3b6d9596a","session_id":"6197b9e92117c8d2f125d028","condition":"full-information","relevant_dimensions":["antennae","legs"],"bee_group":{"antennae":"A","wings":"X","pattern":"X","legs":"F"},"bonus":0.04},{"rt":6382.199999988079,"stimulus":"bees-with-color/bee-B1SM.svg","response":0,"trial_type":"image-button-response","trial_index":11,"time_elapsed":193946,"internal_node_id":"0.0-4.0-0.2","subject_id":"5fcc24a22987de29caf1c5c3","study_id":"6197b3f67c2b5cd3b6d9596a","session_id":"6197b9e92117c8d2f125d028","condition":"full-information","relevant_dimensions":["antennae","legs"],"bee_group":{"antennae":"A","wings":"X","pattern":"X","legs":"F"},"action":"harvest","summary":"good-harvest","bonus":0.04},{"rt":1562.699999988079,"stimulus":"\n                    <p><b>Action: <em>harvest</em></b></p>\n                    <p>This is the bee that you just saw.</p>\n                    <img src=\"bees-with-color/bee-B1SM.svg\" width=\"200\">\n                    <p><span class=\"greenText\"><b>Successful harvest!</b></span><br>Your pay has increased by $0.02. Your bonus pay is now $0.48.</p>\n            ","response":0,"trial_type":"html-button-response","trial_index":12,"time_elapsed":195510,"internal_node_id":"0.0-4.0-1.2","subject_id":"5fcc24a22987de29caf1c5c3","study_id":"6197b3f67c2b5cd3b6d9596a","session_id":"6197b9e92117c8d2f125d028","condition":"full-information","relevant_dimensions":["antennae","legs"],"bee_group":{"antennae":"A","wings":"X","pattern":"X","legs":"F"},"bonus":0.04},{"rt":2402.699999988079,"stimulus":"bees-with-color/bee-A2DF.svg","response":1,"trial_type":"image-button-response","trial_index":13,"time_elapsed":197914,"internal_node_id":"0.0-4.0-0.3","subject_id":"5fcc24a22987de29caf1c5c3","study_id":"6197b3f67c2b5cd3b6d9596a","session_id":"6197b9e92117c8d2f125d028","condition":"full-information","relevant_dimensions":["antennae","legs"],"bee_group":{"antennae":"A","wings":"X","pattern":"X","legs":"F"},"action":"avoid","summary":"good-avoid","bonus":0.04},{"rt":4579,"stimulus":"\n                    <p><b>Action: <em>avoid</em></b></p>\n                    <p>This is the bee that you just saw.</p>\n                    <img src=\"bees-with-color/bee-A2DF.svg\" width=\"200\">\n                    <p><span class=\"greenText\">Good choice!</span>  This bee would have stung you.<br>Your bonus pay is unchanged, and remains at $0.48.</p>\n            ","response":0,"trial_type":"html-button-response","trial_index":14,"time_elapsed":202494,"internal_node_id":"0.0-4.0-1.3","subject_id":"5fcc24a22987de29caf1c5c3","study_id":"6197b3f67c2b5cd3b6d9596a","session_id":"6197b9e92117c8d2f125d028","condition":"full-information","relevant_dimensions":["antennae","legs"],"bee_group":{"antennae":"A","wings":"X","pattern":"X","legs":"F"},"bonus":0.04},{"rt":2116.800000011921,"stimulus":"bees-with-color/bee-A2SM.svg","response":0,"trial_type":"image-button-response","trial_index":15,"time_elapsed":204612,"internal_node_id":"0.0-4.0-0.4","subject_id":"5fcc24a22987de29caf1c5c3","study_id":"6197b3f67c2b5cd3b6d9596a","session_id":"6197b9e92117c8d2f125d028","condition":"full-information","relevant_dimensions":["antennae","legs"],"bee_group":{"antennae":"A","wings":"X","pattern":"X","legs":"F"},"action":"harvest","summary":"good-harvest","bonus":0.04},{"rt":1851.5999999642372,"stimulus":"\n                    <p><b>Action: <em>harvest</em></b></p>\n                    <p>This is the bee that you just saw.</p>\n                    <img src=\"bees-with-color/bee-A2SM.svg\" width=\"200\">\n                    <p><span class=\"greenText\"><b>Successful harvest!</b></span><br>Your pay has increased by $0.02. Your bonus pay is now $0.50.</p>\n            ","response":0,"trial_type":"html-button-response","trial_index":16,"time_elapsed":206465,"internal_node_id":"0.0-4.0-1.4","subject_id":"5fcc24a22987de29caf1c5c3","study_id":"6197b3f67c2b5cd3b6d9596a","session_id":"6197b9e92117c8d2f125d028","condition":"full-information","relevant_dimensions":["antennae","legs"],"bee_group":{"antennae":"A","wings":"X","pattern":"X","legs":"F"},"bonus":0.04},{"rt":1482.7999999523163,"stimulus":"bees-with-color/bee-B1DF.svg","response":1,"trial_type":"image-button-response","trial_index":17,"time_elapsed":207949,"internal_node_id":"0.0-4.0-0.5","subject_id":"5fcc24a22987de29caf1c5c3","study_id":"6197b3f67c2b5cd3b6d9596a","session_id":"6197b9e92117c8d2f125d028","condition":"full-information","relevant_dimensions":["antennae","legs"],"bee_group":{"antennae":"A","wings":"X","pattern":"X","legs":"F"},"action":"avoid","summary":"bad-avoid","bonus":0.04},{"rt":7516.899999976158,"stimulus":"\n                    <p><b>Action: <em>avoid</em></b></p>\n                    <p>This is the bee that you just saw.</p>\n                    <img src=\"bees-with-color/bee-B1DF.svg\" width=\"200\">\n                    <p><span class=\"redText\">Bad choice,</span> the bee was friendly.<br>Your bonus pay is unchanged, and remains at $0.50.</p>\n            ","response":0,"trial_type":"html-button-response","trial_index":18,"time_elapsed":215467,"internal_node_id":"0.0-4.0-1.5","subject_id":"5fcc24a22987de29caf1c5c3","study_id":"6197b3f67c2b5cd3b6d9596a","session_id":"6197b9e92117c8d2f125d028","condition":"full-information","relevant_dimensions":["antennae","legs"],"bee_group":{"antennae":"A","wings":"X","pattern":"X","legs":"F"},"bonus":0.04},{"rt":1675.5,"stimulus":"bees-with-color/bee-B2DM.svg","response":1,"trial_type":"image-button-response","trial_index":19,"time_elapsed":217145,"internal_node_id":"0.0-4.0-0.6","subject_id":"5fcc24a22987de29caf1c5c3","study_id":"6197b3f67c2b5cd3b6d9596a","session_id":"6197b9e92117c8d2f125d028","condition":"full-information","relevant_dimensions":["antennae","legs"],"bee_group":{"antennae":"A","wings":"X","pattern":"X","legs":"F"},"action":"avoid","summary":"bad-avoid","bonus":0.04},{"rt":1384.5,"stimulus":"\n                    <p><b>Action: <em>avoid</em></b></p>\n                    <p>This is the bee that you just saw.</p>\n                    <img src=\"bees-with-color/bee-B2DM.svg\" width=\"200\">\n                    <p><span class=\"redText\">Bad choice,</span> the bee was friendly.<br>Your bonus pay is unchanged, and remains at $0.50.</p>\n            ","response":0,"trial_type":"html-button-response","trial_index":20,"time_elapsed":218530,"internal_node_id":"0.0-4.0-1.6","subject_id":"5fcc24a22987de29caf1c5c3","study_id":"6197b3f67c2b5cd3b6d9596a","session_id":"6197b9e92117c8d2f125d028","condition":"full-information","relevant_dimensions":["antennae","legs"],"bee_group":{"antennae":"A","wings":"X","pattern":"X","legs":"F"},"bonus":0.04},{"rt":2260.199999988079,"stimulus":"bees-with-color/bee-B2DF.svg","response":1,"trial_type":"image-button-response","trial_index":21,"time_elapsed":220792,"internal_node_id":"0.0-4.0-0.7","subject_id":"5fcc24a22987de29caf1c5c3","study_id":"6197b3f67c2b5cd3b6d9596a","session_id":"6197b9e92117c8d2f125d028","condition":"full-information","relevant_dimensions":["antennae","legs"],"bee_group":{"antennae":"A","wings":"X","pattern":"X","legs":"F"},"action":"avoid","summary":"bad-avoid","bonus":0.04},{"rt":1007.2999999523163,"stimulus":"\n                    <p><b>Action: <em>avoid</em></b></p>\n                    <p>This is the bee that you just saw.</p>\n                    <img src=\"bees-with-color/bee-B2DF.svg\" width=\"200\">\n                    <p><span class=\"redText\">Bad choice,</span> the bee was friendly.<br>Your bonus pay is unchanged, and remains at $0.50.</p>\n            ","response":0,"trial_type":"html-button-response","trial_index":22,"time_elapsed":221800,"internal_node_id":"0.0-4.0-1.7","subject_id":"5fcc24a22987de29caf1c5c3","study_id":"6197b3f67c2b5cd3b6d9596a","session_id":"6197b9e92117c8d2f125d028","condition":"full-information","relevant_dimensions":["antennae","legs"],"bee_group":{"antennae":"A","wings":"X","pattern":"X","legs":"F"},"bonus":0.04},{"rt":2813.699999988079,"stimulus":"bees-with-color/bee-B1DM.svg","response":1,"trial_type":"image-button-response","trial_index":23,"time_elapsed":224615,"internal_node_id":"0.0-4.0-0.8","subject_id":"5fcc24a22987de29caf1c5c3","study_id":"6197b3f67c2b5cd3b6d9596a","session_id":"6197b9e92117c8d2f125d028","condition":"full-information","relevant_dimensions":["antennae","legs"],"bee_group":{"antennae":"A","wings":"X","pattern":"X","legs":"F"},"action":"avoid","summary":"bad-avoid","bonus":0.04},{"rt":855.1000000238419,"stimulus":"\n                    <p><b>Action: <em>avoid</em></b></p>\n                    <p>This is the bee that you just saw.</p>\n                    <img src=\"bees-with-color/bee-B1DM.svg\" width=\"200\">\n                    <p><span class=\"redText\">Bad choice,</span> the bee was friendly.<br>Your bonus pay is unchanged, and remains at $0.50.</p>\n            ","response":0,"trial_type":"html-button-response","trial_index":24,"time_elapsed":225471,"internal_node_id":"0.0-4.0-1.8","subject_id":"5fcc24a22987de29caf1c5c3","study_id":"6197b3f67c2b5cd3b6d9596a","session_id":"6197b9e92117c8d2f125d028","condition":"full-information","relevant_dimensions":["antennae","legs"],"bee_group":{"antennae":"A","wings":"X","pattern":"X","legs":"F"},"bonus":0.04},{"rt":2635.899999976158,"stimulus":"bees-with-color/bee-A1DM.svg","response":0,"trial_type":"image-button-response","trial_index":25,"time_elapsed":228108,"internal_node_id":"0.0-4.0-0.9","subject_id":"5fcc24a22987de29caf1c5c3","study_id":"6197b3f67c2b5cd3b6d9596a","session_id":"6197b9e92117c8d2f125d028","condition":"full-information","relevant_dimensions":["antennae","legs"],"bee_group":{"antennae":"A","wings":"X","pattern":"X","legs":"F"},"action":"harvest","summary":"good-harvest","bonus":0.04},{"rt":1039,"stimulus":"\n                    <p><b>Action: <em>harvest</em></b></p>\n                    <p>This is the bee that you just saw.</p>\n                    <img src=\"bees-with-color/bee-A1DM.svg\" width=\"200\">\n                    <p><span class=\"greenText\"><b>Successful harvest!</b></span><br>Your pay has increased by $0.02. Your bonus pay is now $0.52.</p>\n            ","response":0,"trial_type":"html-button-response","trial_index":26,"time_elapsed":229148,"internal_node_id":"0.0-4.0-1.9","subject_id":"5fcc24a22987de29caf1c5c3","study_id":"6197b3f67c2b5cd3b6d9596a","session_id":"6197b9e92117c8d2f125d028","condition":"full-information","relevant_dimensions":["antennae","legs"],"bee_group":{"antennae":"A","wings":"X","pattern":"X","legs":"F"},"bonus":0.04},{"rt":5792,"stimulus":"bees-with-color/bee-A1SM.svg","response":1,"trial_type":"image-button-response","trial_index":27,"time_elapsed":234940,"internal_node_id":"0.0-4.0-0.10","subject_id":"5fcc24a22987de29caf1c5c3","study_id":"6197b3f67c2b5cd3b6d9596a","session_id":"6197b9e92117c8d2f125d028","condition":"full-information","relevant_dimensions":["antennae","legs"],"bee_group":{"antennae":"A","wings":"X","pattern":"X","legs":"F"},"action":"avoid","summary":"bad-avoid","bonus":0.04},{"rt":1014.0999999642372,"stimulus":"\n                    <p><b>Action: <em>avoid</em></b></p>\n                    <p>This is the bee that you just saw.</p>\n                    <img src=\"bees-with-color/bee-A1SM.svg\" width=\"200\">\n                    <p><span class=\"redText\">Bad choice,</span> the bee was friendly.<br>Your bonus pay is unchanged, and remains at $0.52.</p>\n            ","response":0,"trial_type":"html-button-response","trial_index":28,"time_elapsed":235956,"internal_node_id":"0.0-4.0-1.10","subject_id":"5fcc24a22987de29caf1c5c3","study_id":"6197b3f67c2b5cd3b6d9596a","session_id":"6197b9e92117c8d2f125d028","condition":"full-information","relevant_dimensions":["antennae","legs"],"bee_group":{"antennae":"A","wings":"X","pattern":"X","legs":"F"},"bonus":0.04},{"rt":2156.699999988079,"stimulus":"bees-with-color/bee-A2DM.svg","response":1,"trial_type":"image-button-response","trial_index":29,"time_elapsed":238114,"internal_node_id":"0.0-4.0-0.11","subject_id":"5fcc24a22987de29caf1c5c3","study_id":"6197b3f67c2b5cd3b6d9596a","session_id":"6197b9e92117c8d2f125d028","condition":"full-information","relevant_dimensions":["antennae","legs"],"bee_group":{"antennae":"A","wings":"X","pattern":"X","legs":"F"},"action":"avoid","summary":"bad-avoid","bonus":0.04},{"rt":856.6999999880791,"stimulus":"\n                    <p><b>Action: <em>avoid</em></b></p>\n                    <p>This is the bee that you just saw.</p>\n                    <img src=\"bees-with-color/bee-A2DM.svg\" width=\"200\">\n                    <p><span class=\"redText\">Bad choice,</span> the bee was friendly.<br>Your bonus pay is unchanged, and remains at $0.52.</p>\n            ","response":0,"trial_type":"html-button-response","trial_index":30,"time_elapsed":238971,"internal_node_id":"0.0-4.0-1.11","subject_id":"5fcc24a22987de29caf1c5c3","study_id":"6197b3f67c2b5cd3b6d9596a","session_id":"6197b9e92117c8d2f125d028","condition":"full-information","relevant_dimensions":["antennae","legs"],"bee_group":{"antennae":"A","wings":"X","pattern":"X","legs":"F"},"bonus":0.04},{"rt":2414.199999988079,"stimulus":"bees-with-color/bee-A1DF.svg","response":1,"trial_type":"image-button-response","trial_index":31,"time_elapsed":241386,"internal_node_id":"0.0-4.0-0.12","subject_id":"5fcc24a22987de29caf1c5c3","study_id":"6197b3f67c2b5cd3b6d9596a","session_id":"6197b9e92117c8d2f125d028","condition":"full-information","relevant_dimensions":["antennae","legs"],"bee_group":{"antennae":"A","wings":"X","pattern":"X","legs":"F"},"action":"avoid","summary":"good-avoid","bonus":0.04},{"rt":745.8999999761581,"stimulus":"\n                    <p><b>Action: <em>avoid</em></b></p>\n                    <p>This is the bee that you just saw.</p>\n                    <img src=\"bees-with-color/bee-A1DF.svg\" width=\"200\">\n                    <p><span class=\"greenText\">Good choice!</span>  This bee would have stung you.<br>Your bonus pay is unchanged, and remains at $0.52.</p>\n            ","response":0,"trial_type":"html-button-response","trial_index":32,"time_elapsed":242133,"internal_node_id":"0.0-4.0-1.12","subject_id":"5fcc24a22987de29caf1c5c3","study_id":"6197b3f67c2b5cd3b6d9596a","session_id":"6197b9e92117c8d2f125d028","condition":"full-information","relevant_dimensions":["antennae","legs"],"bee_group":{"antennae":"A","wings":"X","pattern":"X","legs":"F"},"bonus":0.04},{"rt":2753.600000023842,"stimulus":"bees-with-color/bee-B2SF.svg","response":0,"trial_type":"image-button-response","trial_index":33,"time_elapsed":244888,"internal_node_id":"0.0-4.0-0.13","subject_id":"5fcc24a22987de29caf1c5c3","study_id":"6197b3f67c2b5cd3b6d9596a","session_id":"6197b9e92117c8d2f125d028","condition":"full-information","relevant_dimensions":["antennae","legs"],"bee_group":{"antennae":"A","wings":"X","pattern":"X","legs":"F"},"action":"harvest","summary":"good-harvest","bonus":0.04},{"rt":971,"stimulus":"\n                    <p><b>Action: <em>harvest</em></b></p>\n                    <p>This is the bee that you just saw.</p>\n                    <img src=\"bees-with-color/bee-B2SF.svg\" width=\"200\">\n                    <p><span class=\"greenText\"><b>Successful harvest!</b></span><br>Your pay has increased by $0.02. Your bonus pay is now $0.54.</p>\n            ","response":0,"trial_type":"html-button-response","trial_index":34,"time_elapsed":245860,"internal_node_id":"0.0-4.0-1.13","subject_id":"5fcc24a22987de29caf1c5c3","study_id":"6197b3f67c2b5cd3b6d9596a","session_id":"6197b9e92117c8d2f125d028","condition":"full-information","relevant_dimensions":["antennae","legs"],"bee_group":{"antennae":"A","wings":"X","pattern":"X","legs":"F"},"bonus":0.04},{"rt":1830.699999988079,"stimulus":"bees-with-color/bee-B1SF.svg","response":1,"trial_type":"image-button-response","trial_index":35,"time_elapsed":247692,"internal_node_id":"0.0-4.0-0.14","subject_id":"5fcc24a22987de29caf1c5c3","study_id":"6197b3f67c2b5cd3b6d9596a","session_id":"6197b9e92117c8d2f125d028","condition":"full-information","relevant_dimensions":["antennae","legs"],"bee_group":{"antennae":"A","wings":"X","pattern":"X","legs":"F"},"action":"avoid","summary":"bad-avoid","bonus":0.04},{"rt":2613.800000011921,"stimulus":"\n                    <p><b>Action: <em>avoid</em></b></p>\n                    <p>This is the bee that you just saw.</p>\n                    <img src=\"bees-with-color/bee-B1SF.svg\" width=\"200\">\n                    <p><span class=\"redText\">Bad choice,</span> the bee was friendly.<br>Your bonus pay is unchanged, and remains at $0.54.</p>\n            ","response":0,"trial_type":"html-button-response","trial_index":36,"time_elapsed":250307,"internal_node_id":"0.0-4.0-1.14","subject_id":"5fcc24a22987de29caf1c5c3","study_id":"6197b3f67c2b5cd3b6d9596a","session_id":"6197b9e92117c8d2f125d028","condition":"full-information","relevant_dimensions":["antennae","legs"],"bee_group":{"antennae":"A","wings":"X","pattern":"X","legs":"F"},"bonus":0.04},{"rt":3708.899999976158,"stimulus":"bees-with-color/bee-A2SF.svg","response":0,"trial_type":"image-button-response","trial_index":37,"time_elapsed":254017,"internal_node_id":"0.0-4.0-0.15","subject_id":"5fcc24a22987de29caf1c5c3","study_id":"6197b3f67c2b5cd3b6d9596a","session_id":"6197b9e92117c8d2f125d028","condition":"full-information","relevant_dimensions":["antennae","legs"],"bee_group":{"antennae":"A","wings":"X","pattern":"X","legs":"F"},"action":"harvest","summary":"bad-harvest","bonus":0.04},{"rt":1397.199999988079,"stimulus":"\n                    <p><b>Action: <em>harvest</em></b></p>\n                    <p>This is the bee that you just saw.</p>\n                    <img src=\"bees-with-color/bee-A2SF.svg\" width=\"200\">\n                    <p><span class=\"redText\">Bad choice, the bee was angry.</span><br><b>You have been stung!</b><br>Your pay has been decreased by $0.10. Your bonus pay is now $0.44.</p>\n            ","response":0,"trial_type":"html-button-response","trial_index":38,"time_elapsed":255416,"internal_node_id":"0.0-4.0-1.15","subject_id":"5fcc24a22987de29caf1c5c3","study_id":"6197b3f67c2b5cd3b6d9596a","session_id":"6197b9e92117c8d2f125d028","condition":"full-information","relevant_dimensions":["antennae","legs"],"bee_group":{"antennae":"A","wings":"X","pattern":"X","legs":"F"},"bonus":0.04},{"rt":1413.5,"stimulus":"bees-with-color/bee-A2DF.svg","response":0,"trial_type":"image-button-response","trial_index":39,"time_elapsed":256830,"internal_node_id":"0.0-4.0-0.16","subject_id":"5fcc24a22987de29caf1c5c3","study_id":"6197b3f67c2b5cd3b6d9596a","session_id":"6197b9e92117c8d2f125d028","condition":"full-information","relevant_dimensions":["antennae","legs"],"bee_group":{"antennae":"A","wings":"X","pattern":"X","legs":"F"},"action":"harvest","summary":"bad-harvest","bonus":0.04},{"rt":790.1000000238419,"stimulus":"\n                    <p><b>Action: <em>harvest</em></b></p>\n                    <p>This is the bee that you just saw.</p>\n                    <img src=\"bees-with-color/bee-A2DF.svg\" width=\"200\">\n                    <p><span class=\"redText\">Bad choice, the bee was angry.</span><br><b>You have been stung!</b><br>Your pay has been decreased by $0.10. Your bonus pay is now $0.34.</p>\n            ","response":0,"trial_type":"html-button-response","trial_index":40,"time_elapsed":257621,"internal_node_id":"0.0-4.0-1.16","subject_id":"5fcc24a22987de29caf1c5c3","study_id":"6197b3f67c2b5cd3b6d9596a","session_id":"6197b9e92117c8d2f125d028","condition":"full-information","relevant_dimensions":["antennae","legs"],"bee_group":{"antennae":"A","wings":"X","pattern":"X","legs":"F"},"bonus":0.04},{"rt":1995.5999999642372,"stimulus":"bees-with-color/bee-B2SM.svg","response":0,"trial_type":"image-button-response","trial_index":41,"time_elapsed":259618,"internal_node_id":"0.0-4.0-0.17","subject_id":"5fcc24a22987de29caf1c5c3","study_id":"6197b3f67c2b5cd3b6d9596a","session_id":"6197b9e92117c8d2f125d028","condition":"full-information","relevant_dimensions":["antennae","legs"],"bee_group":{"antennae":"A","wings":"X","pattern":"X","legs":"F"},"action":"harvest","summary":"good-harvest","bonus":0.04},{"rt":1136.3999999761581,"stimulus":"\n                    <p><b>Action: <em>harvest</em></b></p>\n                    <p>This is the bee that you just saw.</p>\n                    <img src=\"bees-with-color/bee-B2SM.svg\" width=\"200\">\n                    <p><span class=\"greenText\"><b>Successful harvest!</b></span><br>Your pay has increased by $0.02. Your bonus pay is now $0.36.</p>\n            ","response":0,"trial_type":"html-button-response","trial_index":42,"time_elapsed":260755,"internal_node_id":"0.0-4.0-1.17","subject_id":"5fcc24a22987de29caf1c5c3","study_id":"6197b3f67c2b5cd3b6d9596a","session_id":"6197b9e92117c8d2f125d028","condition":"full-information","relevant_dimensions":["antennae","legs"],"bee_group":{"antennae":"A","wings":"X","pattern":"X","legs":"F"},"bonus":0.04},{"rt":1893,"stimulus":"bees-with-color/bee-A1DF.svg","response":0,"trial_type":"image-button-response","trial_index":43,"time_elapsed":262649,"internal_node_id":"0.0-4.0-0.18","subject_id":"5fcc24a22987de29caf1c5c3","study_id":"6197b3f67c2b5cd3b6d9596a","session_id":"6197b9e92117c8d2f125d028","condition":"full-information","relevant_dimensions":["antennae","legs"],"bee_group":{"antennae":"A","wings":"X","pattern":"X","legs":"F"},"action":"harvest","summary":"bad-harvest","bonus":0.04},{"rt":1108.2000000476837,"stimulus":"\n                    <p><b>Action: <em>harvest</em></b></p>\n                    <p>This is the bee that you just saw.</p>\n                    <img src=\"bees-with-color/bee-A1DF.svg\" width=\"200\">\n                    <p><span class=\"redText\">Bad choice, the bee was angry.</span><br><b>You have been stung!</b><br>Your pay has been decreased by $0.10. Your bonus pay is now $0.26.</p>\n            ","response":0,"trial_type":"html-button-response","trial_index":44,"time_elapsed":263758,"internal_node_id":"0.0-4.0-1.18","subject_id":"5fcc24a22987de29caf1c5c3","study_id":"6197b3f67c2b5cd3b6d9596a","session_id":"6197b9e92117c8d2f125d028","condition":"full-information","relevant_dimensions":["antennae","legs"],"bee_group":{"antennae":"A","wings":"X","pattern":"X","legs":"F"},"bonus":0.04},{"rt":1345.6000000238419,"stimulus":"bees-with-color/bee-A2DM.svg","response":0,"trial_type":"image-button-response","trial_index":45,"time_elapsed":265105,"internal_node_id":"0.0-4.0-0.19","subject_id":"5fcc24a22987de29caf1c5c3","study_id":"6197b3f67c2b5cd3b6d9596a","session_id":"6197b9e92117c8d2f125d028","condition":"full-information","relevant_dimensions":["antennae","legs"],"bee_group":{"antennae":"A","wings":"X","pattern":"X","legs":"F"},"action":"harvest","summary":"good-harvest","bonus":0.04},{"rt":1497.4000000357628,"stimulus":"\n                    <p><b>Action: <em>harvest</em></b></p>\n                    <p>This is the bee that you just saw.</p>\n                    <img src=\"bees-with-color/bee-A2DM.svg\" width=\"200\">\n                    <p><span class=\"greenText\"><b>Successful harvest!</b></span><br>Your pay has increased by $0.02. Your bonus pay is now $0.28.</p>\n            ","response":0,"trial_type":"html-button-response","trial_index":46,"time_elapsed":266604,"internal_node_id":"0.0-4.0-1.19","subject_id":"5fcc24a22987de29caf1c5c3","study_id":"6197b3f67c2b5cd3b6d9596a","session_id":"6197b9e92117c8d2f125d028","condition":"full-information","relevant_dimensions":["antennae","legs"],"bee_group":{"antennae":"A","wings":"X","pattern":"X","legs":"F"},"bonus":0.04},{"rt":1633,"stimulus":"bees-with-color/bee-B1SM.svg","response":0,"trial_type":"image-button-response","trial_index":47,"time_elapsed":268238,"internal_node_id":"0.0-4.0-0.20","subject_id":"5fcc24a22987de29caf1c5c3","study_id":"6197b3f67c2b5cd3b6d9596a","session_id":"6197b9e92117c8d2f125d028","condition":"full-information","relevant_dimensions":["antennae","legs"],"bee_group":{"antennae":"A","wings":"X","pattern":"X","legs":"F"},"action":"harvest","summary":"good-harvest","bonus":0.04},{"rt":1238.8999999761581,"stimulus":"\n                    <p><b>Action: <em>harvest</em></b></p>\n                    <p>This is the bee that you just saw.</p>\n                    <img src=\"bees-with-color/bee-B1SM.svg\" width=\"200\">\n                    <p><span class=\"greenText\"><b>Successful harvest!</b></span><br>Your pay has increased by $0.02. Your bonus pay is now $0.30.</p>\n            ","response":0,"trial_type":"html-button-response","trial_index":48,"time_elapsed":269478,"internal_node_id":"0.0-4.0-1.20","subject_id":"5fcc24a22987de29caf1c5c3","study_id":"6197b3f67c2b5cd3b6d9596a","session_id":"6197b9e92117c8d2f125d028","condition":"full-information","relevant_dimensions":["antennae","legs"],"bee_group":{"antennae":"A","wings":"X","pattern":"X","legs":"F"},"bonus":0.04},{"rt":4195.5,"stimulus":"bees-with-color/bee-B1DF.svg","response":0,"trial_type":"image-button-response","trial_index":49,"time_elapsed":273674,"internal_node_id":"0.0-4.0-0.21","subject_id":"5fcc24a22987de29caf1c5c3","study_id":"6197b3f67c2b5cd3b6d9596a","session_id":"6197b9e92117c8d2f125d028","condition":"full-information","relevant_dimensions":["antennae","legs"],"bee_group":{"antennae":"A","wings":"X","pattern":"X","legs":"F"},"action":"harvest","summary":"good-harvest","bonus":0.04},{"rt":1063.7000000476837,"stimulus":"\n                    <p><b>Action: <em>harvest</em></b></p>\n                    <p>This is the bee that you just saw.</p>\n                    <img src=\"bees-with-color/bee-B1DF.svg\" width=\"200\">\n                    <p><span class=\"greenText\"><b>Successful harvest!</b></span><br>Your pay has increased by $0.02. Your bonus pay is now $0.32.</p>\n            ","response":0,"trial_type":"html-button-response","trial_index":50,"time_elapsed":274738,"internal_node_id":"0.0-4.0-1.21","subject_id":"5fcc24a22987de29caf1c5c3","study_id":"6197b3f67c2b5cd3b6d9596a","session_id":"6197b9e92117c8d2f125d028","condition":"full-information","relevant_dimensions":["antennae","legs"],"bee_group":{"antennae":"A","wings":"X","pattern":"X","legs":"F"},"bonus":0.04},{"rt":1302,"stimulus":"bees-with-color/bee-A1SM.svg","response":1,"trial_type":"image-button-response","trial_index":51,"time_elapsed":276041,"internal_node_id":"0.0-4.0-0.22","subject_id":"5fcc24a22987de29caf1c5c3","study_id":"6197b3f67c2b5cd3b6d9596a","session_id":"6197b9e92117c8d2f125d028","condition":"full-information","relevant_dimensions":["antennae","legs"],"bee_group":{"antennae":"A","wings":"X","pattern":"X","legs":"F"},"action":"avoid","summary":"bad-avoid","bonus":0.04},{"rt":1493,"stimulus":"\n                    <p><b>Action: <em>avoid</em></b></p>\n                    <p>This is the bee that you just saw.</p>\n                    <img src=\"bees-with-color/bee-A1SM.svg\" width=\"200\">\n                    <p><span class=\"redText\">Bad choice,</span> the bee was friendly.<br>Your bonus pay is unchanged, and remains at $0.32.</p>\n            ","response":0,"trial_type":"html-button-response","trial_index":52,"time_elapsed":277535,"internal_node_id":"0.0-4.0-1.22","subject_id":"5fcc24a22987de29caf1c5c3","study_id":"6197b3f67c2b5cd3b6d9596a","session_id":"6197b9e92117c8d2f125d028","condition":"full-information","relevant_dimensions":["antennae","legs"],"bee_group":{"antennae":"A","wings":"X","pattern":"X","legs":"F"},"bonus":0.04},{"rt":2994.099999964237,"stimulus":"bees-with-color/bee-B1DM.svg","response":1,"trial_type":"image-button-response","trial_index":53,"time_elapsed":280530,"internal_node_id":"0.0-4.0-0.23","subject_id":"5fcc24a22987de29caf1c5c3","study_id":"6197b3f67c2b5cd3b6d9596a","session_id":"6197b9e92117c8d2f125d028","condition":"full-information","relevant_dimensions":["antennae","legs"],"bee_group":{"antennae":"A","wings":"X","pattern":"X","legs":"F"},"action":"avoid","summary":"bad-avoid","bonus":0.04},{"rt":1136,"stimulus":"\n                    <p><b>Action: <em>avoid</em></b></p>\n                    <p>This is the bee that you just saw.</p>\n                    <img src=\"bees-with-color/bee-B1DM.svg\" width=\"200\">\n                    <p><span class=\"redText\">Bad choice,</span> the bee was friendly.<br>Your bonus pay is unchanged, and remains at $0.32.</p>\n            ","response":0,"trial_type":"html-button-response","trial_index":54,"time_elapsed":281667,"internal_node_id":"0.0-4.0-1.23","subject_id":"5fcc24a22987de29caf1c5c3","study_id":"6197b3f67c2b5cd3b6d9596a","session_id":"6197b9e92117c8d2f125d028","condition":"full-information","relevant_dimensions":["antennae","legs"],"bee_group":{"antennae":"A","wings":"X","pattern":"X","legs":"F"},"bonus":0.04},{"rt":2145.600000023842,"stimulus":"bees-with-color/bee-B2DM.svg","response":1,"trial_type":"image-button-response","trial_index":55,"time_elapsed":283814,"internal_node_id":"0.0-4.0-0.24","subject_id":"5fcc24a22987de29caf1c5c3","study_id":"6197b3f67c2b5cd3b6d9596a","session_id":"6197b9e92117c8d2f125d028","condition":"full-information","relevant_dimensions":["antennae","legs"],"bee_group":{"antennae":"A","wings":"X","pattern":"X","legs":"F"},"action":"avoid","summary":"bad-avoid","bonus":0.04},{"rt":855.2999999523163,"stimulus":"\n                    <p><b>Action: <em>avoid</em></b></p>\n                    <p>This is the bee that you just saw.</p>\n                    <img src=\"bees-with-color/bee-B2DM.svg\" width=\"200\">\n                    <p><span class=\"redText\">Bad choice,</span> the bee was friendly.<br>Your bonus pay is unchanged, and remains at $0.32.</p>\n            ","response":0,"trial_type":"html-button-response","trial_index":56,"time_elapsed":284670,"internal_node_id":"0.0-4.0-1.24","subject_id":"5fcc24a22987de29caf1c5c3","study_id":"6197b3f67c2b5cd3b6d9596a","session_id":"6197b9e92117c8d2f125d028","condition":"full-information","relevant_dimensions":["antennae","legs"],"bee_group":{"antennae":"A","wings":"X","pattern":"X","legs":"F"},"bonus":0.04},{"rt":2455.099999964237,"stimulus":"bees-with-color/bee-A1DM.svg","response":0,"trial_type":"image-button-response","trial_index":57,"time_elapsed":287126,"internal_node_id":"0.0-4.0-0.25","subject_id":"5fcc24a22987de29caf1c5c3","study_id":"6197b3f67c2b5cd3b6d9596a","session_id":"6197b9e92117c8d2f125d028","condition":"full-information","relevant_dimensions":["antennae","legs"],"bee_group":{"antennae":"A","wings":"X","pattern":"X","legs":"F"},"action":"harvest","summary":"good-harvest","bonus":0.04},{"rt":1414.1000000238419,"stimulus":"\n                    <p><b>Action: <em>harvest</em></b></p>\n                    <p>This is the bee that you just saw.</p>\n                    <img src=\"bees-with-color/bee-A1DM.svg\" width=\"200\">\n                    <p><span class=\"greenText\"><b>Successful harvest!</b></span><br>Your pay has increased by $0.02. Your bonus pay is now $0.34.</p>\n            ","response":0,"trial_type":"html-button-response","trial_index":58,"time_elapsed":288542,"internal_node_id":"0.0-4.0-1.25","subject_id":"5fcc24a22987de29caf1c5c3","study_id":"6197b3f67c2b5cd3b6d9596a","session_id":"6197b9e92117c8d2f125d028","condition":"full-information","relevant_dimensions":["antennae","legs"],"bee_group":{"antennae":"A","wings":"X","pattern":"X","legs":"F"},"bonus":0.04},{"rt":1786.3999999761581,"stimulus":"bees-with-color/bee-B2SF.svg","response":1,"trial_type":"image-button-response","trial_index":59,"time_elapsed":290329,"internal_node_id":"0.0-4.0-0.26","subject_id":"5fcc24a22987de29caf1c5c3","study_id":"6197b3f67c2b5cd3b6d9596a","session_id":"6197b9e92117c8d2f125d028","condition":"full-information","relevant_dimensions":["antennae","legs"],"bee_group":{"antennae":"A","wings":"X","pattern":"X","legs":"F"},"action":"avoid","summary":"bad-avoid","bonus":0.04},{"rt":879.8999999761581,"stimulus":"\n                    <p><b>Action: <em>avoid</em></b></p>\n                    <p>This is the bee that you just saw.</p>\n                    <img src=\"bees-with-color/bee-B2SF.svg\" width=\"200\">\n                    <p><span class=\"redText\">Bad choice,</span> the bee was friendly.<br>Your bonus pay is unchanged, and remains at $0.34.</p>\n            ","response":0,"trial_type":"html-button-response","trial_index":60,"time_elapsed":291210,"internal_node_id":"0.0-4.0-1.26","subject_id":"5fcc24a22987de29caf1c5c3","study_id":"6197b3f67c2b5cd3b6d9596a","session_id":"6197b9e92117c8d2f125d028","condition":"full-information","relevant_dimensions":["antennae","legs"],"bee_group":{"antennae":"A","wings":"X","pattern":"X","legs":"F"},"bonus":0.04},{"rt":1090.300000011921,"stimulus":"bees-with-color/bee-B1SF.svg","response":1,"trial_type":"image-button-response","trial_index":61,"time_elapsed":292302,"internal_node_id":"0.0-4.0-0.27","subject_id":"5fcc24a22987de29caf1c5c3","study_id":"6197b3f67c2b5cd3b6d9596a","session_id":"6197b9e92117c8d2f125d028","condition":"full-information","relevant_dimensions":["antennae","legs"],"bee_group":{"antennae":"A","wings":"X","pattern":"X","legs":"F"},"action":"avoid","summary":"bad-avoid","bonus":0.04},{"rt":1300.699999988079,"stimulus":"\n                    <p><b>Action: <em>avoid</em></b></p>\n                    <p>This is the bee that you just saw.</p>\n                    <img src=\"bees-with-color/bee-B1SF.svg\" width=\"200\">\n                    <p><span class=\"redText\">Bad choice,</span> the bee was friendly.<br>Your bonus pay is unchanged, and remains at $0.34.</p>\n            ","response":0,"trial_type":"html-button-response","trial_index":62,"time_elapsed":293603,"internal_node_id":"0.0-4.0-1.27","subject_id":"5fcc24a22987de29caf1c5c3","study_id":"6197b3f67c2b5cd3b6d9596a","session_id":"6197b9e92117c8d2f125d028","condition":"full-information","relevant_dimensions":["antennae","legs"],"bee_group":{"antennae":"A","wings":"X","pattern":"X","legs":"F"},"bonus":0.04},{"rt":4481.100000023842,"stimulus":"bees-with-color/bee-B2DF.svg","response":1,"trial_type":"image-button-response","trial_index":63,"time_elapsed":298086,"internal_node_id":"0.0-4.0-0.28","subject_id":"5fcc24a22987de29caf1c5c3","study_id":"6197b3f67c2b5cd3b6d9596a","session_id":"6197b9e92117c8d2f125d028","condition":"full-information","relevant_dimensions":["antennae","legs"],"bee_group":{"antennae":"A","wings":"X","pattern":"X","legs":"F"},"action":"avoid","summary":"bad-avoid","bonus":0.04},{"rt":791.6999999880791,"stimulus":"\n                    <p><b>Action: <em>avoid</em></b></p>\n                    <p>This is the bee that you just saw.</p>\n                    <img src=\"bees-with-color/bee-B2DF.svg\" width=\"200\">\n                    <p><span class=\"redText\">Bad choice,</span> the bee was friendly.<br>Your bonus pay is unchanged, and remains at $0.34.</p>\n            ","response":0,"trial_type":"html-button-response","trial_index":64,"time_elapsed":298879,"internal_node_id":"0.0-4.0-1.28","subject_id":"5fcc24a22987de29caf1c5c3","study_id":"6197b3f67c2b5cd3b6d9596a","session_id":"6197b9e92117c8d2f125d028","condition":"full-information","relevant_dimensions":["antennae","legs"],"bee_group":{"antennae":"A","wings":"X","pattern":"X","legs":"F"},"bonus":0.04},{"rt":2295,"stimulus":"bees-with-color/bee-A2SM.svg","response":1,"trial_type":"image-button-response","trial_index":65,"time_elapsed":301175,"internal_node_id":"0.0-4.0-0.29","subject_id":"5fcc24a22987de29caf1c5c3","study_id":"6197b3f67c2b5cd3b6d9596a","session_id":"6197b9e92117c8d2f125d028","condition":"full-information","relevant_dimensions":["antennae","legs"],"bee_group":{"antennae":"A","wings":"X","pattern":"X","legs":"F"},"action":"avoid","summary":"bad-avoid","bonus":0.04},{"rt":764.8999999761581,"stimulus":"\n                    <p><b>Action: <em>avoid</em></b></p>\n                    <p>This is the bee that you just saw.</p>\n                    <img src=\"bees-with-color/bee-A2SM.svg\" width=\"200\">\n                    <p><span class=\"redText\">Bad choice,</span> the bee was friendly.<br>Your bonus pay is unchanged, and remains at $0.34.</p>\n            ","response":0,"trial_type":"html-button-response","trial_index":66,"time_elapsed":301941,"internal_node_id":"0.0-4.0-1.29","subject_id":"5fcc24a22987de29caf1c5c3","study_id":"6197b3f67c2b5cd3b6d9596a","session_id":"6197b9e92117c8d2f125d028","condition":"full-information","relevant_dimensions":["antennae","legs"],"bee_group":{"antennae":"A","wings":"X","pattern":"X","legs":"F"},"bonus":0.04},{"rt":2471.099999964237,"stimulus":"bees-with-color/bee-A1SF.svg","response":0,"trial_type":"image-button-response","trial_index":67,"time_elapsed":304413,"internal_node_id":"0.0-4.0-0.30","subject_id":"5fcc24a22987de29caf1c5c3","study_id":"6197b3f67c2b5cd3b6d9596a","session_id":"6197b9e92117c8d2f125d028","condition":"full-information","relevant_dimensions":["antennae","legs"],"bee_group":{"antennae":"A","wings":"X","pattern":"X","legs":"F"},"action":"harvest","summary":"bad-harvest","bonus":0.04},{"rt":853.4000000357628,"stimulus":"\n                    <p><b>Action: <em>harvest</em></b></p>\n                    <p>This is the bee that you just saw.</p>\n                    <img src=\"bees-with-color/bee-A1SF.svg\" width=\"200\">\n                    <p><span class=\"redText\">Bad choice, the bee was angry.</span><br><b>You have been stung!</b><br>Your pay has been decreased by $0.10. Your bonus pay is now $0.24.</p>\n            ","response":0,"trial_type":"html-button-response","trial_index":68,"time_elapsed":305268,"internal_node_id":"0.0-4.0-1.30","subject_id":"5fcc24a22987de29caf1c5c3","study_id":"6197b3f67c2b5cd3b6d9596a","session_id":"6197b9e92117c8d2f125d028","condition":"full-information","relevant_dimensions":["antennae","legs"],"bee_group":{"antennae":"A","wings":"X","pattern":"X","legs":"F"},"bonus":0.04},{"rt":1128.699999988079,"stimulus":"bees-with-color/bee-A2SF.svg","response":0,"trial_type":"image-button-response","trial_index":69,"time_elapsed":306397,"internal_node_id":"0.0-4.0-0.31","subject_id":"5fcc24a22987de29caf1c5c3","study_id":"6197b3f67c2b5cd3b6d9596a","session_id":"6197b9e92117c8d2f125d028","condition":"full-information","relevant_dimensions":["antennae","legs"],"bee_group":{"antennae":"A","wings":"X","pattern":"X","legs":"F"},"action":"harvest","summary":"bad-harvest","bonus":0.04},{"rt":1062.8999999761581,"stimulus":"\n                    <p><b>Action: <em>harvest</em></b></p>\n                    <p>This is the bee that you just saw.</p>\n                    <img src=\"bees-with-color/bee-A2SF.svg\" width=\"200\">\n                    <p><span class=\"redText\">Bad choice, the bee was angry.</span><br><b>You have been stung!</b><br>Your pay has been decreased by $0.10. Your bonus pay is now $0.14.</p>\n            ","response":0,"trial_type":"html-button-response","trial_index":70,"time_elapsed":307461,"internal_node_id":"0.0-4.0-1.31","subject_id":"5fcc24a22987de29caf1c5c3","study_id":"6197b3f67c2b5cd3b6d9596a","session_id":"6197b9e92117c8d2f125d028","condition":"full-information","relevant_dimensions":["antennae","legs"],"bee_group":{"antennae":"A","wings":"X","pattern":"X","legs":"F"},"bonus":0.04},{"rt":1408.4000000357628,"stimulus":"bees-with-color/bee-B1DM.svg","response":0,"trial_type":"image-button-response","trial_index":71,"time_elapsed":308870,"internal_node_id":"0.0-4.0-0.32","subject_id":"5fcc24a22987de29caf1c5c3","study_id":"6197b3f67c2b5cd3b6d9596a","session_id":"6197b9e92117c8d2f125d028","condition":"full-information","relevant_dimensions":["antennae","legs"],"bee_group":{"antennae":"A","wings":"X","pattern":"X","legs":"F"},"action":"harvest","summary":"good-harvest","bonus":0.04},{"rt":860.5999999642372,"stimulus":"\n                    <p><b>Action: <em>harvest</em></b></p>\n                    <p>This is the bee that you just saw.</p>\n                    <img src=\"bees-with-color/bee-B1DM.svg\" width=\"200\">\n                    <p><span class=\"greenText\"><b>Successful harvest!</b></span><br>Your pay has increased by $0.02. Your bonus pay is now $0.16.</p>\n            ","response":0,"trial_type":"html-button-response","trial_index":72,"time_elapsed":309732,"internal_node_id":"0.0-4.0-1.32","subject_id":"5fcc24a22987de29caf1c5c3","study_id":"6197b3f67c2b5cd3b6d9596a","session_id":"6197b9e92117c8d2f125d028","condition":"full-information","relevant_dimensions":["antennae","legs"],"bee_group":{"antennae":"A","wings":"X","pattern":"X","legs":"F"},"bonus":0.04},{"rt":1440,"stimulus":"bees-with-color/bee-A1DM.svg","response":0,"trial_type":"image-button-response","trial_index":73,"time_elapsed":311173,"internal_node_id":"0.0-4.0-0.33","subject_id":"5fcc24a22987de29caf1c5c3","study_id":"6197b3f67c2b5cd3b6d9596a","session_id":"6197b9e92117c8d2f125d028","condition":"full-information","relevant_dimensions":["antennae","legs"],"bee_group":{"antennae":"A","wings":"X","pattern":"X","legs":"F"},"action":"harvest","summary":"good-harvest","bonus":0.04},{"rt":858.8999999761581,"stimulus":"\n                    <p><b>Action: <em>harvest</em></b></p>\n                    <p>This is the bee that you just saw.</p>\n                    <img src=\"bees-with-color/bee-A1DM.svg\" width=\"200\">\n                    <p><span class=\"greenText\"><b>Successful harvest!</b></span><br>Your pay has increased by $0.02. Your bonus pay is now $0.18.</p>\n            ","response":0,"trial_type":"html-button-response","trial_index":74,"time_elapsed":312033,"internal_node_id":"0.0-4.0-1.33","subject_id":"5fcc24a22987de29caf1c5c3","study_id":"6197b3f67c2b5cd3b6d9596a","session_id":"6197b9e92117c8d2f125d028","condition":"full-information","relevant_dimensions":["antennae","legs"],"bee_group":{"antennae":"A","wings":"X","pattern":"X","legs":"F"},"bonus":0.04},{"rt":2491,"stimulus":"bees-with-color/bee-B1SF.svg","response":1,"trial_type":"image-button-response","trial_index":75,"time_elapsed":314525,"internal_node_id":"0.0-4.0-0.34","subject_id":"5fcc24a22987de29caf1c5c3","study_id":"6197b3f67c2b5cd3b6d9596a","session_id":"6197b9e92117c8d2f125d028","condition":"full-information","relevant_dimensions":["antennae","legs"],"bee_group":{"antennae":"A","wings":"X","pattern":"X","legs":"F"},"action":"avoid","summary":"bad-avoid","bonus":0.04},{"rt":965,"stimulus":"\n                    <p><b>Action: <em>avoid</em></b></p>\n                    <p>This is the bee that you just saw.</p>\n                    <img src=\"bees-with-color/bee-B1SF.svg\" width=\"200\">\n                    <p><span class=\"redText\">Bad choice,</span> the bee was friendly.<br>Your bonus pay is unchanged, and remains at $0.18.</p>\n            ","response":0,"trial_type":"html-button-response","trial_index":76,"time_elapsed":315491,"internal_node_id":"0.0-4.0-1.34","subject_id":"5fcc24a22987de29caf1c5c3","study_id":"6197b3f67c2b5cd3b6d9596a","session_id":"6197b9e92117c8d2f125d028","condition":"full-information","relevant_dimensions":["antennae","legs"],"bee_group":{"antennae":"A","wings":"X","pattern":"X","legs":"F"},"bonus":0.04},{"rt":1528.5,"stimulus":"bees-with-color/bee-A2SF.svg","response":0,"trial_type":"image-button-response","trial_index":77,"time_elapsed":317021,"internal_node_id":"0.0-4.0-0.35","subject_id":"5fcc24a22987de29caf1c5c3","study_id":"6197b3f67c2b5cd3b6d9596a","session_id":"6197b9e92117c8d2f125d028","condition":"full-information","relevant_dimensions":["antennae","legs"],"bee_group":{"antennae":"A","wings":"X","pattern":"X","legs":"F"},"action":"harvest","summary":"bad-harvest","bonus":0.04},{"rt":1016.6999999880791,"stimulus":"\n                    <p><b>Action: <em>harvest</em></b></p>\n                    <p>This is the bee that you just saw.</p>\n                    <img src=\"bees-with-color/bee-A2SF.svg\" width=\"200\">\n                    <p><span class=\"redText\">Bad choice, the bee was angry.</span><br><b>You have been stung!</b><br>Your pay has been decreased by $0.10. Your bonus pay is now $0.08.</p>\n            ","response":0,"trial_type":"html-button-response","trial_index":78,"time_elapsed":318038,"internal_node_id":"0.0-4.0-1.35","subject_id":"5fcc24a22987de29caf1c5c3","study_id":"6197b3f67c2b5cd3b6d9596a","session_id":"6197b9e92117c8d2f125d028","condition":"full-information","relevant_dimensions":["antennae","legs"],"bee_group":{"antennae":"A","wings":"X","pattern":"X","legs":"F"},"bonus":0.04},{"rt":1792.800000011921,"stimulus":"bees-with-color/bee-A2SM.svg","response":0,"trial_type":"image-button-response","trial_index":79,"time_elapsed":319832,"internal_node_id":"0.0-4.0-0.36","subject_id":"5fcc24a22987de29caf1c5c3","study_id":"6197b3f67c2b5cd3b6d9596a","session_id":"6197b9e92117c8d2f125d028","condition":"full-information","relevant_dimensions":["antennae","legs"],"bee_group":{"antennae":"A","wings":"X","pattern":"X","legs":"F"},"action":"harvest","summary":"good-harvest","bonus":0.04},{"rt":969.5,"stimulus":"\n                    <p><b>Action: <em>harvest</em></b></p>\n                    <p>This is the bee that you just saw.</p>\n                    <img src=\"bees-with-color/bee-A2SM.svg\" width=\"200\">\n                    <p><span class=\"greenText\"><b>Successful harvest!</b></span><br>Your pay has increased by $0.02. Your bonus pay is now $0.10.</p>\n            ","response":0,"trial_type":"html-button-response","trial_index":80,"time_elapsed":320803,"internal_node_id":"0.0-4.0-1.36","subject_id":"5fcc24a22987de29caf1c5c3","study_id":"6197b3f67c2b5cd3b6d9596a","session_id":"6197b9e92117c8d2f125d028","condition":"full-information","relevant_dimensions":["antennae","legs"],"bee_group":{"antennae":"A","wings":"X","pattern":"X","legs":"F"},"bonus":0.04},{"rt":3481.399999976158,"stimulus":"bees-with-color/bee-A1SF.svg","response":0,"trial_type":"image-button-response","trial_index":81,"time_elapsed":324285,"internal_node_id":"0.0-4.0-0.37","subject_id":"5fcc24a22987de29caf1c5c3","study_id":"6197b3f67c2b5cd3b6d9596a","session_id":"6197b9e92117c8d2f125d028","condition":"full-information","relevant_dimensions":["antennae","legs"],"bee_group":{"antennae":"A","wings":"X","pattern":"X","legs":"F"},"action":"harvest","summary":"bad-harvest","bonus":0.04},{"rt":1032.800000011921,"stimulus":"\n                    <p><b>Action: <em>harvest</em></b></p>\n                    <p>This is the bee that you just saw.</p>\n                    <img src=\"bees-with-color/bee-A1SF.svg\" width=\"200\">\n                    <p><span class=\"redText\">Bad choice, the bee was angry.</span><br><b>You have been stung!</b><br>Your pay has been decreased by $0.10. Your bonus pay is now $0.00.</p>\n            ","response":0,"trial_type":"html-button-response","trial_index":82,"time_elapsed":325319,"internal_node_id":"0.0-4.0-1.37","subject_id":"5fcc24a22987de29caf1c5c3","study_id":"6197b3f67c2b5cd3b6d9596a","session_id":"6197b9e92117c8d2f125d028","condition":"full-information","relevant_dimensions":["antennae","legs"],"bee_group":{"antennae":"A","wings":"X","pattern":"X","legs":"F"},"bonus":0.04},{"rt":1345.7999999523163,"stimulus":"bees-with-color/bee-A2DM.svg","response":0,"trial_type":"image-button-response","trial_index":83,"time_elapsed":326666,"internal_node_id":"0.0-4.0-0.38","subject_id":"5fcc24a22987de29caf1c5c3","study_id":"6197b3f67c2b5cd3b6d9596a","session_id":"6197b9e92117c8d2f125d028","condition":"full-information","relevant_dimensions":["antennae","legs"],"bee_group":{"antennae":"A","wings":"X","pattern":"X","legs":"F"},"action":"harvest","summary":"good-harvest","bonus":0.04},{"rt":739,"stimulus":"\n                    <p><b>Action: <em>harvest</em></b></p>\n                    <p>This is the bee that you just saw.</p>\n                    <img src=\"bees-with-color/bee-A2DM.svg\" width=\"200\">\n                    <p><span class=\"greenText\"><b>Successful harvest!</b></span><br>Your pay has increased by $0.02. Your bonus pay is now $0.02.</p>\n            ","response":0,"trial_type":"html-button-response","trial_index":84,"time_elapsed":327406,"internal_node_id":"0.0-4.0-1.38","subject_id":"5fcc24a22987de29caf1c5c3","study_id":"6197b3f67c2b5cd3b6d9596a","session_id":"6197b9e92117c8d2f125d028","condition":"full-information","relevant_dimensions":["antennae","legs"],"bee_group":{"antennae":"A","wings":"X","pattern":"X","legs":"F"},"bonus":0.04},{"rt":1340.2000000476837,"stimulus":"bees-with-color/bee-B1SM.svg","response":0,"trial_type":"image-button-response","trial_index":85,"time_elapsed":328747,"internal_node_id":"0.0-4.0-0.39","subject_id":"5fcc24a22987de29caf1c5c3","study_id":"6197b3f67c2b5cd3b6d9596a","session_id":"6197b9e92117c8d2f125d028","condition":"full-information","relevant_dimensions":["antennae","legs"],"bee_group":{"antennae":"A","wings":"X","pattern":"X","legs":"F"},"action":"harvest","summary":"good-harvest","bonus":0.04},{"rt":649.8000000119209,"stimulus":"\n                    <p><b>Action: <em>harvest</em></b></p>\n                    <p>This is the bee that you just saw.</p>\n                    <img src=\"bees-with-color/bee-B1SM.svg\" width=\"200\">\n                    <p><span class=\"greenText\"><b>Successful harvest!</b></span><br>Your pay has increased by $0.02. Your bonus pay is now $0.04.</p>\n            ","response":0,"trial_type":"html-button-response","trial_index":86,"time_elapsed":329398,"internal_node_id":"0.0-4.0-1.39","subject_id":"5fcc24a22987de29caf1c5c3","study_id":"6197b3f67c2b5cd3b6d9596a","session_id":"6197b9e92117c8d2f125d028","condition":"full-information","relevant_dimensions":["antennae","legs"],"bee_group":{"antennae":"A","wings":"X","pattern":"X","legs":"F"},"bonus":0.04},{"rt":1545.3999999761581,"stimulus":"bees-with-color/bee-B1DF.svg","response":0,"trial_type":"image-button-response","trial_index":87,"time_elapsed":330944,"internal_node_id":"0.0-4.0-0.40","subject_id":"5fcc24a22987de29caf1c5c3","study_id":"6197b3f67c2b5cd3b6d9596a","session_id":"6197b9e92117c8d2f125d028","condition":"full-information","relevant_dimensions":["antennae","legs"],"bee_group":{"antennae":"A","wings":"X","pattern":"X","legs":"F"},"action":"harvest","summary":"good-harvest","bonus":0.04},{"rt":825.8000000119209,"stimulus":"\n                    <p><b>Action: <em>harvest</em></b></p>\n                    <p>This is the bee that you just saw.</p>\n                    <img src=\"bees-with-color/bee-B1DF.svg\" width=\"200\">\n                    <p><span class=\"greenText\"><b>Successful harvest!</b></span><br>Your pay has increased by $0.02. Your bonus pay is now $0.06.</p>\n            ","response":0,"trial_type":"html-button-response","trial_index":88,"time_elapsed":331771,"internal_node_id":"0.0-4.0-1.40","subject_id":"5fcc24a22987de29caf1c5c3","study_id":"6197b3f67c2b5cd3b6d9596a","session_id":"6197b9e92117c8d2f125d028","condition":"full-information","relevant_dimensions":["antennae","legs"],"bee_group":{"antennae":"A","wings":"X","pattern":"X","legs":"F"},"bonus":0.04},{"rt":6252.400000035763,"stimulus":"bees-with-color/bee-B2DM.svg","response":1,"trial_type":"image-button-response","trial_index":89,"time_elapsed":338024,"internal_node_id":"0.0-4.0-0.41","subject_id":"5fcc24a22987de29caf1c5c3","study_id":"6197b3f67c2b5cd3b6d9596a","session_id":"6197b9e92117c8d2f125d028","condition":"full-information","relevant_dimensions":["antennae","legs"],"bee_group":{"antennae":"A","wings":"X","pattern":"X","legs":"F"},"action":"avoid","summary":"bad-avoid","bonus":0.04},{"rt":962.8000000119209,"stimulus":"\n                    <p><b>Action: <em>avoid</em></b></p>\n                    <p>This is the bee that you just saw.</p>\n                    <img src=\"bees-with-color/bee-B2DM.svg\" width=\"200\">\n                    <p><span class=\"redText\">Bad choice,</span> the bee was friendly.<br>Your bonus pay is unchanged, and remains at $0.06.</p>\n            ","response":0,"trial_type":"html-button-response","trial_index":90,"time_elapsed":338988,"internal_node_id":"0.0-4.0-1.41","subject_id":"5fcc24a22987de29caf1c5c3","study_id":"6197b3f67c2b5cd3b6d9596a","session_id":"6197b9e92117c8d2f125d028","condition":"full-information","relevant_dimensions":["antennae","legs"],"bee_group":{"antennae":"A","wings":"X","pattern":"X","legs":"F"},"bonus":0.04},{"rt":1867.4000000357628,"stimulus":"bees-with-color/bee-B2DF.svg","response":1,"trial_type":"image-button-response","trial_index":91,"time_elapsed":340857,"internal_node_id":"0.0-4.0-0.42","subject_id":"5fcc24a22987de29caf1c5c3","study_id":"6197b3f67c2b5cd3b6d9596a","session_id":"6197b9e92117c8d2f125d028","condition":"full-information","relevant_dimensions":["antennae","legs"],"bee_group":{"antennae":"A","wings":"X","pattern":"X","legs":"F"},"action":"avoid","summary":"bad-avoid","bonus":0.04},{"rt":884,"stimulus":"\n                    <p><b>Action: <em>avoid</em></b></p>\n                    <p>This is the bee that you just saw.</p>\n                    <img src=\"bees-with-color/bee-B2DF.svg\" width=\"200\">\n                    <p><span class=\"redText\">Bad choice,</span> the bee was friendly.<br>Your bonus pay is unchanged, and remains at $0.06.</p>\n            ","response":0,"trial_type":"html-button-response","trial_index":92,"time_elapsed":341742,"internal_node_id":"0.0-4.0-1.42","subject_id":"5fcc24a22987de29caf1c5c3","study_id":"6197b3f67c2b5cd3b6d9596a","session_id":"6197b9e92117c8d2f125d028","condition":"full-information","relevant_dimensions":["antennae","legs"],"bee_group":{"antennae":"A","wings":"X","pattern":"X","legs":"F"},"bonus":0.04},{"rt":1245.800000011921,"stimulus":"bees-with-color/bee-A2DF.svg","response":0,"trial_type":"image-button-response","trial_index":93,"time_elapsed":342989,"internal_node_id":"0.0-4.0-0.43","subject_id":"5fcc24a22987de29caf1c5c3","study_id":"6197b3f67c2b5cd3b6d9596a","session_id":"6197b9e92117c8d2f125d028","condition":"full-information","relevant_dimensions":["antennae","legs"],"bee_group":{"antennae":"A","wings":"X","pattern":"X","legs":"F"},"action":"harvest","summary":"bad-harvest","bonus":0.04},{"rt":866.7999999523163,"stimulus":"\n                    <p><b>Action: <em>harvest</em></b></p>\n                    <p>This is the bee that you just saw.</p>\n                    <img src=\"bees-with-color/bee-A2DF.svg\" width=\"200\">\n                    <p><span class=\"redText\">Bad choice, the bee was angry.</span><br><b>You have been stung!</b><br>Your pay has been decreased by $0.10. Your bonus pay is now $0.00.</p>\n            ","response":0,"trial_type":"html-button-response","trial_index":94,"time_elapsed":343857,"internal_node_id":"0.0-4.0-1.43","subject_id":"5fcc24a22987de29caf1c5c3","study_id":"6197b3f67c2b5cd3b6d9596a","session_id":"6197b9e92117c8d2f125d028","condition":"full-information","relevant_dimensions":["antennae","legs"],"bee_group":{"antennae":"A","wings":"X","pattern":"X","legs":"F"},"bonus":0.04},{"rt":825.3000000119209,"stimulus":"bees-with-color/bee-B2SM.svg","response":0,"trial_type":"image-button-response","trial_index":95,"time_elapsed":344683,"internal_node_id":"0.0-4.0-0.44","subject_id":"5fcc24a22987de29caf1c5c3","study_id":"6197b3f67c2b5cd3b6d9596a","session_id":"6197b9e92117c8d2f125d028","condition":"full-information","relevant_dimensions":["antennae","legs"],"bee_group":{"antennae":"A","wings":"X","pattern":"X","legs":"F"},"action":"harvest","summary":"good-harvest","bonus":0.04},{"rt":560.1000000238419,"stimulus":"\n                    <p><b>Action: <em>harvest</em></b></p>\n                    <p>This is the bee that you just saw.</p>\n                    <img src=\"bees-with-color/bee-B2SM.svg\" width=\"200\">\n                    <p><span class=\"greenText\"><b>Successful harvest!</b></span><br>Your pay has increased by $0.02. Your bonus pay is now $0.02.</p>\n            ","response":0,"trial_type":"html-button-response","trial_index":96,"time_elapsed":345244,"internal_node_id":"0.0-4.0-1.44","subject_id":"5fcc24a22987de29caf1c5c3","study_id":"6197b3f67c2b5cd3b6d9596a","session_id":"6197b9e92117c8d2f125d028","condition":"full-information","relevant_dimensions":["antennae","legs"],"bee_group":{"antennae":"A","wings":"X","pattern":"X","legs":"F"},"bonus":0.04},{"rt":1933,"stimulus":"bees-with-color/bee-A1DF.svg","response":0,"trial_type":"image-button-response","trial_index":97,"time_elapsed":347178,"internal_node_id":"0.0-4.0-0.45","subject_id":"5fcc24a22987de29caf1c5c3","study_id":"6197b3f67c2b5cd3b6d9596a","session_id":"6197b9e92117c8d2f125d028","condition":"full-information","relevant_dimensions":["antennae","legs"],"bee_group":{"antennae":"A","wings":"X","pattern":"X","legs":"F"},"action":"harvest","summary":"bad-harvest","bonus":0.04},{"rt":713,"stimulus":"\n                    <p><b>Action: <em>harvest</em></b></p>\n                    <p>This is the bee that you just saw.</p>\n                    <img src=\"bees-with-color/bee-A1DF.svg\" width=\"200\">\n                    <p><span class=\"redText\">Bad choice, the bee was angry.</span><br><b>You have been stung!</b><br>Your pay has been decreased by $0.10. Your bonus pay is now $0.00.</p>\n            ","response":0,"trial_type":"html-button-response","trial_index":98,"time_elapsed":347892,"internal_node_id":"0.0-4.0-1.45","subject_id":"5fcc24a22987de29caf1c5c3","study_id":"6197b3f67c2b5cd3b6d9596a","session_id":"6197b9e92117c8d2f125d028","condition":"full-information","relevant_dimensions":["antennae","legs"],"bee_group":{"antennae":"A","wings":"X","pattern":"X","legs":"F"},"bonus":0.04},{"rt":628.7999999523163,"stimulus":"bees-with-color/bee-A1SM.svg","response":0,"trial_type":"image-button-response","trial_index":99,"time_elapsed":348522,"internal_node_id":"0.0-4.0-0.46","subject_id":"5fcc24a22987de29caf1c5c3","study_id":"6197b3f67c2b5cd3b6d9596a","session_id":"6197b9e92117c8d2f125d028","condition":"full-information","relevant_dimensions":["antennae","legs"],"bee_group":{"antennae":"A","wings":"X","pattern":"X","legs":"F"},"action":"harvest","summary":"good-harvest","bonus":0.04},{"rt":653.8999999761581,"stimulus":"\n                    <p><b>Action: <em>harvest</em></b></p>\n                    <p>This is the bee that you just saw.</p>\n                    <img src=\"bees-with-color/bee-A1SM.svg\" width=\"200\">\n                    <p><span class=\"greenText\"><b>Successful harvest!</b></span><br>Your pay has increased by $0.02. Your bonus pay is now $0.02.</p>\n            ","response":0,"trial_type":"html-button-response","trial_index":100,"time_elapsed":349177,"internal_node_id":"0.0-4.0-1.46","subject_id":"5fcc24a22987de29caf1c5c3","study_id":"6197b3f67c2b5cd3b6d9596a","session_id":"6197b9e92117c8d2f125d028","condition":"full-information","relevant_dimensions":["antennae","legs"],"bee_group":{"antennae":"A","wings":"X","pattern":"X","legs":"F"},"bonus":0.04},{"rt":1408.4000000357628,"stimulus":"bees-with-color/bee-B2SF.svg","response":0,"trial_type":"image-button-response","trial_index":101,"time_elapsed":350586,"internal_node_id":"0.0-4.0-0.47","subject_id":"5fcc24a22987de29caf1c5c3","study_id":"6197b3f67c2b5cd3b6d9596a","session_id":"6197b9e92117c8d2f125d028","condition":"full-information","relevant_dimensions":["antennae","legs"],"bee_group":{"antennae":"A","wings":"X","pattern":"X","legs":"F"},"action":"harvest","summary":"good-harvest","bonus":0.04},{"rt":754,"stimulus":"\n                    <p><b>Action: <em>harvest</em></b></p>\n                    <p>This is the bee that you just saw.</p>\n                    <img src=\"bees-with-color/bee-B2SF.svg\" width=\"200\">\n                    <p><span class=\"greenText\"><b>Successful harvest!</b></span><br>Your pay has increased by $0.02. Your bonus pay is now $0.04.</p>\n            ","response":0,"trial_type":"html-button-response","trial_index":102,"time_elapsed":351341,"internal_node_id":"0.0-4.0-1.47","subject_id":"5fcc24a22987de29caf1c5c3","study_id":"6197b3f67c2b5cd3b6d9596a","session_id":"6197b9e92117c8d2f125d028","condition":"full-information","relevant_dimensions":["antennae","legs"],"bee_group":{"antennae":"A","wings":"X","pattern":"X","legs":"F"},"bonus":0.04},{"rt":1849.300000011921,"stimulus":"bees-with-color/bee-B1SF.svg","response":0,"trial_type":"image-button-response","trial_index":103,"time_elapsed":353191,"internal_node_id":"0.0-4.0-0.48","subject_id":"5fcc24a22987de29caf1c5c3","study_id":"6197b3f67c2b5cd3b6d9596a","session_id":"6197b9e92117c8d2f125d028","condition":"full-information","relevant_dimensions":["antennae","legs"],"bee_group":{"antennae":"A","wings":"X","pattern":"X","legs":"F"},"action":"harvest","summary":"good-harvest","bonus":0.04},{"rt":821.7999999523163,"stimulus":"\n                    <p><b>Action: <em>harvest</em></b></p>\n                    <p>This is the bee that you just saw.</p>\n                    <img src=\"bees-with-color/bee-B1SF.svg\" width=\"200\">\n                    <p><span class=\"greenText\"><b>Successful harvest!</b></span><br>Your pay has increased by $0.02. Your bonus pay is now $0.06.</p>\n            ","response":0,"trial_type":"html-button-response","trial_index":104,"time_elapsed":354014,"internal_node_id":"0.0-4.0-1.48","subject_id":"5fcc24a22987de29caf1c5c3","study_id":"6197b3f67c2b5cd3b6d9596a","session_id":"6197b9e92117c8d2f125d028","condition":"full-information","relevant_dimensions":["antennae","legs"],"bee_group":{"antennae":"A","wings":"X","pattern":"X","legs":"F"},"bonus":0.04},{"rt":1209.8999999761581,"stimulus":"bees-with-color/bee-B1SM.svg","response":1,"trial_type":"image-button-response","trial_index":105,"time_elapsed":355225,"internal_node_id":"0.0-4.0-0.49","subject_id":"5fcc24a22987de29caf1c5c3","study_id":"6197b3f67c2b5cd3b6d9596a","session_id":"6197b9e92117c8d2f125d028","condition":"full-information","relevant_dimensions":["antennae","legs"],"bee_group":{"antennae":"A","wings":"X","pattern":"X","legs":"F"},"action":"avoid","summary":"bad-avoid","bonus":0.04},{"rt":786.8999999761581,"stimulus":"\n                    <p><b>Action: <em>avoid</em></b></p>\n                    <p>This is the bee that you just saw.</p>\n                    <img src=\"bees-with-color/bee-B1SM.svg\" width=\"200\">\n                    <p><span class=\"redText\">Bad choice,</span> the bee was friendly.<br>Your bonus pay is unchanged, and remains at $0.06.</p>\n            ","response":0,"trial_type":"html-button-response","trial_index":106,"time_elapsed":356013,"internal_node_id":"0.0-4.0-1.49","subject_id":"5fcc24a22987de29caf1c5c3","study_id":"6197b3f67c2b5cd3b6d9596a","session_id":"6197b9e92117c8d2f125d028","condition":"full-information","relevant_dimensions":["antennae","legs"],"bee_group":{"antennae":"A","wings":"X","pattern":"X","legs":"F"},"bonus":0.04},{"rt":1310.2000000476837,"stimulus":"bees-with-color/bee-B2DF.svg","response":1,"trial_type":"image-button-response","trial_index":107,"time_elapsed":357324,"internal_node_id":"0.0-4.0-0.50","subject_id":"5fcc24a22987de29caf1c5c3","study_id":"6197b3f67c2b5cd3b6d9596a","session_id":"6197b9e92117c8d2f125d028","condition":"full-information","relevant_dimensions":["antennae","legs"],"bee_group":{"antennae":"A","wings":"X","pattern":"X","legs":"F"},"action":"avoid","summary":"bad-avoid","bonus":0.04},{"rt":589.5,"stimulus":"\n                    <p><b>Action: <em>avoid</em></b></p>\n                    <p>This is the bee that you just saw.</p>\n                    <img src=\"bees-with-color/bee-B2DF.svg\" width=\"200\">\n                    <p><span class=\"redText\">Bad choice,</span> the bee was friendly.<br>Your bonus pay is unchanged, and remains at $0.06.</p>\n            ","response":0,"trial_type":"html-button-response","trial_index":108,"time_elapsed":357915,"internal_node_id":"0.0-4.0-1.50","subject_id":"5fcc24a22987de29caf1c5c3","study_id":"6197b3f67c2b5cd3b6d9596a","session_id":"6197b9e92117c8d2f125d028","condition":"full-information","relevant_dimensions":["antennae","legs"],"bee_group":{"antennae":"A","wings":"X","pattern":"X","legs":"F"},"bonus":0.04},{"rt":1401.199999988079,"stimulus":"bees-with-color/bee-A1DM.svg","response":1,"trial_type":"image-button-response","trial_index":109,"time_elapsed":359317,"internal_node_id":"0.0-4.0-0.51","subject_id":"5fcc24a22987de29caf1c5c3","study_id":"6197b3f67c2b5cd3b6d9596a","session_id":"6197b9e92117c8d2f125d028","condition":"full-information","relevant_dimensions":["antennae","legs"],"bee_group":{"antennae":"A","wings":"X","pattern":"X","legs":"F"},"action":"avoid","summary":"bad-avoid","bonus":0.04},{"rt":893.6000000238419,"stimulus":"\n                    <p><b>Action: <em>avoid</em></b></p>\n                    <p>This is the bee that you just saw.</p>\n                    <img src=\"bees-with-color/bee-A1DM.svg\" width=\"200\">\n                    <p><span class=\"redText\">Bad choice,</span> the bee was friendly.<br>Your bonus pay is unchanged, and remains at $0.06.</p>\n            ","response":0,"trial_type":"html-button-response","trial_index":110,"time_elapsed":360212,"internal_node_id":"0.0-4.0-1.51","subject_id":"5fcc24a22987de29caf1c5c3","study_id":"6197b3f67c2b5cd3b6d9596a","session_id":"6197b9e92117c8d2f125d028","condition":"full-information","relevant_dimensions":["antennae","legs"],"bee_group":{"antennae":"A","wings":"X","pattern":"X","legs":"F"},"bonus":0.04},{"rt":1143.0999999642372,"stimulus":"bees-with-color/bee-A2SF.svg","response":0,"trial_type":"image-button-response","trial_index":111,"time_elapsed":361356,"internal_node_id":"0.0-4.0-0.52","subject_id":"5fcc24a22987de29caf1c5c3","study_id":"6197b3f67c2b5cd3b6d9596a","session_id":"6197b9e92117c8d2f125d028","condition":"full-information","relevant_dimensions":["antennae","legs"],"bee_group":{"antennae":"A","wings":"X","pattern":"X","legs":"F"},"action":"harvest","summary":"bad-harvest","bonus":0.04},{"rt":844.3999999761581,"stimulus":"\n                    <p><b>Action: <em>harvest</em></b></p>\n                    <p>This is the bee that you just saw.</p>\n                    <img src=\"bees-with-color/bee-A2SF.svg\" width=\"200\">\n                    <p><span class=\"redText\">Bad choice, the bee was angry.</span><br><b>You have been stung!</b><br>Your pay has been decreased by $0.10. Your bonus pay is now $0.00.</p>\n            ","response":0,"trial_type":"html-button-response","trial_index":112,"time_elapsed":362201,"internal_node_id":"0.0-4.0-1.52","subject_id":"5fcc24a22987de29caf1c5c3","study_id":"6197b3f67c2b5cd3b6d9596a","session_id":"6197b9e92117c8d2f125d028","condition":"full-information","relevant_dimensions":["antennae","legs"],"bee_group":{"antennae":"A","wings":"X","pattern":"X","legs":"F"},"bonus":0.04},{"rt":1839.8999999761581,"stimulus":"bees-with-color/bee-B2SF.svg","response":0,"trial_type":"image-button-response","trial_index":113,"time_elapsed":364042,"internal_node_id":"0.0-4.0-0.53","subject_id":"5fcc24a22987de29caf1c5c3","study_id":"6197b3f67c2b5cd3b6d9596a","session_id":"6197b9e92117c8d2f125d028","condition":"full-information","relevant_dimensions":["antennae","legs"],"bee_group":{"antennae":"A","wings":"X","pattern":"X","legs":"F"},"action":"harvest","summary":"good-harvest","bonus":0.04},{"rt":581,"stimulus":"\n                    <p><b>Action: <em>harvest</em></b></p>\n                    <p>This is the bee that you just saw.</p>\n                    <img src=\"bees-with-color/bee-B2SF.svg\" width=\"200\">\n                    <p><span class=\"greenText\"><b>Successful harvest!</b></span><br>Your pay has increased by $0.02. Your bonus pay is now $0.02.</p>\n            ","response":0,"trial_type":"html-button-response","trial_index":114,"time_elapsed":364624,"internal_node_id":"0.0-4.0-1.53","subject_id":"5fcc24a22987de29caf1c5c3","study_id":"6197b3f67c2b5cd3b6d9596a","session_id":"6197b9e92117c8d2f125d028","condition":"full-information","relevant_dimensions":["antennae","legs"],"bee_group":{"antennae":"A","wings":"X","pattern":"X","legs":"F"},"bonus":0.04},{"rt":1109.8999999761581,"stimulus":"bees-with-color/bee-A1DF.svg","response":0,"trial_type":"image-button-response","trial_index":115,"time_elapsed":365735,"internal_node_id":"0.0-4.0-0.54","subject_id":"5fcc24a22987de29caf1c5c3","study_id":"6197b3f67c2b5cd3b6d9596a","session_id":"6197b9e92117c8d2f125d028","condition":"full-information","relevant_dimensions":["antennae","legs"],"bee_group":{"antennae":"A","wings":"X","pattern":"X","legs":"F"},"action":"harvest","summary":"bad-harvest","bonus":0.04},{"rt":569.7999999523163,"stimulus":"\n                    <p><b>Action: <em>harvest</em></b></p>\n                    <p>This is the bee that you just saw.</p>\n                    <img src=\"bees-with-color/bee-A1DF.svg\" width=\"200\">\n                    <p><span class=\"redText\">Bad choice, the bee was angry.</span><br><b>You have been stung!</b><br>Your pay has been decreased by $0.10. Your bonus pay is now $0.00.</p>\n            ","response":0,"trial_type":"html-button-response","trial_index":116,"time_elapsed":366305,"internal_node_id":"0.0-4.0-1.54","subject_id":"5fcc24a22987de29caf1c5c3","study_id":"6197b3f67c2b5cd3b6d9596a","session_id":"6197b9e92117c8d2f125d028","condition":"full-information","relevant_dimensions":["antennae","legs"],"bee_group":{"antennae":"A","wings":"X","pattern":"X","legs":"F"},"bonus":0.04},{"rt":608.8000000119209,"stimulus":"bees-with-color/bee-B1DM.svg","response":0,"trial_type":"image-button-response","trial_index":117,"time_elapsed":366915,"internal_node_id":"0.0-4.0-0.55","subject_id":"5fcc24a22987de29caf1c5c3","study_id":"6197b3f67c2b5cd3b6d9596a","session_id":"6197b9e92117c8d2f125d028","condition":"full-information","relevant_dimensions":["antennae","legs"],"bee_group":{"antennae":"A","wings":"X","pattern":"X","legs":"F"},"action":"harvest","summary":"good-harvest","bonus":0.04},{"rt":646.0999999642372,"stimulus":"\n                    <p><b>Action: <em>harvest</em></b></p>\n                    <p>This is the bee that you just saw.</p>\n                    <img src=\"bees-with-color/bee-B1DM.svg\" width=\"200\">\n                    <p><span class=\"greenText\"><b>Successful harvest!</b></span><br>Your pay has increased by $0.02. Your bonus pay is now $0.02.</p>\n            ","response":0,"trial_type":"html-button-response","trial_index":118,"time_elapsed":367562,"internal_node_id":"0.0-4.0-1.55","subject_id":"5fcc24a22987de29caf1c5c3","study_id":"6197b3f67c2b5cd3b6d9596a","session_id":"6197b9e92117c8d2f125d028","condition":"full-information","relevant_dimensions":["antennae","legs"],"bee_group":{"antennae":"A","wings":"X","pattern":"X","legs":"F"},"bonus":0.04},{"rt":2873.899999976158,"stimulus":"bees-with-color/bee-A2DF.svg","response":0,"trial_type":"image-button-response","trial_index":119,"time_elapsed":370437,"internal_node_id":"0.0-4.0-0.56","subject_id":"5fcc24a22987de29caf1c5c3","study_id":"6197b3f67c2b5cd3b6d9596a","session_id":"6197b9e92117c8d2f125d028","condition":"full-information","relevant_dimensions":["antennae","legs"],"bee_group":{"antennae":"A","wings":"X","pattern":"X","legs":"F"},"action":"harvest","summary":"bad-harvest","bonus":0.04},{"rt":544,"stimulus":"\n                    <p><b>Action: <em>harvest</em></b></p>\n                    <p>This is the bee that you just saw.</p>\n                    <img src=\"bees-with-color/bee-A2DF.svg\" width=\"200\">\n                    <p><span class=\"redText\">Bad choice, the bee was angry.</span><br><b>You have been stung!</b><br>Your pay has been decreased by $0.10. Your bonus pay is now $0.00.</p>\n            ","response":0,"trial_type":"html-button-response","trial_index":120,"time_elapsed":370982,"internal_node_id":"0.0-4.0-1.56","subject_id":"5fcc24a22987de29caf1c5c3","study_id":"6197b3f67c2b5cd3b6d9596a","session_id":"6197b9e92117c8d2f125d028","condition":"full-information","relevant_dimensions":["antennae","legs"],"bee_group":{"antennae":"A","wings":"X","pattern":"X","legs":"F"},"bonus":0.04},{"rt":421.69999998807907,"stimulus":"bees-with-color/bee-B2SM.svg","response":0,"trial_type":"image-button-response","trial_index":121,"time_elapsed":371405,"internal_node_id":"0.0-4.0-0.57","subject_id":"5fcc24a22987de29caf1c5c3","study_id":"6197b3f67c2b5cd3b6d9596a","session_id":"6197b9e92117c8d2f125d028","condition":"full-information","relevant_dimensions":["antennae","legs"],"bee_group":{"antennae":"A","wings":"X","pattern":"X","legs":"F"},"action":"harvest","summary":"good-harvest","bonus":0.04},{"rt":696,"stimulus":"\n                    <p><b>Action: <em>harvest</em></b></p>\n                    <p>This is the bee that you just saw.</p>\n                    <img src=\"bees-with-color/bee-B2SM.svg\" width=\"200\">\n                    <p><span class=\"greenText\"><b>Successful harvest!</b></span><br>Your pay has increased by $0.02. Your bonus pay is now $0.02.</p>\n            ","response":0,"trial_type":"html-button-response","trial_index":122,"time_elapsed":372102,"internal_node_id":"0.0-4.0-1.57","subject_id":"5fcc24a22987de29caf1c5c3","study_id":"6197b3f67c2b5cd3b6d9596a","session_id":"6197b9e92117c8d2f125d028","condition":"full-information","relevant_dimensions":["antennae","legs"],"bee_group":{"antennae":"A","wings":"X","pattern":"X","legs":"F"},"bonus":0.04},{"rt":1340.199999988079,"stimulus":"bees-with-color/bee-A2SM.svg","response":0,"trial_type":"image-button-response","trial_index":123,"time_elapsed":373443,"internal_node_id":"0.0-4.0-0.58","subject_id":"5fcc24a22987de29caf1c5c3","study_id":"6197b3f67c2b5cd3b6d9596a","session_id":"6197b9e92117c8d2f125d028","condition":"full-information","relevant_dimensions":["antennae","legs"],"bee_group":{"antennae":"A","wings":"X","pattern":"X","legs":"F"},"action":"harvest","summary":"good-harvest","bonus":0.04},{"rt":1463.1000000238419,"stimulus":"\n                    <p><b>Action: <em>harvest</em></b></p>\n                    <p>This is the bee that you just saw.</p>\n                    <img src=\"bees-with-color/bee-A2SM.svg\" width=\"200\">\n                    <p><span class=\"greenText\"><b>Successful harvest!</b></span><br>Your pay has increased by $0.02. Your bonus pay is now $0.04.</p>\n            ","response":0,"trial_type":"html-button-response","trial_index":124,"time_elapsed":374907,"internal_node_id":"0.0-4.0-1.58","subject_id":"5fcc24a22987de29caf1c5c3","study_id":"6197b3f67c2b5cd3b6d9596a","session_id":"6197b9e92117c8d2f125d028","condition":"full-information","relevant_dimensions":["antennae","legs"],"bee_group":{"antennae":"A","wings":"X","pattern":"X","legs":"F"},"bonus":0.04},{"rt":1190.2000000476837,"stimulus":"bees-with-color/bee-A2DM.svg","response":1,"trial_type":"image-button-response","trial_index":125,"time_elapsed":376098,"internal_node_id":"0.0-4.0-0.59","subject_id":"5fcc24a22987de29caf1c5c3","study_id":"6197b3f67c2b5cd3b6d9596a","session_id":"6197b9e92117c8d2f125d028","condition":"full-information","relevant_dimensions":["antennae","legs"],"bee_group":{"antennae":"A","wings":"X","pattern":"X","legs":"F"},"action":"avoid","summary":"bad-avoid","bonus":0.04},{"rt":743.5,"stimulus":"\n                    <p><b>Action: <em>avoid</em></b></p>\n                    <p>This is the bee that you just saw.</p>\n                    <img src=\"bees-with-color/bee-A2DM.svg\" width=\"200\">\n                    <p><span class=\"redText\">Bad choice,</span> the bee was friendly.<br>Your bonus pay is unchanged, and remains at $0.04.</p>\n            ","response":0,"trial_type":"html-button-response","trial_index":126,"time_elapsed":376843,"internal_node_id":"0.0-4.0-1.59","subject_id":"5fcc24a22987de29caf1c5c3","study_id":"6197b3f67c2b5cd3b6d9596a","session_id":"6197b9e92117c8d2f125d028","condition":"full-information","relevant_dimensions":["antennae","legs"],"bee_group":{"antennae":"A","wings":"X","pattern":"X","legs":"F"},"bonus":0.04},{"rt":1840.4000000357628,"stimulus":"bees-with-color/bee-A1SF.svg","response":1,"trial_type":"image-button-response","trial_index":127,"time_elapsed":378684,"internal_node_id":"0.0-4.0-0.60","subject_id":"5fcc24a22987de29caf1c5c3","study_id":"6197b3f67c2b5cd3b6d9596a","session_id":"6197b9e92117c8d2f125d028","condition":"full-information","relevant_dimensions":["antennae","legs"],"bee_group":{"antennae":"A","wings":"X","pattern":"X","legs":"F"},"action":"avoid","summary":"good-avoid","bonus":0.04},{"rt":901.1999999880791,"stimulus":"\n                    <p><b>Action: <em>avoid</em></b></p>\n                    <p>This is the bee that you just saw.</p>\n                    <img src=\"bees-with-color/bee-A1SF.svg\" width=\"200\">\n                    <p><span class=\"greenText\">Good choice!</span>  This bee would have stung you.<br>Your bonus pay is unchanged, and remains at $0.04.</p>\n            ","response":0,"trial_type":"html-button-response","trial_index":128,"time_elapsed":379586,"internal_node_id":"0.0-4.0-1.60","subject_id":"5fcc24a22987de29caf1c5c3","study_id":"6197b3f67c2b5cd3b6d9596a","session_id":"6197b9e92117c8d2f125d028","condition":"full-information","relevant_dimensions":["antennae","legs"],"bee_group":{"antennae":"A","wings":"X","pattern":"X","legs":"F"},"bonus":0.04},{"rt":977.3000000119209,"stimulus":"bees-with-color/bee-B2DM.svg","response":0,"trial_type":"image-button-response","trial_index":129,"time_elapsed":380564,"internal_node_id":"0.0-4.0-0.61","subject_id":"5fcc24a22987de29caf1c5c3","study_id":"6197b3f67c2b5cd3b6d9596a","session_id":"6197b9e92117c8d2f125d028","condition":"full-information","relevant_dimensions":["antennae","legs"],"bee_group":{"antennae":"A","wings":"X","pattern":"X","legs":"F"},"action":"harvest","summary":"good-harvest","bonus":0.04},{"rt":1382.699999988079,"stimulus":"\n                    <p><b>Action: <em>harvest</em></b></p>\n                    <p>This is the bee that you just saw.</p>\n                    <img src=\"bees-with-color/bee-B2DM.svg\" width=\"200\">\n                    <p><span class=\"greenText\"><b>Successful harvest!</b></span><br>Your pay has increased by $0.02. Your bonus pay is now $0.06.</p>\n            ","response":0,"trial_type":"html-button-response","trial_index":130,"time_elapsed":381948,"internal_node_id":"0.0-4.0-1.61","subject_id":"5fcc24a22987de29caf1c5c3","study_id":"6197b3f67c2b5cd3b6d9596a","session_id":"6197b9e92117c8d2f125d028","condition":"full-information","relevant_dimensions":["antennae","legs"],"bee_group":{"antennae":"A","wings":"X","pattern":"X","legs":"F"},"bonus":0.04},{"rt":1796.300000011921,"stimulus":"bees-with-color/bee-B1DF.svg","response":0,"trial_type":"image-button-response","trial_index":131,"time_elapsed":383746,"internal_node_id":"0.0-4.0-0.62","subject_id":"5fcc24a22987de29caf1c5c3","study_id":"6197b3f67c2b5cd3b6d9596a","session_id":"6197b9e92117c8d2f125d028","condition":"full-information","relevant_dimensions":["antennae","legs"],"bee_group":{"antennae":"A","wings":"X","pattern":"X","legs":"F"},"action":"harvest","summary":"good-harvest","bonus":0.04},{"rt":909.6000000238419,"stimulus":"\n                    <p><b>Action: <em>harvest</em></b></p>\n                    <p>This is the bee that you just saw.</p>\n                    <img src=\"bees-with-color/bee-B1DF.svg\" width=\"200\">\n                    <p><span class=\"greenText\"><b>Successful harvest!</b></span><br>Your pay has increased by $0.02. Your bonus pay is now $0.08.</p>\n            ","response":0,"trial_type":"html-button-response","trial_index":132,"time_elapsed":384656,"internal_node_id":"0.0-4.0-1.62","subject_id":"5fcc24a22987de29caf1c5c3","study_id":"6197b3f67c2b5cd3b6d9596a","session_id":"6197b9e92117c8d2f125d028","condition":"full-information","relevant_dimensions":["antennae","legs"],"bee_group":{"antennae":"A","wings":"X","pattern":"X","legs":"F"},"bonus":0.04},{"rt":2625.099999964237,"stimulus":"bees-with-color/bee-A1SM.svg","response":1,"trial_type":"image-button-response","trial_index":133,"time_elapsed":387282,"internal_node_id":"0.0-4.0-0.63","subject_id":"5fcc24a22987de29caf1c5c3","study_id":"6197b3f67c2b5cd3b6d9596a","session_id":"6197b9e92117c8d2f125d028","condition":"full-information","relevant_dimensions":["antennae","legs"],"bee_group":{"antennae":"A","wings":"X","pattern":"X","legs":"F"},"action":"avoid","summary":"bad-avoid","bonus":0.04},{"rt":776.9000000357628,"stimulus":"\n                    <p><b>Action: <em>avoid</em></b></p>\n                    <p>This is the bee that you just saw.</p>\n                    <img src=\"bees-with-color/bee-A1SM.svg\" width=\"200\">\n                    <p><span class=\"redText\">Bad choice,</span> the bee was friendly.<br>Your bonus pay is unchanged, and remains at $0.08.</p>\n            ","response":0,"trial_type":"html-button-response","trial_index":134,"time_elapsed":388060,"internal_node_id":"0.0-4.0-1.63","subject_id":"5fcc24a22987de29caf1c5c3","study_id":"6197b3f67c2b5cd3b6d9596a","session_id":"6197b9e92117c8d2f125d028","condition":"full-information","relevant_dimensions":["antennae","legs"],"bee_group":{"antennae":"A","wings":"X","pattern":"X","legs":"F"},"bonus":0.04},{"rt":7926.099999964237,"stimulus":"You have completed the first part of this experiment.<br><br>You will now begin a shorter second part, in which you will receive no feedback.<br>The same rules regarding bonus pay apply.<br><br>Press any key to begin.","response":"enter","trial_type":"html-keyboard-response","trial_index":135,"time_elapsed":395987,"internal_node_id":"0.0-5.0","subject_id":"5fcc24a22987de29caf1c5c3","study_id":"6197b3f67c2b5cd3b6d9596a","session_id":"6197b9e92117c8d2f125d028","condition":"full-information","relevant_dimensions":["antennae","legs"],"bee_group":{"antennae":"A","wings":"X","pattern":"X","legs":"F"},"bonus":0.04},{"rt":2420,"stimulus":"bees-with-color/bee-A1DF.svg","response":1,"trial_type":"image-button-response","trial_index":136,"time_elapsed":398414,"internal_node_id":"0.0-6.0-0.0","subject_id":"5fcc24a22987de29caf1c5c3","study_id":"6197b3f67c2b5cd3b6d9596a","session_id":"6197b9e92117c8d2f125d028","condition":"full-information","relevant_dimensions":["antennae","legs"],"bee_group":{"antennae":"A","wings":"X","pattern":"X","legs":"F"},"bonus":0.04},{"rt":4151.299999952316,"stimulus":"bees-with-color/bee-B1DM.svg","response":1,"trial_type":"image-button-response","trial_index":137,"time_elapsed":402567,"internal_node_id":"0.0-6.0-0.1","subject_id":"5fcc24a22987de29caf1c5c3","study_id":"6197b3f67c2b5cd3b6d9596a","session_id":"6197b9e92117c8d2f125d028","condition":"full-information","relevant_dimensions":["antennae","legs"],"bee_group":{"antennae":"A","wings":"X","pattern":"X","legs":"F"},"bonus":0.04},{"rt":5469.199999988079,"stimulus":"bees-with-color/bee-A1SM.svg","response":1,"trial_type":"image-button-response","trial_index":138,"time_elapsed":408038,"internal_node_id":"0.0-6.0-0.2","subject_id":"5fcc24a22987de29caf1c5c3","study_id":"6197b3f67c2b5cd3b6d9596a","session_id":"6197b9e92117c8d2f125d028","condition":"full-information","relevant_dimensions":["antennae","legs"],"bee_group":{"antennae":"A","wings":"X","pattern":"X","legs":"F"},"bonus":0.04},{"rt":2108.199999988079,"stimulus":"bees-with-color/bee-A2SM.svg","response":0,"trial_type":"image-button-response","trial_index":139,"time_elapsed":410148,"internal_node_id":"0.0-6.0-0.3","subject_id":"5fcc24a22987de29caf1c5c3","study_id":"6197b3f67c2b5cd3b6d9596a","session_id":"6197b9e92117c8d2f125d028","condition":"full-information","relevant_dimensions":["antennae","legs"],"bee_group":{"antennae":"A","wings":"X","pattern":"X","legs":"F"},"bonus":0.04},{"rt":2178.199999988079,"stimulus":"bees-with-color/bee-B2SF.svg","response":1,"trial_type":"image-button-response","trial_index":140,"time_elapsed":412328,"internal_node_id":"0.0-6.0-0.4","subject_id":"5fcc24a22987de29caf1c5c3","study_id":"6197b3f67c2b5cd3b6d9596a","session_id":"6197b9e92117c8d2f125d028","condition":"full-information","relevant_dimensions":["antennae","legs"],"bee_group":{"antennae":"A","wings":"X","pattern":"X","legs":"F"},"bonus":0.04},{"rt":6880.100000023842,"stimulus":"bees-with-color/bee-A2DM.svg","response":1,"trial_type":"image-button-response","trial_index":141,"time_elapsed":419209,"internal_node_id":"0.0-6.0-0.5","subject_id":"5fcc24a22987de29caf1c5c3","study_id":"6197b3f67c2b5cd3b6d9596a","session_id":"6197b9e92117c8d2f125d028","condition":"full-information","relevant_dimensions":["antennae","legs"],"bee_group":{"antennae":"A","wings":"X","pattern":"X","legs":"F"},"bonus":0.04},{"rt":1986.199999988079,"stimulus":"bees-with-color/bee-B2DF.svg","response":1,"trial_type":"image-button-response","trial_index":142,"time_elapsed":421197,"internal_node_id":"0.0-6.0-0.6","subject_id":"5fcc24a22987de29caf1c5c3","study_id":"6197b3f67c2b5cd3b6d9596a","session_id":"6197b9e92117c8d2f125d028","condition":"full-information","relevant_dimensions":["antennae","legs"],"bee_group":{"antennae":"A","wings":"X","pattern":"X","legs":"F"},"bonus":0.04},{"rt":2168.100000023842,"stimulus":"bees-with-color/bee-A1SF.svg","response":0,"trial_type":"image-button-response","trial_index":143,"time_elapsed":423367,"internal_node_id":"0.0-6.0-0.7","subject_id":"5fcc24a22987de29caf1c5c3","study_id":"6197b3f67c2b5cd3b6d9596a","session_id":"6197b9e92117c8d2f125d028","condition":"full-information","relevant_dimensions":["antennae","legs"],"bee_group":{"antennae":"A","wings":"X","pattern":"X","legs":"F"},"bonus":0.04},{"rt":2035,"stimulus":"bees-with-color/bee-A2DF.svg","response":1,"trial_type":"image-button-response","trial_index":144,"time_elapsed":425403,"internal_node_id":"0.0-6.0-0.8","subject_id":"5fcc24a22987de29caf1c5c3","study_id":"6197b3f67c2b5cd3b6d9596a","session_id":"6197b9e92117c8d2f125d028","condition":"full-information","relevant_dimensions":["antennae","legs"],"bee_group":{"antennae":"A","wings":"X","pattern":"X","legs":"F"},"bonus":0.04},{"rt":3264.5,"stimulus":"bees-with-color/bee-B1DF.svg","response":0,"trial_type":"image-button-response","trial_index":145,"time_elapsed":428668,"internal_node_id":"0.0-6.0-0.9","subject_id":"5fcc24a22987de29caf1c5c3","study_id":"6197b3f67c2b5cd3b6d9596a","session_id":"6197b9e92117c8d2f125d028","condition":"full-information","relevant_dimensions":["antennae","legs"],"bee_group":{"antennae":"A","wings":"X","pattern":"X","legs":"F"},"bonus":0.04},{"rt":2424,"stimulus":"bees-with-color/bee-A1DM.svg","response":1,"trial_type":"image-button-response","trial_index":146,"time_elapsed":431094,"internal_node_id":"0.0-6.0-0.10","subject_id":"5fcc24a22987de29caf1c5c3","study_id":"6197b3f67c2b5cd3b6d9596a","session_id":"6197b9e92117c8d2f125d028","condition":"full-information","relevant_dimensions":["antennae","legs"],"bee_group":{"antennae":"A","wings":"X","pattern":"X","legs":"F"},"bonus":0.04},{"rt":1151.8999999761581,"stimulus":"bees-with-color/bee-B1SM.svg","response":1,"trial_type":"image-button-response","trial_index":147,"time_elapsed":432247,"internal_node_id":"0.0-6.0-0.11","subject_id":"5fcc24a22987de29caf1c5c3","study_id":"6197b3f67c2b5cd3b6d9596a","session_id":"6197b9e92117c8d2f125d028","condition":"full-information","relevant_dimensions":["antennae","legs"],"bee_group":{"antennae":"A","wings":"X","pattern":"X","legs":"F"},"bonus":0.04},{"rt":995.5,"stimulus":"bees-with-color/bee-A2SF.svg","response":1,"trial_type":"image-button-response","trial_index":148,"time_elapsed":433243,"internal_node_id":"0.0-6.0-0.12","subject_id":"5fcc24a22987de29caf1c5c3","study_id":"6197b3f67c2b5cd3b6d9596a","session_id":"6197b9e92117c8d2f125d028","condition":"full-information","relevant_dimensions":["antennae","legs"],"bee_group":{"antennae":"A","wings":"X","pattern":"X","legs":"F"},"bonus":0.04},{"rt":1828.2000000476837,"stimulus":"bees-with-color/bee-B2SM.svg","response":0,"trial_type":"image-button-response","trial_index":149,"time_elapsed":435073,"internal_node_id":"0.0-6.0-0.13","subject_id":"5fcc24a22987de29caf1c5c3","study_id":"6197b3f67c2b5cd3b6d9596a","session_id":"6197b9e92117c8d2f125d028","condition":"full-information","relevant_dimensions":["antennae","legs"],"bee_group":{"antennae":"A","wings":"X","pattern":"X","legs":"F"},"bonus":0.04},{"rt":2885.5,"stimulus":"bees-with-color/bee-B1SF.svg","response":1,"trial_type":"image-button-response","trial_index":150,"time_elapsed":437960,"internal_node_id":"0.0-6.0-0.14","subject_id":"5fcc24a22987de29caf1c5c3","study_id":"6197b3f67c2b5cd3b6d9596a","session_id":"6197b9e92117c8d2f125d028","condition":"full-information","relevant_dimensions":["antennae","legs"],"bee_group":{"antennae":"A","wings":"X","pattern":"X","legs":"F"},"bonus":0.04},{"rt":748.3999999761581,"stimulus":"bees-with-color/bee-B2DM.svg","response":1,"trial_type":"image-button-response","trial_index":151,"time_elapsed":438710,"internal_node_id":"0.0-6.0-0.15","subject_id":"5fcc24a22987de29caf1c5c3","study_id":"6197b3f67c2b5cd3b6d9596a","session_id":"6197b9e92117c8d2f125d028","condition":"full-information","relevant_dimensions":["antennae","legs"],"bee_group":{"antennae":"A","wings":"X","pattern":"X","legs":"F"},"bonus":0.04},{"rt":340.2000000476837,"stimulus":"bees-with-color/bee-A1DF.svg","response":1,"trial_type":"image-button-response","trial_index":152,"time_elapsed":439051,"internal_node_id":"0.0-6.0-0.16","subject_id":"5fcc24a22987de29caf1c5c3","study_id":"6197b3f67c2b5cd3b6d9596a","session_id":"6197b9e92117c8d2f125d028","condition":"full-information","relevant_dimensions":["antennae","legs"],"bee_group":{"antennae":"A","wings":"X","pattern":"X","legs":"F"},"bonus":0.04},{"rt":731.1000000238419,"stimulus":"bees-with-color/bee-A1DM.svg","response":1,"trial_type":"image-button-response","trial_index":153,"time_elapsed":439784,"internal_node_id":"0.0-6.0-0.17","subject_id":"5fcc24a22987de29caf1c5c3","study_id":"6197b3f67c2b5cd3b6d9596a","session_id":"6197b9e92117c8d2f125d028","condition":"full-information","relevant_dimensions":["antennae","legs"],"bee_group":{"antennae":"A","wings":"X","pattern":"X","legs":"F"},"bonus":0.04},{"rt":165.39999997615814,"stimulus":"bees-with-color/bee-B2SM.svg","response":1,"trial_type":"image-button-response","trial_index":154,"time_elapsed":439950,"internal_node_id":"0.0-6.0-0.18","subject_id":"5fcc24a22987de29caf1c5c3","study_id":"6197b3f67c2b5cd3b6d9596a","session_id":"6197b9e92117c8d2f125d028","condition":"full-information","relevant_dimensions":["antennae","legs"],"bee_group":{"antennae":"A","wings":"X","pattern":"X","legs":"F"},"bonus":0.04},{"rt":168.5999999642372,"stimulus":"bees-with-color/bee-A2SM.svg","response":1,"trial_type":"image-button-response","trial_index":155,"time_elapsed":440120,"internal_node_id":"0.0-6.0-0.19","subject_id":"5fcc24a22987de29caf1c5c3","study_id":"6197b3f67c2b5cd3b6d9596a","session_id":"6197b9e92117c8d2f125d028","condition":"full-information","relevant_dimensions":["antennae","legs"],"bee_group":{"antennae":"A","wings":"X","pattern":"X","legs":"F"},"bonus":0.04},{"rt":163.5,"stimulus":"bees-with-color/bee-B2SF.svg","response":1,"trial_type":"image-button-response","trial_index":156,"time_elapsed":440285,"internal_node_id":"0.0-6.0-0.20","subject_id":"5fcc24a22987de29caf1c5c3","study_id":"6197b3f67c2b5cd3b6d9596a","session_id":"6197b9e92117c8d2f125d028","condition":"full-information","relevant_dimensions":["antennae","legs"],"bee_group":{"antennae":"A","wings":"X","pattern":"X","legs":"F"},"bonus":0.04},{"rt":159.69999998807907,"stimulus":"bees-with-color/bee-B1DF.svg","response":1,"trial_type":"image-button-response","trial_index":157,"time_elapsed":440446,"internal_node_id":"0.0-6.0-0.21","subject_id":"5fcc24a22987de29caf1c5c3","study_id":"6197b3f67c2b5cd3b6d9596a","session_id":"6197b9e92117c8d2f125d028","condition":"full-information","relevant_dimensions":["antennae","legs"],"bee_group":{"antennae":"A","wings":"X","pattern":"X","legs":"F"},"bonus":0.04},{"rt":318.5999999642372,"stimulus":"bees-with-color/bee-A2DM.svg","response":1,"trial_type":"image-button-response","trial_index":158,"time_elapsed":440766,"internal_node_id":"0.0-6.0-0.22","subject_id":"5fcc24a22987de29caf1c5c3","study_id":"6197b3f67c2b5cd3b6d9596a","session_id":"6197b9e92117c8d2f125d028","condition":"full-information","relevant_dimensions":["antennae","legs"],"bee_group":{"antennae":"A","wings":"X","pattern":"X","legs":"F"},"bonus":0.04},{"rt":186.69999998807907,"stimulus":"bees-with-color/bee-A1SF.svg","response":1,"trial_type":"image-button-response","trial_index":159,"time_elapsed":440954,"internal_node_id":"0.0-6.0-0.23","subject_id":"5fcc24a22987de29caf1c5c3","study_id":"6197b3f67c2b5cd3b6d9596a","session_id":"6197b9e92117c8d2f125d028","condition":"full-information","relevant_dimensions":["antennae","legs"],"bee_group":{"antennae":"A","wings":"X","pattern":"X","legs":"F"},"bonus":0.04},{"rt":176.19999998807907,"stimulus":"bees-with-color/bee-A2DF.svg","response":1,"trial_type":"image-button-response","trial_index":160,"time_elapsed":441131,"internal_node_id":"0.0-6.0-0.24","subject_id":"5fcc24a22987de29caf1c5c3","study_id":"6197b3f67c2b5cd3b6d9596a","session_id":"6197b9e92117c8d2f125d028","condition":"full-information","relevant_dimensions":["antennae","legs"],"bee_group":{"antennae":"A","wings":"X","pattern":"X","legs":"F"},"bonus":0.04},{"rt":184.5999999642372,"stimulus":"bees-with-color/bee-B1DM.svg","response":1,"trial_type":"image-button-response","trial_index":161,"time_elapsed":441317,"internal_node_id":"0.0-6.0-0.25","subject_id":"5fcc24a22987de29caf1c5c3","study_id":"6197b3f67c2b5cd3b6d9596a","session_id":"6197b9e92117c8d2f125d028","condition":"full-information","relevant_dimensions":["antennae","legs"],"bee_group":{"antennae":"A","wings":"X","pattern":"X","legs":"F"},"bonus":0.04},{"rt":201.5,"stimulus":"bees-with-color/bee-B2DM.svg","respo