[{"success":true,"trial_type":"fullscreen","trial_index":0,"time_elapsed":2758,"internal_node_id":"0.0-0.0","subject_id":"5e6d3324f14d262fced5bbfe","study_id":"60edd13110225f80f9f3709b","session_id":"6196c4a0f0241e38cc1f9daa","condition":"contingent","relevant_dimensions":["wings","pattern"],"bee_group":{"antennae":"X","wings":"2","pattern":"D","legs":"X"},"bonus":1.4000000000000008},{"success":true,"timeout":false,"failed_images":[],"failed_audio":[],"failed_video":[],"trial_type":"preload","trial_index":1,"time_elapsed":4514,"internal_node_id":"0.0-1.0","subject_id":"5e6d3324f14d262fced5bbfe","study_id":"60edd13110225f80f9f3709b","session_id":"6196c4a0f0241e38cc1f9daa","condition":"contingent","relevant_dimensions":["wings","pattern"],"bee_group":{"antennae":"X","wings":"2","pattern":"D","legs":"X"},"bonus":1.4000000000000008},{"rt":2918.600000023842,"stimulus":"Welcome! Press any key to begin.","response":"arrowup","trial_type":"html-keyboard-response","trial_index":2,"time_elapsed":7434,"internal_node_id":"0.0-2.0","subject_id":"5e6d3324f14d262fced5bbfe","study_id":"60edd13110225f80f9f3709b","session_id":"6196c4a0f0241e38cc1f9daa","condition":"contingent","relevant_dimensions":["wings","pattern"],"bee_group":{"antennae":"X","wings":"2","pattern":"D","legs":"X"},"bonus":1.4000000000000008},{"view_history":[{"page_index":0,"viewing_time":2862.5},{"page_index":1,"viewing_time":4960.899999976158},{"page_index":2,"viewing_time":9851.900000035763},{"page_index":3,"viewing_time":12381.099999964237},{"page_index":2,"viewing_time":4616.900000035763},{"page_index":3,"viewing_time":1023},{"page_index":4,"viewing_time":2995},{"page_index":5,"viewing_time":2513},{"page_index":6,"viewing_time":40338.89999997616},{"page_index":7,"viewing_time":12881.300000011921},{"page_index":8,"viewing_time":4315.800000011921},{"page_index":9,"viewing_time":9764.899999976158},{"page_index":10,"viewing_time":11310},{"page_index":11,"viewing_time":30279.100000023842},{"page_index":12,"viewing_time":7540.800000011921},{"page_index":13,"viewing_time":2303.199999988079},{"page_index":14,"viewing_time":6258.899999976158}],"rt":166197.69999998808,"trial_type":"instructions","trial_index":3,"time_elapsed":173633,"internal_node_id":"0.0-3.0-0.0","subject_id":"5e6d3324f14d262fced5bbfe","study_id":"60edd13110225f80f9f3709b","session_id":"6196c4a0f0241e38cc1f9daa","condition":"contingent","relevant_dimensions":["wings","pattern"],"bee_group":{"antennae":"X","wings":"2","pattern":"D","legs":"X"},"bonus":1.4000000000000008},{"rt":18025.899999976158,"response":{"Q0":["Two or six legs","Single or double wings","Antennae or no antennae"]},"question_order":[0],"trial_type":"survey-multi-select","trial_index":4,"time_elapsed":191662,"internal_node_id":"0.0-3.0-1.0","subject_id":"5e6d3324f14d262fced5bbfe","study_id":"60edd13110225f80f9f3709b","session_id":"6196c4a0f0241e38cc1f9daa","condition":"contingent","relevant_dimensions":["wings","pattern"],"bee_group":{"antennae":"X","wings":"2","pattern":"D","legs":"X"},"correct":false,"bonus":1.4000000000000008},{"rt":30330.19999998808,"response":{"Q1":"No.","Q2":"Based on the four features of the bee.","Q3":"You do not learn if it was friendly or dangerous, and do not alter your bonus."},"question_order":[0,1,2],"trial_type":"survey-multi-choice","trial_index":5,"time_elapsed":221994,"internal_node_id":"0.0-3.0-2.0","subject_id":"5e6d3324f14d262fced5bbfe","study_id":"60edd13110225f80f9f3709b","session_id":"6196c4a0f0241e38cc1f9daa","condition":"contingent","relevant_dimensions":["wings","pattern"],"bee_group":{"antennae":"X","wings":"2","pattern":"D","legs":"X"},"correct":true,"bonus":1.4000000000000008},{"rt":3571.400000035763,"stimulus":"<p>You did not answer all comprehension questions correctly.<br>Press <b>continue</b> to review the instructions again.</p>","response":0,"trial_type":"html-button-response","trial_index":6,"time_elapsed":225567,"internal_node_id":"0.0-3.0-3.0","subject_id":"5e6d3324f14d262fced5bbfe","study_id":"60edd13110225f80f9f3709b","session_id":"6196c4a0f0241e38cc1f9daa","condition":"contingent","relevant_dimensions":["wings","pattern"],"bee_group":{"antennae":"X","wings":"2","pattern":"D","legs":"X"},"bonus":1.4000000000000008},{"view_history":[{"page_index":0,"viewing_time":5090},{"page_index":1,"viewing_time":1903.0999999642372},{"page_index":2,"viewing_time":4490},{"page_index":3,"viewing_time":7272},{"page_index":4,"viewing_time":2364.900000035763},{"page_index":5,"viewing_time":6365.099999964237},{"page_index":6,"viewing_time":8061},{"page_index":7,"viewing_time":3349.100000023842},{"page_index":8,"viewing_time":3767.800000011921},{"page_index":9,"viewing_time":6027},{"page_index":10,"viewing_time":5283},{"page_index":11,"viewing_time":8019.899999976158},{"page_index":12,"viewing_time":2616.199999988079},{"page_index":13,"viewing_time":868.9000000357628},{"page_index":14,"viewing_time":1082.199999988079}],"rt":66560.5,"trial_type":"instructions","trial_index":7,"time_elapsed":292129,"internal_node_id":"0.0-3.0-4.0-0.0","subject_id":"5e6d3324f14d262fced5bbfe","study_id":"60edd13110225f80f9f3709b","session_id":"6196c4a0f0241e38cc1f9daa","condition":"contingent","relevant_dimensions":["wings","pattern"],"bee_group":{"antennae":"X","wings":"2","pattern":"D","legs":"X"},"bonus":1.4000000000000008},{"rt":14786.699999988079,"response":{"Q0":["Two or six legs","Stripes or spots on body","Single or double wings","Antennae or no antennae"]},"question_order":[0],"trial_type":"survey-multi-select","trial_index":8,"time_elapsed":306919,"internal_node_id":"0.0-3.0-4.0-1.0","subject_id":"5e6d3324f14d262fced5bbfe","study_id":"60edd13110225f80f9f3709b","session_id":"6196c4a0f0241e38cc1f9daa","condition":"contingent","relevant_dimensions":["wings","pattern"],"bee_group":{"antennae":"X","wings":"2","pattern":"D","legs":"X"},"correct":true,"bonus":1.4000000000000008},{"rt":7189.5,"response":{"Q1":"No.","Q2":"Based on the four features of the bee.","Q3":"You do not learn if it was friendly or dangerous, and do not alter your bonus."},"question_order":[0,1,2],"trial_type":"survey-multi-choice","trial_index":9,"time_elapsed":314110,"internal_node_id":"0.0-3.0-4.0-2.0","subject_id":"5e6d3324f14d262fced5bbfe","study_id":"60edd13110225f80f9f3709b","session_id":"6196c4a0f0241e38cc1f9daa","condition":"contingent","relevant_dimensions":["wings","pattern"],"bee_group":{"antennae":"X","wings":"2","pattern":"D","legs":"X"},"correct":true,"bonus":1.4000000000000008},{"rt":1462.5,"stimulus":"<p>Congrats, you got everything right<br>When you're ready, click the button below to continue to the experiment.</p>","response":0,"trial_type":"html-button-response","trial_index":10,"time_elapsed":315574,"internal_node_id":"0.0-3.0-4.0-3.0","subject_id":"5e6d3324f14d262fced5bbfe","study_id":"60edd13110225f80f9f3709b","session_id":"6196c4a0f0241e38cc1f9daa","condition":"contingent","relevant_dimensions":["wings","pattern"],"bee_group":{"antennae":"X","wings":"2","pattern":"D","legs":"X"},"bonus":1.4000000000000008},{"rt":5276.699999988079,"stimulus":"bees-with-color/bee-B2DM.svg","response":0,"trial_type":"image-button-response","trial_index":11,"time_elapsed":320853,"internal_node_id":"0.0-4.0-0.0","subject_id":"5e6d3324f14d262fced5bbfe","study_id":"60edd13110225f80f9f3709b","session_id":"6196c4a0f0241e38cc1f9daa","condition":"contingent","relevant_dimensions":["wings","pattern"],"bee_group":{"antennae":"X","wings":"2","pattern":"D","legs":"X"},"action":"harvest","summary":"bad-harvest","bonus":1.4000000000000008},{"rt":5178.100000023842,"stimulus":"\n                    <p><b>Action: <em>harvest</em></b></p>\n                    <p>This is the bee that you just saw.</p>\n                    <img src=\"bees-with-color/bee-B2DM.svg\" width=\"200\">\n                    <p><span class=\"redText\">Bad choice, the bee was angry.</span><br><b>You have been stung!</b><br>Your pay has been decreased by $0.10. Your bonus pay is now $0.44.</p>\n            ","response":0,"trial_type":"html-button-response","trial_index":12,"time_elapsed":326034,"internal_node_id":"0.0-4.0-1.0","subject_id":"5e6d3324f14d262fced5bbfe","study_id":"60edd13110225f80f9f3709b","session_id":"6196c4a0f0241e38cc1f9daa","condition":"contingent","relevant_dimensions":["wings","pattern"],"bee_group":{"antennae":"X","wings":"2","pattern":"D","legs":"X"},"bonus":1.4000000000000008},{"rt":1738.8999999761581,"stimulus":"bees-with-color/bee-A1SF.svg","response":0,"trial_type":"image-button-response","trial_index":13,"time_elapsed":327775,"internal_node_id":"0.0-4.0-0.1","subject_id":"5e6d3324f14d262fced5bbfe","study_id":"60edd13110225f80f9f3709b","session_id":"6196c4a0f0241e38cc1f9daa","condition":"contingent","relevant_dimensions":["wings","pattern"],"bee_group":{"antennae":"X","wings":"2","pattern":"D","legs":"X"},"action":"harvest","summary":"good-harvest","bonus":1.4000000000000008},{"rt":2744.2000000476837,"stimulus":"\n                    <p><b>Action: <em>harvest</em></b></p>\n                    <p>This is the bee that you just saw.</p>\n                    <img src=\"bees-with-color/bee-A1SF.svg\" width=\"200\">\n                    <p><span class=\"greenText\"><b>Successful harvest!</b></span><br>Your pay has increased by $0.02. Your bonus pay is now $0.46.</p>\n            ","response":0,"trial_type":"html-button-response","trial_index":14,"time_elapsed":330521,"internal_node_id":"0.0-4.0-1.1","subject_id":"5e6d3324f14d262fced5bbfe","study_id":"60edd13110225f80f9f3709b","session_id":"6196c4a0f0241e38cc1f9daa","condition":"contingent","relevant_dimensions":["wings","pattern"],"bee_group":{"antennae":"X","wings":"2","pattern":"D","legs":"X"},"bonus":1.4000000000000008},{"rt":56018.700000047684,"stimulus":"bees-with-color/bee-A2SF.svg","response":0,"trial_type":"image-button-response","trial_index":15,"time_elapsed":386542,"internal_node_id":"0.0-4.0-0.2","subject_id":"5e6d3324f14d262fced5bbfe","study_id":"60edd13110225f80f9f3709b","session_id":"6196c4a0f0241e38cc1f9daa","condition":"contingent","relevant_dimensions":["wings","pattern"],"bee_group":{"antennae":"X","wings":"2","pattern":"D","legs":"X"},"action":"harvest","summary":"good-harvest","bonus":1.4000000000000008},{"rt":54234.10000002384,"stimulus":"\n                    <p><b>Action: <em>harvest</em></b></p>\n                    <p>This is the bee that you just saw.</p>\n                    <img src=\"bees-with-color/bee-A2SF.svg\" width=\"200\">\n                    <p><span class=\"greenText\"><b>Successful harvest!</b></span><br>Your pay has increased by $0.02. Your bonus pay is now $0.48.</p>\n            ","response":0,"trial_type":"html-button-response","trial_index":16,"time_elapsed":440780,"internal_node_id":"0.0-4.0-1.2","subject_id":"5e6d3324f14d262fced5bbfe","study_id":"60edd13110225f80f9f3709b","session_id":"6196c4a0f0241e38cc1f9daa","condition":"contingent","relevant_dimensions":["wings","pattern"],"bee_group":{"antennae":"X","wings":"2","pattern":"D","legs":"X"},"bonus":1.4000000000000008},{"rt":38623,"stimulus":"bees-with-color/bee-B2DF.svg","response":1,"trial_type":"image-button-response","trial_index":17,"time_elapsed":479404,"internal_node_id":"0.0-4.0-0.3","subject_id":"5e6d3324f14d262fced5bbfe","study_id":"60edd13110225f80f9f3709b","session_id":"6196c4a0f0241e38cc1f9daa","condition":"contingent","relevant_dimensions":["wings","pattern"],"bee_group":{"antennae":"X","wings":"2","pattern":"D","legs":"X"},"action":"avoid","summary":"good-avoid","bonus":1.4000000000000008},{"rt":3714.099999964237,"stimulus":"\n                    <p><b>Action: <em>avoid</em></b></p>\n                    <p>This is the bee that you just saw.</p>\n                    <img src=\"bees-with-color/bee-B2DF.svg\" width=\"200\">\n                    <p><br>Your bonus pay is unchanged, and remains at $0.48.</p>\n            ","response":0,"trial_type":"html-button-response","trial_index":18,"time_elapsed":483120,"internal_node_id":"0.0-4.0-1.3","subject_id":"5e6d3324f14d262fced5bbfe","study_id":"60edd13110225f80f9f3709b","session_id":"6196c4a0f0241e38cc1f9daa","condition":"contingent","relevant_dimensions":["wings","pattern"],"bee_group":{"antennae":"X","wings":"2","pattern":"D","legs":"X"},"bonus":1.4000000000000008},{"rt":28006.5,"stimulus":"bees-with-color/bee-B1SM.svg","response":0,"trial_type":"image-button-response","trial_index":19,"time_elapsed":511128,"internal_node_id":"0.0-4.0-0.4","subject_id":"5e6d3324f14d262fced5bbfe","study_id":"60edd13110225f80f9f3709b","session_id":"6196c4a0f0241e38cc1f9daa","condition":"contingent","relevant_dimensions":["wings","pattern"],"bee_group":{"antennae":"X","wings":"2","pattern":"D","legs":"X"},"action":"harvest","summary":"good-harvest","bonus":1.4000000000000008},{"rt":5174.400000035763,"stimulus":"\n                    <p><b>Action: <em>harvest</em></b></p>\n                    <p>This is the bee that you just saw.</p>\n                    <img src=\"bees-with-color/bee-B1SM.svg\" width=\"200\">\n                    <p><span class=\"greenText\"><b>Successful harvest!</b></span><br>Your pay has increased by $0.02. Your bonus pay is now $0.50.</p>\n            ","response":0,"trial_type":"html-button-response","trial_index":20,"time_elapsed":516304,"internal_node_id":"0.0-4.0-1.4","subject_id":"5e6d3324f14d262fced5bbfe","study_id":"60edd13110225f80f9f3709b","session_id":"6196c4a0f0241e38cc1f9daa","condition":"contingent","relevant_dimensions":["wings","pattern"],"bee_group":{"antennae":"X","wings":"2","pattern":"D","legs":"X"},"bonus":1.4000000000000008},{"rt":23772.600000023842,"stimulus":"bees-with-color/bee-A1SM.svg","response":0,"trial_type":"image-button-response","trial_index":21,"time_elapsed":540079,"internal_node_id":"0.0-4.0-0.5","subject_id":"5e6d3324f14d262fced5bbfe","study_id":"60edd13110225f80f9f3709b","session_id":"6196c4a0f0241e38cc1f9daa","condition":"contingent","relevant_dimensions":["wings","pattern"],"bee_group":{"antennae":"X","wings":"2","pattern":"D","legs":"X"},"action":"harvest","summary":"good-harvest","bonus":1.4000000000000008},{"rt":5638,"stimulus":"\n                    <p><b>Action: <em>harvest</em></b></p>\n                    <p>This is the bee that you just saw.</p>\n                    <img src=\"bees-with-color/bee-A1SM.svg\" width=\"200\">\n                    <p><span class=\"greenText\"><b>Successful harvest!</b></span><br>Your pay has increased by $0.02. Your bonus pay is now $0.52.</p>\n            ","response":0,"trial_type":"html-button-response","trial_index":22,"time_elapsed":545719,"internal_node_id":"0.0-4.0-1.5","subject_id":"5e6d3324f14d262fced5bbfe","study_id":"60edd13110225f80f9f3709b","session_id":"6196c4a0f0241e38cc1f9daa","condition":"contingent","relevant_dimensions":["wings","pattern"],"bee_group":{"antennae":"X","wings":"2","pattern":"D","legs":"X"},"bonus":1.4000000000000008},{"rt":35759.10000002384,"stimulus":"bees-with-color/bee-B2SM.svg","response":0,"trial_type":"image-button-response","trial_index":23,"time_elapsed":581480,"internal_node_id":"0.0-4.0-0.6","subject_id":"5e6d3324f14d262fced5bbfe","study_id":"60edd13110225f80f9f3709b","session_id":"6196c4a0f0241e38cc1f9daa","condition":"contingent","relevant_dimensions":["wings","pattern"],"bee_group":{"antennae":"X","wings":"2","pattern":"D","legs":"X"},"action":"harvest","summary":"good-harvest","bonus":1.4000000000000008},{"rt":27891.19999998808,"stimulus":"\n                    <p><b>Action: <em>harvest</em></b></p>\n                    <p>This is the bee that you just saw.</p>\n                    <img src=\"bees-with-color/bee-B2SM.svg\" width=\"200\">\n                    <p><span class=\"greenText\"><b>Successful harvest!</b></span><br>Your pay has increased by $0.02. Your bonus pay is now $0.54.</p>\n            ","response":0,"trial_type":"html-button-response","trial_index":24,"time_elapsed":609372,"internal_node_id":"0.0-4.0-1.6","subject_id":"5e6d3324f14d262fced5bbfe","study_id":"60edd13110225f80f9f3709b","session_id":"6196c4a0f0241e38cc1f9daa","condition":"contingent","relevant_dimensions":["wings","pattern"],"bee_group":{"antennae":"X","wings":"2","pattern":"D","legs":"X"},"bonus":1.4000000000000008},{"rt":19208.69999998808,"stimulus":"bees-with-color/bee-A2SM.svg","response":0,"trial_type":"image-button-response","trial_index":25,"time_elapsed":628584,"internal_node_id":"0.0-4.0-0.7","subject_id":"5e6d3324f14d262fced5bbfe","study_id":"60edd13110225f80f9f3709b","session_id":"6196c4a0f0241e38cc1f9daa","condition":"contingent","relevant_dimensions":["wings","pattern"],"bee_group":{"antennae":"X","wings":"2","pattern":"D","legs":"X"},"action":"harvest","summary":"good-harvest","bonus":1.4000000000000008},{"rt":8788.199999988079,"stimulus":"\n                    <p><b>Action: <em>harvest</em></b></p>\n                    <p>This is the bee that you just saw.</p>\n                    <img src=\"bees-with-color/bee-A2SM.svg\" width=\"200\">\n                    <p><span class=\"greenText\"><b>Successful harvest!</b></span><br>Your pay has increased by $0.02. Your bonus pay is now $0.56.</p>\n            ","response":0,"trial_type":"html-button-response","trial_index":26,"time_elapsed":637375,"internal_node_id":"0.0-4.0-1.7","subject_id":"5e6d3324f14d262fced5bbfe","study_id":"60edd13110225f80f9f3709b","session_id":"6196c4a0f0241e38cc1f9daa","condition":"contingent","relevant_dimensions":["wings","pattern"],"bee_group":{"antennae":"X","wings":"2","pattern":"D","legs":"X"},"bonus":1.4000000000000008},{"rt":9999.899999976158,"stimulus":"bees-with-color/bee-A1DM.svg","response":1,"trial_type":"image-button-response","trial_index":27,"time_elapsed":647377,"internal_node_id":"0.0-4.0-0.8","subject_id":"5e6d3324f14d262fced5bbfe","study_id":"60edd13110225f80f9f3709b","session_id":"6196c4a0f0241e38cc1f9daa","condition":"contingent","relevant_dimensions":["wings","pattern"],"bee_group":{"antennae":"X","wings":"2","pattern":"D","legs":"X"},"action":"avoid","summary":"bad-avoid","bonus":1.4000000000000008},{"rt":999.3000000119209,"stimulus":"\n                    <p><b>Action: <em>avoid</em></b></p>\n                    <p>This is the bee that you just saw.</p>\n                    <img src=\"bees-with-color/bee-A1DM.svg\" width=\"200\">\n                    <p><br>Your bonus pay is unchanged, and remains at $0.56.</p>\n            ","response":0,"trial_type":"html-button-response","trial_index":28,"time_elapsed":648377,"internal_node_id":"0.0-4.0-1.8","subject_id":"5e6d3324f14d262fced5bbfe","study_id":"60edd13110225f80f9f3709b","session_id":"6196c4a0f0241e38cc1f9daa","condition":"contingent","relevant_dimensions":["wings","pattern"],"bee_group":{"antennae":"X","wings":"2","pattern":"D","legs":"X"},"bonus":1.4000000000000008},{"rt":934.2999999523163,"stimulus":"bees-with-color/bee-B1DM.svg","response":1,"trial_type":"image-button-response","trial_index":29,"time_elapsed":649314,"internal_node_id":"0.0-4.0-0.9","subject_id":"5e6d3324f14d262fced5bbfe","study_id":"60edd13110225f80f9f3709b","session_id":"6196c4a0f0241e38cc1f9daa","condition":"contingent","relevant_dimensions":["wings","pattern"],"bee_group":{"antennae":"X","wings":"2","pattern":"D","legs":"X"},"action":"avoid","summary":"bad-avoid","bonus":1.4000000000000008},{"rt":505.2999999523163,"stimulus":"\n                    <p><b>Action: <em>avoid</em></b></p>\n                    <p>This is the bee that you just saw.</p>\n                    <img src=\"bees-with-color/bee-B1DM.svg\" width=\"200\">\n                    <p><br>Your bonus pay is unchanged, and remains at $0.56.</p>\n            ","response":0,"trial_type":"html-button-response","trial_index":30,"time_elapsed":649820,"internal_node_id":"0.0-4.0-1.9","subject_id":"5e6d3324f14d262fced5bbfe","study_id":"60edd13110225f80f9f3709b","session_id":"6196c4a0f0241e38cc1f9daa","condition":"contingent","relevant_dimensions":["wings","pattern"],"bee_group":{"antennae":"X","wings":"2","pattern":"D","legs":"X"},"bonus":1.4000000000000008},{"rt":45079.89999997616,"stimulus":"bees-with-color/bee-B2SF.svg","response":0,"trial_type":"image-button-response","trial_index":31,"time_elapsed":694901,"internal_node_id":"0.0-4.0-0.10","subject_id":"5e6d3324f14d262fced5bbfe","study_id":"60edd13110225f80f9f3709b","session_id":"6196c4a0f0241e38cc1f9daa","condition":"contingent","relevant_dimensions":["wings","pattern"],"bee_group":{"antennae":"X","wings":"2","pattern":"D","legs":"X"},"action":"harvest","summary":"good-harvest","bonus":1.4000000000000008},{"rt":5147.600000023842,"stimulus":"\n                    <p><b>Action: <em>harvest</em></b></p>\n                    <p>This is the bee that you just saw.</p>\n                    <img src=\"bees-with-color/bee-B2SF.svg\" width=\"200\">\n                    <p><span class=\"greenText\"><b>Successful harvest!</b></span><br>Your pay has increased by $0.02. Your bonus pay is now $0.58.</p>\n            ","response":0,"trial_type":"html-button-response","trial_index":32,"time_elapsed":700052,"internal_node_id":"0.0-4.0-1.10","subject_id":"5e6d3324f14d262fced5bbfe","study_id":"60edd13110225f80f9f3709b","session_id":"6196c4a0f0241e38cc1f9daa","condition":"contingent","relevant_dimensions":["wings","pattern"],"bee_group":{"antennae":"X","wings":"2","pattern":"D","legs":"X"},"bonus":1.4000000000000008},{"rt":1444.3999999761581,"stimulus":"bees-with-color/bee-A1DF.svg","response":1,"trial_type":"image-button-response","trial_index":33,"time_elapsed":701499,"internal_node_id":"0.0-4.0-0.11","subject_id":"5e6d3324f14d262fced5bbfe","study_id":"60edd13110225f80f9f3709b","session_id":"6196c4a0f0241e38cc1f9daa","condition":"contingent","relevant_dimensions":["wings","pattern"],"bee_group":{"antennae":"X","wings":"2","pattern":"D","legs":"X"},"action":"avoid","summary":"bad-avoid","bonus":1.4000000000000008},{"rt":629.9000000357628,"stimulus":"\n                    <p><b>Action: <em>avoid</em></b></p>\n                    <p>This is the bee that you just saw.</p>\n                    <img src=\"bees-with-color/bee-A1DF.svg\" width=\"200\">\n                    <p><br>Your bonus pay is unchanged, and remains at $0.58.</p>\n            ","response":0,"trial_type":"html-button-response","trial_index":34,"time_elapsed":702130,"internal_node_id":"0.0-4.0-1.11","subject_id":"5e6d3324f14d262fced5bbfe","study_id":"60edd13110225f80f9f3709b","session_id":"6196c4a0f0241e38cc1f9daa","condition":"contingent","relevant_dimensions":["wings","pattern"],"bee_group":{"antennae":"X","wings":"2","pattern":"D","legs":"X"},"bonus":1.4000000000000008},{"rt":1160.5999999642372,"stimulus":"bees-with-color/bee-B1DF.svg","response":1,"trial_type":"image-button-response","trial_index":35,"time_elapsed":703291,"internal_node_id":"0.0-4.0-0.12","subject_id":"5e6d3324f14d262fced5bbfe","study_id":"60edd13110225f80f9f3709b","session_id":"6196c4a0f0241e38cc1f9daa","condition":"contingent","relevant_dimensions":["wings","pattern"],"bee_group":{"antennae":"X","wings":"2","pattern":"D","legs":"X"},"action":"avoid","summary":"bad-avoid","bonus":1.4000000000000008},{"rt":565.1999999880791,"stimulus":"\n                    <p><b>Action: <em>avoid</em></b></p>\n                    <p>This is the bee that you just saw.</p>\n                    <img src=\"bees-with-color/bee-B1DF.svg\" width=\"200\">\n                    <p><br>Your bonus pay is unchanged, and remains at $0.58.</p>\n            ","response":0,"trial_type":"html-button-response","trial_index":36,"time_elapsed":703859,"internal_node_id":"0.0-4.0-1.12","subject_id":"5e6d3324f14d262fced5bbfe","study_id":"60edd13110225f80f9f3709b","session_id":"6196c4a0f0241e38cc1f9daa","condition":"contingent","relevant_dimensions":["wings","pattern"],"bee_group":{"antennae":"X","wings":"2","pattern":"D","legs":"X"},"bonus":1.4000000000000008},{"rt":841,"stimulus":"bees-with-color/bee-A2DM.svg","response":1,"trial_type":"image-button-response","trial_index":37,"time_elapsed":704701,"internal_node_id":"0.0-4.0-0.13","subject_id":"5e6d3324f14d262fced5bbfe","study_id":"60edd13110225f80f9f3709b","session_id":"6196c4a0f0241e38cc1f9daa","condition":"contingent","relevant_dimensions":["wings","pattern"],"bee_group":{"antennae":"X","wings":"2","pattern":"D","legs":"X"},"action":"avoid","summary":"good-avoid","bonus":1.4000000000000008},{"rt":483.69999998807907,"stimulus":"\n                    <p><b>Action: <em>avoid</em></b></p>\n                    <p>This is the bee that you just saw.</p>\n                    <img src=\"bees-with-color/bee-A2DM.svg\" width=\"200\">\n                    <p><br>Your bonus pay is unchanged, and remains at $0.58.</p>\n            ","response":0,"trial_type":"html-button-response","trial_index":38,"time_elapsed":705186,"internal_node_id":"0.0-4.0-1.13","subject_id":"5e6d3324f14d262fced5bbfe","study_id":"60edd13110225f80f9f3709b","session_id":"6196c4a0f0241e38cc1f9daa","condition":"contingent","relevant_dimensions":["wings","pattern"],"bee_group":{"antennae":"X","wings":"2","pattern":"D","legs":"X"},"bonus":1.4000000000000008},{"rt":38245.799999952316,"stimulus":"bees-with-color/bee-B1SF.svg","response":0,"trial_type":"image-button-response","trial_index":39,"time_elapsed":743433,"internal_node_id":"0.0-4.0-0.14","subject_id":"5e6d3324f14d262fced5bbfe","study_id":"60edd13110225f80f9f3709b","session_id":"6196c4a0f0241e38cc1f9daa","condition":"contingent","relevant_dimensions":["wings","pattern"],"bee_group":{"antennae":"X","wings":"2","pattern":"D","legs":"X"},"action":"harvest","summary":"good-harvest","bonus":1.4000000000000008},{"rt":9822,"stimulus":"\n                    <p><b>Action: <em>harvest</em></b></p>\n                    <p>This is the bee that you just saw.</p>\n                    <img src=\"bees-with-color/bee-B1SF.svg\" width=\"200\">\n                    <p><span class=\"greenText\"><b>Successful harvest!</b></span><br>Your pay has increased by $0.02. Your bonus pay is now $0.60.</p>\n            ","response":0,"trial_type":"html-button-response","trial_index":40,"time_elapsed":753257,"internal_node_id":"0.0-4.0-1.14","subject_id":"5e6d3324f14d262fced5bbfe","study_id":"60edd13110225f80f9f3709b","session_id":"6196c4a0f0241e38cc1f9daa","condition":"contingent","relevant_dimensions":["wings","pattern"],"bee_group":{"antennae":"X","wings":"2","pattern":"D","legs":"X"},"bonus":1.4000000000000008},{"rt":3041.400000035763,"stimulus":"bees-with-color/bee-A2DF.svg","response":1,"trial_type":"image-button-response","trial_index":41,"time_elapsed":756300,"internal_node_id":"0.0-4.0-0.15","subject_id":"5e6d3324f14d262fced5bbfe","study_id":"60edd13110225f80f9f3709b","session_id":"6196c4a0f0241e38cc1f9daa","condition":"contingent","relevant_dimensions":["wings","pattern"],"bee_group":{"antennae":"X","wings":"2","pattern":"D","legs":"X"},"action":"avoid","summary":"good-avoid","bonus":1.4000000000000008},{"rt":1937.6000000238419,"stimulus":"\n                    <p><b>Action: <em>avoid</em></b></p>\n                    <p>This is the bee that you just saw.</p>\n                    <img src=\"bees-with-color/bee-A2DF.svg\" width=\"200\">\n                    <p><br>Your bonus pay is unchanged, and remains at $0.60.</p>\n            ","response":0,"trial_type":"html-button-response","trial_index":42,"time_elapsed":758239,"internal_node_id":"0.0-4.0-1.15","subject_id":"5e6d3324f14d262fced5bbfe","study_id":"60edd13110225f80f9f3709b","session_id":"6196c4a0f0241e38cc1f9daa","condition":"contingent","relevant_dimensions":["wings","pattern"],"bee_group":{"antennae":"X","wings":"2","pattern":"D","legs":"X"},"bonus":1.4000000000000008},{"rt":20070.69999998808,"stimulus":"bees-with-color/bee-A2SF.svg","response":0,"trial_type":"image-button-response","trial_index":43,"time_elapsed":778311,"internal_node_id":"0.0-4.0-0.16","subject_id":"5e6d3324f14d262fced5bbfe","study_id":"60edd13110225f80f9f3709b","session_id":"6196c4a0f0241e38cc1f9daa","condition":"contingent","relevant_dimensions":["wings","pattern"],"bee_group":{"antennae":"X","wings":"2","pattern":"D","legs":"X"},"action":"harvest","summary":"good-harvest","bonus":1.4000000000000008},{"rt":701.5,"stimulus":"\n                    <p><b>Action: <em>harvest</em></b></p>\n                    <p>This is the bee that you just saw.</p>\n                    <img src=\"bees-with-color/bee-A2SF.svg\" width=\"200\">\n                    <p><span class=\"greenText\"><b>Successful harvest!</b></span><br>Your pay has increased by $0.02. Your bonus pay is now $0.62.</p>\n            ","response":0,"trial_type":"html-button-response","trial_index":44,"time_elapsed":779016,"internal_node_id":"0.0-4.0-1.16","subject_id":"5e6d3324f14d262fced5bbfe","study_id":"60edd13110225f80f9f3709b","session_id":"6196c4a0f0241e38cc1f9daa","condition":"contingent","relevant_dimensions":["wings","pattern"],"bee_group":{"antennae":"X","wings":"2","pattern":"D","legs":"X"},"bonus":1.4000000000000008},{"rt":1139.5,"stimulus":"bees-with-color/bee-B1DM.svg","response":1,"trial_type":"image-button-response","trial_index":45,"time_elapsed":780158,"internal_node_id":"0.0-4.0-0.17","subject_id":"5e6d3324f14d262fced5bbfe","study_id":"60edd13110225f80f9f3709b","session_id":"6196c4a0f0241e38cc1f9daa","condition":"contingent","relevant_dimensions":["wings","pattern"],"bee_group":{"antennae":"X","wings":"2","pattern":"D","legs":"X"},"action":"avoid","summary":"bad-avoid","bonus":1.4000000000000008},{"rt":668.5,"stimulus":"\n                    <p><b>Action: <em>avoid</em></b></p>\n                    <p>This is the bee that you just saw.</p>\n                    <img src=\"bees-with-color/bee-B1DM.svg\" width=\"200\">\n                    <p><br>Your bonus pay is unchanged, and remains at $0.62.</p>\n            ","response":0,"trial_type":"html-button-response","trial_index":46,"time_elapsed":780827,"internal_node_id":"0.0-4.0-1.17","subject_id":"5e6d3324f14d262fced5bbfe","study_id":"60edd13110225f80f9f3709b","session_id":"6196c4a0f0241e38cc1f9daa","condition":"contingent","relevant_dimensions":["wings","pattern"],"bee_group":{"antennae":"X","wings":"2","pattern":"D","legs":"X"},"bonus":1.4000000000000008},{"rt":37365.69999998808,"stimulus":"bees-with-color/bee-A1SM.svg","response":0,"trial_type":"image-button-response","trial_index":47,"time_elapsed":818194,"internal_node_id":"0.0-4.0-0.18","subject_id":"5e6d3324f14d262fced5bbfe","study_id":"60edd13110225f80f9f3709b","session_id":"6196c4a0f0241e38cc1f9daa","condition":"contingent","relevant_dimensions":["wings","pattern"],"bee_group":{"antennae":"X","wings":"2","pattern":"D","legs":"X"},"action":"harvest","summary":"good-harvest","bonus":1.4000000000000008},{"rt":5197.600000023842,"stimulus":"\n                    <p><b>Action: <em>harvest</em></b></p>\n                    <p>This is the bee that you just saw.</p>\n                    <img src=\"bees-with-color/bee-A1SM.svg\" width=\"200\">\n                    <p><span class=\"greenText\"><b>Successful harvest!</b></span><br>Your pay has increased by $0.02. Your bonus pay is now $0.64.</p>\n            ","response":0,"trial_type":"html-button-response","trial_index":48,"time_elapsed":823393,"internal_node_id":"0.0-4.0-1.18","subject_id":"5e6d3324f14d262fced5bbfe","study_id":"60edd13110225f80f9f3709b","session_id":"6196c4a0f0241e38cc1f9daa","condition":"contingent","relevant_dimensions":["wings","pattern"],"bee_group":{"antennae":"X","wings":"2","pattern":"D","legs":"X"},"bonus":1.4000000000000008},{"rt":840.4000000357628,"stimulus":"bees-with-color/bee-B2DM.svg","response":1,"trial_type":"image-button-response","trial_index":49,"time_elapsed":824235,"internal_node_id":"0.0-4.0-0.19","subject_id":"5e6d3324f14d262fced5bbfe","study_id":"60edd13110225f80f9f3709b","session_id":"6196c4a0f0241e38cc1f9daa","condition":"contingent","relevant_dimensions":["wings","pattern"],"bee_group":{"antennae":"X","wings":"2","pattern":"D","legs":"X"},"action":"avoid","summary":"good-avoid","bonus":1.4000000000000008},{"rt":504.69999998807907,"stimulus":"\n                    <p><b>Action: <em>avoid</em></b></p>\n                    <p>This is the bee that you just saw.</p>\n                    <img src=\"bees-with-color/bee-B2DM.svg\" width=\"200\">\n                    <p><br>Your bonus pay is unchanged, and remains at $0.64.</p>\n            ","response":0,"trial_type":"html-button-response","trial_index":50,"time_elapsed":824741,"internal_node_id":"0.0-4.0-1.19","subject_id":"5e6d3324f14d262fced5bbfe","study_id":"60edd13110225f80f9f3709b","session_id":"6196c4a0f0241e38cc1f9daa","condition":"contingent","relevant_dimensions":["wings","pattern"],"bee_group":{"antennae":"X","wings":"2","pattern":"D","legs":"X"},"bonus":1.4000000000000008},{"rt":9587,"stimulus":"bees-with-color/bee-B1SF.svg","response":0,"trial_type":"image-button-response","trial_index":51,"time_elapsed":834329,"internal_node_id":"0.0-4.0-0.20","subject_id":"5e6d3324f14d262fced5bbfe","study_id":"60edd13110225f80f9f3709b","session_id":"6196c4a0f0241e38cc1f9daa","condition":"contingent","relevant_dimensions":["wings","pattern"],"bee_group":{"antennae":"X","wings":"2","pattern":"D","legs":"X"},"action":"harvest","summary":"good-harvest","bonus":1.4000000000000008},{"rt":1068,"stimulus":"\n                    <p><b>Action: <em>harvest</em></b></p>\n                    <p>This is the bee that you just saw.</p>\n                    <img src=\"bees-with-color/bee-B1SF.svg\" width=\"200\">\n                    <p><span class=\"greenText\"><b>Successful harvest!</b></span><br>Your pay has increased by $0.02. Your bonus pay is now $0.66.</p>\n            ","response":0,"trial_type":"html-button-response","trial_index":52,"time_elapsed":835399,"internal_node_id":"0.0-4.0-1.20","subject_id":"5e6d3324f14d262fced5bbfe","study_id":"60edd13110225f80f9f3709b","session_id":"6196c4a0f0241e38cc1f9daa","condition":"contingent","relevant_dimensions":["wings","pattern"],"bee_group":{"antennae":"X","wings":"2","pattern":"D","legs":"X"},"bonus":1.4000000000000008},{"rt":1059.800000011921,"stimulus":"bees-with-color/bee-B2DF.svg","response":1,"trial_type":"image-button-response","trial_index":53,"time_elapsed":836460,"internal_node_id":"0.0-4.0-0.21","subject_id":"5e6d3324f14d262fced5bbfe","study_id":"60edd13110225f80f9f3709b","session_id":"6196c4a0f0241e38cc1f9daa","condition":"contingent","relevant_dimensions":["wings","pattern"],"bee_group":{"antennae":"X","wings":"2","pattern":"D","legs":"X"},"action":"avoid","summary":"good-avoid","bonus":1.4000000000000008},{"rt":921.6999999880791,"stimulus":"\n                    <p><b>Action: <em>avoid</em></b></p>\n                    <p>This is the bee that you just saw.</p>\n                    <img src=\"bees-with-color/bee-B2DF.svg\" width=\"200\">\n                    <p><br>Your bonus pay is unchanged, and remains at $0.66.</p>\n            ","response":0,"trial_type":"html-button-response","trial_index":54,"time_elapsed":837383,"internal_node_id":"0.0-4.0-1.21","subject_id":"5e6d3324f14d262fced5bbfe","study_id":"60edd13110225f80f9f3709b","session_id":"6196c4a0f0241e38cc1f9daa","condition":"contingent","relevant_dimensions":["wings","pattern"],"bee_group":{"antennae":"X","wings":"2","pattern":"D","legs":"X"},"bonus":1.4000000000000008},{"rt":27002.5,"stimulus":"bees-with-color/bee-A2SM.svg","response":0,"trial_type":"image-button-response","trial_index":55,"time_elapsed":864387,"internal_node_id":"0.0-4.0-0.22","subject_id":"5e6d3324f14d262fced5bbfe","study_id":"60edd13110225f80f9f3709b","session_id":"6196c4a0f0241e38cc1f9daa","condition":"contingent","relevant_dimensions":["wings","pattern"],"bee_group":{"antennae":"X","wings":"2","pattern":"D","legs":"X"},"action":"harvest","summary":"good-harvest","bonus":1.4000000000000008},{"rt":981.5999999642372,"stimulus":"\n                    <p><b>Action: <em>harvest</em></b></p>\n                    <p>This is the bee that you just saw.</p>\n                    <img src=\"bees-with-color/bee-A2SM.svg\" width=\"200\">\n                    <p><span class=\"greenText\"><b>Successful harvest!</b></span><br>Your pay has increased by $0.02. Your bonus pay is now $0.68.</p>\n            ","response":0,"trial_type":"html-button-response","trial_index":56,"time_elapsed":865370,"internal_node_id":"0.0-4.0-1.22","subject_id":"5e6d3324f14d262fced5bbfe","study_id":"60edd13110225f80f9f3709b","session_id":"6196c4a0f0241e38cc1f9daa","condition":"contingent","relevant_dimensions":["wings","pattern"],"bee_group":{"antennae":"X","wings":"2","pattern":"D","legs":"X"},"bonus":1.4000000000000008},{"rt":8281.199999988079,"stimulus":"bees-with-color/bee-A1SF.svg","response":0,"trial_type":"image-button-response","trial_index":57,"time_elapsed":873653,"internal_node_id":"0.0-4.0-0.23","subject_id":"5e6d3324f14d262fced5bbfe","study_id":"60edd13110225f80f9f3709b","session_id":"6196c4a0f0241e38cc1f9daa","condition":"contingent","relevant_dimensions":["wings","pattern"],"bee_group":{"antennae":"X","wings":"2","pattern":"D","legs":"X"},"action":"harvest","summary":"good-harvest","bonus":1.4000000000000008},{"rt":873,"stimulus":"\n                    <p><b>Action: <em>harvest</em></b></p>\n                    <p>This is the bee that you just saw.</p>\n                    <img src=\"bees-with-color/bee-A1SF.svg\" width=\"200\">\n                    <p><span class=\"greenText\"><b>Successful harvest!</b></span><br>Your pay has increased by $0.02. Your bonus pay is now $0.70.</p>\n            ","response":0,"trial_type":"html-button-response","trial_index":58,"time_elapsed":874528,"internal_node_id":"0.0-4.0-1.23","subject_id":"5e6d3324f14d262fced5bbfe","study_id":"60edd13110225f80f9f3709b","session_id":"6196c4a0f0241e38cc1f9daa","condition":"contingent","relevant_dimensions":["wings","pattern"],"bee_group":{"antennae":"X","wings":"2","pattern":"D","legs":"X"},"bonus":1.4000000000000008},{"rt":1189.6000000238419,"stimulus":"bees-with-color/bee-A2DM.svg","response":1,"trial_type":"image-button-response","trial_index":59,"time_elapsed":875720,"internal_node_id":"0.0-4.0-0.24","subject_id":"5e6d3324f14d262fced5bbfe","study_id":"60edd13110225f80f9f3709b","session_id":"6196c4a0f0241e38cc1f9daa","condition":"contingent","relevant_dimensions":["wings","pattern"],"bee_group":{"antennae":"X","wings":"2","pattern":"D","legs":"X"},"action":"avoid","summary":"good-avoid","bonus":1.4000000000000008},{"rt":799.2999999523163,"stimulus":"\n                    <p><b>Action: <em>avoid</em></b></p>\n                    <p>This is the bee that you just saw.</p>\n                    <img src=\"bees-with-color/bee-A2DM.svg\" width=\"200\">\n                    <p><br>Your bonus pay is unchanged, and remains at $0.70.</p>\n            ","response":0,"trial_type":"html-button-response","trial_index":60,"time_elapsed":876520,"internal_node_id":"0.0-4.0-1.24","subject_id":"5e6d3324f14d262fced5bbfe","study_id":"60edd13110225f80f9f3709b","session_id":"6196c4a0f0241e38cc1f9daa","condition":"contingent","relevant_dimensions":["wings","pattern"],"bee_group":{"antennae":"X","wings":"2","pattern":"D","legs":"X"},"bonus":1.4000000000000008},{"rt":820.6999999880791,"stimulus":"bees-with-color/bee-B1DF.svg","response":1,"trial_type":"image-button-response","trial_index":61,"time_elapsed":877342,"internal_node_id":"0.0-4.0-0.25","subject_id":"5e6d3324f14d262fced5bbfe","study_id":"60edd13110225f80f9f3709b","session_id":"6196c4a0f0241e38cc1f9daa","condition":"contingent","relevant_dimensions":["wings","pattern"],"bee_group":{"antennae":"X","wings":"2","pattern":"D","legs":"X"},"action":"avoid","summary":"bad-avoid","bonus":1.4000000000000008},{"rt":610.6999999880791,"stimulus":"\n                    <p><b>Action: <em>avoid</em></b></p>\n                    <p>This is the bee that you just saw.</p>\n                    <img src=\"bees-with-color/bee-B1DF.svg\" width=\"200\">\n                    <p><br>Your bonus pay is unchanged, and remains at $0.70.</p>\n            ","response":0,"trial_type":"html-button-response","trial_index":62,"time_elapsed":877954,"internal_node_id":"0.0-4.0-1.25","subject_id":"5e6d3324f14d262fced5bbfe","study_id":"60edd13110225f80f9f3709b","session_id":"6196c4a0f0241e38cc1f9daa","condition":"contingent","relevant_dimensions":["wings","pattern"],"bee_group":{"antennae":"X","wings":"2","pattern":"D","legs":"X"},"bonus":1.4000000000000008},{"rt":703.7999999523163,"stimulus":"bees-with-color/bee-A1DF.svg","response":1,"trial_type":"image-button-response","trial_index":63,"time_elapsed":878659,"internal_node_id":"0.0-4.0-0.26","subject_id":"5e6d3324f14d262fced5bbfe","study_id":"60edd13110225f80f9f3709b","session_id":"6196c4a0f0241e38cc1f9daa","condition":"contingent","relevant_dimensions":["wings","pattern"],"bee_group":{"antennae":"X","wings":"2","pattern":"D","legs":"X"},"action":"avoid","summary":"bad-avoid","bonus":1.4000000000000008},{"rt":647.5999999642372,"stimulus":"\n                    <p><b>Action: <em>avoid</em></b></p>\n                    <p>This is the bee that you just saw.</p>\n                    <img src=\"bees-with-color/bee-A1DF.svg\" width=\"200\">\n                    <p><br>Your bonus pay is unchanged, and remains at $0.70.</p>\n            ","response":0,"trial_type":"html-button-response","trial_index":64,"time_elapsed":879308,"internal_node_id":"0.0-4.0-1.26","subject_id":"5e6d3324f14d262fced5bbfe","study_id":"60edd13110225f80f9f3709b","session_id":"6196c4a0f0241e38cc1f9daa","condition":"contingent","relevant_dimensions":["wings","pattern"],"bee_group":{"antennae":"X","wings":"2","pattern":"D","legs":"X"},"bonus":1.4000000000000008},{"rt":25902.899999976158,"stimulus":"bees-with-color/bee-B2SF.svg","response":0,"trial_type":"image-button-response","trial_index":65,"time_elapsed":905212,"internal_node_id":"0.0-4.0-0.27","subject_id":"5e6d3324f14d262fced5bbfe","study_id":"60edd13110225f80f9f3709b","session_id":"6196c4a0f0241e38cc1f9daa","condition":"contingent","relevant_dimensions":["wings","pattern"],"bee_group":{"antennae":"X","wings":"2","pattern":"D","legs":"X"},"action":"harvest","summary":"good-harvest","bonus":1.4000000000000008},{"rt":1063.5,"stimulus":"\n                    <p><b>Action: <em>harvest</em></b></p>\n                    <p>This is the bee that you just saw.</p>\n                    <img src=\"bees-with-color/bee-B2SF.svg\" width=\"200\">\n                    <p><span class=\"greenText\"><b>Successful harvest!</b></span><br>Your pay has increased by $0.02. Your bonus pay is now $0.72.</p>\n            ","response":0,"trial_type":"html-button-response","trial_index":66,"time_elapsed":906278,"internal_node_id":"0.0-4.0-1.27","subject_id":"5e6d3324f14d262fced5bbfe","study_id":"60edd13110225f80f9f3709b","session_id":"6196c4a0f0241e38cc1f9daa","condition":"contingent","relevant_dimensions":["wings","pattern"],"bee_group":{"antennae":"X","wings":"2","pattern":"D","legs":"X"},"bonus":1.4000000000000008},{"rt":14118.400000035763,"stimulus":"bees-with-color/bee-B1SM.svg","response":0,"trial_type":"image-button-response","trial_index":67,"time_elapsed":920398,"internal_node_id":"0.0-4.0-0.28","subject_id":"5e6d3324f14d262fced5bbfe","study_id":"60edd13110225f80f9f3709b","session_id":"6196c4a0f0241e38cc1f9daa","condition":"contingent","relevant_dimensions":["wings","pattern"],"bee_group":{"antennae":"X","wings":"2","pattern":"D","legs":"X"},"action":"harvest","summary":"good-harvest","bonus":1.4000000000000008},{"rt":773.7999999523163,"stimulus":"\n                    <p><b>Action: <em>harvest</em></b></p>\n                    <p>This is the bee that you just saw.</p>\n                    <img src=\"bees-with-color/bee-B1SM.svg\" width=\"200\">\n                    <p><span class=\"greenText\"><b>Successful harvest!</b></span><br>Your pay has increased by $0.02. Your bonus pay is now $0.74.</p>\n            ","response":0,"trial_type":"html-button-response","trial_index":68,"time_elapsed":921174,"internal_node_id":"0.0-4.0-1.28","subject_id":"5e6d3324f14d262fced5bbfe","study_id":"60edd13110225f80f9f3709b","session_id":"6196c4a0f0241e38cc1f9daa","condition":"contingent","relevant_dimensions":["wings","pattern"],"bee_group":{"antennae":"X","wings":"2","pattern":"D","legs":"X"},"bonus":1.4000000000000008},{"rt":781.3999999761581,"stimulus":"bees-with-color/bee-A2DF.svg","response":1,"trial_type":"image-button-response","trial_index":69,"time_elapsed":921957,"internal_node_id":"0.0-4.0-0.29","subject_id":"5e6d3324f14d262fced5bbfe","study_id":"60edd13110225f80f9f3709b","session_id":"6196c4a0f0241e38cc1f9daa","condition":"contingent","relevant_dimensions":["wings","pattern"],"bee_group":{"antennae":"X","wings":"2","pattern":"D","legs":"X"},"action":"avoid","summary":"good-avoid","bonus":1.4000000000000008},{"rt":815.5,"stimulus":"\n                    <p><b>Action: <em>avoid</em></b></p>\n                    <p>This is the bee that you just saw.</p>\n                    <img src=\"bees-with-color/bee-A2DF.svg\" width=\"200\">\n                    <p><br>Your bonus pay is unchanged, and remains at $0.74.</p>\n            ","response":0,"trial_type":"html-button-response","trial_index":70,"time_elapsed":922773,"internal_node_id":"0.0-4.0-1.29","subject_id":"5e6d3324f14d262fced5bbfe","study_id":"60edd13110225f80f9f3709b","session_id":"6196c4a0f0241e38cc1f9daa","condition":"contingent","relevant_dimensions":["wings","pattern"],"bee_group":{"antennae":"X","wings":"2","pattern":"D","legs":"X"},"bonus":1.4000000000000008},{"rt":1005.5,"stimulus":"bees-with-color/bee-A1DM.svg","response":1,"trial_type":"image-button-response","trial_index":71,"time_elapsed":923780,"internal_node_id":"0.0-4.0-0.30","subject_id":"5e6d3324f14d262fced5bbfe","study_id":"60edd13110225f80f9f3709b","session_id":"6196c4a0f0241e38cc1f9daa","condition":"contingent","relevant_dimensions":["wings","pattern"],"bee_group":{"antennae":"X","wings":"2","pattern":"D","legs":"X"},"action":"avoid","summary":"bad-avoid","bonus":1.4000000000000008},{"rt":871.6999999880791,"stimulus":"\n                    <p><b>Action: <em>avoid</em></b></p>\n                    <p>This is the bee that you just saw.</p>\n                    <img src=\"bees-with-color/bee-A1DM.svg\" width=\"200\">\n                    <p><br>Your bonus pay is unchanged, and remains at $0.74.</p>\n            ","response":0,"trial_type":"html-button-response","trial_index":72,"time_elapsed":924654,"internal_node_id":"0.0-4.0-1.30","subject_id":"5e6d3324f14d262fced5bbfe","study_id":"60edd13110225f80f9f3709b","session_id":"6196c4a0f0241e38cc1f9daa","condition":"contingent","relevant_dimensions":["wings","pattern"],"bee_group":{"antennae":"X","wings":"2","pattern":"D","legs":"X"},"bonus":1.4000000000000008},{"rt":11678,"stimulus":"bees-with-color/bee-B2SM.svg","response":0,"trial_type":"image-button-response","trial_index":73,"time_elapsed":936333,"internal_node_id":"0.0-4.0-0.31","subject_id":"5e6d3324f14d262fced5bbfe","study_id":"60edd13110225f80f9f3709b","session_id":"6196c4a0f0241e38cc1f9daa","condition":"contingent","relevant_dimensions":["wings","pattern"],"bee_group":{"antennae":"X","wings":"2","pattern":"D","legs":"X"},"action":"harvest","summary":"good-harvest","bonus":1.4000000000000008},{"rt":767.1999999880791,"stimulus":"\n                    <p><b>Action: <em>harvest</em></b></p>\n                    <p>This is the bee that you just saw.</p>\n                    <img src=\"bees-with-color/bee-B2SM.svg\" width=\"200\">\n                    <p><span class=\"greenText\"><b>Successful harvest!</b></span><br>Your pay has increased by $0.02. Your bonus pay is now $0.76.</p>\n            ","response":0,"trial_type":"html-button-response","trial_index":74,"time_elapsed":937102,"internal_node_id":"0.0-4.0-1.31","subject_id":"5e6d3324f14d262fced5bbfe","study_id":"60edd13110225f80f9f3709b","session_id":"6196c4a0f0241e38cc1f9daa","condition":"contingent","relevant_dimensions":["wings","pattern"],"bee_group":{"antennae":"X","wings":"2","pattern":"D","legs":"X"},"bonus":1.4000000000000008},{"rt":883.6999999880791,"stimulus":"bees-with-color/bee-B2DM.svg","response":1,"trial_type":"image-button-response","trial_index":75,"time_elapsed":937988,"internal_node_id":"0.0-4.0-0.32","subject_id":"5e6d3324f14d262fced5bbfe","study_id":"60edd13110225f80f9f3709b","session_id":"6196c4a0f0241e38cc1f9daa","condition":"contingent","relevant_dimensions":["wings","pattern"],"bee_group":{"antennae":"X","wings":"2","pattern":"D","legs":"X"},"action":"avoid","summary":"good-avoid","bonus":1.4000000000000008},{"rt":609.3999999761581,"stimulus":"\n                    <p><b>Action: <em>avoid</em></b></p>\n                    <p>This is the bee that you just saw.</p>\n                    <img src=\"bees-with-color/bee-B2DM.svg\" width=\"200\">\n                    <p><br>Your bonus pay is unchanged, and remains at $0.76.</p>\n            ","response":0,"trial_type":"html-button-response","trial_index":76,"time_elapsed":938599,"internal_node_id":"0.0-4.0-1.32","subject_id":"5e6d3324f14d262fced5bbfe","study_id":"60edd13110225f80f9f3709b","session_id":"6196c4a0f0241e38cc1f9daa","condition":"contingent","relevant_dimensions":["wings","pattern"],"bee_group":{"antennae":"X","wings":"2","pattern":"D","legs":"X"},"bonus":1.4000000000000008},{"rt":785.6999999880791,"stimulus":"bees-with-color/bee-B1DM.svg","response":1,"trial_type":"image-button-response","trial_index":77,"time_elapsed":939386,"internal_node_id":"0.0-4.0-0.33","subject_id":"5e6d3324f14d262fced5bbfe","study_id":"60edd13110225f80f9f3709b","session_id":"6196c4a0f0241e38cc1f9daa","condition":"contingent","relevant_dimensions":["wings","pattern"],"bee_group":{"antennae":"X","wings":"2","pattern":"D","legs":"X"},"action":"avoid","summary":"bad-avoid","bonus":1.4000000000000008},{"rt":586.6999999880791,"stimulus":"\n                    <p><b>Action: <em>avoid</em></b></p>\n                    <p>This is the bee that you just saw.</p>\n                    <img src=\"bees-with-color/bee-B1DM.svg\" width=\"200\">\n                    <p><br>Your bonus pay is unchanged, and remains at $0.76.</p>\n            ","response":0,"trial_type":"html-button-response","trial_index":78,"time_elapsed":939974,"internal_node_id":"0.0-4.0-1.33","subject_id":"5e6d3324f14d262fced5bbfe","study_id":"60edd13110225f80f9f3709b","session_id":"6196c4a0f0241e38cc1f9daa","condition":"contingent","relevant_dimensions":["wings","pattern"],"bee_group":{"antennae":"X","wings":"2","pattern":"D","legs":"X"},"bonus":1.4000000000000008},{"rt":21392.30000001192,"stimulus":"bees-with-color/bee-A1SM.svg","response":0,"trial_type":"image-button-response","trial_index":79,"time_elapsed":961368,"internal_node_id":"0.0-4.0-0.34","subject_id":"5e6d3324f14d262fced5bbfe","study_id":"60edd13110225f80f9f3709b","session_id":"6196c4a0f0241e38cc1f9daa","condition":"contingent","relevant_dimensions":["wings","pattern"],"bee_group":{"antennae":"X","wings":"2","pattern":"D","legs":"X"},"action":"harvest","summary":"good-harvest","bonus":1.4000000000000008},{"rt":1097.699999988079,"stimulus":"\n                    <p><b>Action: <em>harvest</em></b></p>\n                    <p>This is the bee that you just saw.</p>\n                    <img src=\"bees-with-color/bee-A1SM.svg\" width=\"200\">\n                    <p><span class=\"greenText\"><b>Successful harvest!</b></span><br>Your pay has increased by $0.02. Your bonus pay is now $0.78.</p>\n            ","response":0,"trial_type":"html-button-response","trial_index":80,"time_elapsed":962467,"internal_node_id":"0.0-4.0-1.34","subject_id":"5e6d3324f14d262fced5bbfe","study_id":"60edd13110225f80f9f3709b","session_id":"6196c4a0f0241e38cc1f9daa","condition":"contingent","relevant_dimensions":["wings","pattern"],"bee_group":{"antennae":"X","wings":"2","pattern":"D","legs":"X"},"bonus":1.4000000000000008},{"rt":4753.300000011921,"stimulus":"bees-with-color/bee-B1SF.svg","response":0,"trial_type":"image-button-response","trial_index":81,"time_elapsed":967222,"internal_node_id":"0.0-4.0-0.35","subject_id":"5e6d3324f14d262fced5bbfe","study_id":"60edd13110225f80f9f3709b","session_id":"6196c4a0f0241e38cc1f9daa","condition":"contingent","relevant_dimensions":["wings","pattern"],"bee_group":{"antennae":"X","wings":"2","pattern":"D","legs":"X"},"action":"harvest","summary":"good-harvest","bonus":1.4000000000000008},{"rt":867,"stimulus":"\n                    <p><b>Action: <em>harvest</em></b></p>\n                    <p>This is the bee that you just saw.</p>\n                    <img src=\"bees-with-color/bee-B1SF.svg\" width=\"200\">\n                    <p><span class=\"greenText\"><b>Successful harvest!</b></span><br>Your pay has increased by $0.02. Your bonus pay is now $0.80.</p>\n            ","response":0,"trial_type":"html-button-response","trial_index":82,"time_elapsed":968090,"internal_node_id":"0.0-4.0-1.35","subject_id":"5e6d3324f14d262fced5bbfe","study_id":"60edd13110225f80f9f3709b","session_id":"6196c4a0f0241e38cc1f9daa","condition":"contingent","relevant_dimensions":["wings","pattern"],"bee_group":{"antennae":"X","wings":"2","pattern":"D","legs":"X"},"bonus":1.4000000000000008},{"rt":1102.5,"stimulus":"bees-with-color/bee-A2SM.svg","response":0,"trial_type":"image-button-response","trial_index":83,"time_elapsed":969195,"internal_node_id":"0.0-4.0-0.36","subject_id":"5e6d3324f14d262fced5bbfe","study_id":"60edd13110225f80f9f3709b","session_id":"6196c4a0f0241e38cc1f9daa","condition":"contingent","relevant_dimensions":["wings","pattern"],"bee_group":{"antennae":"X","wings":"2","pattern":"D","legs":"X"},"action":"harvest","summary":"good-harvest","bonus":1.4000000000000008},{"rt":796.5999999642372,"stimulus":"\n                    <p><b>Action: <em>harvest</em></b></p>\n                    <p>This is the bee that you just saw.</p>\n                    <img src=\"bees-with-color/bee-A2SM.svg\" width=\"200\">\n                    <p><span class=\"greenText\"><b>Successful harvest!</b></span><br>Your pay has increased by $0.02. Your bonus pay is now $0.82.</p>\n            ","response":0,"trial_type":"html-button-response","trial_index":84,"time_elapsed":969993,"internal_node_id":"0.0-4.0-1.36","subject_id":"5e6d3324f14d262fced5bbfe","study_id":"60edd13110225f80f9f3709b","session_id":"6196c4a0f0241e38cc1f9daa","condition":"contingent","relevant_dimensions":["wings","pattern"],"bee_group":{"antennae":"X","wings":"2","pattern":"D","legs":"X"},"bonus":1.4000000000000008},{"rt":755.4000000357628,"stimulus":"bees-with-color/bee-A1DF.svg","response":1,"trial_type":"image-button-response","trial_index":85,"time_elapsed":970750,"internal_node_id":"0.0-4.0-0.37","subject_id":"5e6d3324f14d262fced5bbfe","study_id":"60edd13110225f80f9f3709b","session_id":"6196c4a0f0241e38cc1f9daa","condition":"contingent","relevant_dimensions":["wings","pattern"],"bee_group":{"antennae":"X","wings":"2","pattern":"D","legs":"X"},"action":"avoid","summary":"bad-avoid","bonus":1.4000000000000008},{"rt":566.6000000238419,"stimulus":"\n                    <p><b>Action: <em>avoid</em></b></p>\n                    <p>This is the bee that you just saw.</p>\n                    <img src=\"bees-with-color/bee-A1DF.svg\" width=\"200\">\n                    <p><br>Your bonus pay is unchanged, and remains at $0.82.</p>\n            ","response":0,"trial_type":"html-button-response","trial_index":86,"time_elapsed":971318,"internal_node_id":"0.0-4.0-1.37","subject_id":"5e6d3324f14d262fced5bbfe","study_id":"60edd13110225f80f9f3709b","session_id":"6196c4a0f0241e38cc1f9daa","condition":"contingent","relevant_dimensions":["wings","pattern"],"bee_group":{"antennae":"X","wings":"2","pattern":"D","legs":"X"},"bonus":1.4000000000000008},{"rt":769.8999999761581,"stimulus":"bees-with-color/bee-A2DF.svg","response":1,"trial_type":"image-button-response","trial_index":87,"time_elapsed":972089,"internal_node_id":"0.0-4.0-0.38","subject_id":"5e6d3324f14d262fced5bbfe","study_id":"60edd13110225f80f9f3709b","session_id":"6196c4a0f0241e38cc1f9daa","condition":"contingent","relevant_dimensions":["wings","pattern"],"bee_group":{"antennae":"X","wings":"2","pattern":"D","legs":"X"},"action":"avoid","summary":"good-avoid","bonus":1.4000000000000008},{"rt":940.7999999523163,"stimulus":"\n                    <p><b>Action: <em>avoid</em></b></p>\n                    <p>This is the bee that you just saw.</p>\n                    <img src=\"bees-with-color/bee-A2DF.svg\" width=\"200\">\n                    <p><br>Your bonus pay is unchanged, and remains at $0.82.</p>\n            ","response":0,"trial_type":"html-button-response","trial_index":88,"time_elapsed":973031,"internal_node_id":"0.0-4.0-1.38","subject_id":"5e6d3324f14d262fced5bbfe","study_id":"60edd13110225f80f9f3709b","session_id":"6196c4a0f0241e38cc1f9daa","condition":"contingent","relevant_dimensions":["wings","pattern"],"bee_group":{"antennae":"X","wings":"2","pattern":"D","legs":"X"},"bonus":1.4000000000000008},{"rt":1033.5999999642372,"stimulus":"bees-with-color/bee-B1SM.svg","response":0,"trial_type":"image-button-response","trial_index":89,"time_elapsed":974066,"internal_node_id":"0.0-4.0-0.39","subject_id":"5e6d3324f14d262fced5bbfe","study_id":"60edd13110225f80f9f3709b","session_id":"6196c4a0f0241e38cc1f9daa","condition":"contingent","relevant_dimensions":["wings","pattern"],"bee_group":{"antennae":"X","wings":"2","pattern":"D","legs":"X"},"action":"harvest","summary":"good-harvest","bonus":1.4000000000000008},{"rt":714.6999999880791,"stimulus":"\n                    <p><b>Action: <em>harvest</em></b></p>\n                    <p>This is the bee that you just saw.</p>\n                    <img src=\"bees-with-color/bee-B1SM.svg\" width=\"200\">\n                    <p><span class=\"greenText\"><b>Successful harvest!</b></span><br>Your pay has increased by $0.02. Your bonus pay is now $0.84.</p>\n            ","response":0,"trial_type":"html-button-response","trial_index":90,"time_elapsed":974782,"internal_node_id":"0.0-4.0-1.39","subject_id":"5e6d3324f14d262fced5bbfe","study_id":"60edd13110225f80f9f3709b","session_id":"6196c4a0f0241e38cc1f9daa","condition":"contingent","relevant_dimensions":["wings","pattern"],"bee_group":{"antennae":"X","wings":"2","pattern":"D","legs":"X"},"bonus":1.4000000000000008},{"rt":873.8000000119209,"stimulus":"bees-with-color/bee-A1DM.svg","response":1,"trial_type":"image-button-response","trial_index":91,"time_elapsed":975657,"internal_node_id":"0.0-4.0-0.40","subject_id":"5e6d3324f14d262fced5bbfe","study_id":"60edd13110225f80f9f3709b","session_id":"6196c4a0f0241e38cc1f9daa","condition":"contingent","relevant_dimensions":["wings","pattern"],"bee_group":{"antennae":"X","wings":"2","pattern":"D","legs":"X"},"action":"avoid","summary":"bad-avoid","bonus":1.4000000000000008},{"rt":755.5999999642372,"stimulus":"\n                    <p><b>Action: <em>avoid</em></b></p>\n                    <p>This is the bee that you just saw.</p>\n                    <img src=\"bees-with-color/bee-A1DM.svg\" width=\"200\">\n                    <p><br>Your bonus pay is unchanged, and remains at $0.84.</p>\n            ","response":0,"trial_type":"html-button-response","trial_index":92,"time_elapsed":976414,"internal_node_id":"0.0-4.0-1.40","subject_id":"5e6d3324f14d262fced5bbfe","study_id":"60edd13110225f80f9f3709b","session_id":"6196c4a0f0241e38cc1f9daa","condition":"contingent","relevant_dimensions":["wings","pattern"],"bee_group":{"antennae":"X","wings":"2","pattern":"D","legs":"X"},"bonus":1.4000000000000008},{"rt":1451.5999999642372,"stimulus":"bees-with-color/bee-B2SF.svg","response":0,"trial_type":"image-button-response","trial_index":93,"time_elapsed":977867,"internal_node_id":"0.0-4.0-0.41","subject_id":"5e6d3324f14d262fced5bbfe","study_id":"60edd13110225f80f9f3709b","session_id":"6196c4a0f0241e38cc1f9daa","condition":"contingent","relevant_dimensions":["wings","pattern"],"bee_group":{"antennae":"X","wings":"2","pattern":"D","legs":"X"},"action":"harvest","summary":"good-harvest","bonus":1.4000000000000008},{"rt":816.5999999642372,"stimulus":"\n                    <p><b>Action: <em>harvest</em></b></p>\n                    <p>This is the bee that you just saw.</p>\n                    <img src=\"bees-with-color/bee-B2SF.svg\" width=\"200\">\n                    <p><span class=\"greenText\"><b>Successful harvest!</b></span><br>Your pay has increased by $0.02. Your bonus pay is now $0.86.</p>\n            ","response":0,"trial_type":"html-button-response","trial_index":94,"time_elapsed":978685,"internal_node_id":"0.0-4.0-1.41","subject_id":"5e6d3324f14d262fced5bbfe","study_id":"60edd13110225f80f9f3709b","session_id":"6196c4a0f0241e38cc1f9daa","condition":"contingent","relevant_dimensions":["wings","pattern"],"bee_group":{"antennae":"X","wings":"2","pattern":"D","legs":"X"},"bonus":1.4000000000000008},{"rt":2068.599999964237,"stimulus":"bees-with-color/bee-B2DF.svg","response":1,"trial_type":"image-button-response","trial_index":95,"time_elapsed":980755,"internal_node_id":"0.0-4.0-0.42","subject_id":"5e6d3324f14d262fced5bbfe","study_id":"60edd13110225f80f9f3709b","session_id":"6196c4a0f0241e38cc1f9daa","condition":"contingent","relevant_dimensions":["wings","pattern"],"bee_group":{"antennae":"X","wings":"2","pattern":"D","legs":"X"},"action":"avoid","summary":"good-avoid","bonus":1.4000000000000008},{"rt":1020.6000000238419,"stimulus":"\n                    <p><b>Action: <em>avoid</em></b></p>\n                    <p>This is the bee that you just saw.</p>\n                    <img src=\"bees-with-color/bee-B2DF.svg\" width=\"200\">\n                    <p><br>Your bonus pay is unchanged, and remains at $0.86.</p>\n            ","response":0,"trial_type":"html-button-response","trial_index":96,"time_elapsed":981777,"internal_node_id":"0.0-4.0-1.42","subject_id":"5e6d3324f14d262fced5bbfe","study_id":"60edd13110225f80f9f3709b","session_id":"6196c4a0f0241e38cc1f9daa","condition":"contingent","relevant_dimensions":["wings","pattern"],"bee_group":{"antennae":"X","wings":"2","pattern":"D","legs":"X"},"bonus":1.4000000000000008},{"rt":1018.5,"stimulus":"bees-with-color/bee-B2SM.svg","response":0,"trial_type":"image-button-response","trial_index":97,"time_elapsed":982797,"internal_node_id":"0.0-4.0-0.43","subject_id":"5e6d3324f14d262fced5bbfe","study_id":"60edd13110225f80f9f3709b","session_id":"6196c4a0f0241e38cc1f9daa","condition":"contingent","relevant_dimensions":["wings","pattern"],"bee_group":{"antennae":"X","wings":"2","pattern":"D","legs":"X"},"action":"harvest","summary":"good-harvest","bonus":1.4000000000000008},{"rt":835.3000000119209,"stimulus":"\n                    <p><b>Action: <em>harvest</em></b></p>\n                    <p>This is the bee that you just saw.</p>\n                    <img src=\"bees-with-color/bee-B2SM.svg\" width=\"200\">\n                    <p><span class=\"greenText\"><b>Successful harvest!</b></span><br>Your pay has increased by $0.02. Your bonus pay is now $0.88.</p>\n            ","response":0,"trial_type":"html-button-response","trial_index":98,"time_elapsed":983634,"internal_node_id":"0.0-4.0-1.43","subject_id":"5e6d3324f14d262fced5bbfe","study_id":"60edd13110225f80f9f3709b","session_id":"6196c4a0f0241e38cc1f9daa","condition":"contingent","relevant_dimensions":["wings","pattern"],"bee_group":{"antennae":"X","wings":"2","pattern":"D","legs":"X"},"bonus":1.4000000000000008},{"rt":2997.300000011921,"stimulus":"bees-with-color/bee-A2DM.svg","response":1,"trial_type":"image-button-response","trial_index":99,"time_elapsed":986633,"internal_node_id":"0.0-4.0-0.44","subject_id":"5e6d3324f14d262fced5bbfe","study_id":"60edd13110225f80f9f3709b","session_id":"6196c4a0f0241e38cc1f9daa","condition":"contingent","relevant_dimensions":["wings","pattern"],"bee_group":{"antennae":"X","wings":"2","pattern":"D","legs":"X"},"action":"avoid","summary":"good-avoid","bonus":1.4000000000000008},{"rt":944.3000000119209,"stimulus":"\n                    <p><b>Action: <em>avoid</em></b></p>\n                    <p>This is the bee that you just saw.</p>\n                    <img src=\"bees-with-color/bee-A2DM.svg\" width=\"200\">\n                    <p><br>Your bonus pay is unchanged, and remains at $0.88.</p>\n            ","response":0,"trial_type":"html-button-response","trial_index":100,"time_elapsed":987579,"internal_node_id":"0.0-4.0-1.44","subject_id":"5e6d3324f14d262fced5bbfe","study_id":"60edd13110225f80f9f3709b","session_id":"6196c4a0f0241e38cc1f9daa","condition":"contingent","relevant_dimensions":["wings","pattern"],"bee_group":{"antennae":"X","wings":"2","pattern":"D","legs":"X"},"bonus":1.4000000000000008},{"rt":1132.199999988079,"stimulus":"bees-with-color/bee-B1DF.svg","response":1,"trial_type":"image-button-response","trial_index":101,"time_elapsed":988713,"internal_node_id":"0.0-4.0-0.45","subject_id":"5e6d3324f14d262fced5bbfe","study_id":"60edd13110225f80f9f3709b","session_id":"6196c4a0f0241e38cc1f9daa","condition":"contingent","relevant_dimensions":["wings","pattern"],"bee_group":{"antennae":"X","wings":"2","pattern":"D","legs":"X"},"action":"avoid","summary":"bad-avoid","bonus":1.4000000000000008},{"rt":660.6000000238419,"stimulus":"\n                    <p><b>Action: <em>avoid</em></b></p>\n                    <p>This is the bee that you just saw.</p>\n                    <img src=\"bees-with-color/bee-B1DF.svg\" width=\"200\">\n                    <p><br>Your bonus pay is unchanged, and remains at $0.88.</p>\n            ","response":0,"trial_type":"html-button-response","trial_index":102,"time_elapsed":989375,"internal_node_id":"0.0-4.0-1.45","subject_id":"5e6d3324f14d262fced5bbfe","study_id":"60edd13110225f80f9f3709b","session_id":"6196c4a0f0241e38cc1f9daa","condition":"contingent","relevant_dimensions":["wings","pattern"],"bee_group":{"antennae":"X","wings":"2","pattern":"D","legs":"X"},"bonus":1.4000000000000008},{"rt":903.5,"stimulus":"bees-with-color/bee-A1SF.svg","response":0,"trial_type":"image-button-response","trial_index":103,"time_elapsed":990280,"internal_node_id":"0.0-4.0-0.46","subject_id":"5e6d3324f14d262fced5bbfe","study_id":"60edd13110225f80f9f3709b","session_id":"6196c4a0f0241e38cc1f9daa","condition":"contingent","relevant_dimensions":["wings","pattern"],"bee_group":{"antennae":"X","wings":"2","pattern":"D","legs":"X"},"action":"harvest","summary":"good-harvest","bonus":1.4000000000000008},{"rt":803,"stimulus":"\n                    <p><b>Action: <em>harvest</em></b></p>\n                    <p>This is the bee that you just saw.</p>\n                    <img src=\"bees-with-color/bee-A1SF.svg\" width=\"200\">\n                    <p><span class=\"greenText\"><b>Successful harvest!</b></span><br>Your pay has increased by $0.02. Your bonus pay is now $0.90.</p>\n            ","response":0,"trial_type":"html-button-response","trial_index":104,"time_elapsed":991084,"internal_node_id":"0.0-4.0-1.46","subject_id":"5e6d3324f14d262fced5bbfe","study_id":"60edd13110225f80f9f3709b","session_id":"6196c4a0f0241e38cc1f9daa","condition":"contingent","relevant_dimensions":["wings","pattern"],"bee_group":{"antennae":"X","wings":"2","pattern":"D","legs":"X"},"bonus":1.4000000000000008},{"rt":3528.5,"stimulus":"bees-with-color/bee-A2SF.svg","response":0,"trial_type":"image-button-response","trial_index":105,"time_elapsed":994614,"internal_node_id":"0.0-4.0-0.47","subject_id":"5e6d3324f14d262fced5bbfe","study_id":"60edd13110225f80f9f3709b","session_id":"6196c4a0f0241e38cc1f9daa","condition":"contingent","relevant_dimensions":["wings","pattern"],"bee_group":{"antennae":"X","wings":"2","pattern":"D","legs":"X"},"action":"harvest","summary":"good-harvest","bonus":1.4000000000000008},{"rt":713.5999999642372,"stimulus":"\n                    <p><b>Action: <em>harvest</em></b></p>\n                    <p>This is the bee that you just saw.</p>\n                    <img src=\"bees-with-color/bee-A2SF.svg\" width=\"200\">\n                    <p><span class=\"greenText\"><b>Successful harvest!</b></span><br>Your pay has increased by $0.02. Your bonus pay is now $0.92.</p>\n            ","response":0,"trial_type":"html-button-response","trial_index":106,"time_elapsed":995329,"internal_node_id":"0.0-4.0-1.47","subject_id":"5e6d3324f14d262fced5bbfe","study_id":"60edd13110225f80f9f3709b","session_id":"6196c4a0f0241e38cc1f9daa","condition":"contingent","relevant_dimensions":["wings","pattern"],"bee_group":{"antennae":"X","wings":"2","pattern":"D","legs":"X"},"bonus":1.4000000000000008},{"rt":905.5,"stimulus":"bees-with-color/bee-A2SM.svg","response":0,"trial_type":"image-button-response","trial_index":107,"time_elapsed":996236,"internal_node_id":"0.0-4.0-0.48","subject_id":"5e6d3324f14d262fced5bbfe","study_id":"60edd13110225f80f9f3709b","session_id":"6196c4a0f0241e38cc1f9daa","condition":"contingent","relevant_dimensions":["wings","pattern"],"bee_group":{"antennae":"X","wings":"2","pattern":"D","legs":"X"},"action":"harvest","summary":"good-harvest","bonus":1.4000000000000008},{"rt":534.8000000119209,"stimulus":"\n                    <p><b>Action: <em>harvest</em></b></p>\n                    <p>This is the bee that you just saw.</p>\n                    <img src=\"bees-with-color/bee-A2SM.svg\" width=\"200\">\n                    <p><span class=\"greenText\"><b>Successful harvest!</b></span><br>Your pay has increased by $0.02. Your bonus pay is now $0.94.</p>\n            ","response":0,"trial_type":"html-button-response","trial_index":108,"time_elapsed":996771,"internal_node_id":"0.0-4.0-1.48","subject_id":"5e6d3324f14d262fced5bbfe","study_id":"60edd13110225f80f9f3709b","session_id":"6196c4a0f0241e38cc1f9daa","condition":"contingent","relevant_dimensions":["wings","pattern"],"bee_group":{"antennae":"X","wings":"2","pattern":"D","legs":"X"},"bonus":1.4000000000000008},{"rt":969.8000000119209,"stimulus":"bees-with-color/bee-B1DF.svg","response":1,"trial_type":"image-button-response","trial_index":109,"time_elapsed":997743,"internal_node_id":"0.0-4.0-0.49","subject_id":"5e6d3324f14d262fced5bbfe","study_id":"60edd13110225f80f9f3709b","session_id":"6196c4a0f0241e38cc1f9daa","condition":"contingent","relevant_dimensions":["wings","pattern"],"bee_group":{"antennae":"X","wings":"2","pattern":"D","legs":"X"},"action":"avoid","summary":"bad-avoid","bonus":1.4000000000000008},{"rt":912.8000000119209,"stimulus":"\n                    <p><b>Action: <em>avoid</em></b></p>\n                    <p>This is the bee that you just saw.</p>\n                    <img src=\"bees-with-color/bee-B1DF.svg\" width=\"200\">\n                    <p><br>Your bonus pay is unchanged, and remains at $0.94.</p>\n            ","response":0,"trial_type":"html-button-response","trial_index":110,"time_elapsed":998657,"internal_node_id":"0.0-4.0-1.49","subject_id":"5e6d3324f14d262fced5bbfe","study_id":"60edd13110225f80f9f3709b","session_id":"6196c4a0f0241e38cc1f9daa","condition":"contingent","relevant_dimensions":["wings","pattern"],"bee_group":{"antennae":"X","wings":"2","pattern":"D","legs":"X"},"bonus":1.4000000000000008},{"rt":771.1000000238419,"stimulus":"bees-with-color/bee-B2DF.svg","response":1,"trial_type":"image-button-response","trial_index":111,"time_elapsed":999429,"internal_node_id":"0.0-4.0-0.50","subject_id":"5e6d3324f14d262fced5bbfe","study_id":"60edd13110225f80f9f3709b","session_id":"6196c4a0f0241e38cc1f9daa","condition":"contingent","relevant_dimensions":["wings","pattern"],"bee_group":{"antennae":"X","wings":"2","pattern":"D","legs":"X"},"action":"avoid","summary":"good-avoid","bonus":1.4000000000000008},{"rt":788.4000000357628,"stimulus":"\n                    <p><b>Action: <em>avoid</em></b></p>\n                    <p>This is the bee that you just saw.</p>\n                    <img src=\"bees-with-color/bee-B2DF.svg\" width=\"200\">\n                    <p><br>Your bonus pay is unchanged, and remains at $0.94.</p>\n            ","response":0,"trial_type":"html-button-response","trial_index":112,"time_elapsed":1000219,"internal_node_id":"0.0-4.0-1.50","subject_id":"5e6d3324f14d262fced5bbfe","study_id":"60edd13110225f80f9f3709b","session_id":"6196c4a0f0241e38cc1f9daa","condition":"contingent","relevant_dimensions":["wings","pattern"],"bee_group":{"antennae":"X","wings":"2","pattern":"D","legs":"X"},"bonus":1.4000000000000008},{"rt":3665.899999976158,"stimulus":"bees-with-color/bee-B2DM.svg","response":1,"trial_type":"image-button-response","trial_index":113,"time_elapsed":1003886,"internal_node_id":"0.0-4.0-0.51","subject_id":"5e6d3324f14d262fced5bbfe","study_id":"60edd13110225f80f9f3709b","session_id":"6196c4a0f0241e38cc1f9daa","condition":"contingent","relevant_dimensions":["wings","pattern"],"bee_group":{"antennae":"X","wings":"2","pattern":"D","legs":"X"},"action":"avoid","summary":"good-avoid","bonus":1.4000000000000008},{"rt":658.0999999642372,"stimulus":"\n                    <p><b>Action: <em>avoid</em></b></p>\n                    <p>This is the bee that you just saw.</p>\n                    <img src=\"bees-with-color/bee-B2DM.svg\" width=\"200\">\n                    <p><br>Your bonus pay is unchanged, and remains at $0.94.</p>\n            ","response":0,"trial_type":"html-button-response","trial_index":114,"time_elapsed":1004546,"internal_node_id":"0.0-4.0-1.51","subject_id":"5e6d3324f14d262fced5bbfe","study_id":"60edd13110225f80f9f3709b","session_id":"6196c4a0f0241e38cc1f9daa","condition":"contingent","relevant_dimensions":["wings","pattern"],"bee_group":{"antennae":"X","wings":"2","pattern":"D","legs":"X"},"bonus":1.4000000000000008},{"rt":1238.8999999761581,"stimulus":"bees-with-color/bee-A1SM.svg","response":0,"trial_type":"image-button-response","trial_index":115,"time_elapsed":1005787,"internal_node_id":"0.0-4.0-0.52","subject_id":"5e6d3324f14d262fced5bbfe","study_id":"60edd13110225f80f9f3709b","session_id":"6196c4a0f0241e38cc1f9daa","condition":"contingent","relevant_dimensions":["wings","pattern"],"bee_group":{"antennae":"X","wings":"2","pattern":"D","legs":"X"},"action":"harvest","summary":"good-harvest","bonus":1.4000000000000008},{"rt":1867.800000011921,"stimulus":"\n                    <p><b>Action: <em>harvest</em></b></p>\n                    <p>This is the bee that you just saw.</p>\n                    <img src=\"bees-with-color/bee-A1SM.svg\" width=\"200\">\n                    <p><span class=\"greenText\"><b>Successful harvest!</b></span><br>Your pay has increased by $0.02. Your bonus pay is now $0.96.</p>\n            ","response":0,"trial_type":"html-button-response","trial_index":116,"time_elapsed":1007656,"internal_node_id":"0.0-4.0-1.52","subject_id":"5e6d3324f14d262fced5bbfe","study_id":"60edd13110225f80f9f3709b","session_id":"6196c4a0f0241e38cc1f9daa","condition":"contingent","relevant_dimensions":["wings","pattern"],"bee_group":{"antennae":"X","wings":"2","pattern":"D","legs":"X"},"bonus":1.4000000000000008},{"rt":1142,"stimulus":"bees-with-color/bee-B2SM.svg","response":0,"trial_type":"image-button-response","trial_index":117,"time_elapsed":1008799,"internal_node_id":"0.0-4.0-0.53","subject_id":"5e6d3324f14d262fced5bbfe","study_id":"60edd13110225f80f9f3709b","session_id":"6196c4a0f0241e38cc1f9daa","condition":"contingent","relevant_dimensions":["wings","pattern"],"bee_group":{"antennae":"X","wings":"2","pattern":"D","legs":"X"},"action":"harvest","summary":"good-harvest","bonus":1.4000000000000008},{"rt":874.7999999523163,"stimulus":"\n                    <p><b>Action: <em>harvest</em></b></p>\n                    <p>This is the bee that you just saw.</p>\n                    <img src=\"bees-with-color/bee-B2SM.svg\" width=\"200\">\n                    <p><span class=\"greenText\"><b>Successful harvest!</b></span><br>Your pay has increased by $0.02. Your bonus pay is now $0.98.</p>\n            ","response":0,"trial_type":"html-button-response","trial_index":118,"time_elapsed":1009675,"internal_node_id":"0.0-4.0-1.53","subject_id":"5e6d3324f14d262fced5bbfe","study_id":"60edd13110225f80f9f3709b","session_id":"6196c4a0f0241e38cc1f9daa","condition":"contingent","relevant_dimensions":["wings","pattern"],"bee_group":{"antennae":"X","wings":"2","pattern":"D","legs":"X"},"bonus":1.4000000000000008},{"rt":1227.199999988079,"stimulus":"bees-with-color/bee-B1SF.svg","response":0,"trial_type":"image-button-response","trial_index":119,"time_elapsed":1010904,"internal_node_id":"0.0-4.0-0.54","subject_id":"5e6d3324f14d262fced5bbfe","study_id":"60edd13110225f80f9f3709b","session_id":"6196c4a0f0241e38cc1f9daa","condition":"contingent","relevant_dimensions":["wings","pattern"],"bee_group":{"antennae":"X","wings":"2","pattern":"D","legs":"X"},"action":"harvest","summary":"good-harvest","bonus":1.4000000000000008},{"rt":1079.3999999761581,"stimulus":"\n                    <p><b>Action: <em>harvest</em></b></p>\n                    <p>This is the bee that you just saw.</p>\n                    <img src=\"bees-with-color/bee-B1SF.svg\" width=\"200\">\n                    <p><span class=\"greenText\"><b>Successful harvest!</b></span><br>Your pay has increased by $0.02. Your bonus pay is now $1.00.</p>\n            ","response":0,"trial_type":"html-button-response","trial_index":120,"time_elapsed":1011985,"internal_node_id":"0.0-4.0-1.54","subject_id":"5e6d3324f14d262fced5bbfe","study_id":"60edd13110225f80f9f3709b","session_id":"6196c4a0f0241e38cc1f9daa","condition":"contingent","relevant_dimensions":["wings","pattern"],"bee_group":{"antennae":"X","wings":"2","pattern":"D","legs":"X"},"bonus":1.4000000000000008},{"rt":747.5,"stimulus":"bees-with-color/bee-B2SF.svg","response":0,"trial_type":"image-button-response","trial_index":121,"time_elapsed":1012734,"internal_node_id":"0.0-4.0-0.55","subject_id":"5e6d3324f14d262fced5bbfe","study_id":"60edd13110225f80f9f3709b","session_id":"6196c4a0f0241e38cc1f9daa","condition":"contingent","relevant_dimensions":["wings","pattern"],"bee_group":{"antennae":"X","wings":"2","pattern":"D","legs":"X"},"action":"harvest","summary":"good-harvest","bonus":1.4000000000000008},{"rt":937.3000000119209,"stimulus":"\n                    <p><b>Action: <em>harvest</em></b></p>\n                    <p>This is the bee that you just saw.</p>\n                    <img src=\"bees-with-color/bee-B2SF.svg\" width=\"200\">\n                    <p><span class=\"greenText\"><b>Successful harvest!</b></span><br>Your pay has increased by $0.02. Your bonus pay is now $1.02.</p>\n            ","response":0,"trial_type":"html-button-response","trial_index":122,"time_elapsed":1013673,"internal_node_id":"0.0-4.0-1.55","subject_id":"5e6d3324f14d262fced5bbfe","study_id":"60edd13110225f80f9f3709b","session_id":"6196c4a0f0241e38cc1f9daa","condition":"contingent","relevant_dimensions":["wings","pattern"],"bee_group":{"antennae":"X","wings":"2","pattern":"D","legs":"X"},"bonus":1.4000000000000008},{"rt":813.3999999761581,"stimulus":"bees-with-color/bee-A1DM.svg","response":1,"trial_type":"image-button-response","trial_index":123,"time_elapsed":1014488,"internal_node_id":"0.0-4.0-0.56","subject_id":"5e6d3324f14d262fced5bbfe","study_id":"60edd13110225f80f9f3709b","session_id":"6196c4a0f0241e38cc1f9daa","condition":"contingent","relevant_dimensions":["wings","pattern"],"bee_group":{"antennae":"X","wings":"2","pattern":"D","legs":"X"},"action":"avoid","summary":"bad-avoid","bonus":1.4000000000000008},{"rt":614.5,"stimulus":"\n                    <p><b>Action: <em>avoid</em></b></p>\n                    <p>This is the bee that you just saw.</p>\n                    <img src=\"bees-with-color/bee-A1DM.svg\" width=\"200\">\n                    <p><br>Your bonus pay is unchanged, and remains at $1.02.</p>\n            ","response":0,"trial_type":"html-button-response","trial_index":124,"time_elapsed":1015104,"internal_node_id":"0.0-4.0-1.56","subject_id":"5e6d3324f14d262fced5bbfe","study_id":"60edd13110225f80f9f3709b","session_id":"6196c4a0f0241e38cc1f9daa","condition":"contingent","relevant_dimensions":["wings","pattern"],"bee_group":{"antennae":"X","wings":"2","pattern":"D","legs":"X"},"bonus":1.4000000000000008},{"rt":732.6000000238419,"stimulus":"bees-with-color/bee-A1DF.svg","response":1,"trial_type":"image-button-response","trial_index":125,"time_elapsed":1015838,"internal_node_id":"0.0-4.0-0.57","subject_id":"5e6d3324f14d262fced5bbfe","study_id":"60edd13110225f80f9f3709b","session_id":"6196c4a0f0241e38cc1f9daa","condition":"contingent","relevant_dimensions":["wings","pattern"],"bee_group":{"antennae":"X","wings":"2","pattern":"D","legs":"X"},"action":"avoid","summary":"bad-avoid","bonus":1.4000000000000008},{"rt":705.5,"stimulus":"\n                    <p><b>Action: <em>avoid</em></b></p>\n                    <p>This is the bee that you just saw.</p>\n                    <img src=\"bees-with-color/bee-A1DF.svg\" width=\"200\">\n                    <p><br>Your bonus pay is unchanged, and remains at $1.02.</p>\n            ","response":0,"trial_type":"html-button-response","trial_index":126,"time_elapsed":1016545,"internal_node_id":"0.0-4.0-1.57","subject_id":"5e6d3324f14d262fced5bbfe","study_id":"60edd13110225f80f9f3709b","session_id":"6196c4a0f0241e38cc1f9daa","condition":"contingent","relevant_dimensions":["wings","pattern"],"bee_group":{"antennae":"X","wings":"2","pattern":"D","legs":"X"},"bonus":1.4000000000000008},{"rt":868.9000000357628,"stimulus":"bees-with-color/bee-A2SF.svg","response":0,"trial_type":"image-button-response","trial_index":127,"time_elapsed":1017415,"internal_node_id":"0.0-4.0-0.58","subject_id":"5e6d3324f14d262fced5bbfe","study_id":"60edd13110225f80f9f3709b","session_id":"6196c4a0f0241e38cc1f9daa","condition":"contingent","relevant_dimensions":["wings","pattern"],"bee_group":{"antennae":"X","wings":"2","pattern":"D","legs":"X"},"action":"harvest","summary":"good-harvest","bonus":1.4000000000000008},{"rt":517.6000000238419,"stimulus":"\n                    <p><b>Action: <em>harvest</em></b></p>\n                    <p>This is the bee that you just saw.</p>\n                    <img src=\"bees-with-color/bee-A2SF.svg\" width=\"200\">\n                    <p><span class=\"greenText\"><b>Successful harvest!</b></span><br>Your pay has increased by $0.02. Your bonus pay is now $1.04.</p>\n            ","response":0,"trial_type":"html-button-response","trial_index":128,"time_elapsed":1017934,"internal_node_id":"0.0-4.0-1.58","subject_id":"5e6d3324f14d262fced5bbfe","study_id":"60edd13110225f80f9f3709b","session_id":"6196c4a0f0241e38cc1f9daa","condition":"contingent","relevant_dimensions":["wings","pattern"],"bee_group":{"antennae":"X","wings":"2","pattern":"D","legs":"X"},"bonus":1.4000000000000008},{"rt":775.3000000119209,"stimulus":"bees-with-color/bee-B1DM.svg","response":1,"trial_type":"image-button-response","trial_index":129,"time_elapsed":1018711,"internal_node_id":"0.0-4.0-0.59","subject_id":"5e6d3324f14d262fced5bbfe","study_id":"60edd13110225f80f9f3709b","session_id":"6196c4a0f0241e38cc1f9daa","condition":"contingent","relevant_dimensions":["wings","pattern"],"bee_group":{"antennae":"X","wings":"2","pattern":"D","legs":"X"},"action":"avoid","summary":"bad-avoid","bonus":1.4000000000000008},{"rt":796,"stimulus":"\n                    <p><b>Action: <em>avoid</em></b></p>\n                    <p>This is the bee that you just saw.</p>\n                    <img src=\"bees-with-color/bee-B1DM.svg\" width=\"200\">\n                    <p><br>Your bonus pay is unchanged, and remains at $1.04.</p>\n            ","response":0,"trial_type":"html-button-response","trial_index":130,"time_elapsed":1019508,"internal_node_id":"0.0-4.0-1.59","subject_id":"5e6d3324f14d262fced5bbfe","study_id":"60edd13110225f80f9f3709b","session_id":"6196c4a0f0241e38cc1f9daa","condition":"contingent","relevant_dimensions":["wings","pattern"],"bee_group":{"antennae":"X","wings":"2","pattern":"D","legs":"X"},"bonus":1.4000000000000008},{"rt":1047,"stimulus":"bees-with-color/bee-B1SM.svg","response":0,"trial_type":"image-button-response","trial_index":131,"time_elapsed":1020556,"internal_node_id":"0.0-4.0-0.60","subject_id":"5e6d3324f14d262fced5bbfe","study_id":"60edd13110225f80f9f3709b","session_id":"6196c4a0f0241e38cc1f9daa","condition":"contingent","relevant_dimensions":["wings","pattern"],"bee_group":{"antennae":"X","wings":"2","pattern":"D","legs":"X"},"action":"harvest","summary":"good-harvest","bonus":1.4000000000000008},{"rt":1656.800000011921,"stimulus":"\n                    <p><b>Action: <em>harvest</em></b></p>\n                    <p>This is the bee that you just saw.</p>\n                    <img src=\"bees-with-color/bee-B1SM.svg\" width=\"200\">\n                    <p><span class=\"greenText\"><b>Successful harvest!</b></span><br>Your pay has increased by $0.02. Your bonus pay is now $1.06.</p>\n            ","response":0,"trial_type":"html-button-response","trial_index":132,"time_elapsed":1022214,"internal_node_id":"0.0-4.0-1.60","subject_id":"5e6d3324f14d262fced5bbfe","study_id":"60edd13110225f80f9f3709b","session_id":"6196c4a0f0241e38cc1f9daa","condition":"contingent","relevant_dimensions":["wings","pattern"],"bee_group":{"antennae":"X","wings":"2","pattern":"D","legs":"X"},"bonus":1.4000000000000008},{"rt":802.3999999761581,"stimulus":"bees-with-color/bee-A2DM.svg","response":1,"trial_type":"image-button-response","trial_index":133,"time_elapsed":1023018,"internal_node_id":"0.0-4.0-0.61","subject_id":"5e6d3324f14d262fced5bbfe","study_id":"60edd13110225f80f9f3709b","session_id":"6196c4a0f0241e38cc1f9daa","condition":"contingent","relevant_dimensions":["wings","pattern"],"bee_group":{"antennae":"X","wings":"2","pattern":"D","legs":"X"},"action":"avoid","summary":"good-avoid","bonus":1.4000000000000008},{"rt":685.7000000476837,"stimulus":"\n                    <p><b>Action: <em>avoid</em></b></p>\n                    <p>This is the bee that you just saw.</p>\n                    <img src=\"bees-with-color/bee-A2DM.svg\" width=\"200\">\n                    <p><br>Your bonus pay is unchanged, and remains at $1.06.</p>\n            ","response":0,"trial_type":"html-button-response","trial_index":134,"time_elapsed":1023705,"internal_node_id":"0.0-4.0-1.61","subject_id":"5e6d3324f14d262fced5bbfe","study_id":"60edd13110225f80f9f3709b","session_id":"6196c4a0f0241e38cc1f9daa","condition":"contingent","relevant_dimensions":["wings","pattern"],"bee_group":{"antennae":"X","wings":"2","pattern":"D","legs":"X"},"bonus":1.4000000000000008},{"rt":10105.800000011921,"stimulus":"bees-with-color/bee-A1SF.svg","response":0,"trial_type":"image-button-response","trial_index":135,"time_elapsed":1033812,"internal_node_id":"0.0-4.0-0.62","subject_id":"5e6d3324f14d262fced5bbfe","study_id":"60edd13110225f80f9f3709b","session_id":"6196c4a0f0241e38cc1f9daa","condition":"contingent","relevant_dimensions":["wings","pattern"],"bee_group":{"antennae":"X","wings":"2","pattern":"D","legs":"X"},"action":"harvest","summary":"good-harvest","bonus":1.4000000000000008},{"rt":564.6999999880791,"stimulus":"\n                    <p><b>Action: <em>harvest</em></b></p>\n                    <p>This is the bee that you just saw.</p>\n                    <img src=\"bees-with-color/bee-A1SF.svg\" width=\"200\">\n                    <p><span class=\"greenText\"><b>Successful harvest!</b></span><br>Your pay has increased by $0.02. Your bonus pay is now $1.08.</p>\n            ","response":0,"trial_type":"html-button-response","trial_index":136,"time_elapsed":1034378,"internal_node_id":"0.0-4.0-1.62","subject_id":"5e6d3324f14d262fced5bbfe","study_id":"60edd13110225f80f9f3709b","session_id":"6196c4a0f0241e38cc1f9daa","condition":"contingent","relevant_dimensions":["wings","pattern"],"bee_group":{"antennae":"X","wings":"2","pattern":"D","legs":"X"},"bonus":1.4000000000000008},{"rt":711.3000000119209,"stimulus":"bees-with-color/bee-A2DF.svg","response":1,"trial_type":"image-button-response","trial_index":137,"time_elapsed":1035091,"internal_node_id":"0.0-4.0-0.63","subject_id":"5e6d3324f14d262fced5bbfe","study_id":"60edd13110225f80f9f3709b","session_id":"6196c4a0f0241e38cc1f9daa","condition":"contingent","relevant_dimensions":["wings","pattern"],"bee_group":{"antennae":"X","wings":"2","pattern":"D","legs":"X"},"action":"avoid","summary":"good-avoid","bonus":1.4000000000000008},{"rt":509.69999998807907,"stimulus":"\n                    <p><b>Action: <em>avoid</em></b></p>\n                    <p>This is the bee that you just saw.</p>\n                    <img src=\"bees-with-color/bee-A2DF.svg\" width=\"200\">\n                    <p><br>Your bonus pay is unchanged, and remains at $1.08.</p>\n            ","response":0,"trial_type":"html-button-response","trial_index":138,"time_elapsed":1035602,"internal_node_id":"0.0-4.0-1.63","subject_id":"5e6d3324f14d262fced5bbfe","study_id":"60edd13110225f80f9f3709b","session_id":"6196c4a0f0241e38cc1f9daa","condition":"contingent","relevant_dimensions":["wings","pattern"],"bee_group":{"antennae":"X","wings":"2","pattern":"D","legs":"X"},"bonus":1.4000000000000008},{"rt":11306.300000011921,"stimulus":"You have completed the first part of this experiment.<br><br>You will now begin a shorter second part, in which you will receive no feedback.<br>The same rules regarding bonus pay apply.<br><br>Press any key to begin.","response":"arrowup","trial_type":"html-keyboard-response","trial_index":139,"time_elapsed":1046910,"internal_node_id":"0.0-5.0","subject_id":"5e6d3324f14d262fced5bbfe","study_id":"60edd13110225f80f9f3709b","session_id":"6196c4a0f0241e38cc1f9daa","condition":"contingent","relevant_dimensions":["wings","pattern"],"bee_group":{"antennae":"X","wings":"2","pattern":"D","legs":"X"},"bonus":1.4000000000000008},{"rt":2232.100000023842,"stimulus":"bees-with-color/bee-A1SF.svg","response":0,"trial_type":"image-button-response","trial_index":140,"time_elapsed":1049170,"internal_node_id":"0.0-6.0-0.0","subject_id":"5e6d3324f14d262fced5bbfe","study_id":"60edd13110225f80f9f3709b","session_id":"6196c4a0f0241e38cc1f9daa","condition":"contingent","relevant_dimensions":["wings","pattern"],"bee_group":{"antennae":"X","wings":"2","pattern":"D","legs":"X"},"bonus":1.4000000000000008},{"rt":7597,"stimulus":"bees-with-color/bee-B1SF.svg","response":0,"trial_type":"image-button-response","trial_index":141,"time_elapsed":1056769,"internal_node_id":"0.0-6.0-0.1","subject_id":"5e6d3324f14d262fced5bbfe","study_id":"60edd13110225f80f9f3709b","session_id":"6196c4a0f0241e38cc1f9daa","condition":"contingent","relevant_dimensions":["wings","pattern"],"bee_group":{"antennae":"X","wings":"2","pattern":"D","legs":"X"},"bonus":1.4000000000000008},{"rt":945.8000000119209,"stimulus":"bees-with-color/bee-B2DF.svg","response":1,"trial_type":"image-button-response","trial_index":142,"time_elapsed":1057718,"internal_node_id":"0.0-6.0-0.2","subject_id":"5e6d3324f14d262fced5bbfe","study_id":"60edd13110225f80f9f3709b","session_id":"6196c4a0f0241e38cc1f9daa","condition":"contingent","relevant_dimensions":["wings","pattern"],"bee_group":{"antennae":"X","wings":"2","pattern":"D","legs":"X"},"bonus":1.4000000000000008},{"rt":1106.4000000357628,"stimulus":"bees-with-color/bee-A2SF.svg","response":0,"trial_type":"image-button-response","trial_index":143,"time_elapsed":1058826,"internal_node_id":"0.0-6.0-0.3","subject_id":"5e6d3324f14d262fced5bbfe","study_id":"60edd13110225f80f9f3709b","session_id":"6196c4a0f0241e38cc1f9daa","condition":"contingent","relevant_dimensions":["wings","pattern"],"bee_group":{"antennae":"X","wings":"2","pattern":"D","legs":"X"},"bonus":1.4000000000000008},{"rt":826.8000000119209,"stimulus":"bees-with-color/bee-A2DF.svg","response":1,"trial_type":"image-button-response","trial_index":144,"time_elapsed":1059655,"internal_node_id":"0.0-6.0-0.4","subject_id":"5e6d3324f14d262fced5bbfe","study_id":"60edd13110225f80f9f3709b","session_id":"6196c4a0f0241e38cc1f9daa","condition":"contingent","relevant_dimensions":["wings","pattern"],"bee_group":{"antennae":"X","wings":"2","pattern":"D","legs":"X"},"bonus":1.4000000000000008},{"rt":712.8000000119209,"stimulus":"bees-with-color/bee-B1DF.svg","response":1,"trial_type":"image-button-response","trial_index":145,"time_elapsed":1060370,"internal_node_id":"0.0-6.0-0.5","subject_id":"5e6d3324f14d262fced5bbfe","study_id":"60edd13110225f80f9f3709b","session_id":"6196c4a0f0241e38cc1f9daa","condition":"contingent","relevant_dimensions":["wings","pattern"],"bee_group":{"antennae":"X","wings":"2","pattern":"D","legs":"X"},"bonus":1.4000000000000008},{"rt":24942.100000023842,"stimulus":"bees-with-color/bee-B1SM.svg","response":0,"trial_type":"image-button-response","trial_index":146,"time_elapsed":1085314,"internal_node_id":"0.0-6.0-0.6","subject_id":"5e6d3324f14d262fced5bbfe","study_id":"60edd13110225f80f9f3709b","session_id":"6196c4a0f0241e38cc1f9daa","condition":"contingent","relevant_dimensions":["wings","pattern"],"bee_group":{"antennae":"X","wings":"2","pattern":"D","legs":"X"},"bonus":1.4000000000000008},{"rt":874,"stimulus":"bees-with-color/bee-B1DM.svg","response":1,"trial_type":"image-button-response","trial_index":147,"time_elapsed":1086192,"internal_node_id":"0.0-6.0-0.7","subject_id":"5e6d3324f14d262fced5bbfe","study_id":"60edd13110225f80f9f3709b","session_id":"6196c4a0f0241e38cc1f9daa","condition":"contingent","relevant_dimensions":["wings","pattern"],"bee_group":{"antennae":"X","wings":"2","pattern":"D","legs":"X"},"bonus":1.4000000000000008},{"rt":748,"stimulus":"bees-with-color/bee-A1DF.svg","response":1,"trial_type":"image-button-response","trial_index":148,"time_elapsed":1086942,"internal_node_id":"0.0-6.0-0.8","subject_id":"5e6d3324f14d262fced5bbfe","study_id":"60edd13110225f80f9f3709b","session_id":"6196c4a0f0241e38cc1f9daa","condition":"contingent","relevant_dimensions":["wings","pattern"],"bee_group":{"antennae":"X","wings":"2","pattern":"D","legs":"X"},"bonus":1.4000000000000008},{"rt":718.0999999642372,"stimulus":"bees-with-color/bee-A2DM.svg","response":1,"trial_type":"image-button-response","trial_index":149,"time_elapsed":1087662,"internal_node_id":"0.0-6.0-0.9","subject_id":"5e6d3324f14d262fced5bbfe","study_id":"60edd13110225f80f9f3709b","session_id":"6196c4a0f0241e38cc1f9daa","condition":"contingent","relevant_dimensions":["wings","pattern"],"bee_group":{"antennae":"X","wings":"2","pattern":"D","legs":"X"},"bonus":1.4000000000000008},{"rt":496.4000000357628,"stimulus":"bees-with-color/bee-B2DM.svg","response":1,"trial_type":"image-button-response","trial_index":150,"time_elapsed":1088160,"internal_node_id":"0.0-6.0-0.10","subject_id":"5e6d3324f14d262fced5bbfe","study_id":"60edd13110225f80f9f3709b","session_id":"6196c4a0f0241e38cc1f9daa","condition":"contingent","relevant_dimensions":["wings","pattern"],"bee_group":{"antennae":"X","wings":"2","pattern":"D","legs":"X"},"bonus":1.4000000000000008},{"rt":508.10000002384186,"stimulus":"bees-with-color/bee-A1DM.svg","response":1,"trial_type":"image-button-response","trial_index":151,"time_elapsed":1088670,"internal_node_id":"0.0-6.0-0.11","subject_id":"5e6d3324f14d262fced5bbfe","study_id":"60edd13110225f80f9f3709b","session_id":"6196c4a0f0241e38cc1f9daa","condition":"contingent","relevant_dimensions":["wings","pattern"],"bee_group":{"antennae":"X","wings":"2","pattern":"D","legs":"X"},"bonus":1.4000000000000008},{"rt":1068.4000000357628,"stimulus":"bees-with-color/bee-B2SF.svg","response":0,"trial_type":"image-button-response","trial_index":152,"time_elapsed":1089740,"internal_node_id":"0.0-6.0-0.12","subject_id":"5e6d3324f14d262fced5bbfe","study_id":"60edd13110225f80f9f3709b","session_id":"6196c4a0f0241e38cc1f9daa","condition":"contingent","relevant_dimensions":["wings","pattern"],"bee_group":{"antennae":"X","wings":"2","pattern":"D","legs":"X"},"bonus":1.4000000000000008},{"rt":835.3000000119209,"stimulus":"bees-with-color/bee-B2SM.svg","response":0,"trial_type":"image-button-response","trial_index":153,"time_elapsed":1090577,"internal_node_id":"0.0-6.0-0.13","subject_id":"5e6d3324f14d262fced5bbfe","study_id":"60edd13110225f80f9f3709b","session_id":"6196c4a0f0241e38cc1f9daa","condition":"contingent","relevant_dimensions":["wings","pattern"],"bee_group":{"antennae":"X","wings":"2","pattern":"D","legs":"X"},"bonus":1.4000000000000008},{"rt":640.3000000119209,"stimulus":"bees-with-color/bee-A1SM.svg","response":0,"trial_type":"image-button-response","trial_index":154,"time_elapsed":1091219,"internal_node_id":"0.0-6.0-0.14","subject_id":"5e6d3324f14d262fced5bbfe","study_id":"60edd13110225f80f9f3709b","session_id":"6196c4a0f0241e38cc1f9daa","condition":"contingent","relevant_dimensions":["wings","pattern"],"bee_group":{"antennae":"X","wings":"2","pattern":"D","legs":"X"},"bonus":1.4000000000000008},{"rt":642.1999999880791,"stimulus":"bees-with-color/bee-A2SM.svg","response":0,"trial_type":"image-button-response","trial_index":155,"time_elapsed":1091863,"internal_node_id":"0.0-6.0-0.15","subject_id":"5e6d3324f14d262fced5bbfe","study_id":"60edd13110225f80f9f3709b","session_id":"6196c4a0f0241e38cc1f9daa","condition":"contingent","relevant_dimensions":["wings","pattern"],"bee_group":{"antennae":"X","wings":"2","pattern":"D","legs":"X"},"bonus":1.4000000000000008},{"rt":651.3999999761581,"stimulus":"bees-with-color/bee-B2SM.svg","response":0,"trial_type":"image-button-response","trial_index":156,"time_elapsed":1092516,"internal_node_id":"0.0-6.0-0.16","subject_id":"5e6d3324f14d262fced5bbfe","study_id":"60edd13110225f80f9f3709b","session_id":"6196c4a0f0241e38cc1f9daa","condition":"contingent","relevant_dimensions":["wings","pattern"],"bee_group":{"antennae":"X","wings":"2","pattern":"D","legs":"X"},"bonus":1.4000000000000008},{"rt":825.5,"stimulus":"bees-with-color/bee-B1DF.svg","response":1,"trial_type":"image-button-response","trial_index":157,"time_elapsed":1093343,"internal_node_id":"0.0-6.0-0.17","subject_id":"5e6d3324f14d262fced5bbfe","study_id":"60edd13110225f80f9f3709b","session_id":"6196c4a0f0241e38cc1f9daa","condition":"contingent","relevant_dimensions":["wings","pattern"],"bee_group":{"antennae":"X","wings":"2","pattern":"D","legs":"X"},"bonus":1.4000000000000008},{"rt":778.3000000119209,"stimulus":"bees-with-color/bee-A1SM.svg","response":0,"trial_type":"image-button-response","trial_index":158,"time_elapsed":1094123,"internal_node_id":"0.0-6.0-0.18","subject_id":"5e6d3324f14d262fced5bbfe","study_id":"60edd13110225f80f9f3709b","session_id":"6196c4a0f0241e38cc1f9daa","condition":"contingent","relevant_dimensions":["wings","pattern"],"bee_group":{"antennae":"X","wings":"2","pattern":"D","legs":"X"},"bonus":1.4000000000000008},{"rt":933.3000000119209,"stimulus":"bees-with-color/bee-B1SM.svg","response":0,"trial_type":"image-button-response","trial_index":159,"time_elapsed":1095058,"internal_node_id":"0.0-6.0-0.19","subject_id":"5e6d3324f14d262fced5bbfe","study_id":"60edd13110225f80f9f3709b","session_id":"6196c4a0f0241e38cc1f9daa","condition":"contingent","relevant_dimensions":["wings","pattern"],"bee_group":{"antennae":"X","wings":"2","pattern":"D","legs":"X"},"bonus":1.4000000000000008},{"rt":1046.5999999642372,"stimulus":"bees-with-color/bee-A1DF.svg","response":1,"trial_type":"image-button-response","trial_index":160,"time_elapsed":1096106,"internal_node_id":"0.0-6.0-0.20","subject_id":"5e6d3324f14d262fced5bbfe","study_id":"60edd13110225f80f9f3709b","session_id":"6196c4a0f0241e38cc1f9daa","condition":"contingent","relevant_dimensions":["wings","pattern"],"bee_group":{"antennae":"X","wings":"2","pattern":"D","legs":"X"},"bonus":1.4000000000000008},{"rt":1639.300000011921,"stimulus":"bees-with-color/bee-A1SF.svg","response":0,"trial_type":"image-button-response","trial_index":161,"time_elapsed":1097747,"internal_node_id":"0.0-6.0-0.21","subject_id":"5e6d3324f14d262fced5bbfe","study_id":"60edd13110225f80f9f3709b","session_id":"6196c4a0f0241e38cc1f9daa","condition":"contingent","relevant_dimensions":["wings","pattern"],"bee_group":{"antennae":"X","wings":"2","pattern":"D","legs":"X"},"bonus":1.4000000000000008},{"rt":774.3000000119209,"stimulus":"bees-with-color/bee-A2DM.svg","response":1,"trial_type":"image-button-response","trial_index":162,"time_elapsed":1098523,"internal_node_id":"0.0-6.0-0.22","subject_id":"5e6d3324f14d262fced5bb