[{"success":true,"trial_type":"fullscreen","trial_index":0,"time_elapsed":195654,"internal_node_id":"0.0-0.0","subject_id":"60617c7346cd805e5bfc8893","study_id":"60edd13110225f80f9f3709b","session_id":"6196bf6280c5d29a62d55467","condition":"contingent","relevant_dimensions":["antennae","legs"],"bee_group":{"antennae":"A","wings":"X","pattern":"X","legs":"F"},"bonus":0.06},{"success":true,"timeout":false,"failed_images":[],"failed_audio":[],"failed_video":[],"trial_type":"preload","trial_index":1,"time_elapsed":197728,"internal_node_id":"0.0-1.0","subject_id":"60617c7346cd805e5bfc8893","study_id":"60edd13110225f80f9f3709b","session_id":"6196bf6280c5d29a62d55467","condition":"contingent","relevant_dimensions":["antennae","legs"],"bee_group":{"antennae":"A","wings":"X","pattern":"X","legs":"F"},"bonus":0.06},{"rt":1415,"stimulus":"Welcome! Press any key to begin.","response":"enter","trial_type":"html-keyboard-response","trial_index":2,"time_elapsed":199143,"internal_node_id":"0.0-2.0","subject_id":"60617c7346cd805e5bfc8893","study_id":"60edd13110225f80f9f3709b","session_id":"6196bf6280c5d29a62d55467","condition":"contingent","relevant_dimensions":["antennae","legs"],"bee_group":{"antennae":"A","wings":"X","pattern":"X","legs":"F"},"bonus":0.06},{"view_history":[{"page_index":0,"viewing_time":4147},{"page_index":1,"viewing_time":14463},{"page_index":2,"viewing_time":6427},{"page_index":3,"viewing_time":8859},{"page_index":4,"viewing_time":5849},{"page_index":5,"viewing_time":4989},{"page_index":6,"viewing_time":6996},{"page_index":7,"viewing_time":3125},{"page_index":8,"viewing_time":1679},{"page_index":9,"viewing_time":1194},{"page_index":10,"viewing_time":1273},{"page_index":11,"viewing_time":5198},{"page_index":12,"viewing_time":5847},{"page_index":13,"viewing_time":1512},{"page_index":14,"viewing_time":1287}],"rt":72845,"trial_type":"instructions","trial_index":3,"time_elapsed":271988,"internal_node_id":"0.0-3.0-0.0","subject_id":"60617c7346cd805e5bfc8893","study_id":"60edd13110225f80f9f3709b","session_id":"6196bf6280c5d29a62d55467","condition":"contingent","relevant_dimensions":["antennae","legs"],"bee_group":{"antennae":"A","wings":"X","pattern":"X","legs":"F"},"bonus":0.06},{"rt":16482,"response":{"Q0":["Two or six legs","Stripes or spots on body","Antennae or no antennae"]},"question_order":[0],"trial_type":"survey-multi-select","trial_index":4,"time_elapsed":288478,"internal_node_id":"0.0-3.0-1.0","subject_id":"60617c7346cd805e5bfc8893","study_id":"60edd13110225f80f9f3709b","session_id":"6196bf6280c5d29a62d55467","condition":"contingent","relevant_dimensions":["antennae","legs"],"bee_group":{"antennae":"A","wings":"X","pattern":"X","legs":"F"},"correct":false,"bonus":0.06},{"rt":15878,"response":{"Q1":"No.","Q2":"Based on the four features of the bee.","Q3":"You do not learn if it was friendly or dangerous, and do not alter your bonus."},"question_order":[0,1,2],"trial_type":"survey-multi-choice","trial_index":5,"time_elapsed":304359,"internal_node_id":"0.0-3.0-2.0","subject_id":"60617c7346cd805e5bfc8893","study_id":"60edd13110225f80f9f3709b","session_id":"6196bf6280c5d29a62d55467","condition":"contingent","relevant_dimensions":["antennae","legs"],"bee_group":{"antennae":"A","wings":"X","pattern":"X","legs":"F"},"correct":true,"bonus":0.06},{"rt":2217,"stimulus":"<p>You did not answer all comprehension questions correctly.<br>Press <b>continue</b> to review the instructions again.</p>","response":0,"trial_type":"html-button-response","trial_index":6,"time_elapsed":306579,"internal_node_id":"0.0-3.0-3.0","subject_id":"60617c7346cd805e5bfc8893","study_id":"60edd13110225f80f9f3709b","session_id":"6196bf6280c5d29a62d55467","condition":"contingent","relevant_dimensions":["antennae","legs"],"bee_group":{"antennae":"A","wings":"X","pattern":"X","legs":"F"},"bonus":0.06},{"view_history":[{"page_index":0,"viewing_time":1338},{"page_index":1,"viewing_time":1384},{"page_index":2,"viewing_time":1371},{"page_index":3,"viewing_time":1153},{"page_index":2,"viewing_time":1028},{"page_index":1,"viewing_time":1087},{"page_index":2,"viewing_time":1628},{"page_index":3,"viewing_time":1289},{"page_index":4,"viewing_time":1821},{"page_index":5,"viewing_time":3229},{"page_index":6,"viewing_time":2564},{"page_index":7,"viewing_time":1868},{"page_index":8,"viewing_time":1095},{"page_index":9,"viewing_time":2208},{"page_index":8,"viewing_time":795},{"page_index":7,"viewing_time":1716},{"page_index":8,"viewing_time":799},{"page_index":9,"viewing_time":1106},{"page_index":8,"viewing_time":774},{"page_index":9,"viewing_time":760},{"page_index":10,"viewing_time":1356},{"page_index":11,"viewing_time":2185},{"page_index":12,"viewing_time":1544},{"page_index":13,"viewing_time":1338},{"page_index":14,"viewing_time":969}],"rt":36405,"trial_type":"instructions","trial_index":7,"time_elapsed":342988,"internal_node_id":"0.0-3.0-4.0-0.0","subject_id":"60617c7346cd805e5bfc8893","study_id":"60edd13110225f80f9f3709b","session_id":"6196bf6280c5d29a62d55467","condition":"contingent","relevant_dimensions":["antennae","legs"],"bee_group":{"antennae":"A","wings":"X","pattern":"X","legs":"F"},"bonus":0.06},{"rt":9342,"response":{"Q0":["Two or six legs","Stripes or spots on body","Single or double wings","Antennae or no antennae"]},"question_order":[0],"trial_type":"survey-multi-select","trial_index":8,"time_elapsed":352334,"internal_node_id":"0.0-3.0-4.0-1.0","subject_id":"60617c7346cd805e5bfc8893","study_id":"60edd13110225f80f9f3709b","session_id":"6196bf6280c5d29a62d55467","condition":"contingent","relevant_dimensions":["antennae","legs"],"bee_group":{"antennae":"A","wings":"X","pattern":"X","legs":"F"},"correct":true,"bonus":0.06},{"rt":10814,"response":{"Q1":"No.","Q2":"Based on the four features of the bee.","Q3":"You do not learn if it was friendly or dangerous, and do not alter your bonus."},"question_order":[0,1,2],"trial_type":"survey-multi-choice","trial_index":9,"time_elapsed":363151,"internal_node_id":"0.0-3.0-4.0-2.0","subject_id":"60617c7346cd805e5bfc8893","study_id":"60edd13110225f80f9f3709b","session_id":"6196bf6280c5d29a62d55467","condition":"contingent","relevant_dimensions":["antennae","legs"],"bee_group":{"antennae":"A","wings":"X","pattern":"X","legs":"F"},"correct":true,"bonus":0.06},{"rt":1635,"stimulus":"<p>Congrats, you got everything right<br>When you're ready, click the button below to continue to the experiment.</p>","response":0,"trial_type":"html-button-response","trial_index":10,"time_elapsed":364788,"internal_node_id":"0.0-3.0-4.0-3.0","subject_id":"60617c7346cd805e5bfc8893","study_id":"60edd13110225f80f9f3709b","session_id":"6196bf6280c5d29a62d55467","condition":"contingent","relevant_dimensions":["antennae","legs"],"bee_group":{"antennae":"A","wings":"X","pattern":"X","legs":"F"},"bonus":0.06},{"rt":6460,"stimulus":"bees-with-color/bee-A1DF.svg","response":0,"trial_type":"image-button-response","trial_index":11,"time_elapsed":371252,"internal_node_id":"0.0-4.0-0.0","subject_id":"60617c7346cd805e5bfc8893","study_id":"60edd13110225f80f9f3709b","session_id":"6196bf6280c5d29a62d55467","condition":"contingent","relevant_dimensions":["antennae","legs"],"bee_group":{"antennae":"A","wings":"X","pattern":"X","legs":"F"},"action":"harvest","summary":"bad-harvest","bonus":0.06},{"rt":4029,"stimulus":"\n                    <p><b>Action: <em>harvest</em></b></p>\n                    <p>This is the bee that you just saw.</p>\n                    <img src=\"bees-with-color/bee-A1DF.svg\" width=\"200\">\n                    <p><span class=\"redText\">Bad choice, the bee was angry.</span><br><b>You have been stung!</b><br>Your pay has been decreased by $0.10. Your bonus pay is now $0.44.</p>\n            ","response":0,"trial_type":"html-button-response","trial_index":12,"time_elapsed":375303,"internal_node_id":"0.0-4.0-1.0","subject_id":"60617c7346cd805e5bfc8893","study_id":"60edd13110225f80f9f3709b","session_id":"6196bf6280c5d29a62d55467","condition":"contingent","relevant_dimensions":["antennae","legs"],"bee_group":{"antennae":"A","wings":"X","pattern":"X","legs":"F"},"bonus":0.06},{"rt":1318,"stimulus":"bees-with-color/bee-B2SM.svg","response":0,"trial_type":"image-button-response","trial_index":13,"time_elapsed":376623,"internal_node_id":"0.0-4.0-0.1","subject_id":"60617c7346cd805e5bfc8893","study_id":"60edd13110225f80f9f3709b","session_id":"6196bf6280c5d29a62d55467","condition":"contingent","relevant_dimensions":["antennae","legs"],"bee_group":{"antennae":"A","wings":"X","pattern":"X","legs":"F"},"action":"harvest","summary":"good-harvest","bonus":0.06},{"rt":1583,"stimulus":"\n                    <p><b>Action: <em>harvest</em></b></p>\n                    <p>This is the bee that you just saw.</p>\n                    <img src=\"bees-with-color/bee-B2SM.svg\" width=\"200\">\n                    <p><span class=\"greenText\"><b>Successful harvest!</b></span><br>Your pay has increased by $0.02. Your bonus pay is now $0.46.</p>\n            ","response":0,"trial_type":"html-button-response","trial_index":14,"time_elapsed":378209,"internal_node_id":"0.0-4.0-1.1","subject_id":"60617c7346cd805e5bfc8893","study_id":"60edd13110225f80f9f3709b","session_id":"6196bf6280c5d29a62d55467","condition":"contingent","relevant_dimensions":["antennae","legs"],"bee_group":{"antennae":"A","wings":"X","pattern":"X","legs":"F"},"bonus":0.06},{"rt":2143,"stimulus":"bees-with-color/bee-A2DM.svg","response":0,"trial_type":"image-button-response","trial_index":15,"time_elapsed":380353,"internal_node_id":"0.0-4.0-0.2","subject_id":"60617c7346cd805e5bfc8893","study_id":"60edd13110225f80f9f3709b","session_id":"6196bf6280c5d29a62d55467","condition":"contingent","relevant_dimensions":["antennae","legs"],"bee_group":{"antennae":"A","wings":"X","pattern":"X","legs":"F"},"action":"harvest","summary":"good-harvest","bonus":0.06},{"rt":886,"stimulus":"\n                    <p><b>Action: <em>harvest</em></b></p>\n                    <p>This is the bee that you just saw.</p>\n                    <img src=\"bees-with-color/bee-A2DM.svg\" width=\"200\">\n                    <p><span class=\"greenText\"><b>Successful harvest!</b></span><br>Your pay has increased by $0.02. Your bonus pay is now $0.48.</p>\n            ","response":0,"trial_type":"html-button-response","trial_index":16,"time_elapsed":381241,"internal_node_id":"0.0-4.0-1.2","subject_id":"60617c7346cd805e5bfc8893","study_id":"60edd13110225f80f9f3709b","session_id":"6196bf6280c5d29a62d55467","condition":"contingent","relevant_dimensions":["antennae","legs"],"bee_group":{"antennae":"A","wings":"X","pattern":"X","legs":"F"},"bonus":0.06},{"rt":1507,"stimulus":"bees-with-color/bee-B1DM.svg","response":1,"trial_type":"image-button-response","trial_index":17,"time_elapsed":382749,"internal_node_id":"0.0-4.0-0.3","subject_id":"60617c7346cd805e5bfc8893","study_id":"60edd13110225f80f9f3709b","session_id":"6196bf6280c5d29a62d55467","condition":"contingent","relevant_dimensions":["antennae","legs"],"bee_group":{"antennae":"A","wings":"X","pattern":"X","legs":"F"},"action":"avoid","summary":"bad-avoid","bonus":0.06},{"rt":1641,"stimulus":"\n                    <p><b>Action: <em>avoid</em></b></p>\n                    <p>This is the bee that you just saw.</p>\n                    <img src=\"bees-with-color/bee-B1DM.svg\" width=\"200\">\n                    <p><br>Your bonus pay is unchanged, and remains at $0.48.</p>\n            ","response":0,"trial_type":"html-button-response","trial_index":18,"time_elapsed":384391,"internal_node_id":"0.0-4.0-1.3","subject_id":"60617c7346cd805e5bfc8893","study_id":"60edd13110225f80f9f3709b","session_id":"6196bf6280c5d29a62d55467","condition":"contingent","relevant_dimensions":["antennae","legs"],"bee_group":{"antennae":"A","wings":"X","pattern":"X","legs":"F"},"bonus":0.06},{"rt":2325,"stimulus":"bees-with-color/bee-B2DF.svg","response":0,"trial_type":"image-button-response","trial_index":19,"time_elapsed":386719,"internal_node_id":"0.0-4.0-0.4","subject_id":"60617c7346cd805e5bfc8893","study_id":"60edd13110225f80f9f3709b","session_id":"6196bf6280c5d29a62d55467","condition":"contingent","relevant_dimensions":["antennae","legs"],"bee_group":{"antennae":"A","wings":"X","pattern":"X","legs":"F"},"action":"harvest","summary":"good-harvest","bonus":0.06},{"rt":933,"stimulus":"\n                    <p><b>Action: <em>harvest</em></b></p>\n                    <p>This is the bee that you just saw.</p>\n                    <img src=\"bees-with-color/bee-B2DF.svg\" width=\"200\">\n                    <p><span class=\"greenText\"><b>Successful harvest!</b></span><br>Your pay has increased by $0.02. Your bonus pay is now $0.50.</p>\n            ","response":0,"trial_type":"html-button-response","trial_index":20,"time_elapsed":387654,"internal_node_id":"0.0-4.0-1.4","subject_id":"60617c7346cd805e5bfc8893","study_id":"60edd13110225f80f9f3709b","session_id":"6196bf6280c5d29a62d55467","condition":"contingent","relevant_dimensions":["antennae","legs"],"bee_group":{"antennae":"A","wings":"X","pattern":"X","legs":"F"},"bonus":0.06},{"rt":5363,"stimulus":"bees-with-color/bee-A2SF.svg","response":0,"trial_type":"image-button-response","trial_index":21,"time_elapsed":393019,"internal_node_id":"0.0-4.0-0.5","subject_id":"60617c7346cd805e5bfc8893","study_id":"60edd13110225f80f9f3709b","session_id":"6196bf6280c5d29a62d55467","condition":"contingent","relevant_dimensions":["antennae","legs"],"bee_group":{"antennae":"A","wings":"X","pattern":"X","legs":"F"},"action":"harvest","summary":"bad-harvest","bonus":0.06},{"rt":2911,"stimulus":"\n                    <p><b>Action: <em>harvest</em></b></p>\n                    <p>This is the bee that you just saw.</p>\n                    <img src=\"bees-with-color/bee-A2SF.svg\" width=\"200\">\n                    <p><span class=\"redText\">Bad choice, the bee was angry.</span><br><b>You have been stung!</b><br>Your pay has been decreased by $0.10. Your bonus pay is now $0.40.</p>\n            ","response":0,"trial_type":"html-button-response","trial_index":22,"time_elapsed":395933,"internal_node_id":"0.0-4.0-1.5","subject_id":"60617c7346cd805e5bfc8893","study_id":"60edd13110225f80f9f3709b","session_id":"6196bf6280c5d29a62d55467","condition":"contingent","relevant_dimensions":["antennae","legs"],"bee_group":{"antennae":"A","wings":"X","pattern":"X","legs":"F"},"bonus":0.06},{"rt":2119,"stimulus":"bees-with-color/bee-B2DM.svg","response":0,"trial_type":"image-button-response","trial_index":23,"time_elapsed":398054,"internal_node_id":"0.0-4.0-0.6","subject_id":"60617c7346cd805e5bfc8893","study_id":"60edd13110225f80f9f3709b","session_id":"6196bf6280c5d29a62d55467","condition":"contingent","relevant_dimensions":["antennae","legs"],"bee_group":{"antennae":"A","wings":"X","pattern":"X","legs":"F"},"action":"harvest","summary":"good-harvest","bonus":0.06},{"rt":1457,"stimulus":"\n                    <p><b>Action: <em>harvest</em></b></p>\n                    <p>This is the bee that you just saw.</p>\n                    <img src=\"bees-with-color/bee-B2DM.svg\" width=\"200\">\n                    <p><span class=\"greenText\"><b>Successful harvest!</b></span><br>Your pay has increased by $0.02. Your bonus pay is now $0.42.</p>\n            ","response":0,"trial_type":"html-button-response","trial_index":24,"time_elapsed":399513,"internal_node_id":"0.0-4.0-1.6","subject_id":"60617c7346cd805e5bfc8893","study_id":"60edd13110225f80f9f3709b","session_id":"6196bf6280c5d29a62d55467","condition":"contingent","relevant_dimensions":["antennae","legs"],"bee_group":{"antennae":"A","wings":"X","pattern":"X","legs":"F"},"bonus":0.06},{"rt":3693,"stimulus":"bees-with-color/bee-B2SF.svg","response":0,"trial_type":"image-button-response","trial_index":25,"time_elapsed":403208,"internal_node_id":"0.0-4.0-0.7","subject_id":"60617c7346cd805e5bfc8893","study_id":"60edd13110225f80f9f3709b","session_id":"6196bf6280c5d29a62d55467","condition":"contingent","relevant_dimensions":["antennae","legs"],"bee_group":{"antennae":"A","wings":"X","pattern":"X","legs":"F"},"action":"harvest","summary":"good-harvest","bonus":0.06},{"rt":1542,"stimulus":"\n                    <p><b>Action: <em>harvest</em></b></p>\n                    <p>This is the bee that you just saw.</p>\n                    <img src=\"bees-with-color/bee-B2SF.svg\" width=\"200\">\n                    <p><span class=\"greenText\"><b>Successful harvest!</b></span><br>Your pay has increased by $0.02. Your bonus pay is now $0.44.</p>\n            ","response":0,"trial_type":"html-button-response","trial_index":26,"time_elapsed":404752,"internal_node_id":"0.0-4.0-1.7","subject_id":"60617c7346cd805e5bfc8893","study_id":"60edd13110225f80f9f3709b","session_id":"6196bf6280c5d29a62d55467","condition":"contingent","relevant_dimensions":["antennae","legs"],"bee_group":{"antennae":"A","wings":"X","pattern":"X","legs":"F"},"bonus":0.06},{"rt":1909,"stimulus":"bees-with-color/bee-A1SF.svg","response":0,"trial_type":"image-button-response","trial_index":27,"time_elapsed":406664,"internal_node_id":"0.0-4.0-0.8","subject_id":"60617c7346cd805e5bfc8893","study_id":"60edd13110225f80f9f3709b","session_id":"6196bf6280c5d29a62d55467","condition":"contingent","relevant_dimensions":["antennae","legs"],"bee_group":{"antennae":"A","wings":"X","pattern":"X","legs":"F"},"action":"harvest","summary":"bad-harvest","bonus":0.06},{"rt":2208,"stimulus":"\n                    <p><b>Action: <em>harvest</em></b></p>\n                    <p>This is the bee that you just saw.</p>\n                    <img src=\"bees-with-color/bee-A1SF.svg\" width=\"200\">\n                    <p><span class=\"redText\">Bad choice, the bee was angry.</span><br><b>You have been stung!</b><br>Your pay has been decreased by $0.10. Your bonus pay is now $0.34.</p>\n            ","response":0,"trial_type":"html-button-response","trial_index":28,"time_elapsed":408873,"internal_node_id":"0.0-4.0-1.8","subject_id":"60617c7346cd805e5bfc8893","study_id":"60edd13110225f80f9f3709b","session_id":"6196bf6280c5d29a62d55467","condition":"contingent","relevant_dimensions":["antennae","legs"],"bee_group":{"antennae":"A","wings":"X","pattern":"X","legs":"F"},"bonus":0.06},{"rt":3735,"stimulus":"bees-with-color/bee-A2DF.svg","response":0,"trial_type":"image-button-response","trial_index":29,"time_elapsed":412610,"internal_node_id":"0.0-4.0-0.9","subject_id":"60617c7346cd805e5bfc8893","study_id":"60edd13110225f80f9f3709b","session_id":"6196bf6280c5d29a62d55467","condition":"contingent","relevant_dimensions":["antennae","legs"],"bee_group":{"antennae":"A","wings":"X","pattern":"X","legs":"F"},"action":"harvest","summary":"bad-harvest","bonus":0.06},{"rt":1090,"stimulus":"\n                    <p><b>Action: <em>harvest</em></b></p>\n                    <p>This is the bee that you just saw.</p>\n                    <img src=\"bees-with-color/bee-A2DF.svg\" width=\"200\">\n                    <p><span class=\"redText\">Bad choice, the bee was angry.</span><br><b>You have been stung!</b><br>Your pay has been decreased by $0.10. Your bonus pay is now $0.24.</p>\n            ","response":0,"trial_type":"html-button-response","trial_index":30,"time_elapsed":413701,"internal_node_id":"0.0-4.0-1.9","subject_id":"60617c7346cd805e5bfc8893","study_id":"60edd13110225f80f9f3709b","session_id":"6196bf6280c5d29a62d55467","condition":"contingent","relevant_dimensions":["antennae","legs"],"bee_group":{"antennae":"A","wings":"X","pattern":"X","legs":"F"},"bonus":0.06},{"rt":1618,"stimulus":"bees-with-color/bee-A1DM.svg","response":0,"trial_type":"image-button-response","trial_index":31,"time_elapsed":415320,"internal_node_id":"0.0-4.0-0.10","subject_id":"60617c7346cd805e5bfc8893","study_id":"60edd13110225f80f9f3709b","session_id":"6196bf6280c5d29a62d55467","condition":"contingent","relevant_dimensions":["antennae","legs"],"bee_group":{"antennae":"A","wings":"X","pattern":"X","legs":"F"},"action":"harvest","summary":"good-harvest","bonus":0.06},{"rt":1003,"stimulus":"\n                    <p><b>Action: <em>harvest</em></b></p>\n                    <p>This is the bee that you just saw.</p>\n                    <img src=\"bees-with-color/bee-A1DM.svg\" width=\"200\">\n                    <p><span class=\"greenText\"><b>Successful harvest!</b></span><br>Your pay has increased by $0.02. Your bonus pay is now $0.26.</p>\n            ","response":0,"trial_type":"html-button-response","trial_index":32,"time_elapsed":416326,"internal_node_id":"0.0-4.0-1.10","subject_id":"60617c7346cd805e5bfc8893","study_id":"60edd13110225f80f9f3709b","session_id":"6196bf6280c5d29a62d55467","condition":"contingent","relevant_dimensions":["antennae","legs"],"bee_group":{"antennae":"A","wings":"X","pattern":"X","legs":"F"},"bonus":0.06},{"rt":2073,"stimulus":"bees-with-color/bee-A1SM.svg","response":1,"trial_type":"image-button-response","trial_index":33,"time_elapsed":418401,"internal_node_id":"0.0-4.0-0.11","subject_id":"60617c7346cd805e5bfc8893","study_id":"60edd13110225f80f9f3709b","session_id":"6196bf6280c5d29a62d55467","condition":"contingent","relevant_dimensions":["antennae","legs"],"bee_group":{"antennae":"A","wings":"X","pattern":"X","legs":"F"},"action":"avoid","summary":"bad-avoid","bonus":0.06},{"rt":1234,"stimulus":"\n                    <p><b>Action: <em>avoid</em></b></p>\n                    <p>This is the bee that you just saw.</p>\n                    <img src=\"bees-with-color/bee-A1SM.svg\" width=\"200\">\n                    <p><br>Your bonus pay is unchanged, and remains at $0.26.</p>\n            ","response":0,"trial_type":"html-button-response","trial_index":34,"time_elapsed":419637,"internal_node_id":"0.0-4.0-1.11","subject_id":"60617c7346cd805e5bfc8893","study_id":"60edd13110225f80f9f3709b","session_id":"6196bf6280c5d29a62d55467","condition":"contingent","relevant_dimensions":["antennae","legs"],"bee_group":{"antennae":"A","wings":"X","pattern":"X","legs":"F"},"bonus":0.06},{"rt":1438,"stimulus":"bees-with-color/bee-B1SF.svg","response":0,"trial_type":"image-button-response","trial_index":35,"time_elapsed":421076,"internal_node_id":"0.0-4.0-0.12","subject_id":"60617c7346cd805e5bfc8893","study_id":"60edd13110225f80f9f3709b","session_id":"6196bf6280c5d29a62d55467","condition":"contingent","relevant_dimensions":["antennae","legs"],"bee_group":{"antennae":"A","wings":"X","pattern":"X","legs":"F"},"action":"harvest","summary":"good-harvest","bonus":0.06},{"rt":781,"stimulus":"\n                    <p><b>Action: <em>harvest</em></b></p>\n                    <p>This is the bee that you just saw.</p>\n                    <img src=\"bees-with-color/bee-B1SF.svg\" width=\"200\">\n                    <p><span class=\"greenText\"><b>Successful harvest!</b></span><br>Your pay has increased by $0.02. Your bonus pay is now $0.28.</p>\n            ","response":0,"trial_type":"html-button-response","trial_index":36,"time_elapsed":421859,"internal_node_id":"0.0-4.0-1.12","subject_id":"60617c7346cd805e5bfc8893","study_id":"60edd13110225f80f9f3709b","session_id":"6196bf6280c5d29a62d55467","condition":"contingent","relevant_dimensions":["antennae","legs"],"bee_group":{"antennae":"A","wings":"X","pattern":"X","legs":"F"},"bonus":0.06},{"rt":1081,"stimulus":"bees-with-color/bee-B1SM.svg","response":0,"trial_type":"image-button-response","trial_index":37,"time_elapsed":422942,"internal_node_id":"0.0-4.0-0.13","subject_id":"60617c7346cd805e5bfc8893","study_id":"60edd13110225f80f9f3709b","session_id":"6196bf6280c5d29a62d55467","condition":"contingent","relevant_dimensions":["antennae","legs"],"bee_group":{"antennae":"A","wings":"X","pattern":"X","legs":"F"},"action":"harvest","summary":"good-harvest","bonus":0.06},{"rt":741,"stimulus":"\n                    <p><b>Action: <em>harvest</em></b></p>\n                    <p>This is the bee that you just saw.</p>\n                    <img src=\"bees-with-color/bee-B1SM.svg\" width=\"200\">\n                    <p><span class=\"greenText\"><b>Successful harvest!</b></span><br>Your pay has increased by $0.02. Your bonus pay is now $0.30.</p>\n            ","response":0,"trial_type":"html-button-response","trial_index":38,"time_elapsed":423683,"internal_node_id":"0.0-4.0-1.13","subject_id":"60617c7346cd805e5bfc8893","study_id":"60edd13110225f80f9f3709b","session_id":"6196bf6280c5d29a62d55467","condition":"contingent","relevant_dimensions":["antennae","legs"],"bee_group":{"antennae":"A","wings":"X","pattern":"X","legs":"F"},"bonus":0.06},{"rt":1052,"stimulus":"bees-with-color/bee-B1DF.svg","response":0,"trial_type":"image-button-response","trial_index":39,"time_elapsed":424737,"internal_node_id":"0.0-4.0-0.14","subject_id":"60617c7346cd805e5bfc8893","study_id":"60edd13110225f80f9f3709b","session_id":"6196bf6280c5d29a62d55467","condition":"contingent","relevant_dimensions":["antennae","legs"],"bee_group":{"antennae":"A","wings":"X","pattern":"X","legs":"F"},"action":"harvest","summary":"good-harvest","bonus":0.06},{"rt":914,"stimulus":"\n                    <p><b>Action: <em>harvest</em></b></p>\n                    <p>This is the bee that you just saw.</p>\n                    <img src=\"bees-with-color/bee-B1DF.svg\" width=\"200\">\n                    <p><span class=\"greenText\"><b>Successful harvest!</b></span><br>Your pay has increased by $0.02. Your bonus pay is now $0.32.</p>\n            ","response":0,"trial_type":"html-button-response","trial_index":40,"time_elapsed":425653,"internal_node_id":"0.0-4.0-1.14","subject_id":"60617c7346cd805e5bfc8893","study_id":"60edd13110225f80f9f3709b","session_id":"6196bf6280c5d29a62d55467","condition":"contingent","relevant_dimensions":["antennae","legs"],"bee_group":{"antennae":"A","wings":"X","pattern":"X","legs":"F"},"bonus":0.06},{"rt":1738,"stimulus":"bees-with-color/bee-A2SM.svg","response":1,"trial_type":"image-button-response","trial_index":41,"time_elapsed":427392,"internal_node_id":"0.0-4.0-0.15","subject_id":"60617c7346cd805e5bfc8893","study_id":"60edd13110225f80f9f3709b","session_id":"6196bf6280c5d29a62d55467","condition":"contingent","relevant_dimensions":["antennae","legs"],"bee_group":{"antennae":"A","wings":"X","pattern":"X","legs":"F"},"action":"avoid","summary":"bad-avoid","bonus":0.06},{"rt":1081,"stimulus":"\n                    <p><b>Action: <em>avoid</em></b></p>\n                    <p>This is the bee that you just saw.</p>\n                    <img src=\"bees-with-color/bee-A2SM.svg\" width=\"200\">\n                    <p><br>Your bonus pay is unchanged, and remains at $0.32.</p>\n            ","response":0,"trial_type":"html-button-response","trial_index":42,"time_elapsed":428474,"internal_node_id":"0.0-4.0-1.15","subject_id":"60617c7346cd805e5bfc8893","study_id":"60edd13110225f80f9f3709b","session_id":"6196bf6280c5d29a62d55467","condition":"contingent","relevant_dimensions":["antennae","legs"],"bee_group":{"antennae":"A","wings":"X","pattern":"X","legs":"F"},"bonus":0.06},{"rt":906,"stimulus":"bees-with-color/bee-A2DF.svg","response":0,"trial_type":"image-button-response","trial_index":43,"time_elapsed":429383,"internal_node_id":"0.0-4.0-0.16","subject_id":"60617c7346cd805e5bfc8893","study_id":"60edd13110225f80f9f3709b","session_id":"6196bf6280c5d29a62d55467","condition":"contingent","relevant_dimensions":["antennae","legs"],"bee_group":{"antennae":"A","wings":"X","pattern":"X","legs":"F"},"action":"harvest","summary":"bad-harvest","bonus":0.06},{"rt":1297,"stimulus":"\n                    <p><b>Action: <em>harvest</em></b></p>\n                    <p>This is the bee that you just saw.</p>\n                    <img src=\"bees-with-color/bee-A2DF.svg\" width=\"200\">\n                    <p><span class=\"redText\">Bad choice, the bee was angry.</span><br><b>You have been stung!</b><br>Your pay has been decreased by $0.10. Your bonus pay is now $0.22.</p>\n            ","response":0,"trial_type":"html-button-response","trial_index":44,"time_elapsed":430682,"internal_node_id":"0.0-4.0-1.16","subject_id":"60617c7346cd805e5bfc8893","study_id":"60edd13110225f80f9f3709b","session_id":"6196bf6280c5d29a62d55467","condition":"contingent","relevant_dimensions":["antennae","legs"],"bee_group":{"antennae":"A","wings":"X","pattern":"X","legs":"F"},"bonus":0.06},{"rt":1856,"stimulus":"bees-with-color/bee-A1SF.svg","response":0,"trial_type":"image-button-response","trial_index":45,"time_elapsed":432540,"internal_node_id":"0.0-4.0-0.17","subject_id":"60617c7346cd805e5bfc8893","study_id":"60edd13110225f80f9f3709b","session_id":"6196bf6280c5d29a62d55467","condition":"contingent","relevant_dimensions":["antennae","legs"],"bee_group":{"antennae":"A","wings":"X","pattern":"X","legs":"F"},"action":"harvest","summary":"bad-harvest","bonus":0.06},{"rt":1067,"stimulus":"\n                    <p><b>Action: <em>harvest</em></b></p>\n                    <p>This is the bee that you just saw.</p>\n                    <img src=\"bees-with-color/bee-A1SF.svg\" width=\"200\">\n                    <p><span class=\"redText\">Bad choice, the bee was angry.</span><br><b>You have been stung!</b><br>Your pay has been decreased by $0.10. Your bonus pay is now $0.12.</p>\n            ","response":0,"trial_type":"html-button-response","trial_index":46,"time_elapsed":433608,"internal_node_id":"0.0-4.0-1.17","subject_id":"60617c7346cd805e5bfc8893","study_id":"60edd13110225f80f9f3709b","session_id":"6196bf6280c5d29a62d55467","condition":"contingent","relevant_dimensions":["antennae","legs"],"bee_group":{"antennae":"A","wings":"X","pattern":"X","legs":"F"},"bonus":0.06},{"rt":1360,"stimulus":"bees-with-color/bee-B1SM.svg","response":0,"trial_type":"image-button-response","trial_index":47,"time_elapsed":434972,"internal_node_id":"0.0-4.0-0.18","subject_id":"60617c7346cd805e5bfc8893","study_id":"60edd13110225f80f9f3709b","session_id":"6196bf6280c5d29a62d55467","condition":"contingent","relevant_dimensions":["antennae","legs"],"bee_group":{"antennae":"A","wings":"X","pattern":"X","legs":"F"},"action":"harvest","summary":"good-harvest","bonus":0.06},{"rt":892,"stimulus":"\n                    <p><b>Action: <em>harvest</em></b></p>\n                    <p>This is the bee that you just saw.</p>\n                    <img src=\"bees-with-color/bee-B1SM.svg\" width=\"200\">\n                    <p><span class=\"greenText\"><b>Successful harvest!</b></span><br>Your pay has increased by $0.02. Your bonus pay is now $0.14.</p>\n            ","response":0,"trial_type":"html-button-response","trial_index":48,"time_elapsed":435866,"internal_node_id":"0.0-4.0-1.18","subject_id":"60617c7346cd805e5bfc8893","study_id":"60edd13110225f80f9f3709b","session_id":"6196bf6280c5d29a62d55467","condition":"contingent","relevant_dimensions":["antennae","legs"],"bee_group":{"antennae":"A","wings":"X","pattern":"X","legs":"F"},"bonus":0.06},{"rt":1312,"stimulus":"bees-with-color/bee-A2DM.svg","response":1,"trial_type":"image-button-response","trial_index":49,"time_elapsed":437179,"internal_node_id":"0.0-4.0-0.19","subject_id":"60617c7346cd805e5bfc8893","study_id":"60edd13110225f80f9f3709b","session_id":"6196bf6280c5d29a62d55467","condition":"contingent","relevant_dimensions":["antennae","legs"],"bee_group":{"antennae":"A","wings":"X","pattern":"X","legs":"F"},"action":"avoid","summary":"bad-avoid","bonus":0.06},{"rt":949,"stimulus":"\n                    <p><b>Action: <em>avoid</em></b></p>\n                    <p>This is the bee that you just saw.</p>\n                    <img src=\"bees-with-color/bee-A2DM.svg\" width=\"200\">\n                    <p><br>Your bonus pay is unchanged, and remains at $0.14.</p>\n            ","response":0,"trial_type":"html-button-response","trial_index":50,"time_elapsed":438130,"internal_node_id":"0.0-4.0-1.19","subject_id":"60617c7346cd805e5bfc8893","study_id":"60edd13110225f80f9f3709b","session_id":"6196bf6280c5d29a62d55467","condition":"contingent","relevant_dimensions":["antennae","legs"],"bee_group":{"antennae":"A","wings":"X","pattern":"X","legs":"F"},"bonus":0.06},{"rt":1220,"stimulus":"bees-with-color/bee-B1DM.svg","response":0,"trial_type":"image-button-response","trial_index":51,"time_elapsed":439353,"internal_node_id":"0.0-4.0-0.20","subject_id":"60617c7346cd805e5bfc8893","study_id":"60edd13110225f80f9f3709b","session_id":"6196bf6280c5d29a62d55467","condition":"contingent","relevant_dimensions":["antennae","legs"],"bee_group":{"antennae":"A","wings":"X","pattern":"X","legs":"F"},"action":"harvest","summary":"good-harvest","bonus":0.06},{"rt":683,"stimulus":"\n                    <p><b>Action: <em>harvest</em></b></p>\n                    <p>This is the bee that you just saw.</p>\n                    <img src=\"bees-with-color/bee-B1DM.svg\" width=\"200\">\n                    <p><span class=\"greenText\"><b>Successful harvest!</b></span><br>Your pay has increased by $0.02. Your bonus pay is now $0.16.</p>\n            ","response":0,"trial_type":"html-button-response","trial_index":52,"time_elapsed":440037,"internal_node_id":"0.0-4.0-1.20","subject_id":"60617c7346cd805e5bfc8893","study_id":"60edd13110225f80f9f3709b","session_id":"6196bf6280c5d29a62d55467","condition":"contingent","relevant_dimensions":["antennae","legs"],"bee_group":{"antennae":"A","wings":"X","pattern":"X","legs":"F"},"bonus":0.06},{"rt":1710,"stimulus":"bees-with-color/bee-B2DF.svg","response":0,"trial_type":"image-button-response","trial_index":53,"time_elapsed":441749,"internal_node_id":"0.0-4.0-0.21","subject_id":"60617c7346cd805e5bfc8893","study_id":"60edd13110225f80f9f3709b","session_id":"6196bf6280c5d29a62d55467","condition":"contingent","relevant_dimensions":["antennae","legs"],"bee_group":{"antennae":"A","wings":"X","pattern":"X","legs":"F"},"action":"harvest","summary":"good-harvest","bonus":0.06},{"rt":1194,"stimulus":"\n                    <p><b>Action: <em>harvest</em></b></p>\n                    <p>This is the bee that you just saw.</p>\n                    <img src=\"bees-with-color/bee-B2DF.svg\" width=\"200\">\n                    <p><span class=\"greenText\"><b>Successful harvest!</b></span><br>Your pay has increased by $0.02. Your bonus pay is now $0.18.</p>\n            ","response":0,"trial_type":"html-button-response","trial_index":54,"time_elapsed":442945,"internal_node_id":"0.0-4.0-1.21","subject_id":"60617c7346cd805e5bfc8893","study_id":"60edd13110225f80f9f3709b","session_id":"6196bf6280c5d29a62d55467","condition":"contingent","relevant_dimensions":["antennae","legs"],"bee_group":{"antennae":"A","wings":"X","pattern":"X","legs":"F"},"bonus":0.06},{"rt":1525,"stimulus":"bees-with-color/bee-B1SF.svg","response":0,"trial_type":"image-button-response","trial_index":55,"time_elapsed":444473,"internal_node_id":"0.0-4.0-0.22","subject_id":"60617c7346cd805e5bfc8893","study_id":"60edd13110225f80f9f3709b","session_id":"6196bf6280c5d29a62d55467","condition":"contingent","relevant_dimensions":["antennae","legs"],"bee_group":{"antennae":"A","wings":"X","pattern":"X","legs":"F"},"action":"harvest","summary":"good-harvest","bonus":0.06},{"rt":808,"stimulus":"\n                    <p><b>Action: <em>harvest</em></b></p>\n                    <p>This is the bee that you just saw.</p>\n                    <img src=\"bees-with-color/bee-B1SF.svg\" width=\"200\">\n                    <p><span class=\"greenText\"><b>Successful harvest!</b></span><br>Your pay has increased by $0.02. Your bonus pay is now $0.20.</p>\n            ","response":0,"trial_type":"html-button-response","trial_index":56,"time_elapsed":445284,"internal_node_id":"0.0-4.0-1.22","subject_id":"60617c7346cd805e5bfc8893","study_id":"60edd13110225f80f9f3709b","session_id":"6196bf6280c5d29a62d55467","condition":"contingent","relevant_dimensions":["antennae","legs"],"bee_group":{"antennae":"A","wings":"X","pattern":"X","legs":"F"},"bonus":0.06},{"rt":1138,"stimulus":"bees-with-color/bee-A2SM.svg","response":1,"trial_type":"image-button-response","trial_index":57,"time_elapsed":446423,"internal_node_id":"0.0-4.0-0.23","subject_id":"60617c7346cd805e5bfc8893","study_id":"60edd13110225f80f9f3709b","session_id":"6196bf6280c5d29a62d55467","condition":"contingent","relevant_dimensions":["antennae","legs"],"bee_group":{"antennae":"A","wings":"X","pattern":"X","legs":"F"},"action":"avoid","summary":"bad-avoid","bonus":0.06},{"rt":676,"stimulus":"\n                    <p><b>Action: <em>avoid</em></b></p>\n                    <p>This is the bee that you just saw.</p>\n                    <img src=\"bees-with-color/bee-A2SM.svg\" width=\"200\">\n                    <p><br>Your bonus pay is unchanged, and remains at $0.20.</p>\n            ","response":0,"trial_type":"html-button-response","trial_index":58,"time_elapsed":447101,"internal_node_id":"0.0-4.0-1.23","subject_id":"60617c7346cd805e5bfc8893","study_id":"60edd13110225f80f9f3709b","session_id":"6196bf6280c5d29a62d55467","condition":"contingent","relevant_dimensions":["antennae","legs"],"bee_group":{"antennae":"A","wings":"X","pattern":"X","legs":"F"},"bonus":0.06},{"rt":977,"stimulus":"bees-with-color/bee-A2SF.svg","response":0,"trial_type":"image-button-response","trial_index":59,"time_elapsed":448079,"internal_node_id":"0.0-4.0-0.24","subject_id":"60617c7346cd805e5bfc8893","study_id":"60edd13110225f80f9f3709b","session_id":"6196bf6280c5d29a62d55467","condition":"contingent","relevant_dimensions":["antennae","legs"],"bee_group":{"antennae":"A","wings":"X","pattern":"X","legs":"F"},"action":"harvest","summary":"bad-harvest","bonus":0.06},{"rt":3336,"stimulus":"\n                    <p><b>Action: <em>harvest</em></b></p>\n                    <p>This is the bee that you just saw.</p>\n                    <img src=\"bees-with-color/bee-A2SF.svg\" width=\"200\">\n                    <p><span class=\"redText\">Bad choice, the bee was angry.</span><br><b>You have been stung!</b><br>Your pay has been decreased by $0.10. Your bonus pay is now $0.10.</p>\n            ","response":0,"trial_type":"html-button-response","trial_index":60,"time_elapsed":451417,"internal_node_id":"0.0-4.0-1.24","subject_id":"60617c7346cd805e5bfc8893","study_id":"60edd13110225f80f9f3709b","session_id":"6196bf6280c5d29a62d55467","condition":"contingent","relevant_dimensions":["antennae","legs"],"bee_group":{"antennae":"A","wings":"X","pattern":"X","legs":"F"},"bonus":0.06},{"rt":1683,"stimulus":"bees-with-color/bee-B2DM.svg","response":0,"trial_type":"image-button-response","trial_index":61,"time_elapsed":453103,"internal_node_id":"0.0-4.0-0.25","subject_id":"60617c7346cd805e5bfc8893","study_id":"60edd13110225f80f9f3709b","session_id":"6196bf6280c5d29a62d55467","condition":"contingent","relevant_dimensions":["antennae","legs"],"bee_group":{"antennae":"A","wings":"X","pattern":"X","legs":"F"},"action":"harvest","summary":"good-harvest","bonus":0.06},{"rt":723,"stimulus":"\n                    <p><b>Action: <em>harvest</em></b></p>\n                    <p>This is the bee that you just saw.</p>\n                    <img src=\"bees-with-color/bee-B2DM.svg\" width=\"200\">\n                    <p><span class=\"greenText\"><b>Successful harvest!</b></span><br>Your pay has increased by $0.02. Your bonus pay is now $0.12.</p>\n            ","response":0,"trial_type":"html-button-response","trial_index":62,"time_elapsed":453828,"internal_node_id":"0.0-4.0-1.25","subject_id":"60617c7346cd805e5bfc8893","study_id":"60edd13110225f80f9f3709b","session_id":"6196bf6280c5d29a62d55467","condition":"contingent","relevant_dimensions":["antennae","legs"],"bee_group":{"antennae":"A","wings":"X","pattern":"X","legs":"F"},"bonus":0.06},{"rt":1242,"stimulus":"bees-with-color/bee-A1DM.svg","response":0,"trial_type":"image-button-response","trial_index":63,"time_elapsed":455072,"internal_node_id":"0.0-4.0-0.26","subject_id":"60617c7346cd805e5bfc8893","study_id":"60edd13110225f80f9f3709b","session_id":"6196bf6280c5d29a62d55467","condition":"contingent","relevant_dimensions":["antennae","legs"],"bee_group":{"antennae":"A","wings":"X","pattern":"X","legs":"F"},"action":"harvest","summary":"good-harvest","bonus":0.06},{"rt":899,"stimulus":"\n                    <p><b>Action: <em>harvest</em></b></p>\n                    <p>This is the bee that you just saw.</p>\n                    <img src=\"bees-with-color/bee-A1DM.svg\" width=\"200\">\n                    <p><span class=\"greenText\"><b>Successful harvest!</b></span><br>Your pay has increased by $0.02. Your bonus pay is now $0.14.</p>\n            ","response":0,"trial_type":"html-button-response","trial_index":64,"time_elapsed":455973,"internal_node_id":"0.0-4.0-1.26","subject_id":"60617c7346cd805e5bfc8893","study_id":"60edd13110225f80f9f3709b","session_id":"6196bf6280c5d29a62d55467","condition":"contingent","relevant_dimensions":["antennae","legs"],"bee_group":{"antennae":"A","wings":"X","pattern":"X","legs":"F"},"bonus":0.06},{"rt":1068,"stimulus":"bees-with-color/bee-A1DF.svg","response":0,"trial_type":"image-button-response","trial_index":65,"time_elapsed":457043,"internal_node_id":"0.0-4.0-0.27","subject_id":"60617c7346cd805e5bfc8893","study_id":"60edd13110225f80f9f3709b","session_id":"6196bf6280c5d29a62d55467","condition":"contingent","relevant_dimensions":["antennae","legs"],"bee_group":{"antennae":"A","wings":"X","pattern":"X","legs":"F"},"action":"harvest","summary":"bad-harvest","bonus":0.06},{"rt":6257,"stimulus":"\n                    <p><b>Action: <em>harvest</em></b></p>\n                    <p>This is the bee that you just saw.</p>\n                    <img src=\"bees-with-color/bee-A1DF.svg\" width=\"200\">\n                    <p><span class=\"redText\">Bad choice, the bee was angry.</span><br><b>You have been stung!</b><br>Your pay has been decreased by $0.10. Your bonus pay is now $0.04.</p>\n            ","response":0,"trial_type":"html-button-response","trial_index":66,"time_elapsed":463302,"internal_node_id":"0.0-4.0-1.27","subject_id":"60617c7346cd805e5bfc8893","study_id":"60edd13110225f80f9f3709b","session_id":"6196bf6280c5d29a62d55467","condition":"contingent","relevant_dimensions":["antennae","legs"],"bee_group":{"antennae":"A","wings":"X","pattern":"X","legs":"F"},"bonus":0.06},{"rt":2165,"stimulus":"bees-with-color/bee-B2SM.svg","response":1,"trial_type":"image-button-response","trial_index":67,"time_elapsed":465467,"internal_node_id":"0.0-4.0-0.28","subject_id":"60617c7346cd805e5bfc8893","study_id":"60edd13110225f80f9f3709b","session_id":"6196bf6280c5d29a62d55467","condition":"contingent","relevant_dimensions":["antennae","legs"],"bee_group":{"antennae":"A","wings":"X","pattern":"X","legs":"F"},"action":"avoid","summary":"bad-avoid","bonus":0.06},{"rt":725,"stimulus":"\n                    <p><b>Action: <em>avoid</em></b></p>\n                    <p>This is the bee that you just saw.</p>\n                    <img src=\"bees-with-color/bee-B2SM.svg\" width=\"200\">\n                    <p><br>Your bonus pay is unchanged, and remains at $0.04.</p>\n            ","response":0,"trial_type":"html-button-response","trial_index":68,"time_elapsed":466193,"internal_node_id":"0.0-4.0-1.28","subject_id":"60617c7346cd805e5bfc8893","study_id":"60edd13110225f80f9f3709b","session_id":"6196bf6280c5d29a62d55467","condition":"contingent","relevant_dimensions":["antennae","legs"],"bee_group":{"antennae":"A","wings":"X","pattern":"X","legs":"F"},"bonus":0.06},{"rt":1102,"stimulus":"bees-with-color/bee-B2SF.svg","response":1,"trial_type":"image-button-response","trial_index":69,"time_elapsed":467299,"internal_node_id":"0.0-4.0-0.29","subject_id":"60617c7346cd805e5bfc8893","study_id":"60edd13110225f80f9f3709b","session_id":"6196bf6280c5d29a62d55467","condition":"contingent","relevant_dimensions":["antennae","legs"],"bee_group":{"antennae":"A","wings":"X","pattern":"X","legs":"F"},"action":"avoid","summary":"bad-avoid","bonus":0.06},{"rt":613,"stimulus":"\n                    <p><b>Action: <em>avoid</em></b></p>\n                    <p>This is the bee that you just saw.</p>\n                    <img src=\"bees-with-color/bee-B2SF.svg\" width=\"200\">\n                    <p><br>Your bonus pay is unchanged, and remains at $0.04.</p>\n            ","response":0,"trial_type":"html-button-response","trial_index":70,"time_elapsed":467913,"internal_node_id":"0.0-4.0-1.29","subject_id":"60617c7346cd805e5bfc8893","study_id":"60edd13110225f80f9f3709b","session_id":"6196bf6280c5d29a62d55467","condition":"contingent","relevant_dimensions":["antennae","legs"],"bee_group":{"antennae":"A","wings":"X","pattern":"X","legs":"F"},"bonus":0.06},{"rt":1703,"stimulus":"bees-with-color/bee-B1DF.svg","response":0,"trial_type":"image-button-response","trial_index":71,"time_elapsed":469617,"internal_node_id":"0.0-4.0-0.30","subject_id":"60617c7346cd805e5bfc8893","study_id":"60edd13110225f80f9f3709b","session_id":"6196bf6280c5d29a62d55467","condition":"contingent","relevant_dimensions":["antennae","legs"],"bee_group":{"antennae":"A","wings":"X","pattern":"X","legs":"F"},"action":"harvest","summary":"good-harvest","bonus":0.06},{"rt":711,"stimulus":"\n                    <p><b>Action: <em>harvest</em></b></p>\n                    <p>This is the bee that you just saw.</p>\n                    <img src=\"bees-with-color/bee-B1DF.svg\" width=\"200\">\n                    <p><span class=\"greenText\"><b>Successful harvest!</b></span><br>Your pay has increased by $0.02. Your bonus pay is now $0.06.</p>\n            ","response":0,"trial_type":"html-button-response","trial_index":72,"time_elapsed":470331,"internal_node_id":"0.0-4.0-1.30","subject_id":"60617c7346cd805e5bfc8893","study_id":"60edd13110225f80f9f3709b","session_id":"6196bf6280c5d29a62d55467","condition":"contingent","relevant_dimensions":["antennae","legs"],"bee_group":{"antennae":"A","wings":"X","pattern":"X","legs":"F"},"bonus":0.06},{"rt":1150,"stimulus":"bees-with-color/bee-A1SM.svg","response":1,"trial_type":"image-button-response","trial_index":73,"time_elapsed":471482,"internal_node_id":"0.0-4.0-0.31","subject_id":"60617c7346cd805e5bfc8893","study_id":"60edd13110225f80f9f3709b","session_id":"6196bf6280c5d29a62d55467","condition":"contingent","relevant_dimensions":["antennae","legs"],"bee_group":{"antennae":"A","wings":"X","pattern":"X","legs":"F"},"action":"avoid","summary":"bad-avoid","bonus":0.06},{"rt":682,"stimulus":"\n                    <p><b>Action: <em>avoid</em></b></p>\n                    <p>This is the bee that you just saw.</p>\n                    <img src=\"bees-with-color/bee-A1SM.svg\" width=\"200\">\n                    <p><br>Your bonus pay is unchanged, and remains at $0.06.</p>\n            ","response":0,"trial_type":"html-button-response","trial_index":74,"time_elapsed":472167,"internal_node_id":"0.0-4.0-1.31","subject_id":"60617c7346cd805e5bfc8893","study_id":"60edd13110225f80f9f3709b","session_id":"6196bf6280c5d29a62d55467","condition":"contingent","relevant_dimensions":["antennae","legs"],"bee_group":{"antennae":"A","wings":"X","pattern":"X","legs":"F"},"bonus":0.06},{"rt":1327,"stimulus":"bees-with-color/bee-B2SF.svg","response":0,"trial_type":"image-button-response","trial_index":75,"time_elapsed":473496,"internal_node_id":"0.0-4.0-0.32","subject_id":"60617c7346cd805e5bfc8893","study_id":"60edd13110225f80f9f3709b","session_id":"6196bf6280c5d29a62d55467","condition":"contingent","relevant_dimensions":["antennae","legs"],"bee_group":{"antennae":"A","wings":"X","pattern":"X","legs":"F"},"action":"harvest","summary":"good-harvest","bonus":0.06},{"rt":599,"stimulus":"\n                    <p><b>Action: <em>harvest</em></b></p>\n                    <p>This is the bee that you just saw.</p>\n                    <img src=\"bees-with-color/bee-B2SF.svg\" width=\"200\">\n                    <p><span class=\"greenText\"><b>Successful harvest!</b></span><br>Your pay has increased by $0.02. Your bonus pay is now $0.08.</p>\n            ","response":0,"trial_type":"html-button-response","trial_index":76,"time_elapsed":474097,"internal_node_id":"0.0-4.0-1.32","subject_id":"60617c7346cd805e5bfc8893","study_id":"60edd13110225f80f9f3709b","session_id":"6196bf6280c5d29a62d55467","condition":"contingent","relevant_dimensions":["antennae","legs"],"bee_group":{"antennae":"A","wings":"X","pattern":"X","legs":"F"},"bonus":0.06},{"rt":989,"stimulus":"bees-with-color/bee-B2DM.svg","response":0,"trial_type":"image-button-response","trial_index":77,"time_elapsed":475088,"internal_node_id":"0.0-4.0-0.33","subject_id":"60617c7346cd805e5bfc8893","study_id":"60edd13110225f80f9f3709b","session_id":"6196bf6280c5d29a62d55467","condition":"contingent","relevant_dimensions":["antennae","legs"],"bee_group":{"antennae":"A","wings":"X","pattern":"X","legs":"F"},"action":"harvest","summary":"good-harvest","bonus":0.06},{"rt":1095,"stimulus":"\n                    <p><b>Action: <em>harvest</em></b></p>\n                    <p>This is the bee that you just saw.</p>\n                    <img src=\"bees-with-color/bee-B2DM.svg\" width=\"200\">\n                    <p><span class=\"greenText\"><b>Successful harvest!</b></span><br>Your pay has increased by $0.02. Your bonus pay is now $0.10.</p>\n            ","response":0,"trial_type":"html-button-response","trial_index":78,"time_elapsed":476185,"internal_node_id":"0.0-4.0-1.33","subject_id":"60617c7346cd805e5bfc8893","study_id":"60edd13110225f80f9f3709b","session_id":"6196bf6280c5d29a62d55467","condition":"contingent","relevant_dimensions":["antennae","legs"],"bee_group":{"antennae":"A","wings":"X","pattern":"X","legs":"F"},"bonus":0.06},{"rt":1928,"stimulus":"bees-with-color/bee-A2SM.svg","response":1,"trial_type":"image-button-response","trial_index":79,"time_elapsed":478114,"internal_node_id":"0.0-4.0-0.34","subject_id":"60617c7346cd805e5bfc8893","study_id":"60edd13110225f80f9f3709b","session_id":"6196bf6280c5d29a62d55467","condition":"contingent","relevant_dimensions":["antennae","legs"],"bee_group":{"antennae":"A","wings":"X","pattern":"X","legs":"F"},"action":"avoid","summary":"bad-avoid","bonus":0.06},{"rt":1039,"stimulus":"\n                    <p><b>Action: <em>avoid</em></b></p>\n                    <p>This is the bee that you just saw.</p>\n                    <img src=\"bees-with-color/bee-A2SM.svg\" width=\"200\">\n                    <p><br>Your bonus pay is unchanged, and remains at $0.10.</p>\n            ","response":0,"trial_type":"html-button-response","trial_index":80,"time_elapsed":479155,"internal_node_id":"0.0-4.0-1.34","subject_id":"60617c7346cd805e5bfc8893","study_id":"60edd13110225f80f9f3709b","session_id":"6196bf6280c5d29a62d55467","condition":"contingent","relevant_dimensions":["antennae","legs"],"bee_group":{"antennae":"A","wings":"X","pattern":"X","legs":"F"},"bonus":0.06},{"rt":1235,"stimulus":"bees-with-color/bee-B2DF.svg","response":0,"trial_type":"image-button-response","trial_index":81,"time_elapsed":480391,"internal_node_id":"0.0-4.0-0.35","subject_id":"60617c7346cd805e5bfc8893","study_id":"60edd13110225f80f9f3709b","session_id":"6196bf6280c5d29a62d55467","condition":"contingent","relevant_dimensions":["antennae","legs"],"bee_group":{"antennae":"A","wings":"X","pattern":"X","legs":"F"},"action":"harvest","summary":"good-harvest","bonus":0.06},{"rt":677,"stimulus":"\n                    <p><b>Action: <em>harvest</em></b></p>\n                    <p>This is the bee that you just saw.</p>\n                    <img src=\"bees-with-color/bee-B2DF.svg\" width=\"200\">\n                    <p><span class=\"greenText\"><b>Successful harvest!</b></span><br>Your pay has increased by $0.02. Your bonus pay is now $0.12.</p>\n            ","response":0,"trial_type":"html-button-response","trial_index":82,"time_elapsed":481071,"internal_node_id":"0.0-4.0-1.35","subject_id":"60617c7346cd805e5bfc8893","study_id":"60edd13110225f80f9f3709b","session_id":"6196bf6280c5d29a62d55467","condition":"contingent","relevant_dimensions":["antennae","legs"],"bee_group":{"antennae":"A","wings":"X","pattern":"X","legs":"F"},"bonus":0.06},{"rt":1101,"stimulus":"bees-with-color/bee-B2SM.svg","response":1,"trial_type":"image-button-response","trial_index":83,"time_elapsed":482173,"internal_node_id":"0.0-4.0-0.36","subject_id":"60617c7346cd805e5bfc8893","study_id":"60edd13110225f80f9f3709b","session_id":"6196bf6280c5d29a62d55467","condition":"contingent","relevant_dimensions":["antennae","legs"],"bee_group":{"antennae":"A","wings":"X","pattern":"X","legs":"F"},"action":"avoid","summary":"bad-avoid","bonus":0.06},{"rt":662,"stimulus":"\n                    <p><b>Action: <em>avoid</em></b></p>\n                    <p>This is the bee that you just saw.</p>\n                    <img src=\"bees-with-color/bee-B2SM.svg\" width=\"200\">\n                    <p><br>Your bonus pay is unchanged, and remains at $0.12.</p>\n            ","response":0,"trial_type":"html-button-response","trial_index":84,"time_elapsed":482836,"internal_node_id":"0.0-4.0-1.36","subject_id":"60617c7346cd805e5bfc8893","study_id":"60edd13110225f80f9f3709b","session_id":"6196bf6280c5d29a62d55467","condition":"contingent","relevant_dimensions":["antennae","legs"],"bee_group":{"antennae":"A","wings":"X","pattern":"X","legs":"F"},"bonus":0.06},{"rt":1019,"stimulus":"bees-with-color/bee-A2DM.svg","response":0,"trial_type":"image-button-response","trial_index":85,"time_elapsed":483856,"internal_node_id":"0.0-4.0-0.37","subject_id":"60617c7346cd805e5bfc8893","study_id":"60edd13110225f80f9f3709b","session_id":"6196bf6280c5d29a62d55467","condition":"contingent","relevant_dimensions":["antennae","legs"],"bee_group":{"antennae":"A","wings":"X","pattern":"X","legs":"F"},"action":"harvest","summary":"good-harvest","bonus":0.06},{"rt":878,"stimulus":"\n                    <p><b>Action: <em>harvest</em></b></p>\n                    <p>This is the bee that you just saw.</p>\n                    <img src=\"bees-with-color/bee-A2DM.svg\" width=\"200\">\n                    <p><span class=\"greenText\"><b>Successful harvest!</b></span><br>Your pay has increased by $0.02. Your bonus pay is now $0.14.</p>\n            ","response":0,"trial_type":"html-button-response","trial_index":86,"time_elapsed":484737,"internal_node_id":"0.0-4.0-1.37","subject_id":"60617c7346cd805e5bfc8893","study_id":"60edd13110225f80f9f3709b","session_id":"6196bf6280c5d29a62d55467","condition":"contingent","relevant_dimensions":["antennae","legs"],"bee_group":{"antennae":"A","wings":"X","pattern":"X","legs":"F"},"bonus":0.06},{"rt":8025,"stimulus":"bees-with-color/bee-A1DF.svg","response":1,"trial_type":"image-button-response","trial_index":87,"time_elapsed":492764,"internal_node_id":"0.0-4.0-0.38","subject_id":"60617c7346cd805e5bfc8893","study_id":"60edd13110225f80f9f3709b","session_id":"6196bf6280c5d29a62d55467","condition":"contingent","relevant_dimensions":["antennae","legs"],"bee_group":{"antennae":"A","wings":"X","pattern":"X","legs":"F"},"action":"avoid","summary":"good-avoid","bonus":0.06},{"rt":683,"stimulus":"\n                    <p><b>Action: <em>avoid</em></b></p>\n                    <p>This is the bee that you just saw.</p>\n                    <img src=\"bees-with-color/bee-A1DF.svg\" width=\"200\">\n                    <p><br>Your bonus pay is unchanged, and remains at $0.14.</p>\n            ","response":0,"trial_type":"html-button-response","trial_index":88,"time_elapsed":493449,"internal_node_id":"0.0-4.0-1.38","subject_id":"60617c7346cd805e5bfc8893","study_id":"60edd13110225f80f9f3709b","session_id":"6196bf6280c5d29a62d55467","condition":"contingent","relevant_dimensions":["antennae","legs"],"bee_group":{"antennae":"A","wings":"X","pattern":"X","legs":"F"},"bonus":0.06},{"rt":1466,"stimulus":"bees-with-color/bee-A2SF.svg","response":1,"trial_type":"image-button-response","trial_index":89,"time_elapsed":494917,"internal_node_id":"0.0-4.0-0.39","subject_id":"60617c7346cd805e5bfc8893","study_id":"60edd13110225f80f9f3709b","session_id":"6196bf6280c5d29a62d55467","condition":"contingent","relevant_dimensions":["antennae","legs"],"bee_group":{"antennae":"A","wings":"X","pattern":"X","legs":"F"},"action":"avoid","summary":"good-avoid","bonus":0.06},{"rt":1403,"stimulus":"\n                    <p><b>Action: <em>avoid</em></b></p>\n                    <p>This is the bee that you just saw.</p>\n                    <img src=\"bees-with-color/bee-A2SF.svg\" width=\"200\">\n                    <p><br>Your bonus pay is unchanged, and remains at $0.14.</p>\n            ","response":0,"trial_type":"html-button-response","trial_index":90,"time_elapsed":496321,"internal_node_id":"0.0-4.0-1.39","subject_id":"60617c7346cd805e5bfc8893","study_id":"60edd13110225f80f9f3709b","session_id":"6196bf6280c5d29a62d55467","condition":"contingent","relevant_dimensions":["antennae","legs"],"bee_group":{"antennae":"A","wings":"X","pattern":"X","legs":"F"},"bonus":0.06},{"rt":1416,"stimulus":"bees-with-color/bee-A1SM.svg","response":1,"trial_type":"image-button-response","trial_index":91,"time_elapsed":497739,"internal_node_id":"0.0-4.0-0.40","subject_id":"60617c7346cd805e5bfc8893","study_id":"60edd13110225f80f9f3709b","session_id":"6196bf6280c5d29a62d55467","condition":"contingent","relevant_dimensions":["antennae","legs"],"bee_group":{"antennae":"A","wings":"X","pattern":"X","legs":"F"},"action":"avoid","summary":"bad-avoid","bonus":0.06},{"rt":649,"stimulus":"\n                    <p><b>Action: <em>avoid</em></b></p>\n                    <p>This is the bee that you just saw.</p>\n                    <img src=\"bees-with-color/bee-A1SM.svg\" width=\"200\">\n                    <p><br>Your bonus pay is unchanged, and remains at $0.14.</p>\n            ","response":0,"trial_type":"html-button-response","trial_index":92,"time_elapsed":498390,"internal_node_id":"0.0-4.0-1.40","subject_id":"60617c7346cd805e5bfc8893","study_id":"60edd13110225f80f9f3709b","session_id":"6196bf6280c5d29a62d55467","condition":"contingent","relevant_dimensions":["antennae","legs"],"bee_group":{"antennae":"A","wings":"X","pattern":"X","legs":"F"},"bonus":0.06},{"rt":1738,"stimulus":"bees-with-color/bee-B1DM.svg","response":0,"trial_type":"image-button-response","trial_index":93,"time_elapsed":500130,"internal_node_id":"0.0-4.0-0.41","subject_id":"60617c7346cd805e5bfc8893","study_id":"60edd13110225f80f9f3709b","session_id":"6196bf6280c5d29a62d55467","condition":"contingent","relevant_dimensions":["antennae","legs"],"bee_group":{"antennae":"A","wings":"X","pattern":"X","legs":"F"},"action":"harvest","summary":"good-harvest","bonus":0.06},{"rt":1100,"stimulus":"\n                    <p><b>Action: <em>harvest</em></b></p>\n                    <p>This is the bee that you just saw.</p>\n                    <img src=\"bees-with-color/bee-B1DM.svg\" width=\"200\">\n                    <p><span class=\"greenText\"><b>Successful harvest!</b></span><br>Your pay has increased by $0.02. Your bonus pay is now $0.16.</p>\n            ","response":0,"trial_type":"html-button-response","trial_index":94,"time_elapsed":501232,"internal_node_id":"0.0-4.0-1.41","subject_id":"60617c7346cd805e5bfc8893","study_id":"60edd13110225f80f9f3709b","session_id":"6196bf6280c5d29a62d55467","condition":"contingent","relevant_dimensions":["antennae","legs"],"bee_group":{"antennae":"A","wings":"X","pattern":"X","legs":"F"},"bonus":0.06},{"rt":921,"stimulus":"bees-with-color/bee-B1SF.svg","response":0,"trial_type":"image-button-response","trial_index":95,"time_elapsed":502154,"internal_node_id":"0.0-4.0-0.42","subject_id":"60617c7346cd805e5bfc8893","study_id":"60edd13110225f80f9f3709b","session_id":"6196bf6280c5d29a62d55467","condition":"contingent","relevant_dimensions":["antennae","legs"],"bee_group":{"antennae":"A","wings":"X","pattern":"X","legs":"F"},"action":"harvest","summary":"good-harvest","bonus":0.06},{"rt":641,"stimulus":"\n                    <p><b>Action: <em>harvest</em></b></p>\n                    <p>This is the bee that you just saw.</p>\n                    <img src=\"bees-with-color/bee-B1SF.svg\" width=\"200\">\n                    <p><span class=\"greenText\"><b>Successful harvest!</b></span><br>Your pay has increased by $0.02. Your bonus pay is now $0.18.</p>\n            ","response":0,"trial_type":"html-button-response","trial_index":96,"time_elapsed":502798,"internal_node_id":"0.0-4.0-1.42","subject_id":"60617c7346cd805e5bfc8893","study_id":"60edd13110225f80f9f3709b","session_id":"6196bf6280c5d29a62d55467","condition":"contingent","relevant_dimensions":["antennae","legs"],"bee_group":{"antennae":"A","wings":"X","pattern":"X","legs":"F"},"bonus":0.06},{"rt":976,"stimulus":"bees-with-color/bee-B1SM.svg","response":0,"trial_type":"image-button-response","trial_index":97,"time_elapsed":503775,"internal_node_id":"0.0-4.0-0.43","subject_id":"60617c7346cd805e5bfc8893","study_id":"60edd13110225f80f9f3709b","session_id":"6196bf6280c5d29a62d55467","condition":"contingent","relevant_dimensions":["antennae","legs"],"bee_group":{"antennae":"A","wings":"X","pattern":"X","legs":"F"},"action":"harvest","summary":"good-harvest","bonus":0.06},{"rt":1200,"stimulus":"\n                    <p><b>Action: <em>harvest</em></b></p>\n                    <p>This is the bee that you just saw.</p>\n                    <img src=\"bees-with-color/bee-B1SM.svg\" width=\"200\">\n                    <p><span class=\"greenText\"><b>Successful harvest!</b></span><br>Your pay has increased by $0.02. Your bonus pay is now $0.20.</p>\n            ","response":0,"trial_type":"html-button-response","trial_index":98,"time_elapsed":504977,"internal_node_id":"0.0-4.0-1.43","subject_id":"60617c7346cd805e5bfc8893","study_id":"60edd13110225f80f9f3709b","session_id":"6196bf6280c5d29a62d55467","condition":"contingent","relevant_dimensions":["antennae","legs"],"bee_group":{"antennae":"A","wings":"X","pattern":"X","legs":"F"},"bonus":0.06},{"rt":1235,"stimulus":"bees-with-color/bee-A2DF.svg","response":0,"trial_type":"image-button-response","trial_index":99,"time_elapsed":506214,"internal_node_id":"0.0-4.0-0.44","subject_id":"60617c7346cd805e5bfc8893","study_id":"60edd13110225f80f9f3709b","session_id":"6196bf6280c5d29a62d55467","condition":"contingent","relevant_dimensions":["antennae","legs"],"bee_group":{"antennae":"A","wings":"X","pattern":"X","legs":"F"},"action":"harvest","summary":"bad-harvest","bonus":0.06},{"rt":5300,"stimulus":"\n                    <p><b>Action: <em>harvest</em></b></p>\n                    <p>This is the bee that you just saw.</p>\n                    <img src=\"bees-with-color/bee-A2DF.svg\" width=\"200\">\n                    <p><span class=\"redText\">Bad choice, the bee was angry.</span><br><b>You have been stung!</b><br>Your pay has been decreased by $0.10. Your bonus pay is now $0.10.</p>\n            ","response":0,"trial_type":"html-button-response","trial_index":100,"time_elapsed":511517,"internal_node_id":"0.0-4.0-1.44","subject_id":"60617c7346cd805e5bfc8893","study_id":"60edd13110225f80f9f3709b","session_id":"6196bf6280c5d29a62d55467","condition":"contingent","relevant_dimensions":["antennae","legs"],"bee_group":{"antennae":"A","wings":"X","pattern":"X","legs":"F"},"bonus":0.06},{"rt":1663,"stimulus":"bees-with-color/bee-A1SF.svg","response":0,"trial_type":"image-button-response","trial_index":101,"time_elapsed":513181,"internal_node_id":"0.0-4.0-0.45","subject_id":"60617c7346cd805e5bfc8893","study_id":"60edd13110225f80f9f3709b","session_id":"6196bf6280c5d29a62d55467","condition":"contingent","relevant_dimensions":["antennae","legs"],"bee_group":{"antennae":"A","wings":"X","pattern":"X","legs":"F"},"action":"harvest","summary":"bad-harvest","bonus":0.06},{"rt":869,"stimulus":"\n                    <p><b>Action: <em>harvest</em></b></p>\n                    <p>This is the bee that you just saw.</p>\n                    <img src=\"bees-with-color/bee-A1SF.svg\" width=\"200\">\n                    <p><span class=\"redText\">Bad choice, the bee was angry.</span><br><b>You have been stung!</b><br>Your pay has been decreased by $0.10. Your bonus pay is now $0.00.</p>\n            ","response":0,"trial_type":"html-button-response","trial_index":102,"time_elapsed":514051,"internal_node_id":"0.0-4.0-1.45","subject_id":"60617c7346cd805e5bfc8893","study_id":"60edd13110225f80f9f3709b","session_id":"6196bf6280c5d29a62d55467","condition":"contingent","relevant_dimensions":["antennae","legs"],"bee_group":{"antennae":"A","wings":"X","pattern":"X","legs":"F"},"bonus":0.06},{"rt":942,"stimulus":"bees-with-color/bee-B1DF.svg","response":0,"trial_type":"image-button-response","trial_index":103,"time_elapsed":514994,"internal_node_id":"0.0-4.0-0.46","subject_id":"60617c7346cd805e5bfc8893","study_id":"60edd13110225f80f9f3709b","session_id":"6196bf6280c5d29a62d55467","condition":"contingent","relevant_dimensions":["antennae","legs"],"bee_group":{"antennae":"A","wings":"X","pattern":"X","legs":"F"},"action":"harvest","summary":"good-harvest","bonus":0.06},{"rt":941,"stimulus":"\n                    <p><b>Action: <em>harvest</em></b></p>\n                    <p>This is the bee that you just saw.</p>\n                    <img src=\"bees-with-color/bee-B1DF.svg\" width=\"200\">\n                    <p><span class=\"greenText\"><b>Successful harvest!</b></span><br>Your pay has increased by $0.02. Your bonus pay is now $0.02.</p>\n            ","response":0,"trial_type":"html-button-response","trial_index":104,"time_elapsed":515938,"internal_node_id":"0.0-4.0-1.46","subject_id":"60617c7346cd805e5bfc8893","study_id":"60edd13110225f80f9f3709b","session_id":"6196bf6280c5d29a62d55467","condition":"contingent","relevant_dimensions":["antennae","legs"],"bee_group":{"antennae":"A","wings":"X","pattern":"X","legs":"F"},"bonus":0.06},{"rt":619,"stimulus":"bees-with-color/bee-A1DM.svg","response":0,"trial_type":"image-button-response","trial_index":105,"time_elapsed":516560,"internal_node_id":"0.0-4.0-0.47","subject_id":"60617c7346cd805e5bfc8893","study_id":"60edd13110225f80f9f3709b","session_id":"6196bf6280c5d29a62d55467","condition":"contingent","relevant_dimensions":["antennae","legs"],"bee_group":{"antennae":"A","wings":"X","pattern":"X","legs":"F"},"action":"harvest","summary":"good-harvest","bonus":0.06},{"rt":618,"stimulus":"\n                    <p><b>Action: <em>harvest</em></b></p>\n                    <p>This is the bee that you just saw.</p>\n                    <img src=\"bees-with-color/bee-A1DM.svg\" width=\"200\">\n                    <p><span class=\"greenText\"><b>Successful harvest!</b></span><br>Your pay has increased by $0.02. Your bonus pay is now $0.04.</p>\n            ","response":0,"trial_type":"html-button-response","trial_index":106,"time_elapsed":517182,"internal_node_id":"0.0-4.0-1.47","subject_id":"60617c7346cd805e5bfc8893","study_id":"60edd13110225f80f9f3709b","session_id":"6196bf6280c5d29a62d55467","condition":"contingent","relevant_dimensions":["antennae","legs"],"bee_group":{"antennae":"A","wings":"X","pattern":"X","legs":"F"},"bonus":0.06},{"rt":719,"stimulus":"bees-with-color/bee-B1SF.svg","response":0,"trial_type":"image-button-response","trial_index":107,"time_elapsed":517901,"internal_node_id":"0.0-4.0-0.48","subject_id":"60617c7346cd805e5bfc8893","study_id":"60edd13110225f80f9f3709b","session_id":"6196bf6280c5d29a62d55467","condition":"contingent","relevant_dimensions":["antennae","legs"],"bee_group":{"antennae":"A","wings":"X","pattern":"X","legs":"F"},"action":"harvest","summary":"good-harvest","bonus":0.06},{"rt":731,"stimulus":"\n                    <p><b>Action: <em>harvest</em></b></p>\n                    <p>This is the bee that you just saw.</p>\n                    <img src=\"bees-with-color/bee-B1SF.svg\" width=\"200\">\n                    <p><span class=\"greenText\"><b>Successful harvest!</b></span><br>Your pay has increased by $0.02. Your bonus pay is now $0.06.</p>\n            ","response":0,"trial_type":"html-button-response","trial_index":108,"time_elapsed":518634,"internal_node_id":"0.0-4.0-1.48","subject_id":"60617c7346cd805e5bfc8893","study_id":"60edd13110225f80f9f3709b","session_id":"6196bf6280c5d29a62d55467","condition":"contingent","relevant_dimensions":["antennae","legs"],"bee_group":{"antennae":"A","wings":"X","pattern":"X","legs":"F"},"bonus":0.06},{"rt":774,"stimulus":"bees-with-color/bee-B2SM.svg","response":0,"trial_type":"image-button-response","trial_index":109,"time_elapsed":519410,"internal_node_id":"0.0-4.0-0.49","subject_id":"60617c7346cd805e5bfc8893","study_id":"60edd13110225f80f9f3709b","session_id":"6196bf6280c5d29a62d55467","condition":"contingent","relevant_dimensions":["antennae","legs"],"bee_group":{"antennae":"A","wings":"X","pattern":"X","legs":"F"},"action":"harvest","summary":"good-harvest","bonus":0.06},{"rt":597,"stimulus":"\n                    <p><b>Action: <em>harvest</em></b></p>\n                    <p>This is the bee that you just saw.</p>\n                    <img src=\"bees-with-color/bee-B2SM.svg\" width=\"200\">\n                    <p><span class=\"greenText\"><b>Successful harvest!</b></span><br>Your pay has increased by $0.02. Your bonus pay is now $0.08.</p>\n            ","response":0,"trial_type":"html-button-response","trial_index":110,"time_elapsed":520010,"internal_node_id":"0.0-4.0-1.49","subject_id":"60617c7346cd805e5bfc8893","study_id":"60edd13110225f80f9f3709b","session_id":"6196bf6280c5d29a62d55467","condition":"contingent","relevant_dimensions":["antennae","legs"],"bee_group":{"antennae":"A","wings":"X","pattern":"X","legs":"F"},"bonus":0.06},{"rt":2206,"stimulus":"bees-with-color/bee-A2DF.svg","response":1,"trial_type":"image-button-response","trial_index":111,"time_elapsed":522218,"internal_node_id":"0.0-4.0-0.50","subject_id":"60617c7346cd805e5bfc8893","study_id":"60edd13110225f80f9f3709b","session_id":"6196bf6280c5d29a62d55467","condition":"contingent","relevant_dimensions":["antennae","legs"],"bee_group":{"antennae":"A","wings":"X","pattern":"X","legs":"F"},"action":"avoid","summary":"good-avoid","bonus":0.06},{"rt":663,"stimulus":"\n                    <p><b>Action: <em>avoid</em></b></p>\n                    <p>This is the bee that you just saw.</p>\n                    <img src=\"bees-with-color/bee-A2DF.svg\" width=\"200\">\n                    <p><br>Your bonus pay is unchanged, and remains at $0.08.</p>\n            ","response":0,"trial_type":"html-button-response","trial_index":112,"time_elapsed":522883,"internal_node_id":"0.0-4.0-1.50","subject_id":"60617c7346cd805e5bfc8893","study_id":"60edd13110225f80f9f3709b","session_id":"6196bf6280c5d29a62d55467","condition":"contingent","relevant_dimensions":["antennae","legs"],"bee_group":{"antennae":"A","wings":"X","pattern":"X","legs":"F"},"bonus":0.06},{"rt":1526,"stimulus":"bees-with-color/bee-A1SF.svg","response":0,"trial_type":"image-button-response","trial_index":113,"time_elapsed":524411,"internal_node_id":"0.0-4.0-0.51","subject_id":"60617c7346cd805e5bfc8893","study_id":"60edd13110225f80f9f3709b","session_id":"6196bf6280c5d29a62d55467","condition":"contingent","relevant_dimensions":["antennae","legs"],"bee_group":{"antennae":"A","wings":"X","pattern":"X","legs":"F"},"action":"harvest","summary":"bad-harvest","bonus":0.06},{"rt":1892,"stimulus":"\n                    <p><b>Action: <em>harvest</em></b></p>\n                    <p>This is the bee that you just saw.</p>\n                    <img src=\"bees-with-color/bee-A1SF.svg\" width=\"200\">\n                    <p><span class=\"redText\">Bad choice, the bee was angry.</span><br><b>You have been stung!</b><br>Your pay has been decreased by $0.10. Your bonus pay is now $0.00.</p>\n            ","response":0,"trial_type":"html-button-response","trial_index":114,"time_elapsed":526305,"internal_node_id":"0.0-4.0-1.51","subject_id":"60617c7346cd805e5bfc8893","study_id":"60edd13110225f80f9f3709b","session_id":"6196bf6280c5d29a62d55467","condition":"contingent","relevant_dimensions":["antennae","legs"],"bee_group":{"antennae":"A","wings":"X","pattern":"X","legs":"F"},"bonus":0.06},{"rt":747,"stimulus":"bees-with-color/bee-B2DF.svg","response":0,"trial_type":"image-button-response","trial_index":115,"time_elapsed":527053,"internal_node_id":"0.0-4.0-0.52","subject_id":"60617c7346cd805e5bfc8893","study_id":"60edd13110225f80f9f3709b","session_id":"6196bf6280c5d29a62d55467","condition":"contingent","relevant_dimensions":["antennae","legs"],"bee_group":{"antennae":"A","wings":"X","pattern":"X","legs":"F"},"action":"harvest","summary":"good-harvest","bonus":0.06},{"rt":675,"stimulus":"\n                    <p><b>Action: <em>harvest</em></b></p>\n                    <p>This is the bee that you just saw.</p>\n                    <img src=\"bees-with-color/bee-B2DF.svg\" width=\"200\">\n                    <p><span class=\"greenText\"><b>Successful harvest!</b></span><br>Your pay has increased by $0.02. Your bonus pay is now $0.02.</p>\n            ","response":0,"trial_type":"html-button-response","trial_index":116,"time_elapsed":527730,"internal_node_id":"0.0-4.0-1.52","subject_id":"60617c7346cd805e5bfc8893","study_id":"60edd13110225f80f9f3709b","session_id":"6196bf6280c5d29a62d55467","condition":"contingent","relevant_dimensions":["antennae","legs"],"bee_group":{"antennae":"A","wings":"X","pattern":"X","legs":"F"},"bonus":0.06},{"rt":886,"stimulus":"bees-with-color/bee-B2DM.svg","response":0,"trial_type":"image-button-response","trial_index":117,"time_elapsed":528618,"internal_node_id":"0.0-4.0-0.53","subject_id":"60617c7346cd805e5bfc8893","study_id":"60edd13110225f80f9f3709b","session_id":"6196bf6280c5d29a62d55467","condition":"contingent","relevant_dimensions":["antennae","legs"],"bee_group":{"antennae":"A","wings":"X","pattern":"X","legs":"F"},"action":"harvest","summary":"good-harvest","bonus":0.06},{"rt":651,"stimulus":"\n                    <p><b>Action: <em>harvest</em></b></p>\n                    <p>This is the bee that you just saw.</p>\n                    <img src=\"bees-with-color/bee-B2DM.svg\" width=\"200\">\n                    <p><span class=\"greenText\"><b>Successful harvest!</b></span><br>Your pay has increased by $0.02. Your bonus pay is now $0.04.</p>\n            ","response":0,"trial_type":"html-button-response","trial_index":118,"time_elapsed":529273,"internal_node_id":"0.0-4.0-1.53","subject_id":"60617c7346cd805e5bfc8893","study_id":"60edd13110225f80f9f3709b","session_id":"6196bf6280c5d29a62d55467","condition":"contingent","relevant_dimensions":["antennae","legs"],"bee_group":{"antennae":"A","wings":"X","pattern":"X","legs":"F"},"bonus":0.06},{"rt":788,"stimulus":"bees-with-color/bee-B2SF.svg","response":0,"trial_type":"image-button-response","trial_index":119,"time_elapsed":530063,"internal_node_id":"0.0-4.0-0.54","subject_id":"60617c7346cd805e5bfc8893","study_id":"60edd13110225f80f9f3709b","session_id":"6196bf6280c5d29a62d55467","condition":"contingent","relevant_dimensions":["antennae","legs"],"bee_group":{"antennae":"A","wings":"X","pattern":"X","legs":"F"},"action":"harvest","summary":"good-harvest","bonus":0.06},{"rt":948,"stimulus":"\n                    <p><b>Action: <em>harvest</em></b></p>\n                    <p>This is the bee that you just saw.</p>\n                    <img src=\"bees-with-color/bee-B2SF.svg\" width=\"200\">\n                    <p><span class=\"greenText\"><b>Successful harvest!</b></span><br>Your pay has increased by $0.02. Your bonus pay is now $0.06.</p>\n            ","response":0,"trial_type":"html-button-response","trial_index":120,"time_elapsed":531012,"internal_node_id":"0.0-4.0-1.54","subject_id":"60617c7346cd805e5bfc8893","study_id":"60edd13110225f80f9f3709b","session_id":"6196bf6280c5d29a62d55467","condition":"contingent","relevant_dimensions":["antennae","legs"],"bee_group":{"antennae":"A","wings":"X","pattern":"X","legs":"F"},"bonus":0.06},{"rt":1731,"stimulus":"bees-with-color/bee-A1DM.svg","response":0,"trial_type":"image-button-response","trial_index":121,"time_elapsed":532746,"internal_node_id":"0.0-4.0-0.55","subject_id":"60617c7346cd805e5bfc8893","study_id":"60edd13110225f80f9f3709b","session_id":"6196bf6280c5d29a62d55467","condition":"contingent","relevant_dimensions":["antennae","legs"],"bee_group":{"antennae":"A","wings":"X","pattern":"X","legs":"F"},"action":"harvest","summary":"good-harvest","bonus":0.06},{"rt":696,"stimulus":"\n                    <p><b>Action: <em>harvest</em></b></p>\n                    <p>This is the bee that you just saw.</p>\n                    <img src=\"bees-with-color/bee-A1DM.svg\" width=\"200\">\n                    <p><span class=\"greenText\"><b>Successful harvest!</b></span><br>Your pay has increased by $0.02. Your bonus pay is now $0.08.</p>\n            ","response":0,"trial_type":"html-button-response","trial_index":122,"time_elapsed":533445,"internal_node_id":"0.0-4.0-1.55","subject_id":"60617c7346cd805e5bfc8893","study_id":"60edd13110225f80f9f3709b","session_id":"6196bf6280c5d29a62d55467","condition":"contingent","relevant_dimensions":["antennae","legs"],"bee_group":{"antennae":"A","wings":"X","pattern":"X","legs":"F"},"bonus":0.06},{"rt":2598,"stimulus":"bees-with-color/bee-B1DF.svg","response":0,"trial_type":"image-button-response","trial_index":123,"time_elapsed":536043,"internal_node_id":"0.0-4.0-0.56","subject_id":"60617c7346cd805e5bfc8893","study_id":"60edd13110225f80f9f3709b","session_id":"6196bf6280c5d29a62d55467","condition":"contingent","relevant_dimensions":["antennae","legs"],"bee_group":{"antennae":"A","wings":"X","pattern":"X","legs":"F"},"action":"harvest","summary":"good-harvest","bonus":0.06},{"rt":584,"stimulus":"\n                    <p><b>Action: <em>harvest</em></b></p>\n                    <p>This is the bee that you just saw.</p>\n                    <img src=\"bees-with-color/bee-B1DF.svg\" width=\"200\">\n                    <p><span class=\"greenText\"><b>Successful harvest!</b></span><br>Your pay has increased by $0.02. Your bonus pay is now $0.10.</p>\n            ","response":0,"trial_type":"html-button-response","trial_index":124,"time_elapsed":536630,"internal_node_id":"0.0-4.0-1.56","subject_id":"60617c7346cd805e5bfc8893","study_id":"60edd13110225f80f9f3709b","session_id":"6196bf6280c5d29a62d55467","condition":"contingent","relevant_dimensions":["antennae","legs"],"bee_group":{"antennae":"A","wings":"X","pattern":"X","legs":"F"},"bonus":0.06},{"rt":1571,"stimulus":"bees-with-color/bee-A1DF.svg","response":0,"trial_type":"image-button-response","trial_index":125,"time_elapsed":538203,"internal_node_id":"0.0-4.0-0.57","subject_id":"60617c7346cd805e5bfc8893","study_id":"60edd13110225f80f9f3709b","session_id":"6196bf6280c5d29a62d55467","condition":"contingent","relevant_dimensions":["antennae","legs"],"bee_group":{"antennae":"A","wings":"X","pattern":"X","legs":"F"},"action":"harvest","summary":"bad-harvest","bonus":0.06},{"rt":3296,"stimulus":"\n                    <p><b>Action: <em>harvest</em></b></p>\n                    <p>This is the bee that you just saw.</p>\n                    <img src=\"bees-with-color/bee-A1DF.svg\" width=\"200\">\n                    <p><span class=\"redText\">Bad choice, the bee was angry.</span><br><b>You have been stung!</b><br>Your pay has been decreased by $0.10. Your bonus pay is now $0.00.</p>\n            ","response":0,"trial_type":"html-button-response","trial_index":126,"time_elapsed":541500,"internal_node_id":"0.0-4.0-1.57","subject_id":"60617c7346cd805e5bfc8893","study_id":"60edd13110225f80f9f3709b","session_id":"6196bf6280c5d29a62d55467","condition":"contingent","relevant_dimensions":["antennae","legs"],"bee_group":{"antennae":"A","wings":"X","pattern":"X","legs":"F"},"bonus":0.06},{"rt":1276,"stimulus":"bees-with-color/bee-A2SF.svg","response":0,"trial_type":"image-button-response","trial_index":127,"time_elapsed":542779,"internal_node_id":"0.0-4.0-0.58","subject_id":"60617c7346cd805e5bfc8893","study_id":"60edd13110225f80f9f3709b","session_id":"6196bf6280c5d29a62d55467","condition":"contingent","relevant_dimensions":["antennae","legs"],"bee_group":{"antennae":"A","wings":"X","pattern":"X","legs":"F"},"action":"harvest","summary":"bad-harvest","bonus":0.06},{"rt":800,"stimulus":"\n                    <p><b>Action: <em>harvest</em></b></p>\n                    <p>This is the bee that you just saw.</p>\n                    <img src=\"bees-with-color/bee-A2SF.svg\" width=\"200\">\n                    <p><span class=\"redText\">Bad choice, the bee was angry.</span><br><b>You have been stung!</b><br>Your pay has been decreased by $0.10. Your bonus pay is now $0.00.</p>\n            ","response":0,"trial_type":"html-button-response","trial_index":128,"time_elapsed":543582,"internal_node_id":"0.0-4.0-1.58","subject_id":"60617c7346cd805e5bfc8893","study_id":"60edd13110225f80f9f3709b","session_id":"6196bf6280c5d29a62d55467","condition":"contingent","relevant_dimensions":["antennae","legs"],"bee_group":{"antennae":"A","wings":"X","pattern":"X","legs":"F"},"bonus":0.06},{"rt":1563,"stimulus":"bees-with-color/bee-B1DM.svg","response":0,"trial_type":"image-button-response","trial_index":129,"time_elapsed":545147,"internal_node_id":"0.0-4.0-0.59","subject_id":"60617c7346cd805e5bfc8893","study_id":"60edd13110225f80f9f3709b","session_id":"6196bf6280c5d29a62d55467","condition":"contingent","relevant_dimensions":["antennae","legs"],"bee_group":{"antennae":"A","wings":"X","pattern":"X","legs":"F"},"action":"harvest","summary":"good-harvest","bonus":0.06},{"rt":684,"stimulus":"\n                    <p><b>Action: <em>harvest</em></b></p>\n                    <p>This is the bee that you just saw.</p>\n                    <img src=\"bees-with-color/bee-B1DM.svg\" width=\"200\">\n                    <p><span class=\"greenText\"><b>Successful harvest!</b></span><br>Your pay has increased by $0.02. Your bonus pay is now $0.02.</p>\n            ","response":0,"trial_type":"html-button-response","trial_index":130,"time_elapsed":545831,"internal_node_id":"0.0-4.0-1.59","subject_id":"60617c7346cd805e5bfc8893","study_id":"60edd13110225f80f9f3709b","session_id":"6196bf6280c5d29a62d55467","condition":"contingent","relevant_dimensions":["antennae","legs"],"bee_group":{"antennae":"A","wings":"X","pattern":"X","legs":"F"},"bonus":0.06},{"rt":1772,"stimulus":"bees-with-color/bee-A2DM.svg","response":1,"trial_type":"image-button-response","trial_index":131,"time_elapsed":547606,"internal_node_id":"0.0-4.0-0.60","subject_id":"60617c7346cd805e5bfc8893","study_id":"60edd13110225f80f9f3709b","session_id":"6196bf6280c5d29a62d55467","condition":"contingent","relevant_dimensions":["antennae","legs"],"bee_group":{"antennae":"A","wings":"X","pattern":"X","legs":"F"},"action":"avoid","summary":"bad-avoid","bonus":0.06},{"rt":747,"stimulus":"\n                    <p><b>Action: <em>avoid</em></b></p>\n                    <p>This is the bee that you just saw.</p>\n                    <img src=\"bees-with-color/bee-A2DM.svg\" width=\"200\">\n                    <p><br>Your bonus pay is unchanged, and remains at $0.02.</p>\n            ","response":0,"trial_type":"html-button-response","trial_index":132,"time_elapsed":548354,"internal_node_id":"0.0-4.0-1.60","subject_id":"60617c7346cd805e5bfc8893","study_id":"60edd13110225f80f9f3709b","session_id":"6196bf6280c5d29a62d55467","condition":"contingent","relevant_dimensions":["antennae","legs"],"bee_group":{"antennae":"A","wings":"X","pattern":"X","legs":"F"},"bonus":0.06},{"rt":900,"stimulus":"bees-with-color/bee-B1SM.svg","response":0,"trial_type":"image-button-response","trial_index":133,"time_elapsed":549255,"internal_node_id":"0.0-4.0-0.61","subject_id":"60617c7346cd805e5bfc8893","study_id":"60edd13110225f80f9f3709b","session_id":"6196bf6280c5d29a62d55467","condition":"contingent","relevant_dimensions":["antennae","legs"],"bee_group":{"antennae":"A","wings":"X","pattern":"X","legs":"F"},"action":"harvest","summary":"good-harvest","bonus":0.06},{"rt":556,"stimulus":"\n                    <p><b>Action: <em>harvest</em></b></p>\n                    <p>This is the bee that you just saw.</p>\n                    <img src=\"bees-with-color/bee-B1SM.svg\" width=\"200\">\n                    <p><span class=\"greenText\"><b>Successful harvest!</b></span><br>Your pay has increased by $0.02. Your bonus pay is now $0.04.</p>\n            ","response":0,"trial_type":"html-button-response","trial_index":134,"time_elapsed":549815,"internal_node_id":"0.0-4.0-1.61","subject_id":"60617c7346cd805e5bfc8893","study_id":"60edd13110225f80f9f3709b","session_id":"6196bf6280c5d29a62d55467","condition":"contingent","relevant_dimensions":["antennae","legs"],"bee_group":{"antennae":"A","wings":"X","pattern":"X","legs":"F"},"bonus":0.06},{"rt":1396,"stimulus":"bees-with-color/bee-A2SM.svg","response":1,"trial_type":"image-button-response","trial_index":135,"time_elapsed":551212,"internal_node_id":"0.0-4.0-0.62","subject_id":"60617c7346cd805e5bfc8893","study_id":"60edd13110225f80f9f3709b","session_id":"6196bf6280c5d29a62d55467","condition":"contingent","relevant_dimensions":["antennae","legs"],"bee_group":{"antennae":"A","wings":"X","pattern":"X","legs":"F"},"action":"avoid","summary":"bad-avoid","bonus":0.06},{"rt":1010,"stimulus":"\n                    <p><b>Action: <em>avoid</em></b></p>\n                    <p>This is the bee that you just saw.</p>\n                    <img src=\"bees-with-color/bee-A2SM.svg\" width=\"200\">\n                    <p><br>Your bonus pay is unchanged, and remains at $0.04.</p>\n            ","response":0,"trial_type":"html-button-response","trial_index":136,"time_elapsed":552224,"internal_node_id":"0.0-4.0-1.62","subject_id":"60617c7346cd805e5bfc8893","study_id":"60edd13110225f80f9f3709b","session_id":"6196bf6280c5d29a62d55467","condition":"contingent","relevant_dimensions":["antennae","legs"],"bee_group":{"antennae":"A","wings":"X","pattern":"X","legs":"F"},"bonus":0.06},{"rt":1005,"stimulus":"bees-with-color/bee-A1SM.svg","response":1,"trial_type":"image-button-response","trial_index":137,"time_elapsed":553230,"internal_node_id":"0.0-4.0-0.63","subject_id":"60617c7346cd805e5bfc8893","study_id":"60edd13110225f80f9f3709b","session_id":"6196bf6280c5d29a62d55467","condition":"contingent","relevant_dimensions":["antennae","legs"],"bee_group":{"antennae":"A","wings":"X","pattern":"X","legs":"F"},"action":"avoid","summary":"bad-avoid","bonus":0.06},{"rt":724,"stimulus":"\n                    <p><b>Action: <em>avoid</em></b></p>\n                    <p>This is the bee that you just saw.</p>\n                    <img src=\"bees-with-color/bee-A1SM.svg\" width=\"200\">\n                    <p><br>Your bonus pay is unchanged, and remains at $0.04.</p>\n            ","response":0,"trial_type":"html-button-response","trial_index":138,"time_elapsed":553956,"internal_node_id":"0.0-4.0-1.63","subject_id":"60617c7346cd805e5bfc8893","study_id":"60edd13110225f80f9f3709b","session_id":"6196bf6280c5d29a62d55467","condition":"contingent","relevant_dimensions":["antennae","legs"],"bee_group":{"antennae":"A","wings":"X","pattern":"X","legs":"F"},"bonus":0.06},{"rt":5227,"stimulus":"You have completed the first part of this experiment.<br><br>You will now begin a shorter second part, in which you will receive no feedback.<br>The same rules regarding bonus pay apply.<br><br>Press any key to begin.","response":"enter","trial_type":"html-keyboard-response","trial_index":139,"time_elapsed":559185,"internal_node_id":"0.0-5.0","subject_id":"60617c7346cd805e5bfc8893","study_id":"60edd13110225f80f9f3709b","session_id":"6196bf6280c5d29a62d55467","condition":"contingent","relevant_dimensions":["antennae","legs"],"bee_group":{"antennae":"A","wings":"X","pattern":"X","legs":"F"},"bonus":0.06},{"rt":3267,"stimulus":"bees-with-color/bee-B2DM.svg","response":0,"trial_type":"image-button-response","trial_index":140,"time_elapsed":562452,"internal_node_id":"0.0-6.0-0.0","subject_id":"60617c7346cd805e5bfc8893","study_id":"60edd13110225f80f9f3709b","session_id":"6196bf6280c5d29a62d55467","condition":"contingent","relevant_dimensions":["antennae","legs"],"bee_group":{"antennae":"A","wings":"X","pattern":"X","legs":"F"},"bonus":0.06},{"rt":4434,"stimulus":"bees-with-color/bee-A1SF.svg","response":0,"trial_type":"image-button-response","trial_index":141,"time_elapsed":566889,"internal_node_id":"0.0-6.0-0.1","subject_id":"60617c7346cd805e5bfc8893","study_id":"60edd13110225f80f9f3709b","session_id":"6196bf6280c5d29a62d55467","condition":"contingent","relevant_dimensions":["antennae","legs"],"bee_group":{"antennae":"A","wings":"X","pattern":"X","legs":"F"},"bonus":0.06},{"rt":2237,"stimulus":"bees-with-color/bee-B1DM.svg","response":0,"trial_type":"image-button-response","trial_index":142,"time_elapsed":569129,"internal_node_id":"0.0-6.0-0.2","subject_id":"60617c7346cd805e5bfc8893","study_id":"60edd13110225f80f9f3709b","session_id":"6196bf6280c5d29a62d55467","condition":"contingent","relevant_dimensions":["antennae","legs"],"bee_group":{"antennae":"A","wings":"X","pattern":"X","legs":"F"},"bonus":0.06},{"rt":1582,"stimulus":"bees-with-color/bee-A1SM.svg","response":0,"trial_type":"image-button-response","trial_index":143,"time_elapsed":570711,"internal_node_id":"0.0-6.0-0.3","subject_id":"60617c7346cd805e5bfc8893","study_id":"60edd13110225f80f9f3709b","session_id":"6196bf6280c5d29a62d55467","condition":"contingent","relevant_dimensions":["antennae","legs"],"bee_group":{"antennae":"A","wings":"X","pattern":"X","legs":"F"},"bonus":0.06},{"rt":1400,"stimulus":"bees-with-color/bee-A2DM.svg","response":0,"trial_type":"image-button-response","trial_index":144,"time_elapsed":572114,"internal_node_id":"0.0-6.0-0.4","subject_id":"60617c7346cd805e5bfc8893","study_id":"60edd13110225f80f9f3709b","session_id":"6196bf6280c5d29a62d55467","condition":"contingent","relevant_dimensions":["antennae","legs"],"bee_group":{"antennae":"A","wings":"X","pattern":"X","legs":"F"},"bonus":0.06},{"rt":619,"stimulus":"bees-with-color/bee-A1DM.svg","response":0,"trial_type":"image-button-response","trial_index":145,"time_elapsed":572734,"internal_node_id":"0.0-6.0-0.5","subject_id":"60617c7346cd805e5bfc8893","study_id":"60edd13110225f80f9f3709b","session_id":"6196bf6280c5d29a62d55467","condition":"contingent","relevant_dimensions":["antennae","legs"],"bee_group":{"antennae":"A","wings":"X","pattern":"X","legs":"F"},"bonus":0.06},{"rt":665,"stimulus":"bees-with-color/bee-A1DF.svg","response":0,"trial_type":"image-button-response","trial_index":146,"time_elapsed":573400,"internal_node_id":"0.0-6.0-0.6","subject_id":"60617c7346cd805e5bfc8893","study_id":"60edd13110225f80f9f3709b","session_id":"6196bf6280c5d29a62d55467","condition":"contingent","relevant_dimensions":["antennae","legs"],"bee_group":{"antennae":"A","wings":"X","pattern":"X","legs":"F"},"bonus":0.06},{"rt":1386,"stimulus":"bees-with-color/bee-B1SM.svg","response":1,"trial_type":"image-button-response","trial_index":147,"time_elapsed":574788,"internal_node_id":"0.0-6.0-0.7","subject_id":"60617c7346cd805e5bfc8893","study_id":"60edd13110225f80f9f3709b","session_id":"6196bf6280c5d29a62d55467","condition":"contingent","relevant_dimensions":["antennae","legs"],"bee_group":{"antennae":"A","wings":"X","pattern":"X","legs":"F"},"bonus":0.06},{"rt":599,"stimulus":"bees-with-color/bee-B2SF.svg","response":0,"trial_type":"image-button-response","trial_index":148,"time_elapsed":575389,"internal_node_id":"0.0-6.0-0.8","subject_id":"60617c7346cd805e5bfc8893","study_id":"60edd13110225f80f9f3709b","session_id":"6196bf6280c5d29a62d55467","condition":"contingent","relevant_dimensions":["antennae","legs"],"bee_group":{"antennae":"A","wings":"X","pattern":"X","legs":"F"},"bonus":0.06},{"rt":605,"stimulus":"bees-with-color/bee-B2SM.svg","response":0,"trial_type":"image-button-response","trial_index":149,"time_elapsed":575998,"internal_node_id":"0.0-6.0-0.9","subject_id":"60617c7346cd805e5bfc8893","study_id":"60edd13110225f80f9f3709b","session_id":"6196bf6280c5d29a62d55467","condition":"contingent","relevant_dimensions":["antennae","legs"],"bee_group":{"antennae":"A","wings":"X","pattern":"X","legs":"F"},"bonus":0.06},{"rt":404,"stimulus":"bees-with-color/bee-A2SF.svg","response":0,"trial_type":"image-button-response","trial_index":150,"time_elapsed":576402,"internal_node_id":"0.0-6.0-0.10","subject_id":"60617c7346cd805e5bfc8893","study_id":"60edd13110225f80f9f3709b","session_id":"6196bf6280c5d29a62d55467","condition":"contingent","relevant_dimensions":["antennae","legs"],"bee_group":{"antennae":"A","wings":"X","pattern":"X","legs":"F"},"bonus":0.06},{"rt":598,"stimulus":"bees-with-color/bee-B1DF.svg","response":1,"trial_type":"image-button-response","trial_index":151,"time_elapsed":577003,"internal_node_id":"0.0-6.0-0.11","subject_id":"60617c7346cd805e5bfc8893","study_id":"60edd13110225f80f9f3709b","session_id":"6196bf6280c5d29a62d55467","condition":"contingent","relevant_dimensions":["antennae","legs"],"bee_group":{"antennae":"A","wings":"X","pattern":"X","legs":"F"},"bonus":0.06},{"rt":907,"stimulus":"bees-with-color/bee-A2SM.svg","response":0,"trial_type":"image-button-response","trial_index":152,"time_elapsed":577913,"internal_node_id":"0.0-6.0-0.12","subject_id":"60617c7346cd805e5bfc8893","study_id":"60edd13110225f80f9f3709b","session_id":"6196bf6280c5d29a62d55467","condition":"contingent","relevant_dimensions":["antennae","legs"],"bee_group":{"antennae":"A","wings":"X","pattern":"X","legs":"F"},"bonus":0.06},{"rt":746,"stimulus":"bees-with-color/bee-B2DF.svg","response":1,"trial_type":"image-button-response","trial_index":153,"time_elapsed":578659,"internal_node_id":"0.0-6.0-0.13","subject_id":"60617c7346cd805e5bfc8893","study_id":"60edd13110225f80f9f3709b","session_id":"6196bf6280c5d29a62d55467","condition":"contingent","relevant_dimensions":["antennae","legs"],"bee_group":{"antennae":"A","wings":"X","pattern":"X","legs":"F"},"bonus":0.06},{"rt":499,"stimulus":"bees-with-color/bee-A2DF.svg","response":0,"trial_type":"image-button-response","trial_index":154,"time_elapsed":579162,"internal_node_id":"0.0-6.0-0.14","subject_id":"60617c7346cd805e5bfc8893","study_id":"60edd13110225f80f9f3709b","session_id":"6196bf6280c5d29a62d55467","condition":"contingent","relevant_dimensions":["antennae","legs"],"bee_group":{"antennae":"A","wings":"X","pattern":"X","legs":"F"},"bonus":0.06},{"rt":565,"stimulus":"bees-with-color/bee-B1SF.svg","response":1,"trial_type":"image-button-response","trial_index":155,"time_elapsed":579728,"internal_node_id":"0.0-6.0-0.15","subject_id":"60617c7346cd805e5bfc8893","study_id":"60edd13110225f80f9f3709b","session_id":"6196bf6280c5d29a62d55467","condition":"contingent","relevant_dimensions":["antennae","legs"],"bee_group":{"antennae":"A","wings":"X","pattern":"X","legs":"F"},"bonus":0.06},{"rt":821,"stimulus":"bees-with-color/bee-B2DF.svg","response":0,"trial_type":"image-button-response","trial_index":156,"time_elapsed":580552,"internal_node_id":"0.0-6.0-0.16","subject_id":"60617c7346cd805e5bfc8893","study_id":"60edd13110225f80f9f3709b","session_id":"6196bf6280c5d29a62d55467","condition":"contingent","relevant_dimensions":["antennae","legs"],"bee_group":{"antennae":"A","wings":"X","pattern":"X","legs":"F"},"bonus":0.06},{"rt":850,"stimulus":"bees-with-color/bee-A1SF.svg","response":0,"trial_type":"image-button-response","trial_index":157,"time_elapsed":581404,"internal_node_id":"0.0-6.0-0.17","subject_id":"60617c7346cd805e5bfc8893","study_id":"60edd13110225f80f9f3709b","session_id":"6196bf6280c5d29a62d55467","condition":"contingent","relevant_dimensions":["antennae","legs"],"bee_group":{"antennae":"A","wings":"X","pattern":"X","legs":"F"},"bonus":0.06},{"rt":376,"stimulus":"bees-with-color/bee-B2DM.svg","response":0,"trial_type":"image-button-response","trial_index":158,"time_elapsed":581782,"internal_node_id":"0.0-6.0-0.18","subject_id":"60617c7346cd805e5bfc8893","study_id":"60edd13110225f80f9f3709b","session_id":"6196bf6280c5d29a62d55467","condition":"contingent","relevant_dimensions":["antennae","legs"],"bee_group":{"antennae":"A","wings":"X","pattern":"X","legs":"F"},"bonus":0.06},{"rt":529,"stimulus":"bees-with-color/bee-A2DF.svg","response":1,"trial_type":"image-button-response","trial_index":159,"time_elapsed":582313,"internal_node_id":"0.0-6.0-0.19","subject_id":"60617c7346cd805e5bfc8893","study_id":"60edd13110225f80f9f3709b","session_id":"6196bf6280c5d29a62d55467","condition":"contingent","relevant_dimensions":["antennae","legs"],"bee_group":{"antennae":"A","wings":"X","pattern":"X","legs":"F"},"bonus":0.06},{"rt":641,"stimulus":"bees-with-color/bee-A2DM.svg","response":0,"trial_type":"image-button-response","trial_index":160,"time_elapsed":582957,"internal_node_id":"0.0-6.0-0.20","subject_id":"60617c7346cd805e5bfc8893","study_id":"60edd13110225f80f9f3709b","session_id":"6196bf6280c5d29a62d55467","condition":"contingent","relevant_dimensions":["antennae","legs"],"bee_group":{"antennae":"A","wings":"X","pattern":"X","legs":"F"},"bonus":0.06},{"rt":381,"stimulus":"bees-with-color/bee-B1SM.svg","response":0,"trial_type":"image-button-response","trial_index":161,"time_elapsed":583341,"internal_node_id":"0.0-6.0-0.21","subject_id":"60617c7346cd805e5bfc8893","study_id":"60edd13110225f80f9f3709b","session_id":"6196bf6280c5d29a62d55467","condition":"contingent","relevant_dimensions":["antennae","legs"],"bee_group":{"antennae":"A","wings":"X","pattern":"X","legs":"F"},"bonus":0.06},{"rt":654,"stimulus":"bees-with-color/bee-B2SF.svg","response":0,"trial_type":"image-button-response","trial_index":162,"time_elapsed":583996,"internal_node_id":"0.0-6.0-0.22","subject_id":"60617c7346cd805e5bfc8893","study_id":"60edd13110225f80f9f3709b","session_id":"6196bf6280c5d29a62d55467","condition":"contingent","relevant_dimensions":["antennae","legs"],"bee_group":{"antennae":"A","wings":"X","pattern":"X","legs":"F"},"bonus":0.06},{"rt":677,"stimulus":"bees-with-color/bee-B1DM.svg","response":1,"trial_type":"image-button-response","trial_index":163,"time_elapsed":584674,"internal_node_id":"0.0-6.0-0.23","subject_id":"60617c7346cd805e5bfc8893","study_id":"60edd13110225f80f9f3709b","session_id":"6196bf6280c5d29a62d55467","condition":"contingent","relevant_dimensions":["antennae","legs"],"bee_group":{"antennae":"A","wings":"X","pattern":"X","legs":"F"},"bonus":0.06},{"rt":501,"stimulus":"bees-with-color/bee-B1SF.svg","response":0,"trial_type":"image-button-response","trial_index":164,"time_elapsed":585177,"internal_node_id":"0.0-6.0-0.24","subject_id":"60617c7346cd805e5bfc8893","study_id":"60edd13110225f80f9f3709b","session_id":"6196bf6280c5d29a62d55467","condition":"contingent","relevant_dimensions":["antennae","legs"],"bee_group":{"antennae":"A","wings":"X","pattern":"X","legs":"F"},"bonus":0.06},{"rt":292,"stimulus":"bees-with-color/bee-B1DF.svg","response":0,"trial_type":"image-button-response","trial_index":165,"time_elapsed":585471,"internal_node_id":"0.0-6.0-0.25","subject_id":"60617c7346cd805e5bfc8893","study_id":"60edd13110225f80f9f3709b","session_id":"6196bf6280c5d29a62d55467","condition":"contingent","relevant_dimensions":["antennae","legs"],"bee_group":{"antennae":"A","wings":"X","pattern":"X","legs":"F"},"bonus":0.06},{"rt":397,"stimulus":"bees-with-color/bee-A2SM.svg","response":0,"trial_type":"image-button-response","trial_index":166,"time_elapsed":585869,"internal_node_id":"0.0-6.0-0.26","subject_id":"60617c7346cd805e5bfc8893","study_id":"60edd13110225f80f9f3709b","session_id":"6196bf6280c5d29a62d55467","condition":"contingent","relevant_dimensions":["antennae","legs"],"bee_group":{"antennae":"A","wings":"X","pattern":"X","legs":"F"},"bonus":0.06},{"rt":1122,"stimulus":"bees-with-color/bee-A2SF.svg","response":1,"trial_type":"image-button-response","trial_index":167,"time_elapsed":586994,"internal_node_id":"0.0-6.0-0.27","subject_id":"60617c7346cd805e5bfc8893","study_id":"60edd13110225f80f9f3709b","session_id":"6196bf6280c5d29a62d55467","condition":"contingent","relevant_dimensions":["antennae","legs"],"bee_group":{"antennae":"A","wings":"X","pattern":"X","legs":"F"},"bonus":0.06},{"rt":439,"stimulus":"bees-with-color/bee-A1SM.svg","response":1,"trial_type":"image-button-response","tr