[{"success":true,"trial_type":"fullscreen","trial_index":0,"time_elapsed":3257,"internal_node_id":"0.0-0.0","subject_id":"6041432b35b371016982aba7","study_id":"6197b3f67c2b5cd3b6d9596a","session_id":"619be31e1b6d08566648fc5e","condition":"full-information","relevant_dimensions":["pattern","legs"],"bee_group":{"antennae":"X","wings":"X","pattern":"S","legs":"M"},"bonus":1.0000000000000007},{"success":true,"timeout":false,"failed_images":[],"failed_audio":[],"failed_video":[],"trial_type":"preload","trial_index":1,"time_elapsed":5485,"internal_node_id":"0.0-1.0","subject_id":"6041432b35b371016982aba7","study_id":"6197b3f67c2b5cd3b6d9596a","session_id":"619be31e1b6d08566648fc5e","condition":"full-information","relevant_dimensions":["pattern","legs"],"bee_group":{"antennae":"X","wings":"X","pattern":"S","legs":"M"},"bonus":1.0000000000000007},{"rt":2090,"stimulus":"Welcome! Press any key to begin.","response":" ","trial_type":"html-keyboard-response","trial_index":2,"time_elapsed":7580,"internal_node_id":"0.0-2.0","subject_id":"6041432b35b371016982aba7","study_id":"6197b3f67c2b5cd3b6d9596a","session_id":"619be31e1b6d08566648fc5e","condition":"full-information","relevant_dimensions":["pattern","legs"],"bee_group":{"antennae":"X","wings":"X","pattern":"S","legs":"M"},"bonus":1.0000000000000007},{"view_history":[{"page_index":0,"viewing_time":14266},{"page_index":1,"viewing_time":10660},{"page_index":2,"viewing_time":9449},{"page_index":3,"viewing_time":11746},{"page_index":4,"viewing_time":5361},{"page_index":5,"viewing_time":6322},{"page_index":6,"viewing_time":8610},{"page_index":7,"viewing_time":4957},{"page_index":8,"viewing_time":5505},{"page_index":9,"viewing_time":2186},{"page_index":10,"viewing_time":1880.0000000000146},{"page_index":11,"viewing_time":7930.999999999985},{"page_index":12,"viewing_time":6603},{"page_index":13,"viewing_time":1331},{"page_index":14,"viewing_time":1440}],"rt":98247,"trial_type":"instructions","trial_index":3,"time_elapsed":105832,"internal_node_id":"0.0-3.0-0.0","subject_id":"6041432b35b371016982aba7","study_id":"6197b3f67c2b5cd3b6d9596a","session_id":"619be31e1b6d08566648fc5e","condition":"full-information","relevant_dimensions":["pattern","legs"],"bee_group":{"antennae":"X","wings":"X","pattern":"S","legs":"M"},"bonus":1.0000000000000007},{"rt":12530,"response":{"Q0":["Two or six legs","Single or double wings","Antennae or no antennae"]},"question_order":[0],"trial_type":"survey-multi-select","trial_index":4,"time_elapsed":118370,"internal_node_id":"0.0-3.0-1.0","subject_id":"6041432b35b371016982aba7","study_id":"6197b3f67c2b5cd3b6d9596a","session_id":"619be31e1b6d08566648fc5e","condition":"full-information","relevant_dimensions":["pattern","legs"],"bee_group":{"antennae":"X","wings":"X","pattern":"S","legs":"M"},"correct":false,"bonus":1.0000000000000007},{"rt":22849,"response":{"Q1":"No.","Q2":"Based on the four features of the bee.","Q3":"You do not learn if it was friendly or dangerous, and do not alter your bonus."},"question_order":[0,1,2],"trial_type":"survey-multi-choice","trial_index":5,"time_elapsed":141227,"internal_node_id":"0.0-3.0-2.0","subject_id":"6041432b35b371016982aba7","study_id":"6197b3f67c2b5cd3b6d9596a","session_id":"619be31e1b6d08566648fc5e","condition":"full-information","relevant_dimensions":["pattern","legs"],"bee_group":{"antennae":"X","wings":"X","pattern":"S","legs":"M"},"correct":false,"bonus":1.0000000000000007},{"rt":4210,"stimulus":"<p>You did not answer all comprehension questions correctly.<br>Press <b>continue</b> to review the instructions again.</p>","response":0,"trial_type":"html-button-response","trial_index":6,"time_elapsed":145443,"internal_node_id":"0.0-3.0-3.0","subject_id":"6041432b35b371016982aba7","study_id":"6197b3f67c2b5cd3b6d9596a","session_id":"619be31e1b6d08566648fc5e","condition":"full-information","relevant_dimensions":["pattern","legs"],"bee_group":{"antennae":"X","wings":"X","pattern":"S","legs":"M"},"bonus":1.0000000000000007},{"view_history":[{"page_index":0,"viewing_time":1481},{"page_index":1,"viewing_time":10789},{"page_index":2,"viewing_time":7492},{"page_index":3,"viewing_time":8968},{"page_index":4,"viewing_time":5586},{"page_index":5,"viewing_time":738},{"page_index":6,"viewing_time":834.0000000000291},{"page_index":7,"viewing_time":2113},{"page_index":8,"viewing_time":1018},{"page_index":9,"viewing_time":1371.999999999971},{"page_index":10,"viewing_time":1399},{"page_index":11,"viewing_time":1340},{"page_index":12,"viewing_time":1130},{"page_index":13,"viewing_time":1111},{"page_index":14,"viewing_time":1869}],"rt":47240,"trial_type":"instructions","trial_index":7,"time_elapsed":192686,"internal_node_id":"0.0-3.0-4.0-0.0","subject_id":"6041432b35b371016982aba7","study_id":"6197b3f67c2b5cd3b6d9596a","session_id":"619be31e1b6d08566648fc5e","condition":"full-information","relevant_dimensions":["pattern","legs"],"bee_group":{"antennae":"X","wings":"X","pattern":"S","legs":"M"},"bonus":1.0000000000000007},{"rt":17377,"response":{"Q0":["Two or six legs","Stripes or spots on body","Single or double wings","Antennae or no antennae"]},"question_order":[0],"trial_type":"survey-multi-select","trial_index":8,"time_elapsed":210068,"internal_node_id":"0.0-3.0-4.0-1.0","subject_id":"6041432b35b371016982aba7","study_id":"6197b3f67c2b5cd3b6d9596a","session_id":"619be31e1b6d08566648fc5e","condition":"full-information","relevant_dimensions":["pattern","legs"],"bee_group":{"antennae":"X","wings":"X","pattern":"S","legs":"M"},"correct":true,"bonus":1.0000000000000007},{"rt":13580,"response":{"Q1":"No.","Q2":"Based on the four features of the bee.","Q3":"You learn if it was friendly or dangerous, but do not alter your bonus."},"question_order":[0,1,2],"trial_type":"survey-multi-choice","trial_index":9,"time_elapsed":223655,"internal_node_id":"0.0-3.0-4.0-2.0","subject_id":"6041432b35b371016982aba7","study_id":"6197b3f67c2b5cd3b6d9596a","session_id":"619be31e1b6d08566648fc5e","condition":"full-information","relevant_dimensions":["pattern","legs"],"bee_group":{"antennae":"X","wings":"X","pattern":"S","legs":"M"},"correct":true,"bonus":1.0000000000000007},{"rt":3033,"stimulus":"<p>Congrats, you got everything right<br>When you're ready, click the button below to continue to the experiment.</p>","response":0,"trial_type":"html-button-response","trial_index":10,"time_elapsed":226694,"internal_node_id":"0.0-3.0-4.0-3.0","subject_id":"6041432b35b371016982aba7","study_id":"6197b3f67c2b5cd3b6d9596a","session_id":"619be31e1b6d08566648fc5e","condition":"full-information","relevant_dimensions":["pattern","legs"],"bee_group":{"antennae":"X","wings":"X","pattern":"S","legs":"M"},"bonus":1.0000000000000007},{"rt":7506,"stimulus":"bees-with-color/bee-B1SF.svg","response":0,"trial_type":"image-button-response","trial_index":11,"time_elapsed":234204,"internal_node_id":"0.0-4.0-0.0","subject_id":"6041432b35b371016982aba7","study_id":"6197b3f67c2b5cd3b6d9596a","session_id":"619be31e1b6d08566648fc5e","condition":"full-information","relevant_dimensions":["pattern","legs"],"bee_group":{"antennae":"X","wings":"X","pattern":"S","legs":"M"},"action":"harvest","summary":"good-harvest","bonus":1.0000000000000007},{"rt":7069,"stimulus":"\n                    <p><b>Action: <em>harvest</em></b></p>\n                    <p>This is the bee that you just saw.</p>\n                    <img src=\"bees-with-color/bee-B1SF.svg\" width=\"200\">\n                    <p><span class=\"greenText\"><b>Successful harvest!</b></span><br>Your pay has increased by $0.02. Your bonus pay is now $0.56.</p>\n            ","response":0,"trial_type":"html-button-response","trial_index":12,"time_elapsed":241276,"internal_node_id":"0.0-4.0-1.0","subject_id":"6041432b35b371016982aba7","study_id":"6197b3f67c2b5cd3b6d9596a","session_id":"619be31e1b6d08566648fc5e","condition":"full-information","relevant_dimensions":["pattern","legs"],"bee_group":{"antennae":"X","wings":"X","pattern":"S","legs":"M"},"bonus":1.0000000000000007},{"rt":4348,"stimulus":"bees-with-color/bee-A1DF.svg","response":0,"trial_type":"image-button-response","trial_index":13,"time_elapsed":245626,"internal_node_id":"0.0-4.0-0.1","subject_id":"6041432b35b371016982aba7","study_id":"6197b3f67c2b5cd3b6d9596a","session_id":"619be31e1b6d08566648fc5e","condition":"full-information","relevant_dimensions":["pattern","legs"],"bee_group":{"antennae":"X","wings":"X","pattern":"S","legs":"M"},"action":"harvest","summary":"good-harvest","bonus":1.0000000000000007},{"rt":8184,"stimulus":"\n                    <p><b>Action: <em>harvest</em></b></p>\n                    <p>This is the bee that you just saw.</p>\n                    <img src=\"bees-with-color/bee-A1DF.svg\" width=\"200\">\n                    <p><span class=\"greenText\"><b>Successful harvest!</b></span><br>Your pay has increased by $0.02. Your bonus pay is now $0.58.</p>\n            ","response":0,"trial_type":"html-button-response","trial_index":14,"time_elapsed":253811,"internal_node_id":"0.0-4.0-1.1","subject_id":"6041432b35b371016982aba7","study_id":"6197b3f67c2b5cd3b6d9596a","session_id":"619be31e1b6d08566648fc5e","condition":"full-information","relevant_dimensions":["pattern","legs"],"bee_group":{"antennae":"X","wings":"X","pattern":"S","legs":"M"},"bonus":1.0000000000000007},{"rt":2164.999999999942,"stimulus":"bees-with-color/bee-A2DM.svg","response":1,"trial_type":"image-button-response","trial_index":15,"time_elapsed":255979,"internal_node_id":"0.0-4.0-0.2","subject_id":"6041432b35b371016982aba7","study_id":"6197b3f67c2b5cd3b6d9596a","session_id":"619be31e1b6d08566648fc5e","condition":"full-information","relevant_dimensions":["pattern","legs"],"bee_group":{"antennae":"X","wings":"X","pattern":"S","legs":"M"},"action":"avoid","summary":"bad-avoid","bonus":1.0000000000000007},{"rt":6942,"stimulus":"\n                    <p><b>Action: <em>avoid</em></b></p>\n                    <p>This is the bee that you just saw.</p>\n                    <img src=\"bees-with-color/bee-A2DM.svg\" width=\"200\">\n                    <p><span class=\"redText\">Bad choice,</span> the bee was friendly.<br>Your bonus pay is unchanged, and remains at $0.58.</p>\n            ","response":0,"trial_type":"html-button-response","trial_index":16,"time_elapsed":262922,"internal_node_id":"0.0-4.0-1.2","subject_id":"6041432b35b371016982aba7","study_id":"6197b3f67c2b5cd3b6d9596a","session_id":"619be31e1b6d08566648fc5e","condition":"full-information","relevant_dimensions":["pattern","legs"],"bee_group":{"antennae":"X","wings":"X","pattern":"S","legs":"M"},"bonus":1.0000000000000007},{"rt":2683,"stimulus":"bees-with-color/bee-B1SM.svg","response":0,"trial_type":"image-button-response","trial_index":17,"time_elapsed":265606,"internal_node_id":"0.0-4.0-0.3","subject_id":"6041432b35b371016982aba7","study_id":"6197b3f67c2b5cd3b6d9596a","session_id":"619be31e1b6d08566648fc5e","condition":"full-information","relevant_dimensions":["pattern","legs"],"bee_group":{"antennae":"X","wings":"X","pattern":"S","legs":"M"},"action":"harvest","summary":"bad-harvest","bonus":1.0000000000000007},{"rt":9161,"stimulus":"\n                    <p><b>Action: <em>harvest</em></b></p>\n                    <p>This is the bee that you just saw.</p>\n                    <img src=\"bees-with-color/bee-B1SM.svg\" width=\"200\">\n                    <p><span class=\"redText\">Bad choice, the bee was angry.</span><br><b>You have been stung!</b><br>Your pay has been decreased by $0.10. Your bonus pay is now $0.48.</p>\n            ","response":0,"trial_type":"html-button-response","trial_index":18,"time_elapsed":274768,"internal_node_id":"0.0-4.0-1.3","subject_id":"6041432b35b371016982aba7","study_id":"6197b3f67c2b5cd3b6d9596a","session_id":"619be31e1b6d08566648fc5e","condition":"full-information","relevant_dimensions":["pattern","legs"],"bee_group":{"antennae":"X","wings":"X","pattern":"S","legs":"M"},"bonus":1.0000000000000007},{"rt":3004,"stimulus":"bees-with-color/bee-B2DF.svg","response":0,"trial_type":"image-button-response","trial_index":19,"time_elapsed":277775,"internal_node_id":"0.0-4.0-0.4","subject_id":"6041432b35b371016982aba7","study_id":"6197b3f67c2b5cd3b6d9596a","session_id":"619be31e1b6d08566648fc5e","condition":"full-information","relevant_dimensions":["pattern","legs"],"bee_group":{"antennae":"X","wings":"X","pattern":"S","legs":"M"},"action":"harvest","summary":"good-harvest","bonus":1.0000000000000007},{"rt":2287,"stimulus":"\n                    <p><b>Action: <em>harvest</em></b></p>\n                    <p>This is the bee that you just saw.</p>\n                    <img src=\"bees-with-color/bee-B2DF.svg\" width=\"200\">\n                    <p><span class=\"greenText\"><b>Successful harvest!</b></span><br>Your pay has increased by $0.02. Your bonus pay is now $0.50.</p>\n            ","response":0,"trial_type":"html-button-response","trial_index":20,"time_elapsed":280063,"internal_node_id":"0.0-4.0-1.4","subject_id":"6041432b35b371016982aba7","study_id":"6197b3f67c2b5cd3b6d9596a","session_id":"619be31e1b6d08566648fc5e","condition":"full-information","relevant_dimensions":["pattern","legs"],"bee_group":{"antennae":"X","wings":"X","pattern":"S","legs":"M"},"bonus":1.0000000000000007},{"rt":1913,"stimulus":"bees-with-color/bee-A1SF.svg","response":0,"trial_type":"image-button-response","trial_index":21,"time_elapsed":281978,"internal_node_id":"0.0-4.0-0.5","subject_id":"6041432b35b371016982aba7","study_id":"6197b3f67c2b5cd3b6d9596a","session_id":"619be31e1b6d08566648fc5e","condition":"full-information","relevant_dimensions":["pattern","legs"],"bee_group":{"antennae":"X","wings":"X","pattern":"S","legs":"M"},"action":"harvest","summary":"good-harvest","bonus":1.0000000000000007},{"rt":1658,"stimulus":"\n                    <p><b>Action: <em>harvest</em></b></p>\n                    <p>This is the bee that you just saw.</p>\n                    <img src=\"bees-with-color/bee-A1SF.svg\" width=\"200\">\n                    <p><span class=\"greenText\"><b>Successful harvest!</b></span><br>Your pay has increased by $0.02. Your bonus pay is now $0.52.</p>\n            ","response":0,"trial_type":"html-button-response","trial_index":22,"time_elapsed":283638,"internal_node_id":"0.0-4.0-1.5","subject_id":"6041432b35b371016982aba7","study_id":"6197b3f67c2b5cd3b6d9596a","session_id":"619be31e1b6d08566648fc5e","condition":"full-information","relevant_dimensions":["pattern","legs"],"bee_group":{"antennae":"X","wings":"X","pattern":"S","legs":"M"},"bonus":1.0000000000000007},{"rt":1895,"stimulus":"bees-with-color/bee-A1SM.svg","response":1,"trial_type":"image-button-response","trial_index":23,"time_elapsed":285535,"internal_node_id":"0.0-4.0-0.6","subject_id":"6041432b35b371016982aba7","study_id":"6197b3f67c2b5cd3b6d9596a","session_id":"619be31e1b6d08566648fc5e","condition":"full-information","relevant_dimensions":["pattern","legs"],"bee_group":{"antennae":"X","wings":"X","pattern":"S","legs":"M"},"action":"avoid","summary":"good-avoid","bonus":1.0000000000000007},{"rt":2171.000000000058,"stimulus":"\n                    <p><b>Action: <em>avoid</em></b></p>\n                    <p>This is the bee that you just saw.</p>\n                    <img src=\"bees-with-color/bee-A1SM.svg\" width=\"200\">\n                    <p><span class=\"greenText\">Good choice!</span>  This bee would have stung you.<br>Your bonus pay is unchanged, and remains at $0.52.</p>\n            ","response":0,"trial_type":"html-button-response","trial_index":24,"time_elapsed":287707,"internal_node_id":"0.0-4.0-1.6","subject_id":"6041432b35b371016982aba7","study_id":"6197b3f67c2b5cd3b6d9596a","session_id":"619be31e1b6d08566648fc5e","condition":"full-information","relevant_dimensions":["pattern","legs"],"bee_group":{"antennae":"X","wings":"X","pattern":"S","legs":"M"},"bonus":1.0000000000000007},{"rt":2103,"stimulus":"bees-with-color/bee-A1DM.svg","response":0,"trial_type":"image-button-response","trial_index":25,"time_elapsed":289812,"internal_node_id":"0.0-4.0-0.7","subject_id":"6041432b35b371016982aba7","study_id":"6197b3f67c2b5cd3b6d9596a","session_id":"619be31e1b6d08566648fc5e","condition":"full-information","relevant_dimensions":["pattern","legs"],"bee_group":{"antennae":"X","wings":"X","pattern":"S","legs":"M"},"action":"harvest","summary":"good-harvest","bonus":1.0000000000000007},{"rt":1456,"stimulus":"\n                    <p><b>Action: <em>harvest</em></b></p>\n                    <p>This is the bee that you just saw.</p>\n                    <img src=\"bees-with-color/bee-A1DM.svg\" width=\"200\">\n                    <p><span class=\"greenText\"><b>Successful harvest!</b></span><br>Your pay has increased by $0.02. Your bonus pay is now $0.54.</p>\n            ","response":0,"trial_type":"html-button-response","trial_index":26,"time_elapsed":291270,"internal_node_id":"0.0-4.0-1.7","subject_id":"6041432b35b371016982aba7","study_id":"6197b3f67c2b5cd3b6d9596a","session_id":"619be31e1b6d08566648fc5e","condition":"full-information","relevant_dimensions":["pattern","legs"],"bee_group":{"antennae":"X","wings":"X","pattern":"S","legs":"M"},"bonus":1.0000000000000007},{"rt":1918.9999999999418,"stimulus":"bees-with-color/bee-B2DM.svg","response":0,"trial_type":"image-button-response","trial_index":27,"time_elapsed":293190,"internal_node_id":"0.0-4.0-0.8","subject_id":"6041432b35b371016982aba7","study_id":"6197b3f67c2b5cd3b6d9596a","session_id":"619be31e1b6d08566648fc5e","condition":"full-information","relevant_dimensions":["pattern","legs"],"bee_group":{"antennae":"X","wings":"X","pattern":"S","legs":"M"},"action":"harvest","summary":"good-harvest","bonus":1.0000000000000007},{"rt":1571,"stimulus":"\n                    <p><b>Action: <em>harvest</em></b></p>\n                    <p>This is the bee that you just saw.</p>\n                    <img src=\"bees-with-color/bee-B2DM.svg\" width=\"200\">\n                    <p><span class=\"greenText\"><b>Successful harvest!</b></span><br>Your pay has increased by $0.02. Your bonus pay is now $0.56.</p>\n            ","response":0,"trial_type":"html-button-response","trial_index":28,"time_elapsed":294762,"internal_node_id":"0.0-4.0-1.8","subject_id":"6041432b35b371016982aba7","study_id":"6197b3f67c2b5cd3b6d9596a","session_id":"619be31e1b6d08566648fc5e","condition":"full-information","relevant_dimensions":["pattern","legs"],"bee_group":{"antennae":"X","wings":"X","pattern":"S","legs":"M"},"bonus":1.0000000000000007},{"rt":1654,"stimulus":"bees-with-color/bee-A2DF.svg","response":0,"trial_type":"image-button-response","trial_index":29,"time_elapsed":296417,"internal_node_id":"0.0-4.0-0.9","subject_id":"6041432b35b371016982aba7","study_id":"6197b3f67c2b5cd3b6d9596a","session_id":"619be31e1b6d08566648fc5e","condition":"full-information","relevant_dimensions":["pattern","legs"],"bee_group":{"antennae":"X","wings":"X","pattern":"S","legs":"M"},"action":"harvest","summary":"good-harvest","bonus":1.0000000000000007},{"rt":1402,"stimulus":"\n                    <p><b>Action: <em>harvest</em></b></p>\n                    <p>This is the bee that you just saw.</p>\n                    <img src=\"bees-with-color/bee-A2DF.svg\" width=\"200\">\n                    <p><span class=\"greenText\"><b>Successful harvest!</b></span><br>Your pay has increased by $0.02. Your bonus pay is now $0.58.</p>\n            ","response":0,"trial_type":"html-button-response","trial_index":30,"time_elapsed":297820,"internal_node_id":"0.0-4.0-1.9","subject_id":"6041432b35b371016982aba7","study_id":"6197b3f67c2b5cd3b6d9596a","session_id":"619be31e1b6d08566648fc5e","condition":"full-information","relevant_dimensions":["pattern","legs"],"bee_group":{"antennae":"X","wings":"X","pattern":"S","legs":"M"},"bonus":1.0000000000000007},{"rt":2703,"stimulus":"bees-with-color/bee-A2SF.svg","response":1,"trial_type":"image-button-response","trial_index":31,"time_elapsed":300526,"internal_node_id":"0.0-4.0-0.10","subject_id":"6041432b35b371016982aba7","study_id":"6197b3f67c2b5cd3b6d9596a","session_id":"619be31e1b6d08566648fc5e","condition":"full-information","relevant_dimensions":["pattern","legs"],"bee_group":{"antennae":"X","wings":"X","pattern":"S","legs":"M"},"action":"avoid","summary":"bad-avoid","bonus":1.0000000000000007},{"rt":1481,"stimulus":"\n                    <p><b>Action: <em>avoid</em></b></p>\n                    <p>This is the bee that you just saw.</p>\n                    <img src=\"bees-with-color/bee-A2SF.svg\" width=\"200\">\n                    <p><span class=\"redText\">Bad choice,</span> the bee was friendly.<br>Your bonus pay is unchanged, and remains at $0.58.</p>\n            ","response":0,"trial_type":"html-button-response","trial_index":32,"time_elapsed":302009,"internal_node_id":"0.0-4.0-1.10","subject_id":"6041432b35b371016982aba7","study_id":"6197b3f67c2b5cd3b6d9596a","session_id":"619be31e1b6d08566648fc5e","condition":"full-information","relevant_dimensions":["pattern","legs"],"bee_group":{"antennae":"X","wings":"X","pattern":"S","legs":"M"},"bonus":1.0000000000000007},{"rt":3506,"stimulus":"bees-with-color/bee-B2SM.svg","response":1,"trial_type":"image-button-response","trial_index":33,"time_elapsed":305516,"internal_node_id":"0.0-4.0-0.11","subject_id":"6041432b35b371016982aba7","study_id":"6197b3f67c2b5cd3b6d9596a","session_id":"619be31e1b6d08566648fc5e","condition":"full-information","relevant_dimensions":["pattern","legs"],"bee_group":{"antennae":"X","wings":"X","pattern":"S","legs":"M"},"action":"avoid","summary":"good-avoid","bonus":1.0000000000000007},{"rt":1281,"stimulus":"\n                    <p><b>Action: <em>avoid</em></b></p>\n                    <p>This is the bee that you just saw.</p>\n                    <img src=\"bees-with-color/bee-B2SM.svg\" width=\"200\">\n                    <p><span class=\"greenText\">Good choice!</span>  This bee would have stung you.<br>Your bonus pay is unchanged, and remains at $0.58.</p>\n            ","response":0,"trial_type":"html-button-response","trial_index":34,"time_elapsed":306799,"internal_node_id":"0.0-4.0-1.11","subject_id":"6041432b35b371016982aba7","study_id":"6197b3f67c2b5cd3b6d9596a","session_id":"619be31e1b6d08566648fc5e","condition":"full-information","relevant_dimensions":["pattern","legs"],"bee_group":{"antennae":"X","wings":"X","pattern":"S","legs":"M"},"bonus":1.0000000000000007},{"rt":1233.0000000000582,"stimulus":"bees-with-color/bee-A2SM.svg","response":1,"trial_type":"image-button-response","trial_index":35,"time_elapsed":308034,"internal_node_id":"0.0-4.0-0.12","subject_id":"6041432b35b371016982aba7","study_id":"6197b3f67c2b5cd3b6d9596a","session_id":"619be31e1b6d08566648fc5e","condition":"full-information","relevant_dimensions":["pattern","legs"],"bee_group":{"antennae":"X","wings":"X","pattern":"S","legs":"M"},"action":"avoid","summary":"good-avoid","bonus":1.0000000000000007},{"rt":1009,"stimulus":"\n                    <p><b>Action: <em>avoid</em></b></p>\n                    <p>This is the bee that you just saw.</p>\n                    <img src=\"bees-with-color/bee-A2SM.svg\" width=\"200\">\n                    <p><span class=\"greenText\">Good choice!</span>  This bee would have stung you.<br>Your bonus pay is unchanged, and remains at $0.58.</p>\n            ","response":0,"trial_type":"html-button-response","trial_index":36,"time_elapsed":309044,"internal_node_id":"0.0-4.0-1.12","subject_id":"6041432b35b371016982aba7","study_id":"6197b3f67c2b5cd3b6d9596a","session_id":"619be31e1b6d08566648fc5e","condition":"full-information","relevant_dimensions":["pattern","legs"],"bee_group":{"antennae":"X","wings":"X","pattern":"S","legs":"M"},"bonus":1.0000000000000007},{"rt":2078.999999999942,"stimulus":"bees-with-color/bee-B1DM.svg","response":0,"trial_type":"image-button-response","trial_index":37,"time_elapsed":311124,"internal_node_id":"0.0-4.0-0.13","subject_id":"6041432b35b371016982aba7","study_id":"6197b3f67c2b5cd3b6d9596a","session_id":"619be31e1b6d08566648fc5e","condition":"full-information","relevant_dimensions":["pattern","legs"],"bee_group":{"antennae":"X","wings":"X","pattern":"S","legs":"M"},"action":"harvest","summary":"good-harvest","bonus":1.0000000000000007},{"rt":1298,"stimulus":"\n                    <p><b>Action: <em>harvest</em></b></p>\n                    <p>This is the bee that you just saw.</p>\n                    <img src=\"bees-with-color/bee-B1DM.svg\" width=\"200\">\n                    <p><span class=\"greenText\"><b>Successful harvest!</b></span><br>Your pay has increased by $0.02. Your bonus pay is now $0.60.</p>\n            ","response":0,"trial_type":"html-button-response","trial_index":38,"time_elapsed":312423,"internal_node_id":"0.0-4.0-1.13","subject_id":"6041432b35b371016982aba7","study_id":"6197b3f67c2b5cd3b6d9596a","session_id":"619be31e1b6d08566648fc5e","condition":"full-information","relevant_dimensions":["pattern","legs"],"bee_group":{"antennae":"X","wings":"X","pattern":"S","legs":"M"},"bonus":1.0000000000000007},{"rt":2423,"stimulus":"bees-with-color/bee-B2SF.svg","response":0,"trial_type":"image-button-response","trial_index":39,"time_elapsed":314848,"internal_node_id":"0.0-4.0-0.14","subject_id":"6041432b35b371016982aba7","study_id":"6197b3f67c2b5cd3b6d9596a","session_id":"619be31e1b6d08566648fc5e","condition":"full-information","relevant_dimensions":["pattern","legs"],"bee_group":{"antennae":"X","wings":"X","pattern":"S","legs":"M"},"action":"harvest","summary":"good-harvest","bonus":1.0000000000000007},{"rt":1129,"stimulus":"\n                    <p><b>Action: <em>harvest</em></b></p>\n                    <p>This is the bee that you just saw.</p>\n                    <img src=\"bees-with-color/bee-B2SF.svg\" width=\"200\">\n                    <p><span class=\"greenText\"><b>Successful harvest!</b></span><br>Your pay has increased by $0.02. Your bonus pay is now $0.62.</p>\n            ","response":0,"trial_type":"html-button-response","trial_index":40,"time_elapsed":315978,"internal_node_id":"0.0-4.0-1.14","subject_id":"6041432b35b371016982aba7","study_id":"6197b3f67c2b5cd3b6d9596a","session_id":"619be31e1b6d08566648fc5e","condition":"full-information","relevant_dimensions":["pattern","legs"],"bee_group":{"antennae":"X","wings":"X","pattern":"S","legs":"M"},"bonus":1.0000000000000007},{"rt":1376.9999999999418,"stimulus":"bees-with-color/bee-B1DF.svg","response":0,"trial_type":"image-button-response","trial_index":41,"time_elapsed":317357,"internal_node_id":"0.0-4.0-0.15","subject_id":"6041432b35b371016982aba7","study_id":"6197b3f67c2b5cd3b6d9596a","session_id":"619be31e1b6d08566648fc5e","condition":"full-information","relevant_dimensions":["pattern","legs"],"bee_group":{"antennae":"X","wings":"X","pattern":"S","legs":"M"},"action":"harvest","summary":"good-harvest","bonus":1.0000000000000007},{"rt":949.0000000000582,"stimulus":"\n                    <p><b>Action: <em>harvest</em></b></p>\n                    <p>This is the bee that you just saw.</p>\n                    <img src=\"bees-with-color/bee-B1DF.svg\" width=\"200\">\n                    <p><span class=\"greenText\"><b>Successful harvest!</b></span><br>Your pay has increased by $0.02. Your bonus pay is now $0.64.</p>\n            ","response":0,"trial_type":"html-button-response","trial_index":42,"time_elapsed":318308,"internal_node_id":"0.0-4.0-1.15","subject_id":"6041432b35b371016982aba7","study_id":"6197b3f67c2b5cd3b6d9596a","session_id":"619be31e1b6d08566648fc5e","condition":"full-information","relevant_dimensions":["pattern","legs"],"bee_group":{"antennae":"X","wings":"X","pattern":"S","legs":"M"},"bonus":1.0000000000000007},{"rt":2075,"stimulus":"bees-with-color/bee-A1SM.svg","response":1,"trial_type":"image-button-response","trial_index":43,"time_elapsed":320384,"internal_node_id":"0.0-4.0-0.16","subject_id":"6041432b35b371016982aba7","study_id":"6197b3f67c2b5cd3b6d9596a","session_id":"619be31e1b6d08566648fc5e","condition":"full-information","relevant_dimensions":["pattern","legs"],"bee_group":{"antennae":"X","wings":"X","pattern":"S","legs":"M"},"action":"avoid","summary":"good-avoid","bonus":1.0000000000000007},{"rt":1064,"stimulus":"\n                    <p><b>Action: <em>avoid</em></b></p>\n                    <p>This is the bee that you just saw.</p>\n                    <img src=\"bees-with-color/bee-A1SM.svg\" width=\"200\">\n                    <p><span class=\"greenText\">Good choice!</span>  This bee would have stung you.<br>Your bonus pay is unchanged, and remains at $0.64.</p>\n            ","response":0,"trial_type":"html-button-response","trial_index":44,"time_elapsed":321450,"internal_node_id":"0.0-4.0-1.16","subject_id":"6041432b35b371016982aba7","study_id":"6197b3f67c2b5cd3b6d9596a","session_id":"619be31e1b6d08566648fc5e","condition":"full-information","relevant_dimensions":["pattern","legs"],"bee_group":{"antennae":"X","wings":"X","pattern":"S","legs":"M"},"bonus":1.0000000000000007},{"rt":1229,"stimulus":"bees-with-color/bee-B2SM.svg","response":1,"trial_type":"image-button-response","trial_index":45,"time_elapsed":322681,"internal_node_id":"0.0-4.0-0.17","subject_id":"6041432b35b371016982aba7","study_id":"6197b3f67c2b5cd3b6d9596a","session_id":"619be31e1b6d08566648fc5e","condition":"full-information","relevant_dimensions":["pattern","legs"],"bee_group":{"antennae":"X","wings":"X","pattern":"S","legs":"M"},"action":"avoid","summary":"good-avoid","bonus":1.0000000000000007},{"rt":967.9999999999418,"stimulus":"\n                    <p><b>Action: <em>avoid</em></b></p>\n                    <p>This is the bee that you just saw.</p>\n                    <img src=\"bees-with-color/bee-B2SM.svg\" width=\"200\">\n                    <p><span class=\"greenText\">Good choice!</span>  This bee would have stung you.<br>Your bonus pay is unchanged, and remains at $0.64.</p>\n            ","response":0,"trial_type":"html-button-response","trial_index":46,"time_elapsed":323651,"internal_node_id":"0.0-4.0-1.17","subject_id":"6041432b35b371016982aba7","study_id":"6197b3f67c2b5cd3b6d9596a","session_id":"619be31e1b6d08566648fc5e","condition":"full-information","relevant_dimensions":["pattern","legs"],"bee_group":{"antennae":"X","wings":"X","pattern":"S","legs":"M"},"bonus":1.0000000000000007},{"rt":1321.0000000000582,"stimulus":"bees-with-color/bee-A2DF.svg","response":0,"trial_type":"image-button-response","trial_index":47,"time_elapsed":324974,"internal_node_id":"0.0-4.0-0.18","subject_id":"6041432b35b371016982aba7","study_id":"6197b3f67c2b5cd3b6d9596a","session_id":"619be31e1b6d08566648fc5e","condition":"full-information","relevant_dimensions":["pattern","legs"],"bee_group":{"antennae":"X","wings":"X","pattern":"S","legs":"M"},"action":"harvest","summary":"good-harvest","bonus":1.0000000000000007},{"rt":988,"stimulus":"\n                    <p><b>Action: <em>harvest</em></b></p>\n                    <p>This is the bee that you just saw.</p>\n                    <img src=\"bees-with-color/bee-A2DF.svg\" width=\"200\">\n                    <p><span class=\"greenText\"><b>Successful harvest!</b></span><br>Your pay has increased by $0.02. Your bonus pay is now $0.66.</p>\n            ","response":0,"trial_type":"html-button-response","trial_index":48,"time_elapsed":325963,"internal_node_id":"0.0-4.0-1.18","subject_id":"6041432b35b371016982aba7","study_id":"6197b3f67c2b5cd3b6d9596a","session_id":"619be31e1b6d08566648fc5e","condition":"full-information","relevant_dimensions":["pattern","legs"],"bee_group":{"antennae":"X","wings":"X","pattern":"S","legs":"M"},"bonus":1.0000000000000007},{"rt":1787,"stimulus":"bees-with-color/bee-B2DM.svg","response":1,"trial_type":"image-button-response","trial_index":49,"time_elapsed":327752,"internal_node_id":"0.0-4.0-0.19","subject_id":"6041432b35b371016982aba7","study_id":"6197b3f67c2b5cd3b6d9596a","session_id":"619be31e1b6d08566648fc5e","condition":"full-information","relevant_dimensions":["pattern","legs"],"bee_group":{"antennae":"X","wings":"X","pattern":"S","legs":"M"},"action":"avoid","summary":"bad-avoid","bonus":1.0000000000000007},{"rt":1033,"stimulus":"\n                    <p><b>Action: <em>avoid</em></b></p>\n                    <p>This is the bee that you just saw.</p>\n                    <img src=\"bees-with-color/bee-B2DM.svg\" width=\"200\">\n                    <p><span class=\"redText\">Bad choice,</span> the bee was friendly.<br>Your bonus pay is unchanged, and remains at $0.66.</p>\n            ","response":0,"trial_type":"html-button-response","trial_index":50,"time_elapsed":328786,"internal_node_id":"0.0-4.0-1.19","subject_id":"6041432b35b371016982aba7","study_id":"6197b3f67c2b5cd3b6d9596a","session_id":"619be31e1b6d08566648fc5e","condition":"full-information","relevant_dimensions":["pattern","legs"],"bee_group":{"antennae":"X","wings":"X","pattern":"S","legs":"M"},"bonus":1.0000000000000007},{"rt":1670,"stimulus":"bees-with-color/bee-A2SF.svg","response":0,"trial_type":"image-button-response","trial_index":51,"time_elapsed":330458,"internal_node_id":"0.0-4.0-0.20","subject_id":"6041432b35b371016982aba7","study_id":"6197b3f67c2b5cd3b6d9596a","session_id":"619be31e1b6d08566648fc5e","condition":"full-information","relevant_dimensions":["pattern","legs"],"bee_group":{"antennae":"X","wings":"X","pattern":"S","legs":"M"},"action":"harvest","summary":"good-harvest","bonus":1.0000000000000007},{"rt":1192,"stimulus":"\n                    <p><b>Action: <em>harvest</em></b></p>\n                    <p>This is the bee that you just saw.</p>\n                    <img src=\"bees-with-color/bee-A2SF.svg\" width=\"200\">\n                    <p><span class=\"greenText\"><b>Successful harvest!</b></span><br>Your pay has increased by $0.02. Your bonus pay is now $0.68.</p>\n            ","response":0,"trial_type":"html-button-response","trial_index":52,"time_elapsed":331652,"internal_node_id":"0.0-4.0-1.20","subject_id":"6041432b35b371016982aba7","study_id":"6197b3f67c2b5cd3b6d9596a","session_id":"619be31e1b6d08566648fc5e","condition":"full-information","relevant_dimensions":["pattern","legs"],"bee_group":{"antennae":"X","wings":"X","pattern":"S","legs":"M"},"bonus":1.0000000000000007},{"rt":1722,"stimulus":"bees-with-color/bee-B1SF.svg","response":0,"trial_type":"image-button-response","trial_index":53,"time_elapsed":333376,"internal_node_id":"0.0-4.0-0.21","subject_id":"6041432b35b371016982aba7","study_id":"6197b3f67c2b5cd3b6d9596a","session_id":"619be31e1b6d08566648fc5e","condition":"full-information","relevant_dimensions":["pattern","legs"],"bee_group":{"antennae":"X","wings":"X","pattern":"S","legs":"M"},"action":"harvest","summary":"good-harvest","bonus":1.0000000000000007},{"rt":1012,"stimulus":"\n                    <p><b>Action: <em>harvest</em></b></p>\n                    <p>This is the bee that you just saw.</p>\n                    <img src=\"bees-with-color/bee-B1SF.svg\" width=\"200\">\n                    <p><span class=\"greenText\"><b>Successful harvest!</b></span><br>Your pay has increased by $0.02. Your bonus pay is now $0.70.</p>\n            ","response":0,"trial_type":"html-button-response","trial_index":54,"time_elapsed":334390,"internal_node_id":"0.0-4.0-1.21","subject_id":"6041432b35b371016982aba7","study_id":"6197b3f67c2b5cd3b6d9596a","session_id":"619be31e1b6d08566648fc5e","condition":"full-information","relevant_dimensions":["pattern","legs"],"bee_group":{"antennae":"X","wings":"X","pattern":"S","legs":"M"},"bonus":1.0000000000000007},{"rt":1321,"stimulus":"bees-with-color/bee-B2DF.svg","response":0,"trial_type":"image-button-response","trial_index":55,"time_elapsed":335713,"internal_node_id":"0.0-4.0-0.22","subject_id":"6041432b35b371016982aba7","study_id":"6197b3f67c2b5cd3b6d9596a","session_id":"619be31e1b6d08566648fc5e","condition":"full-information","relevant_dimensions":["pattern","legs"],"bee_group":{"antennae":"X","wings":"X","pattern":"S","legs":"M"},"action":"harvest","summary":"good-harvest","bonus":1.0000000000000007},{"rt":1024,"stimulus":"\n                    <p><b>Action: <em>harvest</em></b></p>\n                    <p>This is the bee that you just saw.</p>\n                    <img src=\"bees-with-color/bee-B2DF.svg\" width=\"200\">\n                    <p><span class=\"greenText\"><b>Successful harvest!</b></span><br>Your pay has increased by $0.02. Your bonus pay is now $0.72.</p>\n            ","response":0,"trial_type":"html-button-response","trial_index":56,"time_elapsed":336740,"internal_node_id":"0.0-4.0-1.22","subject_id":"6041432b35b371016982aba7","study_id":"6197b3f67c2b5cd3b6d9596a","session_id":"619be31e1b6d08566648fc5e","condition":"full-information","relevant_dimensions":["pattern","legs"],"bee_group":{"antennae":"X","wings":"X","pattern":"S","legs":"M"},"bonus":1.0000000000000007},{"rt":1153,"stimulus":"bees-with-color/bee-B1DF.svg","response":0,"trial_type":"image-button-response","trial_index":57,"time_elapsed":337894,"internal_node_id":"0.0-4.0-0.23","subject_id":"6041432b35b371016982aba7","study_id":"6197b3f67c2b5cd3b6d9596a","session_id":"619be31e1b6d08566648fc5e","condition":"full-information","relevant_dimensions":["pattern","legs"],"bee_group":{"antennae":"X","wings":"X","pattern":"S","legs":"M"},"action":"harvest","summary":"good-harvest","bonus":1.0000000000000007},{"rt":884,"stimulus":"\n                    <p><b>Action: <em>harvest</em></b></p>\n                    <p>This is the bee that you just saw.</p>\n                    <img src=\"bees-with-color/bee-B1DF.svg\" width=\"200\">\n                    <p><span class=\"greenText\"><b>Successful harvest!</b></span><br>Your pay has increased by $0.02. Your bonus pay is now $0.74.</p>\n            ","response":0,"trial_type":"html-button-response","trial_index":58,"time_elapsed":338780,"internal_node_id":"0.0-4.0-1.23","subject_id":"6041432b35b371016982aba7","study_id":"6197b3f67c2b5cd3b6d9596a","session_id":"619be31e1b6d08566648fc5e","condition":"full-information","relevant_dimensions":["pattern","legs"],"bee_group":{"antennae":"X","wings":"X","pattern":"S","legs":"M"},"bonus":1.0000000000000007},{"rt":1883,"stimulus":"bees-with-color/bee-A1DM.svg","response":0,"trial_type":"image-button-response","trial_index":59,"time_elapsed":340665,"internal_node_id":"0.0-4.0-0.24","subject_id":"6041432b35b371016982aba7","study_id":"6197b3f67c2b5cd3b6d9596a","session_id":"619be31e1b6d08566648fc5e","condition":"full-information","relevant_dimensions":["pattern","legs"],"bee_group":{"antennae":"X","wings":"X","pattern":"S","legs":"M"},"action":"harvest","summary":"good-harvest","bonus":1.0000000000000007},{"rt":1041.0000000000582,"stimulus":"\n                    <p><b>Action: <em>harvest</em></b></p>\n                    <p>This is the bee that you just saw.</p>\n                    <img src=\"bees-with-color/bee-A1DM.svg\" width=\"200\">\n                    <p><span class=\"greenText\"><b>Successful harvest!</b></span><br>Your pay has increased by $0.02. Your bonus pay is now $0.76.</p>\n            ","response":0,"trial_type":"html-button-response","trial_index":60,"time_elapsed":341707,"internal_node_id":"0.0-4.0-1.24","subject_id":"6041432b35b371016982aba7","study_id":"6197b3f67c2b5cd3b6d9596a","session_id":"619be31e1b6d08566648fc5e","condition":"full-information","relevant_dimensions":["pattern","legs"],"bee_group":{"antennae":"X","wings":"X","pattern":"S","legs":"M"},"bonus":1.0000000000000007},{"rt":1165.0000000000582,"stimulus":"bees-with-color/bee-A1DF.svg","response":0,"trial_type":"image-button-response","trial_index":61,"time_elapsed":342874,"internal_node_id":"0.0-4.0-0.25","subject_id":"6041432b35b371016982aba7","study_id":"6197b3f67c2b5cd3b6d9596a","session_id":"619be31e1b6d08566648fc5e","condition":"full-information","relevant_dimensions":["pattern","legs"],"bee_group":{"antennae":"X","wings":"X","pattern":"S","legs":"M"},"action":"harvest","summary":"good-harvest","bonus":1.0000000000000007},{"rt":936,"stimulus":"\n                    <p><b>Action: <em>harvest</em></b></p>\n                    <p>This is the bee that you just saw.</p>\n                    <img src=\"bees-with-color/bee-A1DF.svg\" width=\"200\">\n                    <p><span class=\"greenText\"><b>Successful harvest!</b></span><br>Your pay has increased by $0.02. Your bonus pay is now $0.78.</p>\n            ","response":0,"trial_type":"html-button-response","trial_index":62,"time_elapsed":343812,"internal_node_id":"0.0-4.0-1.25","subject_id":"6041432b35b371016982aba7","study_id":"6197b3f67c2b5cd3b6d9596a","session_id":"619be31e1b6d08566648fc5e","condition":"full-information","relevant_dimensions":["pattern","legs"],"bee_group":{"antennae":"X","wings":"X","pattern":"S","legs":"M"},"bonus":1.0000000000000007},{"rt":1722,"stimulus":"bees-with-color/bee-A2DM.svg","response":0,"trial_type":"image-button-response","trial_index":63,"time_elapsed":345535,"internal_node_id":"0.0-4.0-0.26","subject_id":"6041432b35b371016982aba7","study_id":"6197b3f67c2b5cd3b6d9596a","session_id":"619be31e1b6d08566648fc5e","condition":"full-information","relevant_dimensions":["pattern","legs"],"bee_group":{"antennae":"X","wings":"X","pattern":"S","legs":"M"},"action":"harvest","summary":"good-harvest","bonus":1.0000000000000007},{"rt":1025,"stimulus":"\n                    <p><b>Action: <em>harvest</em></b></p>\n                    <p>This is the bee that you just saw.</p>\n                    <img src=\"bees-with-color/bee-A2DM.svg\" width=\"200\">\n                    <p><span class=\"greenText\"><b>Successful harvest!</b></span><br>Your pay has increased by $0.02. Your bonus pay is now $0.80.</p>\n            ","response":0,"trial_type":"html-button-response","trial_index":64,"time_elapsed":346562,"internal_node_id":"0.0-4.0-1.26","subject_id":"6041432b35b371016982aba7","study_id":"6197b3f67c2b5cd3b6d9596a","session_id":"619be31e1b6d08566648fc5e","condition":"full-information","relevant_dimensions":["pattern","legs"],"bee_group":{"antennae":"X","wings":"X","pattern":"S","legs":"M"},"bonus":1.0000000000000007},{"rt":1510,"stimulus":"bees-with-color/bee-B1DM.svg","response":0,"trial_type":"image-button-response","trial_index":65,"time_elapsed":348073,"internal_node_id":"0.0-4.0-0.27","subject_id":"6041432b35b371016982aba7","study_id":"6197b3f67c2b5cd3b6d9596a","session_id":"619be31e1b6d08566648fc5e","condition":"full-information","relevant_dimensions":["pattern","legs"],"bee_group":{"antennae":"X","wings":"X","pattern":"S","legs":"M"},"action":"harvest","summary":"good-harvest","bonus":1.0000000000000007},{"rt":1025.0000000000582,"stimulus":"\n                    <p><b>Action: <em>harvest</em></b></p>\n                    <p>This is the bee that you just saw.</p>\n                    <img src=\"bees-with-color/bee-B1DM.svg\" width=\"200\">\n                    <p><span class=\"greenText\"><b>Successful harvest!</b></span><br>Your pay has increased by $0.02. Your bonus pay is now $0.82.</p>\n            ","response":0,"trial_type":"html-button-response","trial_index":66,"time_elapsed":349100,"internal_node_id":"0.0-4.0-1.27","subject_id":"6041432b35b371016982aba7","study_id":"6197b3f67c2b5cd3b6d9596a","session_id":"619be31e1b6d08566648fc5e","condition":"full-information","relevant_dimensions":["pattern","legs"],"bee_group":{"antennae":"X","wings":"X","pattern":"S","legs":"M"},"bonus":1.0000000000000007},{"rt":2030,"stimulus":"bees-with-color/bee-A1SF.svg","response":0,"trial_type":"image-button-response","trial_index":67,"time_elapsed":351132,"internal_node_id":"0.0-4.0-0.28","subject_id":"6041432b35b371016982aba7","study_id":"6197b3f67c2b5cd3b6d9596a","session_id":"619be31e1b6d08566648fc5e","condition":"full-information","relevant_dimensions":["pattern","legs"],"bee_group":{"antennae":"X","wings":"X","pattern":"S","legs":"M"},"action":"harvest","summary":"good-harvest","bonus":1.0000000000000007},{"rt":1009,"stimulus":"\n                    <p><b>Action: <em>harvest</em></b></p>\n                    <p>This is the bee that you just saw.</p>\n                    <img src=\"bees-with-color/bee-A1SF.svg\" width=\"200\">\n                    <p><span class=\"greenText\"><b>Successful harvest!</b></span><br>Your pay has increased by $0.02. Your bonus pay is now $0.84.</p>\n            ","response":0,"trial_type":"html-button-response","trial_index":68,"time_elapsed":352142,"internal_node_id":"0.0-4.0-1.28","subject_id":"6041432b35b371016982aba7","study_id":"6197b3f67c2b5cd3b6d9596a","session_id":"619be31e1b6d08566648fc5e","condition":"full-information","relevant_dimensions":["pattern","legs"],"bee_group":{"antennae":"X","wings":"X","pattern":"S","legs":"M"},"bonus":1.0000000000000007},{"rt":2027,"stimulus":"bees-with-color/bee-A2SM.svg","response":1,"trial_type":"image-button-response","trial_index":69,"time_elapsed":354171,"internal_node_id":"0.0-4.0-0.29","subject_id":"6041432b35b371016982aba7","study_id":"6197b3f67c2b5cd3b6d9596a","session_id":"619be31e1b6d08566648fc5e","condition":"full-information","relevant_dimensions":["pattern","legs"],"bee_group":{"antennae":"X","wings":"X","pattern":"S","legs":"M"},"action":"avoid","summary":"good-avoid","bonus":1.0000000000000007},{"rt":1028,"stimulus":"\n                    <p><b>Action: <em>avoid</em></b></p>\n                    <p>This is the bee that you just saw.</p>\n                    <img src=\"bees-with-color/bee-A2SM.svg\" width=\"200\">\n                    <p><span class=\"greenText\">Good choice!</span>  This bee would have stung you.<br>Your bonus pay is unchanged, and remains at $0.84.</p>\n            ","response":0,"trial_type":"html-button-response","trial_index":70,"time_elapsed":355201,"internal_node_id":"0.0-4.0-1.29","subject_id":"6041432b35b371016982aba7","study_id":"6197b3f67c2b5cd3b6d9596a","session_id":"619be31e1b6d08566648fc5e","condition":"full-information","relevant_dimensions":["pattern","legs"],"bee_group":{"antennae":"X","wings":"X","pattern":"S","legs":"M"},"bonus":1.0000000000000007},{"rt":1386,"stimulus":"bees-with-color/bee-B2SF.svg","response":0,"trial_type":"image-button-response","trial_index":71,"time_elapsed":356588,"internal_node_id":"0.0-4.0-0.30","subject_id":"6041432b35b371016982aba7","study_id":"6197b3f67c2b5cd3b6d9596a","session_id":"619be31e1b6d08566648fc5e","condition":"full-information","relevant_dimensions":["pattern","legs"],"bee_group":{"antennae":"X","wings":"X","pattern":"S","legs":"M"},"action":"harvest","summary":"good-harvest","bonus":1.0000000000000007},{"rt":1009,"stimulus":"\n                    <p><b>Action: <em>harvest</em></b></p>\n                    <p>This is the bee that you just saw.</p>\n                    <img src=\"bees-with-color/bee-B2SF.svg\" width=\"200\">\n                    <p><span class=\"greenText\"><b>Successful harvest!</b></span><br>Your pay has increased by $0.02. Your bonus pay is now $0.86.</p>\n            ","response":0,"trial_type":"html-button-response","trial_index":72,"time_elapsed":357599,"internal_node_id":"0.0-4.0-1.30","subject_id":"6041432b35b371016982aba7","study_id":"6197b3f67c2b5cd3b6d9596a","session_id":"619be31e1b6d08566648fc5e","condition":"full-information","relevant_dimensions":["pattern","legs"],"bee_group":{"antennae":"X","wings":"X","pattern":"S","legs":"M"},"bonus":1.0000000000000007},{"rt":1557,"stimulus":"bees-with-color/bee-B1SM.svg","response":0,"trial_type":"image-button-response","trial_index":73,"time_elapsed":359158,"internal_node_id":"0.0-4.0-0.31","subject_id":"6041432b35b371016982aba7","study_id":"6197b3f67c2b5cd3b6d9596a","session_id":"619be31e1b6d08566648fc5e","condition":"full-information","relevant_dimensions":["pattern","legs"],"bee_group":{"antennae":"X","wings":"X","pattern":"S","legs":"M"},"action":"harvest","summary":"bad-harvest","bonus":1.0000000000000007},{"rt":1841.9999999999418,"stimulus":"\n                    <p><b>Action: <em>harvest</em></b></p>\n                    <p>This is the bee that you just saw.</p>\n                    <img src=\"bees-with-color/bee-B1SM.svg\" width=\"200\">\n                    <p><span class=\"redText\">Bad choice, the bee was angry.</span><br><b>You have been stung!</b><br>Your pay has been decreased by $0.10. Your bonus pay is now $0.76.</p>\n            ","response":0,"trial_type":"html-button-response","trial_index":74,"time_elapsed":361002,"internal_node_id":"0.0-4.0-1.31","subject_id":"6041432b35b371016982aba7","study_id":"6197b3f67c2b5cd3b6d9596a","session_id":"619be31e1b6d08566648fc5e","condition":"full-information","relevant_dimensions":["pattern","legs"],"bee_group":{"antennae":"X","wings":"X","pattern":"S","legs":"M"},"bonus":1.0000000000000007},{"rt":2320,"stimulus":"bees-with-color/bee-A2DM.svg","response":0,"trial_type":"image-button-response","trial_index":75,"time_elapsed":363324,"internal_node_id":"0.0-4.0-0.32","subject_id":"6041432b35b371016982aba7","study_id":"6197b3f67c2b5cd3b6d9596a","session_id":"619be31e1b6d08566648fc5e","condition":"full-information","relevant_dimensions":["pattern","legs"],"bee_group":{"antennae":"X","wings":"X","pattern":"S","legs":"M"},"action":"harvest","summary":"good-harvest","bonus":1.0000000000000007},{"rt":1129,"stimulus":"\n                    <p><b>Action: <em>harvest</em></b></p>\n                    <p>This is the bee that you just saw.</p>\n                    <img src=\"bees-with-color/bee-A2DM.svg\" width=\"200\">\n                    <p><span class=\"greenText\"><b>Successful harvest!</b></span><br>Your pay has increased by $0.02. Your bonus pay is now $0.78.</p>\n            ","response":0,"trial_type":"html-button-response","trial_index":76,"time_elapsed":364454,"internal_node_id":"0.0-4.0-1.32","subject_id":"6041432b35b371016982aba7","study_id":"6197b3f67c2b5cd3b6d9596a","session_id":"619be31e1b6d08566648fc5e","condition":"full-information","relevant_dimensions":["pattern","legs"],"bee_group":{"antennae":"X","wings":"X","pattern":"S","legs":"M"},"bonus":1.0000000000000007},{"rt":1201,"stimulus":"bees-with-color/bee-B1DF.svg","response":0,"trial_type":"image-button-response","trial_index":77,"time_elapsed":365657,"internal_node_id":"0.0-4.0-0.33","subject_id":"6041432b35b371016982aba7","study_id":"6197b3f67c2b5cd3b6d9596a","session_id":"619be31e1b6d08566648fc5e","condition":"full-information","relevant_dimensions":["pattern","legs"],"bee_group":{"antennae":"X","wings":"X","pattern":"S","legs":"M"},"action":"harvest","summary":"good-harvest","bonus":1.0000000000000007},{"rt":1264,"stimulus":"\n                    <p><b>Action: <em>harvest</em></b></p>\n                    <p>This is the bee that you just saw.</p>\n                    <img src=\"bees-with-color/bee-B1DF.svg\" width=\"200\">\n                    <p><span class=\"greenText\"><b>Successful harvest!</b></span><br>Your pay has increased by $0.02. Your bonus pay is now $0.80.</p>\n            ","response":0,"trial_type":"html-button-response","trial_index":78,"time_elapsed":366923,"internal_node_id":"0.0-4.0-1.33","subject_id":"6041432b35b371016982aba7","study_id":"6197b3f67c2b5cd3b6d9596a","session_id":"619be31e1b6d08566648fc5e","condition":"full-information","relevant_dimensions":["pattern","legs"],"bee_group":{"antennae":"X","wings":"X","pattern":"S","legs":"M"},"bonus":1.0000000000000007},{"rt":1975,"stimulus":"bees-with-color/bee-B1SF.svg","response":0,"trial_type":"image-button-response","trial_index":79,"time_elapsed":368900,"internal_node_id":"0.0-4.0-0.34","subject_id":"6041432b35b371016982aba7","study_id":"6197b3f67c2b5cd3b6d9596a","session_id":"619be31e1b6d08566648fc5e","condition":"full-information","relevant_dimensions":["pattern","legs"],"bee_group":{"antennae":"X","wings":"X","pattern":"S","legs":"M"},"action":"harvest","summary":"good-harvest","bonus":1.0000000000000007},{"rt":1032.0000000000582,"stimulus":"\n                    <p><b>Action: <em>harvest</em></b></p>\n                    <p>This is the bee that you just saw.</p>\n                    <img src=\"bees-with-color/bee-B1SF.svg\" width=\"200\">\n                    <p><span class=\"greenText\"><b>Successful harvest!</b></span><br>Your pay has increased by $0.02. Your bonus pay is now $0.82.</p>\n            ","response":0,"trial_type":"html-button-response","trial_index":80,"time_elapsed":369935,"internal_node_id":"0.0-4.0-1.34","subject_id":"6041432b35b371016982aba7","study_id":"6197b3f67c2b5cd3b6d9596a","session_id":"619be31e1b6d08566648fc5e","condition":"full-information","relevant_dimensions":["pattern","legs"],"bee_group":{"antennae":"X","wings":"X","pattern":"S","legs":"M"},"bonus":1.0000000000000007},{"rt":1340,"stimulus":"bees-with-color/bee-A1DF.svg","response":0,"trial_type":"image-button-response","trial_index":81,"time_elapsed":371276,"internal_node_id":"0.0-4.0-0.35","subject_id":"6041432b35b371016982aba7","study_id":"6197b3f67c2b5cd3b6d9596a","session_id":"619be31e1b6d08566648fc5e","condition":"full-information","relevant_dimensions":["pattern","legs"],"bee_group":{"antennae":"X","wings":"X","pattern":"S","legs":"M"},"action":"harvest","summary":"good-harvest","bonus":1.0000000000000007},{"rt":1033,"stimulus":"\n                    <p><b>Action: <em>harvest</em></b></p>\n                    <p>This is the bee that you just saw.</p>\n                    <img src=\"bees-with-color/bee-A1DF.svg\" width=\"200\">\n                    <p><span class=\"greenText\"><b>Successful harvest!</b></span><br>Your pay has increased by $0.02. Your bonus pay is now $0.84.</p>\n            ","response":0,"trial_type":"html-button-response","trial_index":82,"time_elapsed":372311,"internal_node_id":"0.0-4.0-1.35","subject_id":"6041432b35b371016982aba7","study_id":"6197b3f67c2b5cd3b6d9596a","session_id":"619be31e1b6d08566648fc5e","condition":"full-information","relevant_dimensions":["pattern","legs"],"bee_group":{"antennae":"X","wings":"X","pattern":"S","legs":"M"},"bonus":1.0000000000000007},{"rt":1673,"stimulus":"bees-with-color/bee-A1SM.svg","response":1,"trial_type":"image-button-response","trial_index":83,"time_elapsed":373986,"internal_node_id":"0.0-4.0-0.36","subject_id":"6041432b35b371016982aba7","study_id":"6197b3f67c2b5cd3b6d9596a","session_id":"619be31e1b6d08566648fc5e","condition":"full-information","relevant_dimensions":["pattern","legs"],"bee_group":{"antennae":"X","wings":"X","pattern":"S","legs":"M"},"action":"avoid","summary":"good-avoid","bonus":1.0000000000000007},{"rt":1001.9999999999418,"stimulus":"\n                    <p><b>Action: <em>avoid</em></b></p>\n                    <p>This is the bee that you just saw.</p>\n                    <img src=\"bees-with-color/bee-A1SM.svg\" width=\"200\">\n                    <p><span class=\"greenText\">Good choice!</span>  This bee would have stung you.<br>Your bonus pay is unchanged, and remains at $0.84.</p>\n            ","response":0,"trial_type":"html-button-response","trial_index":84,"time_elapsed":374989,"internal_node_id":"0.0-4.0-1.36","subject_id":"6041432b35b371016982aba7","study_id":"6197b3f67c2b5cd3b6d9596a","session_id":"619be31e1b6d08566648fc5e","condition":"full-information","relevant_dimensions":["pattern","legs"],"bee_group":{"antennae":"X","wings":"X","pattern":"S","legs":"M"},"bonus":1.0000000000000007},{"rt":1661,"stimulus":"bees-with-color/bee-A1SF.svg","response":0,"trial_type":"image-button-response","trial_index":85,"time_elapsed":376652,"internal_node_id":"0.0-4.0-0.37","subject_id":"6041432b35b371016982aba7","study_id":"6197b3f67c2b5cd3b6d9596a","session_id":"619be31e1b6d08566648fc5e","condition":"full-information","relevant_dimensions":["pattern","legs"],"bee_group":{"antennae":"X","wings":"X","pattern":"S","legs":"M"},"action":"harvest","summary":"good-harvest","bonus":1.0000000000000007},{"rt":977.0000000000582,"stimulus":"\n                    <p><b>Action: <em>harvest</em></b></p>\n                    <p>This is the bee that you just saw.</p>\n                    <img src=\"bees-with-color/bee-A1SF.svg\" width=\"200\">\n                    <p><span class=\"greenText\"><b>Successful harvest!</b></span><br>Your pay has increased by $0.02. Your bonus pay is now $0.86.</p>\n            ","response":0,"trial_type":"html-button-response","trial_index":86,"time_elapsed":377631,"internal_node_id":"0.0-4.0-1.37","subject_id":"6041432b35b371016982aba7","study_id":"6197b3f67c2b5cd3b6d9596a","session_id":"619be31e1b6d08566648fc5e","condition":"full-information","relevant_dimensions":["pattern","legs"],"bee_group":{"antennae":"X","wings":"X","pattern":"S","legs":"M"},"bonus":1.0000000000000007},{"rt":2600.000000000058,"stimulus":"bees-with-color/bee-A2DF.svg","response":1,"trial_type":"image-button-response","trial_index":87,"time_elapsed":380232,"internal_node_id":"0.0-4.0-0.38","subject_id":"6041432b35b371016982aba7","study_id":"6197b3f67c2b5cd3b6d9596a","session_id":"619be31e1b6d08566648fc5e","condition":"full-information","relevant_dimensions":["pattern","legs"],"bee_group":{"antennae":"X","wings":"X","pattern":"S","legs":"M"},"action":"avoid","summary":"bad-avoid","bonus":1.0000000000000007},{"rt":1002,"stimulus":"\n                    <p><b>Action: <em>avoid</em></b></p>\n                    <p>This is the bee that you just saw.</p>\n                    <img src=\"bees-with-color/bee-A2DF.svg\" width=\"200\">\n                    <p><span class=\"redText\">Bad choice,</span> the bee was friendly.<br>Your bonus pay is unchanged, and remains at $0.86.</p>\n            ","response":0,"trial_type":"html-button-response","trial_index":88,"time_elapsed":381235,"internal_node_id":"0.0-4.0-1.38","subject_id":"6041432b35b371016982aba7","study_id":"6197b3f67c2b5cd3b6d9596a","session_id":"619be31e1b6d08566648fc5e","condition":"full-information","relevant_dimensions":["pattern","legs"],"bee_group":{"antennae":"X","wings":"X","pattern":"S","legs":"M"},"bonus":1.0000000000000007},{"rt":1570,"stimulus":"bees-with-color/bee-B1SM.svg","response":1,"trial_type":"image-button-response","trial_index":89,"time_elapsed":382807,"internal_node_id":"0.0-4.0-0.39","subject_id":"6041432b35b371016982aba7","study_id":"6197b3f67c2b5cd3b6d9596a","session_id":"619be31e1b6d08566648fc5e","condition":"full-information","relevant_dimensions":["pattern","legs"],"bee_group":{"antennae":"X","wings":"X","pattern":"S","legs":"M"},"action":"avoid","summary":"good-avoid","bonus":1.0000000000000007},{"rt":921,"stimulus":"\n                    <p><b>Action: <em>avoid</em></b></p>\n                    <p>This is the bee that you just saw.</p>\n                    <img src=\"bees-with-color/bee-B1SM.svg\" width=\"200\">\n                    <p><span class=\"greenText\">Good choice!</span>  This bee would have stung you.<br>Your bonus pay is unchanged, and remains at $0.86.</p>\n            ","response":0,"trial_type":"html-button-response","trial_index":90,"time_elapsed":383728,"internal_node_id":"0.0-4.0-1.39","subject_id":"6041432b35b371016982aba7","study_id":"6197b3f67c2b5cd3b6d9596a","session_id":"619be31e1b6d08566648fc5e","condition":"full-information","relevant_dimensions":["pattern","legs"],"bee_group":{"antennae":"X","wings":"X","pattern":"S","legs":"M"},"bonus":1.0000000000000007},{"rt":1390.0000000000582,"stimulus":"bees-with-color/bee-B2DF.svg","response":0,"trial_type":"image-button-response","trial_index":91,"time_elapsed":385120,"internal_node_id":"0.0-4.0-0.40","subject_id":"6041432b35b371016982aba7","study_id":"6197b3f67c2b5cd3b6d9596a","session_id":"619be31e1b6d08566648fc5e","condition":"full-information","relevant_dimensions":["pattern","legs"],"bee_group":{"antennae":"X","wings":"X","pattern":"S","legs":"M"},"action":"harvest","summary":"good-harvest","bonus":1.0000000000000007},{"rt":1112,"stimulus":"\n                    <p><b>Action: <em>harvest</em></b></p>\n                    <p>This is the bee that you just saw.</p>\n                    <img src=\"bees-with-color/bee-B2DF.svg\" width=\"200\">\n                    <p><span class=\"greenText\"><b>Successful harvest!</b></span><br>Your pay has increased by $0.02. Your bonus pay is now $0.88.</p>\n            ","response":0,"trial_type":"html-button-response","trial_index":92,"time_elapsed":386234,"internal_node_id":"0.0-4.0-1.40","subject_id":"6041432b35b371016982aba7","study_id":"6197b3f67c2b5cd3b6d9596a","session_id":"619be31e1b6d08566648fc5e","condition":"full-information","relevant_dimensions":["pattern","legs"],"bee_group":{"antennae":"X","wings":"X","pattern":"S","legs":"M"},"bonus":1.0000000000000007},{"rt":2688,"stimulus":"bees-with-color/bee-B2SM.svg","response":1,"trial_type":"image-button-response","trial_index":93,"time_elapsed":388924,"internal_node_id":"0.0-4.0-0.41","subject_id":"6041432b35b371016982aba7","study_id":"6197b3f67c2b5cd3b6d9596a","session_id":"619be31e1b6d08566648fc5e","condition":"full-information","relevant_dimensions":["pattern","legs"],"bee_group":{"antennae":"X","wings":"X","pattern":"S","legs":"M"},"action":"avoid","summary":"good-avoid","bonus":1.0000000000000007},{"rt":929,"stimulus":"\n                    <p><b>Action: <em>avoid</em></b></p>\n                    <p>This is the bee that you just saw.</p>\n                    <img src=\"bees-with-color/bee-B2SM.svg\" width=\"200\">\n                    <p><span class=\"greenText\">Good choice!</span>  This bee would have stung you.<br>Your bonus pay is unchanged, and remains at $0.88.</p>\n            ","response":0,"trial_type":"html-button-response","trial_index":94,"time_elapsed":389854,"internal_node_id":"0.0-4.0-1.41","subject_id":"6041432b35b371016982aba7","study_id":"6197b3f67c2b5cd3b6d9596a","session_id":"619be31e1b6d08566648fc5e","condition":"full-information","relevant_dimensions":["pattern","legs"],"bee_group":{"antennae":"X","wings":"X","pattern":"S","legs":"M"},"bonus":1.0000000000000007},{"rt":1601,"stimulus":"bees-with-color/bee-B2SF.svg","response":1,"trial_type":"image-button-response","trial_index":95,"time_elapsed":391457,"internal_node_id":"0.0-4.0-0.42","subject_id":"6041432b35b371016982aba7","study_id":"6197b3f67c2b5cd3b6d9596a","session_id":"619be31e1b6d08566648fc5e","condition":"full-information","relevant_dimensions":["pattern","legs"],"bee_group":{"antennae":"X","wings":"X","pattern":"S","legs":"M"},"action":"avoid","summary":"bad-avoid","bonus":1.0000000000000007},{"rt":1007.9999999999418,"stimulus":"\n                    <p><b>Action: <em>avoid</em></b></p>\n                    <p>This is the bee that you just saw.</p>\n                    <img src=\"bees-with-color/bee-B2SF.svg\" width=\"200\">\n                    <p><span class=\"redText\">Bad choice,</span> the bee was friendly.<br>Your bonus pay is unchanged, and remains at $0.88.</p>\n            ","response":0,"trial_type":"html-button-response","trial_index":96,"time_elapsed":392467,"internal_node_id":"0.0-4.0-1.42","subject_id":"6041432b35b371016982aba7","study_id":"6197b3f67c2b5cd3b6d9596a","session_id":"619be31e1b6d08566648fc5e","condition":"full-information","relevant_dimensions":["pattern","legs"],"bee_group":{"antennae":"X","wings":"X","pattern":"S","legs":"M"},"bonus":1.0000000000000007},{"rt":1574,"stimulus":"bees-with-color/bee-B2DM.svg","response":1,"trial_type":"image-button-response","trial_index":97,"time_elapsed":394043,"internal_node_id":"0.0-4.0-0.43","subject_id":"6041432b35b371016982aba7","study_id":"6197b3f67c2b5cd3b6d9596a","session_id":"619be31e1b6d08566648fc5e","condition":"full-information","relevant_dimensions":["pattern","legs"],"bee_group":{"antennae":"X","wings":"X","pattern":"S","legs":"M"},"action":"avoid","summary":"bad-avoid","bonus":1.0000000000000007},{"rt":993,"stimulus":"\n                    <p><b>Action: <em>avoid</em></b></p>\n                    <p>This is the bee that you just saw.</p>\n                    <img src=\"bees-with-color/bee-B2DM.svg\" width=\"200\">\n                    <p><span class=\"redText\">Bad choice,</span> the bee was friendly.<br>Your bonus pay is unchanged, and remains at $0.88.</p>\n            ","response":0,"trial_type":"html-button-response","trial_index":98,"time_elapsed":395037,"internal_node_id":"0.0-4.0-1.43","subject_id":"6041432b35b371016982aba7","study_id":"6197b3f67c2b5cd3b6d9596a","session_id":"619be31e1b6d08566648fc5e","condition":"full-information","relevant_dimensions":["pattern","legs"],"bee_group":{"antennae":"X","wings":"X","pattern":"S","legs":"M"},"bonus":1.0000000000000007},{"rt":2519,"stimulus":"bees-with-color/bee-B1DM.svg","response":1,"trial_type":"image-button-response","trial_index":99,"time_elapsed":397558,"internal_node_id":"0.0-4.0-0.44","subject_id":"6041432b35b371016982aba7","study_id":"6197b3f67c2b5cd3b6d9596a","session_id":"619be31e1b6d08566648fc5e","condition":"full-information","relevant_dimensions":["pattern","legs"],"bee_group":{"antennae":"X","wings":"X","pattern":"S","legs":"M"},"action":"avoid","summary":"bad-avoid","bonus":1.0000000000000007},{"rt":1031.9999999999418,"stimulus":"\n                    <p><b>Action: <em>avoid</em></b></p>\n                    <p>This is the bee that you just saw.</p>\n                    <img src=\"bees-with-color/bee-B1DM.svg\" width=\"200\">\n                    <p><span class=\"redText\">Bad choice,</span> the bee was friendly.<br>Your bonus pay is unchanged, and remains at $0.88.</p>\n            ","response":0,"trial_type":"html-button-response","trial_index":100,"time_elapsed":398592,"internal_node_id":"0.0-4.0-1.44","subject_id":"6041432b35b371016982aba7","study_id":"6197b3f67c2b5cd3b6d9596a","session_id":"619be31e1b6d08566648fc5e","condition":"full-information","relevant_dimensions":["pattern","legs"],"bee_group":{"antennae":"X","wings":"X","pattern":"S","legs":"M"},"bonus":1.0000000000000007},{"rt":1249,"stimulus":"bees-with-color/bee-A2SM.svg","response":1,"trial_type":"image-button-response","trial_index":101,"time_elapsed":399843,"internal_node_id":"0.0-4.0-0.45","subject_id":"6041432b35b371016982aba7","study_id":"6197b3f67c2b5cd3b6d9596a","session_id":"619be31e1b6d08566648fc5e","condition":"full-information","relevant_dimensions":["pattern","legs"],"bee_group":{"antennae":"X","wings":"X","pattern":"S","legs":"M"},"action":"avoid","summary":"good-avoid","bonus":1.0000000000000007},{"rt":841.0000000000582,"stimulus":"\n                    <p><b>Action: <em>avoid</em></b></p>\n                    <p>This is the bee that you just saw.</p>\n                    <img src=\"bees-with-color/bee-A2SM.svg\" width=\"200\">\n                    <p><span class=\"greenText\">Good choice!</span>  This bee would have stung you.<br>Your bonus pay is unchanged, and remains at $0.88.</p>\n            ","response":0,"trial_type":"html-button-response","trial_index":102,"time_elapsed":400685,"internal_node_id":"0.0-4.0-1.45","subject_id":"6041432b35b371016982aba7","study_id":"6197b3f67c2b5cd3b6d9596a","session_id":"619be31e1b6d08566648fc5e","condition":"full-information","relevant_dimensions":["pattern","legs"],"bee_group":{"antennae":"X","wings":"X","pattern":"S","legs":"M"},"bonus":1.0000000000000007},{"rt":1108,"stimulus":"bees-with-color/bee-A1DM.svg","response":0,"trial_type":"image-button-response","trial_index":103,"time_elapsed":401795,"internal_node_id":"0.0-4.0-0.46","subject_id":"6041432b35b371016982aba7","study_id":"6197b3f67c2b5cd3b6d9596a","session_id":"619be31e1b6d08566648fc5e","condition":"full-information","relevant_dimensions":["pattern","legs"],"bee_group":{"antennae":"X","wings":"X","pattern":"S","legs":"M"},"action":"harvest","summary":"good-harvest","bonus":1.0000000000000007},{"rt":1025.0000000000582,"stimulus":"\n                    <p><b>Action: <em>harvest</em></b></p>\n                    <p>This is the bee that you just saw.</p>\n                    <img src=\"bees-with-color/bee-A1DM.svg\" width=\"200\">\n                    <p><span class=\"greenText\"><b>Successful harvest!</b></span><br>Your pay has increased by $0.02. Your bonus pay is now $0.90.</p>\n            ","response":0,"trial_type":"html-button-response","trial_index":104,"time_elapsed":402822,"internal_node_id":"0.0-4.0-1.46","subject_id":"6041432b35b371016982aba7","study_id":"6197b3f67c2b5cd3b6d9596a","session_id":"619be31e1b6d08566648fc5e","condition":"full-information","relevant_dimensions":["pattern","legs"],"bee_group":{"antennae":"X","wings":"X","pattern":"S","legs":"M"},"bonus":1.0000000000000007},{"rt":3104,"stimulus":"bees-with-color/bee-A2SF.svg","response":1,"trial_type":"image-button-response","trial_index":105,"time_elapsed":405927,"internal_node_id":"0.0-4.0-0.47","subject_id":"6041432b35b371016982aba7","study_id":"6197b3f67c2b5cd3b6d9596a","session_id":"619be31e1b6d08566648fc5e","condition":"full-information","relevant_dimensions":["pattern","legs"],"bee_group":{"antennae":"X","wings":"X","pattern":"S","legs":"M"},"action":"avoid","summary":"bad-avoid","bonus":1.0000000000000007},{"rt":1081,"stimulus":"\n                    <p><b>Action: <em>avoid</em></b></p>\n                    <p>This is the bee that you just saw.</p>\n                    <img src=\"bees-with-color/bee-A2SF.svg\" width=\"200\">\n                    <p><span class=\"redText\">Bad choice,</span> the bee was friendly.<br>Your bonus pay is unchanged, and remains at $0.90.</p>\n            ","response":0,"trial_type":"html-button-response","trial_index":106,"time_elapsed":407010,"internal_node_id":"0.0-4.0-1.47","subject_id":"6041432b35b371016982aba7","study_id":"6197b3f67c2b5cd3b6d9596a","session_id":"619be31e1b6d08566648fc5e","condition":"full-information","relevant_dimensions":["pattern","legs"],"bee_group":{"antennae":"X","wings":"X","pattern":"S","legs":"M"},"bonus":1.0000000000000007},{"rt":4283,"stimulus":"bees-with-color/bee-A2SF.svg","response":0,"trial_type":"image-button-response","trial_index":107,"time_elapsed":411294,"internal_node_id":"0.0-4.0-0.48","subject_id":"6041432b35b371016982aba7","study_id":"6197b3f67c2b5cd3b6d9596a","session_id":"619be31e1b6d08566648fc5e","condition":"full-information","relevant_dimensions":["pattern","legs"],"bee_group":{"antennae":"X","wings":"X","pattern":"S","legs":"M"},"action":"harvest","summary":"good-harvest","bonus":1.0000000000000007},{"rt":1201,"stimulus":"\n                    <p><b>Action: <em>harvest</em></b></p>\n                    <p>This is the bee that you just saw.</p>\n                    <img src=\"bees-with-color/bee-A2SF.svg\" width=\"200\">\n                    <p><span class=\"greenText\"><b>Successful harvest!</b></span><br>Your pay has increased by $0.02. Your bonus pay is now $0.92.</p>\n            ","response":0,"trial_type":"html-button-response","trial_index":108,"time_elapsed":412497,"internal_node_id":"0.0-4.0-1.48","subject_id":"6041432b35b371016982aba7","study_id":"6197b3f67c2b5cd3b6d9596a","session_id":"619be31e1b6d08566648fc5e","condition":"full-information","relevant_dimensions":["pattern","legs"],"bee_group":{"antennae":"X","wings":"X","pattern":"S","legs":"M"},"bonus":1.0000000000000007},{"rt":1462,"stimulus":"bees-with-color/bee-B2DF.svg","response":0,"trial_type":"image-button-response","trial_index":109,"time_elapsed":413960,"internal_node_id":"0.0-4.0-0.49","subject_id":"6041432b35b371016982aba7","study_id":"6197b3f67c2b5cd3b6d9596a","session_id":"619be31e1b6d08566648fc5e","condition":"full-information","relevant_dimensions":["pattern","legs"],"bee_group":{"antennae":"X","wings":"X","pattern":"S","legs":"M"},"action":"harvest","summary":"good-harvest","bonus":1.0000000000000007},{"rt":1080,"stimulus":"\n                    <p><b>Action: <em>harvest</em></b></p>\n                    <p>This is the bee that you just saw.</p>\n                    <img src=\"bees-with-color/bee-B2DF.svg\" width=\"200\">\n                    <p><span class=\"greenText\"><b>Successful harvest!</b></span><br>Your pay has increased by $0.02. Your bonus pay is now $0.94.</p>\n            ","response":0,"trial_type":"html-button-response","trial_index":110,"time_elapsed":415042,"internal_node_id":"0.0-4.0-1.49","subject_id":"6041432b35b371016982aba7","study_id":"6197b3f67c2b5cd3b6d9596a","session_id":"619be31e1b6d08566648fc5e","condition":"full-information","relevant_dimensions":["pattern","legs"],"bee_group":{"antennae":"X","wings":"X","pattern":"S","legs":"M"},"bonus":1.0000000000000007},{"rt":1714,"stimulus":"bees-with-color/bee-B2SM.svg","response":1,"trial_type":"image-button-response","trial_index":111,"time_elapsed":416758,"internal_node_id":"0.0-4.0-0.50","subject_id":"6041432b35b371016982aba7","study_id":"6197b3f67c2b5cd3b6d9596a","session_id":"619be31e1b6d08566648fc5e","condition":"full-information","relevant_dimensions":["pattern","legs"],"bee_group":{"antennae":"X","wings":"X","pattern":"S","legs":"M"},"action":"avoid","summary":"good-avoid","bonus":1.0000000000000007},{"rt":937,"stimulus":"\n                    <p><b>Action: <em>avoid</em></b></p>\n                    <p>This is the bee that you just saw.</p>\n                    <img src=\"bees-with-color/bee-B2SM.svg\" width=\"200\">\n                    <p><span class=\"greenText\">Good choice!</span>  This bee would have stung you.<br>Your bonus pay is unchanged, and remains at $0.94.</p>\n            ","response":0,"trial_type":"html-button-response","trial_index":112,"time_elapsed":417696,"internal_node_id":"0.0-4.0-1.50","subject_id":"6041432b35b371016982aba7","study_id":"6197b3f67c2b5cd3b6d9596a","session_id":"619be31e1b6d08566648fc5e","condition":"full-information","relevant_dimensions":["pattern","legs"],"bee_group":{"antennae":"X","wings":"X","pattern":"S","legs":"M"},"bonus":1.0000000000000007},{"rt":1469.9999999999418,"stimulus":"bees-with-color/bee-A2SM.svg","response":1,"trial_type":"image-button-response","trial_index":113,"time_elapsed":419168,"internal_node_id":"0.0-4.0-0.51","subject_id":"6041432b35b371016982aba7","study_id":"6197b3f67c2b5cd3b6d9596a","session_id":"619be31e1b6d08566648fc5e","condition":"full-information","relevant_dimensions":["pattern","legs"],"bee_group":{"antennae":"X","wings":"X","pattern":"S","legs":"M"},"action":"avoid","summary":"good-avoid","bonus":1.0000000000000007},{"rt":936,"stimulus":"\n                    <p><b>Action: <em>avoid</em></b></p>\n                    <p>This is the bee that you just saw.</p>\n                    <img src=\"bees-with-color/bee-A2SM.svg\" width=\"200\">\n                    <p><span class=\"greenText\">Good choice!</span>  This bee would have stung you.<br>Your bonus pay is unchanged, and remains at $0.94.</p>\n            ","response":0,"trial_type":"html-button-response","trial_index":114,"time_elapsed":420106,"internal_node_id":"0.0-4.0-1.51","subject_id":"6041432b35b371016982aba7","study_id":"6197b3f67c2b5cd3b6d9596a","session_id":"619be31e1b6d08566648fc5e","condition":"full-information","relevant_dimensions":["pattern","legs"],"bee_group":{"antennae":"X","wings":"X","pattern":"S","legs":"M"},"bonus":1.0000000000000007},{"rt":2671,"stimulus":"bees-with-color/bee-B1DF.svg","response":0,"trial_type":"image-button-response","trial_index":115,"time_elapsed":422779,"internal_node_id":"0.0-4.0-0.52","subject_id":"6041432b35b371016982aba7","study_id":"6197b3f67c2b5cd3b6d9596a","session_id":"619be31e1b6d08566648fc5e","condition":"full-information","relevant_dimensions":["pattern","legs"],"bee_group":{"antennae":"X","wings":"X","pattern":"S","legs":"M"},"action":"harvest","summary":"good-harvest","bonus":1.0000000000000007},{"rt":936,"stimulus":"\n                    <p><b>Action: <em>harvest</em></b></p>\n                    <p>This is the bee that you just saw.</p>\n                    <img src=\"bees-with-color/bee-B1DF.svg\" width=\"200\">\n                    <p><span class=\"greenText\"><b>Successful harvest!</b></span><br>Your pay has increased by $0.02. Your bonus pay is now $0.96.</p>\n            ","response":0,"trial_type":"html-button-response","trial_index":116,"time_elapsed":423717,"internal_node_id":"0.0-4.0-1.52","subject_id":"6041432b35b371016982aba7","study_id":"6197b3f67c2b5cd3b6d9596a","session_id":"619be31e1b6d08566648fc5e","condition":"full-information","relevant_dimensions":["pattern","legs"],"bee_group":{"antennae":"X","wings":"X","pattern":"S","legs":"M"},"bonus":1.0000000000000007},{"rt":1674,"stimulus":"bees-with-color/bee-A1DM.svg","response":0,"trial_type":"image-button-response","trial_index":117,"time_elapsed":425392,"internal_node_id":"0.0-4.0-0.53","subject_id":"6041432b35b371016982aba7","study_id":"6197b3f67c2b5cd3b6d9596a","session_id":"619be31e1b6d08566648fc5e","condition":"full-information","relevant_dimensions":["pattern","legs"],"bee_group":{"antennae":"X","wings":"X","pattern":"S","legs":"M"},"action":"harvest","summary":"good-harvest","bonus":1.0000000000000007},{"rt":1141,"stimulus":"\n                    <p><b>Action: <em>harvest</em></b></p>\n                    <p>This is the bee that you just saw.</p>\n                    <img src=\"bees-with-color/bee-A1DM.svg\" width=\"200\">\n                    <p><span class=\"greenText\"><b>Successful harvest!</b></span><br>Your pay has increased by $0.02. Your bonus pay is now $0.98.</p>\n            ","response":0,"trial_type":"html-button-response","trial_index":118,"time_elapsed":426534,"internal_node_id":"0.0-4.0-1.53","subject_id":"6041432b35b371016982aba7","study_id":"6197b3f67c2b5cd3b6d9596a","session_id":"619be31e1b6d08566648fc5e","condition":"full-information","relevant_dimensions":["pattern","legs"],"bee_group":{"antennae":"X","wings":"X","pattern":"S","legs":"M"},"bonus":1.0000000000000007},{"rt":2044,"stimulus":"bees-with-color/bee-A1DF.svg","response":0,"trial_type":"image-button-response","trial_index":119,"time_elapsed":428579,"internal_node_id":"0.0-4.0-0.54","subject_id":"6041432b35b371016982aba7","study_id":"6197b3f67c2b5cd3b6d9596a","session_id":"619be31e1b6d08566648fc5e","condition":"full-information","relevant_dimensions":["pattern","legs"],"bee_group":{"antennae":"X","wings":"X","pattern":"S","legs":"M"},"action":"harvest","summary":"good-harvest","bonus":1.0000000000000007},{"rt":873,"stimulus":"\n                    <p><b>Action: <em>harvest</em></b></p>\n                    <p>This is the bee that you just saw.</p>\n                    <img src=\"bees-with-color/bee-A1DF.svg\" width=\"200\">\n                    <p><span class=\"greenText\"><b>Successful harvest!</b></span><br>Your pay has increased by $0.02. Your bonus pay is now $1.00.</p>\n            ","response":0,"trial_type":"html-button-response","trial_index":120,"time_elapsed":429453,"internal_node_id":"0.0-4.0-1.54","subject_id":"6041432b35b371016982aba7","study_id":"6197b3f67c2b5cd3b6d9596a","session_id":"619be31e1b6d08566648fc5e","condition":"full-information","relevant_dimensions":["pattern","legs"],"bee_group":{"antennae":"X","wings":"X","pattern":"S","legs":"M"},"bonus":1.0000000000000007},{"rt":2246,"stimulus":"bees-with-color/bee-B2DM.svg","response":1,"trial_type":"image-button-response","trial_index":121,"time_elapsed":431701,"internal_node_id":"0.0-4.0-0.55","subject_id":"6041432b35b371016982aba7","study_id":"6197b3f67c2b5cd3b6d9596a","session_id":"619be31e1b6d08566648fc5e","condition":"full-information","relevant_dimensions":["pattern","legs"],"bee_group":{"antennae":"X","wings":"X","pattern":"S","legs":"M"},"action":"avoid","summary":"bad-avoid","bonus":1.0000000000000007},{"rt":889,"stimulus":"\n                    <p><b>Action: <em>avoid</em></b></p>\n                    <p>This is the bee that you just saw.</p>\n                    <img src=\"bees-with-color/bee-B2DM.svg\" width=\"200\">\n                    <p><span class=\"redText\">Bad choice,</span> the bee was friendly.<br>Your bonus pay is unchanged, and remains at $1.00.</p>\n            ","response":0,"trial_type":"html-button-response","trial_index":122,"time_elapsed":432592,"internal_node_id":"0.0-4.0-1.55","subject_id":"6041432b35b371016982aba7","study_id":"6197b3f67c2b5cd3b6d9596a","session_id":"619be31e1b6d08566648fc5e","condition":"full-information","relevant_dimensions":["pattern","legs"],"bee_group":{"antennae":"X","wings":"X","pattern":"S","legs":"M"},"bonus":1.0000000000000007},{"rt":1375,"stimulus":"bees-with-color/bee-B2SF.svg","response":0,"trial_type":"image-button-response","trial_index":123,"time_elapsed":433969,"internal_node_id":"0.0-4.0-0.56","subject_id":"6041432b35b371016982aba7","study_id":"6197b3f67c2b5cd3b6d9596a","session_id":"619be31e1b6d08566648fc5e","condition":"full-information","relevant_dimensions":["pattern","legs"],"bee_group":{"antennae":"X","wings":"X","pattern":"S","legs":"M"},"action":"harvest","summary":"good-harvest","bonus":1.0000000000000007},{"rt":985,"stimulus":"\n                    <p><b>Action: <em>harvest</em></b></p>\n                    <p>This is the bee that you just saw.</p>\n                    <img src=\"bees-with-color/bee-B2SF.svg\" width=\"200\">\n                    <p><span class=\"greenText\"><b>Successful harvest!</b></span><br>Your pay has increased by $0.02. Your bonus pay is now $1.02.</p>\n            ","response":0,"trial_type":"html-button-response","trial_index":124,"time_elapsed":434956,"internal_node_id":"0.0-4.0-1.56","subject_id":"6041432b35b371016982aba7","study_id":"6197b3f67c2b5cd3b6d9596a","session_id":"619be31e1b6d08566648fc5e","condition":"full-information","relevant_dimensions":["pattern","legs"],"bee_group":{"antennae":"X","wings":"X","pattern":"S","legs":"M"},"bonus":1.0000000000000007},{"rt":1654,"stimulus":"bees-with-color/bee-A2DF.svg","response":0,"trial_type":"image-button-response","trial_index":125,"time_elapsed":436611,"internal_node_id":"0.0-4.0-0.57","subject_id":"6041432b35b371016982aba7","study_id":"6197b3f67c2b5cd3b6d9596a","session_id":"619be31e1b6d08566648fc5e","condition":"full-information","relevant_dimensions":["pattern","legs"],"bee_group":{"antennae":"X","wings":"X","pattern":"S","legs":"M"},"action":"harvest","summary":"good-harvest","bonus":1.0000000000000007},{"rt":1049.0000000000582,"stimulus":"\n                    <p><b>Action: <em>harvest</em></b></p>\n                    <p>This is the bee that you just saw.</p>\n                    <img src=\"bees-with-color/bee-A2DF.svg\" width=\"200\">\n                    <p><span class=\"greenText\"><b>Successful harvest!</b></span><br>Your pay has increased by $0.02. Your bonus pay is now $1.04.</p>\n            ","response":0,"trial_type":"html-button-response","trial_index":126,"time_elapsed":437662,"internal_node_id":"0.0-4.0-1.57","subject_id":"6041432b35b371016982aba7","study_id":"6197b3f67c2b5cd3b6d9596a","session_id":"619be31e1b6d08566648fc5e","condition":"full-information","relevant_dimensions":["pattern","legs"],"bee_group":{"antennae":"X","wings":"X","pattern":"S","legs":"M"},"bonus":1.0000000000000007},{"rt":2275,"stimulus":"bees-with-color/bee-B1SM.svg","response":0,"trial_type":"image-button-response","trial_index":127,"time_elapsed":439938,"internal_node_id":"0.0-4.0-0.58","subject_id":"6041432b35b371016982aba7","study_id":"6197b3f67c2b5cd3b6d9596a","session_id":"619be31e1b6d08566648fc5e","condition":"full-information","relevant_dimensions":["pattern","legs"],"bee_group":{"antennae":"X","wings":"X","pattern":"S","legs":"M"},"action":"harvest","summary":"bad-harvest","bonus":1.0000000000000007},{"rt":1533,"stimulus":"\n                    <p><b>Action: <em>harvest</em></b></p>\n                    <p>This is the bee that you just saw.</p>\n                    <img src=\"bees-with-color/bee-B1SM.svg\" width=\"200\">\n                    <p><span class=\"redText\">Bad choice, the bee was angry.</span><br><b>You have been stung!</b><br>Your pay has been decreased by $0.10. Your bonus pay is now $0.94.</p>\n            ","response":0,"trial_type":"html-button-response","trial_index":128,"time_elapsed":441473,"internal_node_id":"0.0-4.0-1.58","subject_id":"6041432b35b371016982aba7","study_id":"6197b3f67c2b5cd3b6d9596a","session_id":"619be31e1b6d08566648fc5e","condition":"full-information","relevant_dimensions":["pattern","legs"],"bee_group":{"antennae":"X","wings":"X","pattern":"S","legs":"M"},"bonus":1.0000000000000007},{"rt":1377.0000000000582,"stimulus":"bees-with-color/bee-B1DM.svg","response":0,"trial_type":"image-button-response","trial_index":129,"time_elapsed":442852,"internal_node_id":"0.0-4.0-0.59","subject_id":"6041432b35b371016982aba7","study_id":"6197b3f67c2b5cd3b6d9596a","session_id":"619be31e1b6d08566648fc5e","condition":"full-information","relevant_dimensions":["pattern","legs"],"bee_group":{"antennae":"X","wings":"X","pattern":"S","legs":"M"},"action":"harvest","summary":"good-harvest","bonus":1.0000000000000007},{"rt":984,"stimulus":"\n                    <p><b>Action: <em>harvest</em></b></p>\n                    <p>This is the bee that you just saw.</p>\n                    <img src=\"bees-with-color/bee-B1DM.svg\" width=\"200\">\n                    <p><span class=\"greenText\"><b>Successful harvest!</b></span><br>Your pay has increased by $0.02. Your bonus pay is now $0.96.</p>\n            ","response":0,"trial_type":"html-button-response","trial_index":130,"time_elapsed":443838,"internal_node_id":"0.0-4.0-1.59","subject_id":"6041432b35b371016982aba7","study_id":"6197b3f67c2b5cd3b6d9596a","session_id":"619be31e1b6d08566648fc5e","condition":"full-information","relevant_dimensions":["pattern","legs"],"bee_group":{"antennae":"X","wings":"X","pattern":"S","legs":"M"},"bonus":1.0000000000000007},{"rt":1436.9999999999418,"stimulus":"bees-with-color/bee-A1SF.svg","response":0,"trial_type":"image-button-response","trial_index":131,"time_elapsed":445277,"internal_node_id":"0.0-4.0-0.60","subject_id":"6041432b35b371016982aba7","study_id":"6197b3f67c2b5cd3b6d9596a","session_id":"619be31e1b6d08566648fc5e","condition":"full-information","relevant_dimensions":["pattern","legs"],"bee_group":{"antennae":"X","wings":"X","pattern":"S","legs":"M"},"action":"harvest","summary":"good-harvest","bonus":1.0000000000000007},{"rt":888,"stimulus":"\n                    <p><b>Action: <em>harvest</em></b></p>\n                    <p>This is the bee that you just saw.</p>\n                    <img src=\"bees-with-color/bee-A1SF.svg\" width=\"200\">\n                    <p><span class=\"greenText\"><b>Successful harvest!</b></span><br>Your pay has increased by $0.02. Your bonus pay is now $0.98.</p>\n            ","response":0,"trial_type":"html-button-response","trial_index":132,"time_elapsed":446167,"internal_node_id":"0.0-4.0-1.60","subject_id":"6041432b35b371016982aba7","study_id":"6197b3f67c2b5cd3b6d9596a","session_id":"619be31e1b6d08566648fc5e","condition":"full-information","relevant_dimensions":["pattern","legs"],"bee_group":{"antennae":"X","wings":"X","pattern":"S","legs":"M"},"bonus":1.0000000000000007},{"rt":2306.999999999942,"stimulus":"bees-with-color/bee-A2DM.svg","response":1,"trial_type":"image-button-response","trial_index":133,"time_elapsed":448476,"internal_node_id":"0.0-4.0-0.61","subject_id":"6041432b35b371016982aba7","study_id":"6197b3f67c2b5cd3b6d9596a","session_id":"619be31e1b6d08566648fc5e","condition":"full-information","relevant_dimensions":["pattern","legs"],"bee_group":{"antennae":"X","wings":"X","pattern":"S","legs":"M"},"action":"avoid","summary":"bad-avoid","bonus":1.0000000000000007},{"rt":1205.9999999999418,"stimulus":"\n                    <p><b>Action: <em>avoid</em></b></p>\n                    <p>This is the bee that you just saw.</p>\n                    <img src=\"bees-with-color/bee-A2DM.svg\" width=\"200\">\n                    <p><span class=\"redText\">Bad choice,</span> the bee was friendly.<br>Your bonus pay is unchanged, and remains at $0.98.</p>\n            ","response":0,"trial_type":"html-button-response","trial_index":134,"time_elapsed":449683,"internal_node_id":"0.0-4.0-1.61","subject_id":"6041432b35b371016982aba7","study_id":"6197b3f67c2b5cd3b6d9596a","session_id":"619be31e1b6d08566648fc5e","condition":"full-information","relevant_dimensions":["pattern","legs"],"bee_group":{"antennae":"X","wings":"X","pattern":"S","legs":"M"},"bonus":1.0000000000000007},{"rt":1425.0000000000582,"stimulus":"bees-with-color/bee-A1SM.svg","response":1,"trial_type":"image-button-response","trial_index":135,"time_elapsed":451110,"internal_node_id":"0.0-4.0-0.62","subject_id":"6041432b35b371016982aba7","study_id":"6197b3f67c2b5cd3b6d9596a","session_id":"619be31e1b6d08566648fc5e","condition":"full-information","relevant_dimensions":["pattern","legs"],"bee_group":{"antennae":"X","wings":"X","pattern":"S","legs":"M"},"action":"avoid","summary":"good-avoid","bonus":1.0000000000000007},{"rt":801.0000000000582,"stimulus":"\n                    <p><b>Action: <em>avoid</em></b></p>\n                    <p>This is the bee that you just saw.</p>\n                    <img src=\"bees-with-color/bee-A1SM.svg\" width=\"200\">\n                    <p><span class=\"greenText\">Good choice!</span>  This bee would have stung you.<br>Your bonus pay is unchanged, and remains at $0.98.</p>\n            ","response":0,"trial_type":"html-button-response","trial_index":136,"time_elapsed":451912,"internal_node_id":"0.0-4.0-1.62","subject_id":"6041432b35b371016982aba7","study_id":"6197b3f67c2b5cd3b6d9596a","session_id":"619be31e1b6d08566648fc5e","condition":"full-information","relevant_dimensions":["pattern","legs"],"bee_group":{"antennae":"X","wings":"X","pattern":"S","legs":"M"},"bonus":1.0000000000000007},{"rt":1646,"stimulus":"bees-with-color/bee-B1SF.svg","response":0,"trial_type":"image-button-response","trial_index":137,"time_elapsed":453559,"internal_node_id":"0.0-4.0-0.63","subject_id":"6041432b35b371016982aba7","study_id":"6197b3f67c2b5cd3b6d9596a","session_id":"619be31e1b6d08566648fc5e","condition":"full-information","relevant_dimensions":["pattern","legs"],"bee_group":{"antennae":"X","wings":"X","pattern":"S","legs":"M"},"action":"harvest","summary":"good-harvest","bonus":1.0000000000000007},{"rt":993,"stimulus":"\n                    <p><b>Action: <em>harvest</em></b></p>\n                    <p>This is the bee that you just saw.</p>\n                    <img src=\"bees-with-color/bee-B1SF.svg\" width=\"200\">\n                    <p><span class=\"greenText\"><b>Successful harvest!</b></span><br>Your pay has increased by $0.02. Your bonus pay is now $1.00.</p>\n            ","response":0,"trial_type":"html-button-response","trial_index":138,"time_elapsed":454554,"internal_node_id":"0.0-4.0-1.63","subject_id":"6041432b35b371016982aba7","study_id":"6197b3f67c2b5cd3b6d9596a","session_id":"619be31e1b6d08566648fc5e","condition":"full-information","relevant_dimensions":["pattern","legs"],"bee_group":{"antennae":"X","wings":"X","pattern":"S","legs":"M"},"bonus":1.0000000000000007},{"rt":8935,"stimulus":"You have completed the first part of this experiment.<br><br>You will now begin a shorter second part, in which you will receive no feedback.<br>The same rules regarding bonus pay apply.<br><br>Press any key to begin.","response":" ","trial_type":"html-keyboard-response","trial_index":139,"time_elapsed":463492,"internal_node_id":"0.0-5.0","subject_id":"6041432b35b371016982aba7","study_id":"6197b3f67c2b5cd3b6d9596a","session_id":"619be31e1b6d08566648fc5e","condition":"full-information","relevant_dimensions":["pattern","legs"],"bee_group":{"antennae":"X","wings":"X","pattern":"S","legs":"M"},"bonus":1.0000000000000007},{"rt":6428,"stimulus":"bees-with-color/bee-A2SF.svg","response":1,"trial_type":"image-button-response","trial_index":140,"time_elapsed":469933,"internal_node_id":"0.0-6.0-0.0","subject_id":"6041432b35b371016982aba7","study_id":"6197b3f67c2b5cd3b6d9596a","session_id":"619be31e1b6d08566648fc5e","condition":"full-information","relevant_dimensions":["pattern","legs"],"bee_group":{"antennae":"X","wings":"X","pattern":"S","legs":"M"},"bonus":1.0000000000000007},{"rt":536,"stimulus":"bees-with-color/bee-A2DF.svg","response":1,"trial_type":"image-button-response","trial_index":141,"time_elapsed":470473,"internal_node_id":"0.0-6.0-0.1","subject_id":"6041432b35b371016982aba7","study_id":"6197b3f67c2b5cd3b6d9596a","session_id":"619be31e1b6d08566648fc5e","condition":"full-information","relevant_dimensions":["pattern","legs"],"bee_group":{"antennae":"X","wings":"X","pattern":"S","legs":"M"},"bonus":1.0000000000000007},{"rt":295,"stimulus":"bees-with-color/bee-A1DM.svg","response":1,"trial_type":"image-button-response","trial_index":142,"time_elapsed":470772,"internal_node_id":"0.0-6.0-0.2","subject_id":"6041432b35b371016982aba7","study_id":"6197b3f67c2b5cd3b6d9596a","session_id":"619be31e1b6d08566648fc5e","condition":"full-information","relevant_dimensions":["pattern","legs"],"bee_group":{"antennae":"X","wings":"X","pattern":"S","legs":"M"},"bonus":1.0000000000000007},{"rt":132,"stimulus":"bees-with-color/bee-B1DF.svg","response":1,"trial_type":"image-button-response","trial_index":143,"time_elapsed":470906,"internal_node_id":"0.0-6.0-0.3","subject_id":"6041432b35b371016982aba7","study_id":"6197b3f67c2b5cd3b6d9596a","session_id":"619be31e1b6d08566648fc5e","condition":"full-information","relevant_dimensions":["pattern","legs"],"bee_group":{"antennae":"X","wings":"X","pattern":"S","legs":"M"},"bonus":1.0000000000000007},{"rt":174,"stimulus":"bees-with-color/bee-B2DM.svg","response":1,"trial_type":"image-button-response","trial_index":144,"time_elapsed":471083,"internal_node_id":"0.0-6.0-0.4","subject_id":"6041432b35b371016982aba7","study_id":"6197b3f67c2b5cd3b6d9596a","session_id":"619be31e1b6d08566648fc5e","condition":"full-information","relevant_dimensions":["pattern","legs"],"bee_group":{"antennae":"X","wings":"X","pattern":"S","legs":"M"},"bonus":1.0000000000000007},{"rt":150.9999999999418,"stimulus":"bees-with-color/bee-A1SF.svg","response":1,"trial_type":"image-button-response","trial_index":145,"time_elapsed":471237,"internal_node_id":"0.0-6.0-0.5","subject_id":"6041432b35b371016982aba7","study_id":"6197b3f67c2b5cd3b6d9596a","session_id":"619be31e1b6d08566648fc5e","condition":"full-information","relevant_dimensions":["pattern","legs"],"bee_group":{"antennae":"X","wings":"X","pattern":"S","legs":"M"},"bonus":1.0000000000000007},{"rt":133.0000000000582,"stimulus":"bees-with-color/bee-B2SM.svg","response":1,"trial_type":"image-button-response","trial_index":146,"time_elapsed":471372,"internal_node_id":"0.0-6.0-0.6","subject_id":"6041432b35b371016982aba7","study_id":"6197b3f67c2b5cd3b6d9596a","session_id":"619be31e1b6d08566648fc5e","condition":"full-information","relevant_dimensions":["pattern","legs"],"bee_group":{"antennae":"X","wings":"X","pattern":"S","legs":"M"},"bonus":1.0000000000000007},{"rt":149,"stimulus":"bees-with-color/bee-A1SM.svg","response":1,"trial_type":"image-button-response","trial_index":147,"time_elapsed":471523,"internal_node_id":"0.0-6.0-0.7","subject_id":"6041432b35b371016982aba7","study_id":"6197b3f67c2b5cd3b6d9596a","session_id":"619be31e1b6d08566648fc5e","condition":"full-information","relevant_dimensions":["pattern","legs"],"bee_group":{"antennae":"X","wings":"X","pattern":"S","legs":"M"},"bonus":1.0000000000000007},{"rt":158,"stimulus":"bees-with-color/bee-A2DM.svg","response":1,"trial_type":"image-button-response","trial_index":148,"time_elapsed":471684,"internal_node_id":"0.0-6.0-0.8","subject_id":"6041432b35b371016982aba7","study_id":"6197b3f67c2b5cd3b6d9596a","session_id":"619be31e1b6d08566648fc5e","condition":"full-information","relevant_dimensions":["pattern","legs"],"bee_group":{"antennae":"X","wings":"X","pattern":"S","legs":"M"},"bonus":1.0000000000000007},{"rt":150.9999999999418,"stimulus":"bees-with-color/bee-B2SF.svg","response":1,"trial_type":"image-button-response","trial_index":149,"time_elapsed":471838,"internal_node_id":"0.0-6.0-0.9","subject_id":"6041432b35b371016982aba7","study_id":"6197b3f67c2b5cd3b6d9596a","session_id":"619be31e1b6d08566648fc5e","condition":"full-information","relevant_dimensions":["pattern","legs"],"bee_group":{"antennae":"X","wings":"X","pattern":"S","legs":"M"},"bonus":1.0000000000000007},{"rt":140.9999999999418,"stimulus":"bees-with-color/bee-B1SM.svg","response":1,"trial_type":"image-button-response","trial_index":150,"time_elapsed":471982,"internal_node_id":"0.0-6.0-0.10","subject_id":"6041432b35b371016982aba7","study_id":"6197b3f67c2b5cd3b6d9596a","session_id":"619be31e1b6d08566648fc5e","condition":"full-information","relevant_dimensions":["pattern","legs"],"bee_group":{"antennae":"X","wings":"X","pattern":"S","legs":"M"},"bonus":1.0000000000000007},{"rt":155.9999999999418,"stimulus":"bees-with-color/bee-A1DF.svg","response":1,"trial_type":"image-button-response","trial_index":151,"time_elapsed":472141,"internal_node_id":"0.0-6.0-0.11","subject_id":"6041432b35b371016982aba7","study_id":"6197b3f67c2b5cd3b6d9596a","session_id":"619be31e1b6d08566648fc5e","condition":"full-information","relevant_dimensions":["pattern","legs"],"bee_group":{"antennae":"X","wings":"X","pattern":"S","legs":"M"},"bonus":1.0000000000000007},{"rt":166,"stimulus":"bees-with-color/bee-A2SM.svg","response":1,"trial_type":"image-button-response","trial_index":152,"time_elapsed":472310,"internal_node_id":"0.0-6.0-0.12","subject_id":"6041432b35b371016982aba7","study_id":"6197b3f67c2b5cd3b6d9596a","session_id":"619be31e1b6d08566648fc5e","condition":"full-information","relevant_dimensions":["pattern","legs"],"bee_group":{"antennae":"X","wings":"X","pattern":"S","legs":"M"},"bonus":1.0000000000000007},{"rt":159,"stimulus":"bees-with-color/bee-B1DM.svg","response":1,"trial_type":"image-button-response","trial_index":153,"time_elapsed":472472,"internal_node_id":"0.0-6.0-0.13","subject_id":"6041432b35b371016982aba7","study_id":"6197b3f67c2b5cd3b6d9596a","session_id":"619be31e1b6d08566648fc5e","condition":"full-information","relevant_dimensions":["pattern","legs"],"bee_group":{"antennae":"X","wings":"X","pattern":"S","legs":"M"},"bonus":1.0000000000000007},{"rt":141.0000000000582,"stimulus":"bees-with-color/bee-B1SF.svg","response":1,"trial_type":"image-button-response","trial_index":154,"time_elapsed":472615,"internal_node_id":"0.0-6.0-0.14","subject_id":"6041432b35b371016982aba7","study_id":"6197b3f67c2b5cd3b6d9596a","session_id":"619be31e1b6d08566648fc5e","condition":"full-information","relevant_dimensions":["pattern","legs"],"bee_group":{"antennae":"X","wings":"X","pattern":"S","legs":"M"},"bonus":1.0000000000000007},{"rt":182,"stimulus":"bees-with-color/bee-B2DF.svg","response":1,"trial_type":"image-button-response","trial_index":155,"time_elapsed":472799,"internal_node_id":"0.0-6.0-0.15","subject_id":"6041432b35b371016982aba7","study_id":"6197b3f67c2b5cd3b6d9596a","session_id":"619be31e1b6d08566648fc5e","condition":"full-information","relevant_dimensions":["pattern","legs"],"bee_group":{"antennae":"X","wings":"X","pattern":"S","legs":"M"},"bonus":1.0000000000000007},{"rt":150,"stimulus":"bees-with-color/bee-A1DF.svg","response":1,"trial_type":"image-button-response","trial_index":156,"time_elapsed":472951,"internal_node_id":"0.0-6.0-0.16","subject_id":"6041432b35b371016982aba7","study_id":"6197b3f67c2b5cd3b6d9596a","session_id":"619be31e1b6d08566648fc5e","condition":"full-information","relevant_dimensions":["pattern","legs"],"bee_group":{"antennae":"X","wings":"X","pattern":"S","legs":"M"},"bonus":1.0000000000000007},{"rt":158,"stimulus":"bees-with-color/bee-A2DM.svg","response":1,"trial_type":"image-button-response","trial_index":157,"time_elapsed":473111,"internal_node_id":"0.0-6.0-0.17","subject_id":"6041432b35b371016982aba7","study_id":"6197b3f67c2b5cd3b6d9596a","session_id":"619be31e1b6d08566648fc5e","condition":"full-information","relevant_dimensions":["pattern","legs"],"bee_group":{"antennae":"X","wings":"X","pattern":"S","legs":"M"},"bonus":1.0000000000000007},{"rt":166,"stimulus":"bees-with-color/bee-A1SM.svg","response":1,"trial_type":"image-button-response","trial_index":158,"time_elapsed":473280,"internal_node_id":"0.0-6.0-0.18","subject_id":"6041432b35b371016982aba7","study_id":"6197b3f67c2b5cd3b6d9596a","session_id":"619be31e1b6d08566648fc5e","condition":"full-information","relevant_dimensions":["pattern","legs"],"bee_group":{"antennae":"X","wings":"X","pattern":"S","legs":"M"},"bonus":1.0000000000000007},{"rt":150.0000000000582,"stimulus":"bees