[{"success":true,"trial_type":"fullscreen","trial_index":0,"time_elapsed":50185,"internal_node_id":"0.0-0.0","subject_id":"602bfa74abe14141ae89b2fe","study_id":"60edd13110225f80f9f3709b","session_id":"6196c6fbb16140caef902a47","condition":"full-information","relevant_dimensions":["pattern","legs"],"bee_group":{"antennae":"X","wings":"X","pattern":"S","legs":"M"},"bonus":1.520000000000001},{"success":true,"timeout":false,"failed_images":[],"failed_audio":[],"failed_video":[],"trial_type":"preload","trial_index":1,"time_elapsed":51557,"internal_node_id":"0.0-1.0","subject_id":"602bfa74abe14141ae89b2fe","study_id":"60edd13110225f80f9f3709b","session_id":"6196c6fbb16140caef902a47","condition":"full-information","relevant_dimensions":["pattern","legs"],"bee_group":{"antennae":"X","wings":"X","pattern":"S","legs":"M"},"bonus":1.520000000000001},{"rt":15371,"stimulus":"Welcome! Press any key to begin.","response":" ","trial_type":"html-keyboard-response","trial_index":2,"time_elapsed":66929,"internal_node_id":"0.0-2.0","subject_id":"602bfa74abe14141ae89b2fe","study_id":"60edd13110225f80f9f3709b","session_id":"6196c6fbb16140caef902a47","condition":"full-information","relevant_dimensions":["pattern","legs"],"bee_group":{"antennae":"X","wings":"X","pattern":"S","legs":"M"},"bonus":1.520000000000001},{"view_history":[{"page_index":0,"viewing_time":8683},{"page_index":1,"viewing_time":36256},{"page_index":2,"viewing_time":16240},{"page_index":3,"viewing_time":14152},{"page_index":4,"viewing_time":4327},{"page_index":5,"viewing_time":8721},{"page_index":6,"viewing_time":26855},{"page_index":7,"viewing_time":6480},{"page_index":8,"viewing_time":7704},{"page_index":9,"viewing_time":8624},{"page_index":10,"viewing_time":9193},{"page_index":9,"viewing_time":760},{"page_index":8,"viewing_time":936},{"page_index":7,"viewing_time":848},{"page_index":8,"viewing_time":328},{"page_index":9,"viewing_time":192},{"page_index":10,"viewing_time":200},{"page_index":11,"viewing_time":23280},{"page_index":12,"viewing_time":13103},{"page_index":13,"viewing_time":1521},{"page_index":14,"viewing_time":1984}],"rt":190387,"trial_type":"instructions","trial_index":3,"time_elapsed":257320,"internal_node_id":"0.0-3.0-0.0","subject_id":"602bfa74abe14141ae89b2fe","study_id":"60edd13110225f80f9f3709b","session_id":"6196c6fbb16140caef902a47","condition":"full-information","relevant_dimensions":["pattern","legs"],"bee_group":{"antennae":"X","wings":"X","pattern":"S","legs":"M"},"bonus":1.520000000000001},{"rt":14806,"response":{"Q0":["Two or six legs","Stripes or spots on body","Single or double wings","Antennae or no antennae"]},"question_order":[0],"trial_type":"survey-multi-select","trial_index":4,"time_elapsed":272129,"internal_node_id":"0.0-3.0-1.0","subject_id":"602bfa74abe14141ae89b2fe","study_id":"60edd13110225f80f9f3709b","session_id":"6196c6fbb16140caef902a47","condition":"full-information","relevant_dimensions":["pattern","legs"],"bee_group":{"antennae":"X","wings":"X","pattern":"S","legs":"M"},"correct":true,"bonus":1.520000000000001},{"rt":26716,"response":{"Q1":"No.","Q2":"Based on the four features of the bee.","Q3":"You learn if it was friendly or dangerous, but do not alter your bonus."},"question_order":[0,1,2],"trial_type":"survey-multi-choice","trial_index":5,"time_elapsed":298849,"internal_node_id":"0.0-3.0-2.0","subject_id":"602bfa74abe14141ae89b2fe","study_id":"60edd13110225f80f9f3709b","session_id":"6196c6fbb16140caef902a47","condition":"full-information","relevant_dimensions":["pattern","legs"],"bee_group":{"antennae":"X","wings":"X","pattern":"S","legs":"M"},"correct":true,"bonus":1.520000000000001},{"rt":3726,"stimulus":"<p>Congrats, you got everything right<br>When you're ready, click the button below to continue to the experiment.</p>","response":0,"trial_type":"html-button-response","trial_index":6,"time_elapsed":302576,"internal_node_id":"0.0-3.0-3.0","subject_id":"602bfa74abe14141ae89b2fe","study_id":"60edd13110225f80f9f3709b","session_id":"6196c6fbb16140caef902a47","condition":"full-information","relevant_dimensions":["pattern","legs"],"bee_group":{"antennae":"X","wings":"X","pattern":"S","legs":"M"},"bonus":1.520000000000001},{"rt":3029,"stimulus":"bees-with-color/bee-B2DF.svg","response":0,"trial_type":"image-button-response","trial_index":7,"time_elapsed":305608,"internal_node_id":"0.0-4.0-0.0","subject_id":"602bfa74abe14141ae89b2fe","study_id":"60edd13110225f80f9f3709b","session_id":"6196c6fbb16140caef902a47","condition":"full-information","relevant_dimensions":["pattern","legs"],"bee_group":{"antennae":"X","wings":"X","pattern":"S","legs":"M"},"action":"harvest","summary":"good-harvest","bonus":1.520000000000001},{"rt":37337,"stimulus":"\n                    <p><b>Action: <em>harvest</em></b></p>\n                    <p>This is the bee that you just saw.</p>\n                    <img src=\"bees-with-color/bee-B2DF.svg\" width=\"200\">\n                    <p><span class=\"greenText\"><b>Successful harvest!</b></span><br>Your pay has increased by $0.02. Your bonus pay is now $0.56.</p>\n            ","response":0,"trial_type":"html-button-response","trial_index":8,"time_elapsed":342961,"internal_node_id":"0.0-4.0-1.0","subject_id":"602bfa74abe14141ae89b2fe","study_id":"60edd13110225f80f9f3709b","session_id":"6196c6fbb16140caef902a47","condition":"full-information","relevant_dimensions":["pattern","legs"],"bee_group":{"antennae":"X","wings":"X","pattern":"S","legs":"M"},"bonus":1.520000000000001},{"rt":2463,"stimulus":"bees-with-color/bee-A2SM.svg","response":1,"trial_type":"image-button-response","trial_index":9,"time_elapsed":345425,"internal_node_id":"0.0-4.0-0.1","subject_id":"602bfa74abe14141ae89b2fe","study_id":"60edd13110225f80f9f3709b","session_id":"6196c6fbb16140caef902a47","condition":"full-information","relevant_dimensions":["pattern","legs"],"bee_group":{"antennae":"X","wings":"X","pattern":"S","legs":"M"},"action":"avoid","summary":"good-avoid","bonus":1.520000000000001},{"rt":31158,"stimulus":"\n                    <p><b>Action: <em>avoid</em></b></p>\n                    <p>This is the bee that you just saw.</p>\n                    <img src=\"bees-with-color/bee-A2SM.svg\" width=\"200\">\n                    <p><span class=\"greenText\">Good choice!</span>  This bee would have stung you.<br>Your bonus pay is unchanged, and remains at $0.56.</p>\n            ","response":0,"trial_type":"html-button-response","trial_index":10,"time_elapsed":376585,"internal_node_id":"0.0-4.0-1.1","subject_id":"602bfa74abe14141ae89b2fe","study_id":"60edd13110225f80f9f3709b","session_id":"6196c6fbb16140caef902a47","condition":"full-information","relevant_dimensions":["pattern","legs"],"bee_group":{"antennae":"X","wings":"X","pattern":"S","legs":"M"},"bonus":1.520000000000001},{"rt":10454,"stimulus":"bees-with-color/bee-A2SF.svg","response":0,"trial_type":"image-button-response","trial_index":11,"time_elapsed":387041,"internal_node_id":"0.0-4.0-0.2","subject_id":"602bfa74abe14141ae89b2fe","study_id":"60edd13110225f80f9f3709b","session_id":"6196c6fbb16140caef902a47","condition":"full-information","relevant_dimensions":["pattern","legs"],"bee_group":{"antennae":"X","wings":"X","pattern":"S","legs":"M"},"action":"harvest","summary":"good-harvest","bonus":1.520000000000001},{"rt":29247,"stimulus":"\n                    <p><b>Action: <em>harvest</em></b></p>\n                    <p>This is the bee that you just saw.</p>\n                    <img src=\"bees-with-color/bee-A2SF.svg\" width=\"200\">\n                    <p><span class=\"greenText\"><b>Successful harvest!</b></span><br>Your pay has increased by $0.02. Your bonus pay is now $0.58.</p>\n            ","response":0,"trial_type":"html-button-response","trial_index":12,"time_elapsed":416290,"internal_node_id":"0.0-4.0-1.2","subject_id":"602bfa74abe14141ae89b2fe","study_id":"60edd13110225f80f9f3709b","session_id":"6196c6fbb16140caef902a47","condition":"full-information","relevant_dimensions":["pattern","legs"],"bee_group":{"antennae":"X","wings":"X","pattern":"S","legs":"M"},"bonus":1.520000000000001},{"rt":4831,"stimulus":"bees-with-color/bee-B1DF.svg","response":0,"trial_type":"image-button-response","trial_index":13,"time_elapsed":421122,"internal_node_id":"0.0-4.0-0.3","subject_id":"602bfa74abe14141ae89b2fe","study_id":"60edd13110225f80f9f3709b","session_id":"6196c6fbb16140caef902a47","condition":"full-information","relevant_dimensions":["pattern","legs"],"bee_group":{"antennae":"X","wings":"X","pattern":"S","legs":"M"},"action":"harvest","summary":"good-harvest","bonus":1.520000000000001},{"rt":23287,"stimulus":"\n                    <p><b>Action: <em>harvest</em></b></p>\n                    <p>This is the bee that you just saw.</p>\n                    <img src=\"bees-with-color/bee-B1DF.svg\" width=\"200\">\n                    <p><span class=\"greenText\"><b>Successful harvest!</b></span><br>Your pay has increased by $0.02. Your bonus pay is now $0.60.</p>\n            ","response":0,"trial_type":"html-button-response","trial_index":14,"time_elapsed":444410,"internal_node_id":"0.0-4.0-1.3","subject_id":"602bfa74abe14141ae89b2fe","study_id":"60edd13110225f80f9f3709b","session_id":"6196c6fbb16140caef902a47","condition":"full-information","relevant_dimensions":["pattern","legs"],"bee_group":{"antennae":"X","wings":"X","pattern":"S","legs":"M"},"bonus":1.520000000000001},{"rt":6718,"stimulus":"bees-with-color/bee-A1DF.svg","response":0,"trial_type":"image-button-response","trial_index":15,"time_elapsed":451131,"internal_node_id":"0.0-4.0-0.4","subject_id":"602bfa74abe14141ae89b2fe","study_id":"60edd13110225f80f9f3709b","session_id":"6196c6fbb16140caef902a47","condition":"full-information","relevant_dimensions":["pattern","legs"],"bee_group":{"antennae":"X","wings":"X","pattern":"S","legs":"M"},"action":"harvest","summary":"good-harvest","bonus":1.520000000000001},{"rt":19910,"stimulus":"\n                    <p><b>Action: <em>harvest</em></b></p>\n                    <p>This is the bee that you just saw.</p>\n                    <img src=\"bees-with-color/bee-A1DF.svg\" width=\"200\">\n                    <p><span class=\"greenText\"><b>Successful harvest!</b></span><br>Your pay has increased by $0.02. Your bonus pay is now $0.62.</p>\n            ","response":0,"trial_type":"html-button-response","trial_index":16,"time_elapsed":471043,"internal_node_id":"0.0-4.0-1.4","subject_id":"602bfa74abe14141ae89b2fe","study_id":"60edd13110225f80f9f3709b","session_id":"6196c6fbb16140caef902a47","condition":"full-information","relevant_dimensions":["pattern","legs"],"bee_group":{"antennae":"X","wings":"X","pattern":"S","legs":"M"},"bonus":1.520000000000001},{"rt":18271,"stimulus":"bees-with-color/bee-B2SF.svg","response":1,"trial_type":"image-button-response","trial_index":17,"time_elapsed":489315,"internal_node_id":"0.0-4.0-0.5","subject_id":"602bfa74abe14141ae89b2fe","study_id":"60edd13110225f80f9f3709b","session_id":"6196c6fbb16140caef902a47","condition":"full-information","relevant_dimensions":["pattern","legs"],"bee_group":{"antennae":"X","wings":"X","pattern":"S","legs":"M"},"action":"avoid","summary":"bad-avoid","bonus":1.520000000000001},{"rt":15487,"stimulus":"\n                    <p><b>Action: <em>avoid</em></b></p>\n                    <p>This is the bee that you just saw.</p>\n                    <img src=\"bees-with-color/bee-B2SF.svg\" width=\"200\">\n                    <p><span class=\"redText\">Bad choice,</span> the bee was friendly.<br>Your bonus pay is unchanged, and remains at $0.62.</p>\n            ","response":0,"trial_type":"html-button-response","trial_index":18,"time_elapsed":504804,"internal_node_id":"0.0-4.0-1.5","subject_id":"602bfa74abe14141ae89b2fe","study_id":"60edd13110225f80f9f3709b","session_id":"6196c6fbb16140caef902a47","condition":"full-information","relevant_dimensions":["pattern","legs"],"bee_group":{"antennae":"X","wings":"X","pattern":"S","legs":"M"},"bonus":1.520000000000001},{"rt":1894,"stimulus":"bees-with-color/bee-B1SM.svg","response":1,"trial_type":"image-button-response","trial_index":19,"time_elapsed":506700,"internal_node_id":"0.0-4.0-0.6","subject_id":"602bfa74abe14141ae89b2fe","study_id":"60edd13110225f80f9f3709b","session_id":"6196c6fbb16140caef902a47","condition":"full-information","relevant_dimensions":["pattern","legs"],"bee_group":{"antennae":"X","wings":"X","pattern":"S","legs":"M"},"action":"avoid","summary":"good-avoid","bonus":1.520000000000001},{"rt":25984,"stimulus":"\n                    <p><b>Action: <em>avoid</em></b></p>\n                    <p>This is the bee that you just saw.</p>\n                    <img src=\"bees-with-color/bee-B1SM.svg\" width=\"200\">\n                    <p><span class=\"greenText\">Good choice!</span>  This bee would have stung you.<br>Your bonus pay is unchanged, and remains at $0.62.</p>\n            ","response":0,"trial_type":"html-button-response","trial_index":20,"time_elapsed":532684,"internal_node_id":"0.0-4.0-1.6","subject_id":"602bfa74abe14141ae89b2fe","study_id":"60edd13110225f80f9f3709b","session_id":"6196c6fbb16140caef902a47","condition":"full-information","relevant_dimensions":["pattern","legs"],"bee_group":{"antennae":"X","wings":"X","pattern":"S","legs":"M"},"bonus":1.520000000000001},{"rt":1463,"stimulus":"bees-with-color/bee-B1SF.svg","response":0,"trial_type":"image-button-response","trial_index":21,"time_elapsed":534148,"internal_node_id":"0.0-4.0-0.7","subject_id":"602bfa74abe14141ae89b2fe","study_id":"60edd13110225f80f9f3709b","session_id":"6196c6fbb16140caef902a47","condition":"full-information","relevant_dimensions":["pattern","legs"],"bee_group":{"antennae":"X","wings":"X","pattern":"S","legs":"M"},"action":"harvest","summary":"good-harvest","bonus":1.520000000000001},{"rt":14982,"stimulus":"\n                    <p><b>Action: <em>harvest</em></b></p>\n                    <p>This is the bee that you just saw.</p>\n                    <img src=\"bees-with-color/bee-B1SF.svg\" width=\"200\">\n                    <p><span class=\"greenText\"><b>Successful harvest!</b></span><br>Your pay has increased by $0.02. Your bonus pay is now $0.64.</p>\n            ","response":0,"trial_type":"html-button-response","trial_index":22,"time_elapsed":549133,"internal_node_id":"0.0-4.0-1.7","subject_id":"602bfa74abe14141ae89b2fe","study_id":"60edd13110225f80f9f3709b","session_id":"6196c6fbb16140caef902a47","condition":"full-information","relevant_dimensions":["pattern","legs"],"bee_group":{"antennae":"X","wings":"X","pattern":"S","legs":"M"},"bonus":1.520000000000001},{"rt":1375,"stimulus":"bees-with-color/bee-A1SF.svg","response":0,"trial_type":"image-button-response","trial_index":23,"time_elapsed":550508,"internal_node_id":"0.0-4.0-0.8","subject_id":"602bfa74abe14141ae89b2fe","study_id":"60edd13110225f80f9f3709b","session_id":"6196c6fbb16140caef902a47","condition":"full-information","relevant_dimensions":["pattern","legs"],"bee_group":{"antennae":"X","wings":"X","pattern":"S","legs":"M"},"action":"harvest","summary":"good-harvest","bonus":1.520000000000001},{"rt":11927,"stimulus":"\n                    <p><b>Action: <em>harvest</em></b></p>\n                    <p>This is the bee that you just saw.</p>\n                    <img src=\"bees-with-color/bee-A1SF.svg\" width=\"200\">\n                    <p><span class=\"greenText\"><b>Successful harvest!</b></span><br>Your pay has increased by $0.02. Your bonus pay is now $0.66.</p>\n            ","response":0,"trial_type":"html-button-response","trial_index":24,"time_elapsed":562436,"internal_node_id":"0.0-4.0-1.8","subject_id":"602bfa74abe14141ae89b2fe","study_id":"60edd13110225f80f9f3709b","session_id":"6196c6fbb16140caef902a47","condition":"full-information","relevant_dimensions":["pattern","legs"],"bee_group":{"antennae":"X","wings":"X","pattern":"S","legs":"M"},"bonus":1.520000000000001},{"rt":1558,"stimulus":"bees-with-color/bee-B2SM.svg","response":1,"trial_type":"image-button-response","trial_index":25,"time_elapsed":563996,"internal_node_id":"0.0-4.0-0.9","subject_id":"602bfa74abe14141ae89b2fe","study_id":"60edd13110225f80f9f3709b","session_id":"6196c6fbb16140caef902a47","condition":"full-information","relevant_dimensions":["pattern","legs"],"bee_group":{"antennae":"X","wings":"X","pattern":"S","legs":"M"},"action":"avoid","summary":"good-avoid","bonus":1.520000000000001},{"rt":19296,"stimulus":"\n                    <p><b>Action: <em>avoid</em></b></p>\n                    <p>This is the bee that you just saw.</p>\n                    <img src=\"bees-with-color/bee-B2SM.svg\" width=\"200\">\n                    <p><span class=\"greenText\">Good choice!</span>  This bee would have stung you.<br>Your bonus pay is unchanged, and remains at $0.66.</p>\n            ","response":0,"trial_type":"html-button-response","trial_index":26,"time_elapsed":583293,"internal_node_id":"0.0-4.0-1.9","subject_id":"602bfa74abe14141ae89b2fe","study_id":"60edd13110225f80f9f3709b","session_id":"6196c6fbb16140caef902a47","condition":"full-information","relevant_dimensions":["pattern","legs"],"bee_group":{"antennae":"X","wings":"X","pattern":"S","legs":"M"},"bonus":1.520000000000001},{"rt":1654,"stimulus":"bees-with-color/bee-A2DM.svg","response":1,"trial_type":"image-button-response","trial_index":27,"time_elapsed":584949,"internal_node_id":"0.0-4.0-0.10","subject_id":"602bfa74abe14141ae89b2fe","study_id":"60edd13110225f80f9f3709b","session_id":"6196c6fbb16140caef902a47","condition":"full-information","relevant_dimensions":["pattern","legs"],"bee_group":{"antennae":"X","wings":"X","pattern":"S","legs":"M"},"action":"avoid","summary":"bad-avoid","bonus":1.520000000000001},{"rt":53360,"stimulus":"\n                    <p><b>Action: <em>avoid</em></b></p>\n                    <p>This is the bee that you just saw.</p>\n                    <img src=\"bees-with-color/bee-A2DM.svg\" width=\"200\">\n                    <p><span class=\"redText\">Bad choice,</span> the bee was friendly.<br>Your bonus pay is unchanged, and remains at $0.66.</p>\n            ","response":0,"trial_type":"html-button-response","trial_index":28,"time_elapsed":638310,"internal_node_id":"0.0-4.0-1.10","subject_id":"602bfa74abe14141ae89b2fe","study_id":"60edd13110225f80f9f3709b","session_id":"6196c6fbb16140caef902a47","condition":"full-information","relevant_dimensions":["pattern","legs"],"bee_group":{"antennae":"X","wings":"X","pattern":"S","legs":"M"},"bonus":1.520000000000001},{"rt":2454,"stimulus":"bees-with-color/bee-A1SM.svg","response":1,"trial_type":"image-button-response","trial_index":29,"time_elapsed":640766,"internal_node_id":"0.0-4.0-0.11","subject_id":"602bfa74abe14141ae89b2fe","study_id":"60edd13110225f80f9f3709b","session_id":"6196c6fbb16140caef902a47","condition":"full-information","relevant_dimensions":["pattern","legs"],"bee_group":{"antennae":"X","wings":"X","pattern":"S","legs":"M"},"action":"avoid","summary":"good-avoid","bonus":1.520000000000001},{"rt":20295,"stimulus":"\n                    <p><b>Action: <em>avoid</em></b></p>\n                    <p>This is the bee that you just saw.</p>\n                    <img src=\"bees-with-color/bee-A1SM.svg\" width=\"200\">\n                    <p><span class=\"greenText\">Good choice!</span>  This bee would have stung you.<br>Your bonus pay is unchanged, and remains at $0.66.</p>\n            ","response":0,"trial_type":"html-button-response","trial_index":30,"time_elapsed":661062,"internal_node_id":"0.0-4.0-1.11","subject_id":"602bfa74abe14141ae89b2fe","study_id":"60edd13110225f80f9f3709b","session_id":"6196c6fbb16140caef902a47","condition":"full-information","relevant_dimensions":["pattern","legs"],"bee_group":{"antennae":"X","wings":"X","pattern":"S","legs":"M"},"bonus":1.520000000000001},{"rt":2088,"stimulus":"bees-with-color/bee-B2DM.svg","response":0,"trial_type":"image-button-response","trial_index":31,"time_elapsed":663150,"internal_node_id":"0.0-4.0-0.12","subject_id":"602bfa74abe14141ae89b2fe","study_id":"60edd13110225f80f9f3709b","session_id":"6196c6fbb16140caef902a47","condition":"full-information","relevant_dimensions":["pattern","legs"],"bee_group":{"antennae":"X","wings":"X","pattern":"S","legs":"M"},"action":"harvest","summary":"good-harvest","bonus":1.520000000000001},{"rt":15663,"stimulus":"\n                    <p><b>Action: <em>harvest</em></b></p>\n                    <p>This is the bee that you just saw.</p>\n                    <img src=\"bees-with-color/bee-B2DM.svg\" width=\"200\">\n                    <p><span class=\"greenText\"><b>Successful harvest!</b></span><br>Your pay has increased by $0.02. Your bonus pay is now $0.68.</p>\n            ","response":0,"trial_type":"html-button-response","trial_index":32,"time_elapsed":678814,"internal_node_id":"0.0-4.0-1.12","subject_id":"602bfa74abe14141ae89b2fe","study_id":"60edd13110225f80f9f3709b","session_id":"6196c6fbb16140caef902a47","condition":"full-information","relevant_dimensions":["pattern","legs"],"bee_group":{"antennae":"X","wings":"X","pattern":"S","legs":"M"},"bonus":1.520000000000001},{"rt":2647,"stimulus":"bees-with-color/bee-B1DM.svg","response":0,"trial_type":"image-button-response","trial_index":33,"time_elapsed":681463,"internal_node_id":"0.0-4.0-0.13","subject_id":"602bfa74abe14141ae89b2fe","study_id":"60edd13110225f80f9f3709b","session_id":"6196c6fbb16140caef902a47","condition":"full-information","relevant_dimensions":["pattern","legs"],"bee_group":{"antennae":"X","wings":"X","pattern":"S","legs":"M"},"action":"harvest","summary":"good-harvest","bonus":1.520000000000001},{"rt":6727,"stimulus":"\n                    <p><b>Action: <em>harvest</em></b></p>\n                    <p>This is the bee that you just saw.</p>\n                    <img src=\"bees-with-color/bee-B1DM.svg\" width=\"200\">\n                    <p><span class=\"greenText\"><b>Successful harvest!</b></span><br>Your pay has increased by $0.02. Your bonus pay is now $0.70.</p>\n            ","response":0,"trial_type":"html-button-response","trial_index":34,"time_elapsed":688191,"internal_node_id":"0.0-4.0-1.13","subject_id":"602bfa74abe14141ae89b2fe","study_id":"60edd13110225f80f9f3709b","session_id":"6196c6fbb16140caef902a47","condition":"full-information","relevant_dimensions":["pattern","legs"],"bee_group":{"antennae":"X","wings":"X","pattern":"S","legs":"M"},"bonus":1.520000000000001},{"rt":1439,"stimulus":"bees-with-color/bee-A1DM.svg","response":0,"trial_type":"image-button-response","trial_index":35,"time_elapsed":689630,"internal_node_id":"0.0-4.0-0.14","subject_id":"602bfa74abe14141ae89b2fe","study_id":"60edd13110225f80f9f3709b","session_id":"6196c6fbb16140caef902a47","condition":"full-information","relevant_dimensions":["pattern","legs"],"bee_group":{"antennae":"X","wings":"X","pattern":"S","legs":"M"},"action":"harvest","summary":"good-harvest","bonus":1.520000000000001},{"rt":2623,"stimulus":"\n                    <p><b>Action: <em>harvest</em></b></p>\n                    <p>This is the bee that you just saw.</p>\n                    <img src=\"bees-with-color/bee-A1DM.svg\" width=\"200\">\n                    <p><span class=\"greenText\"><b>Successful harvest!</b></span><br>Your pay has increased by $0.02. Your bonus pay is now $0.72.</p>\n            ","response":0,"trial_type":"html-button-response","trial_index":36,"time_elapsed":692255,"internal_node_id":"0.0-4.0-1.14","subject_id":"602bfa74abe14141ae89b2fe","study_id":"60edd13110225f80f9f3709b","session_id":"6196c6fbb16140caef902a47","condition":"full-information","relevant_dimensions":["pattern","legs"],"bee_group":{"antennae":"X","wings":"X","pattern":"S","legs":"M"},"bonus":1.520000000000001},{"rt":3175,"stimulus":"bees-with-color/bee-A2DF.svg","response":0,"trial_type":"image-button-response","trial_index":37,"time_elapsed":695431,"internal_node_id":"0.0-4.0-0.15","subject_id":"602bfa74abe14141ae89b2fe","study_id":"60edd13110225f80f9f3709b","session_id":"6196c6fbb16140caef902a47","condition":"full-information","relevant_dimensions":["pattern","legs"],"bee_group":{"antennae":"X","wings":"X","pattern":"S","legs":"M"},"action":"harvest","summary":"good-harvest","bonus":1.520000000000001},{"rt":1382,"stimulus":"\n                    <p><b>Action: <em>harvest</em></b></p>\n                    <p>This is the bee that you just saw.</p>\n                    <img src=\"bees-with-color/bee-A2DF.svg\" width=\"200\">\n                    <p><span class=\"greenText\"><b>Successful harvest!</b></span><br>Your pay has increased by $0.02. Your bonus pay is now $0.74.</p>\n            ","response":0,"trial_type":"html-button-response","trial_index":38,"time_elapsed":696815,"internal_node_id":"0.0-4.0-1.15","subject_id":"602bfa74abe14141ae89b2fe","study_id":"60edd13110225f80f9f3709b","session_id":"6196c6fbb16140caef902a47","condition":"full-information","relevant_dimensions":["pattern","legs"],"bee_group":{"antennae":"X","wings":"X","pattern":"S","legs":"M"},"bonus":1.520000000000001},{"rt":1622,"stimulus":"bees-with-color/bee-A1SF.svg","response":0,"trial_type":"image-button-response","trial_index":39,"time_elapsed":698438,"internal_node_id":"0.0-4.0-0.16","subject_id":"602bfa74abe14141ae89b2fe","study_id":"60edd13110225f80f9f3709b","session_id":"6196c6fbb16140caef902a47","condition":"full-information","relevant_dimensions":["pattern","legs"],"bee_group":{"antennae":"X","wings":"X","pattern":"S","legs":"M"},"action":"harvest","summary":"good-harvest","bonus":1.520000000000001},{"rt":1128,"stimulus":"\n                    <p><b>Action: <em>harvest</em></b></p>\n                    <p>This is the bee that you just saw.</p>\n                    <img src=\"bees-with-color/bee-A1SF.svg\" width=\"200\">\n                    <p><span class=\"greenText\"><b>Successful harvest!</b></span><br>Your pay has increased by $0.02. Your bonus pay is now $0.76.</p>\n            ","response":0,"trial_type":"html-button-response","trial_index":40,"time_elapsed":699567,"internal_node_id":"0.0-4.0-1.16","subject_id":"602bfa74abe14141ae89b2fe","study_id":"60edd13110225f80f9f3709b","session_id":"6196c6fbb16140caef902a47","condition":"full-information","relevant_dimensions":["pattern","legs"],"bee_group":{"antennae":"X","wings":"X","pattern":"S","legs":"M"},"bonus":1.520000000000001},{"rt":1175,"stimulus":"bees-with-color/bee-A2SF.svg","response":0,"trial_type":"image-button-response","trial_index":41,"time_elapsed":700743,"internal_node_id":"0.0-4.0-0.17","subject_id":"602bfa74abe14141ae89b2fe","study_id":"60edd13110225f80f9f3709b","session_id":"6196c6fbb16140caef902a47","condition":"full-information","relevant_dimensions":["pattern","legs"],"bee_group":{"antennae":"X","wings":"X","pattern":"S","legs":"M"},"action":"harvest","summary":"good-harvest","bonus":1.520000000000001},{"rt":1855,"stimulus":"\n                    <p><b>Action: <em>harvest</em></b></p>\n                    <p>This is the bee that you just saw.</p>\n                    <img src=\"bees-with-color/bee-A2SF.svg\" width=\"200\">\n                    <p><span class=\"greenText\"><b>Successful harvest!</b></span><br>Your pay has increased by $0.02. Your bonus pay is now $0.78.</p>\n            ","response":0,"trial_type":"html-button-response","trial_index":42,"time_elapsed":702599,"internal_node_id":"0.0-4.0-1.17","subject_id":"602bfa74abe14141ae89b2fe","study_id":"60edd13110225f80f9f3709b","session_id":"6196c6fbb16140caef902a47","condition":"full-information","relevant_dimensions":["pattern","legs"],"bee_group":{"antennae":"X","wings":"X","pattern":"S","legs":"M"},"bonus":1.520000000000001},{"rt":3382,"stimulus":"bees-with-color/bee-A2DM.svg","response":0,"trial_type":"image-button-response","trial_index":43,"time_elapsed":705983,"internal_node_id":"0.0-4.0-0.18","subject_id":"602bfa74abe14141ae89b2fe","study_id":"60edd13110225f80f9f3709b","session_id":"6196c6fbb16140caef902a47","condition":"full-information","relevant_dimensions":["pattern","legs"],"bee_group":{"antennae":"X","wings":"X","pattern":"S","legs":"M"},"action":"harvest","summary":"good-harvest","bonus":1.520000000000001},{"rt":1135,"stimulus":"\n                    <p><b>Action: <em>harvest</em></b></p>\n                    <p>This is the bee that you just saw.</p>\n                    <img src=\"bees-with-color/bee-A2DM.svg\" width=\"200\">\n                    <p><span class=\"greenText\"><b>Successful harvest!</b></span><br>Your pay has increased by $0.02. Your bonus pay is now $0.80.</p>\n            ","response":0,"trial_type":"html-button-response","trial_index":44,"time_elapsed":707119,"internal_node_id":"0.0-4.0-1.18","subject_id":"602bfa74abe14141ae89b2fe","study_id":"60edd13110225f80f9f3709b","session_id":"6196c6fbb16140caef902a47","condition":"full-information","relevant_dimensions":["pattern","legs"],"bee_group":{"antennae":"X","wings":"X","pattern":"S","legs":"M"},"bonus":1.520000000000001},{"rt":1479,"stimulus":"bees-with-color/bee-A1DM.svg","response":0,"trial_type":"image-button-response","trial_index":45,"time_elapsed":708599,"internal_node_id":"0.0-4.0-0.19","subject_id":"602bfa74abe14141ae89b2fe","study_id":"60edd13110225f80f9f3709b","session_id":"6196c6fbb16140caef902a47","condition":"full-information","relevant_dimensions":["pattern","legs"],"bee_group":{"antennae":"X","wings":"X","pattern":"S","legs":"M"},"action":"harvest","summary":"good-harvest","bonus":1.520000000000001},{"rt":1222,"stimulus":"\n                    <p><b>Action: <em>harvest</em></b></p>\n                    <p>This is the bee that you just saw.</p>\n                    <img src=\"bees-with-color/bee-A1DM.svg\" width=\"200\">\n                    <p><span class=\"greenText\"><b>Successful harvest!</b></span><br>Your pay has increased by $0.02. Your bonus pay is now $0.82.</p>\n            ","response":0,"trial_type":"html-button-response","trial_index":46,"time_elapsed":709823,"internal_node_id":"0.0-4.0-1.19","subject_id":"602bfa74abe14141ae89b2fe","study_id":"60edd13110225f80f9f3709b","session_id":"6196c6fbb16140caef902a47","condition":"full-information","relevant_dimensions":["pattern","legs"],"bee_group":{"antennae":"X","wings":"X","pattern":"S","legs":"M"},"bonus":1.520000000000001},{"rt":1920,"stimulus":"bees-with-color/bee-B1SM.svg","response":1,"trial_type":"image-button-response","trial_index":47,"time_elapsed":711744,"internal_node_id":"0.0-4.0-0.20","subject_id":"602bfa74abe14141ae89b2fe","study_id":"60edd13110225f80f9f3709b","session_id":"6196c6fbb16140caef902a47","condition":"full-information","relevant_dimensions":["pattern","legs"],"bee_group":{"antennae":"X","wings":"X","pattern":"S","legs":"M"},"action":"avoid","summary":"good-avoid","bonus":1.520000000000001},{"rt":9367,"stimulus":"\n                    <p><b>Action: <em>avoid</em></b></p>\n                    <p>This is the bee that you just saw.</p>\n                    <img src=\"bees-with-color/bee-B1SM.svg\" width=\"200\">\n                    <p><span class=\"greenText\">Good choice!</span>  This bee would have stung you.<br>Your bonus pay is unchanged, and remains at $0.82.</p>\n            ","response":0,"trial_type":"html-button-response","trial_index":48,"time_elapsed":721112,"internal_node_id":"0.0-4.0-1.20","subject_id":"602bfa74abe14141ae89b2fe","study_id":"60edd13110225f80f9f3709b","session_id":"6196c6fbb16140caef902a47","condition":"full-information","relevant_dimensions":["pattern","legs"],"bee_group":{"antennae":"X","wings":"X","pattern":"S","legs":"M"},"bonus":1.520000000000001},{"rt":1294,"stimulus":"bees-with-color/bee-B1DM.svg","response":0,"trial_type":"image-button-response","trial_index":49,"time_elapsed":722407,"internal_node_id":"0.0-4.0-0.21","subject_id":"602bfa74abe14141ae89b2fe","study_id":"60edd13110225f80f9f3709b","session_id":"6196c6fbb16140caef902a47","condition":"full-information","relevant_dimensions":["pattern","legs"],"bee_group":{"antennae":"X","wings":"X","pattern":"S","legs":"M"},"action":"harvest","summary":"good-harvest","bonus":1.520000000000001},{"rt":1278,"stimulus":"\n                    <p><b>Action: <em>harvest</em></b></p>\n                    <p>This is the bee that you just saw.</p>\n                    <img src=\"bees-with-color/bee-B1DM.svg\" width=\"200\">\n                    <p><span class=\"greenText\"><b>Successful harvest!</b></span><br>Your pay has increased by $0.02. Your bonus pay is now $0.84.</p>\n            ","response":0,"trial_type":"html-button-response","trial_index":50,"time_elapsed":723687,"internal_node_id":"0.0-4.0-1.21","subject_id":"602bfa74abe14141ae89b2fe","study_id":"60edd13110225f80f9f3709b","session_id":"6196c6fbb16140caef902a47","condition":"full-information","relevant_dimensions":["pattern","legs"],"bee_group":{"antennae":"X","wings":"X","pattern":"S","legs":"M"},"bonus":1.520000000000001},{"rt":1343,"stimulus":"bees-with-color/bee-B2SM.svg","response":1,"trial_type":"image-button-response","trial_index":51,"time_elapsed":725031,"internal_node_id":"0.0-4.0-0.22","subject_id":"602bfa74abe14141ae89b2fe","study_id":"60edd13110225f80f9f3709b","session_id":"6196c6fbb16140caef902a47","condition":"full-information","relevant_dimensions":["pattern","legs"],"bee_group":{"antennae":"X","wings":"X","pattern":"S","legs":"M"},"action":"avoid","summary":"good-avoid","bonus":1.520000000000001},{"rt":1896,"stimulus":"\n                    <p><b>Action: <em>avoid</em></b></p>\n                    <p>This is the bee that you just saw.</p>\n                    <img src=\"bees-with-color/bee-B2SM.svg\" width=\"200\">\n                    <p><span class=\"greenText\">Good choice!</span>  This bee would have stung you.<br>Your bonus pay is unchanged, and remains at $0.84.</p>\n            ","response":0,"trial_type":"html-button-response","trial_index":52,"time_elapsed":726928,"internal_node_id":"0.0-4.0-1.22","subject_id":"602bfa74abe14141ae89b2fe","study_id":"60edd13110225f80f9f3709b","session_id":"6196c6fbb16140caef902a47","condition":"full-information","relevant_dimensions":["pattern","legs"],"bee_group":{"antennae":"X","wings":"X","pattern":"S","legs":"M"},"bonus":1.520000000000001},{"rt":1279,"stimulus":"bees-with-color/bee-B1SF.svg","response":0,"trial_type":"image-button-response","trial_index":53,"time_elapsed":728208,"internal_node_id":"0.0-4.0-0.23","subject_id":"602bfa74abe14141ae89b2fe","study_id":"60edd13110225f80f9f3709b","session_id":"6196c6fbb16140caef902a47","condition":"full-information","relevant_dimensions":["pattern","legs"],"bee_group":{"antennae":"X","wings":"X","pattern":"S","legs":"M"},"action":"harvest","summary":"good-harvest","bonus":1.520000000000001},{"rt":1591,"stimulus":"\n                    <p><b>Action: <em>harvest</em></b></p>\n                    <p>This is the bee that you just saw.</p>\n                    <img src=\"bees-with-color/bee-B1SF.svg\" width=\"200\">\n                    <p><span class=\"greenText\"><b>Successful harvest!</b></span><br>Your pay has increased by $0.02. Your bonus pay is now $0.86.</p>\n            ","response":0,"trial_type":"html-button-response","trial_index":54,"time_elapsed":729800,"internal_node_id":"0.0-4.0-1.23","subject_id":"602bfa74abe14141ae89b2fe","study_id":"60edd13110225f80f9f3709b","session_id":"6196c6fbb16140caef902a47","condition":"full-information","relevant_dimensions":["pattern","legs"],"bee_group":{"antennae":"X","wings":"X","pattern":"S","legs":"M"},"bonus":1.520000000000001},{"rt":1446,"stimulus":"bees-with-color/bee-A2SM.svg","response":1,"trial_type":"image-button-response","trial_index":55,"time_elapsed":731247,"internal_node_id":"0.0-4.0-0.24","subject_id":"602bfa74abe14141ae89b2fe","study_id":"60edd13110225f80f9f3709b","session_id":"6196c6fbb16140caef902a47","condition":"full-information","relevant_dimensions":["pattern","legs"],"bee_group":{"antennae":"X","wings":"X","pattern":"S","legs":"M"},"action":"avoid","summary":"good-avoid","bonus":1.520000000000001},{"rt":4239,"stimulus":"\n                    <p><b>Action: <em>avoid</em></b></p>\n                    <p>This is the bee that you just saw.</p>\n                    <img src=\"bees-with-color/bee-A2SM.svg\" width=\"200\">\n                    <p><span class=\"greenText\">Good choice!</span>  This bee would have stung you.<br>Your bonus pay is unchanged, and remains at $0.86.</p>\n            ","response":0,"trial_type":"html-button-response","trial_index":56,"time_elapsed":735488,"internal_node_id":"0.0-4.0-1.24","subject_id":"602bfa74abe14141ae89b2fe","study_id":"60edd13110225f80f9f3709b","session_id":"6196c6fbb16140caef902a47","condition":"full-information","relevant_dimensions":["pattern","legs"],"bee_group":{"antennae":"X","wings":"X","pattern":"S","legs":"M"},"bonus":1.520000000000001},{"rt":2383,"stimulus":"bees-with-color/bee-B2DM.svg","response":0,"trial_type":"image-button-response","trial_index":57,"time_elapsed":737872,"internal_node_id":"0.0-4.0-0.25","subject_id":"602bfa74abe14141ae89b2fe","study_id":"60edd13110225f80f9f3709b","session_id":"6196c6fbb16140caef902a47","condition":"full-information","relevant_dimensions":["pattern","legs"],"bee_group":{"antennae":"X","wings":"X","pattern":"S","legs":"M"},"action":"harvest","summary":"good-harvest","bonus":1.520000000000001},{"rt":1607,"stimulus":"\n                    <p><b>Action: <em>harvest</em></b></p>\n                    <p>This is the bee that you just saw.</p>\n                    <img src=\"bees-with-color/bee-B2DM.svg\" width=\"200\">\n                    <p><span class=\"greenText\"><b>Successful harvest!</b></span><br>Your pay has increased by $0.02. Your bonus pay is now $0.88.</p>\n            ","response":0,"trial_type":"html-button-response","trial_index":58,"time_elapsed":739480,"internal_node_id":"0.0-4.0-1.25","subject_id":"602bfa74abe14141ae89b2fe","study_id":"60edd13110225f80f9f3709b","session_id":"6196c6fbb16140caef902a47","condition":"full-information","relevant_dimensions":["pattern","legs"],"bee_group":{"antennae":"X","wings":"X","pattern":"S","legs":"M"},"bonus":1.520000000000001},{"rt":1310,"stimulus":"bees-with-color/bee-A1SM.svg","response":1,"trial_type":"image-button-response","trial_index":59,"time_elapsed":740792,"internal_node_id":"0.0-4.0-0.26","subject_id":"602bfa74abe14141ae89b2fe","study_id":"60edd13110225f80f9f3709b","session_id":"6196c6fbb16140caef902a47","condition":"full-information","relevant_dimensions":["pattern","legs"],"bee_group":{"antennae":"X","wings":"X","pattern":"S","legs":"M"},"action":"avoid","summary":"good-avoid","bonus":1.520000000000001},{"rt":14215,"stimulus":"\n                    <p><b>Action: <em>avoid</em></b></p>\n                    <p>This is the bee that you just saw.</p>\n                    <img src=\"bees-with-color/bee-A1SM.svg\" width=\"200\">\n                    <p><span class=\"greenText\">Good choice!</span>  This bee would have stung you.<br>Your bonus pay is unchanged, and remains at $0.88.</p>\n            ","response":0,"trial_type":"html-button-response","trial_index":60,"time_elapsed":755008,"internal_node_id":"0.0-4.0-1.26","subject_id":"602bfa74abe14141ae89b2fe","study_id":"60edd13110225f80f9f3709b","session_id":"6196c6fbb16140caef902a47","condition":"full-information","relevant_dimensions":["pattern","legs"],"bee_group":{"antennae":"X","wings":"X","pattern":"S","legs":"M"},"bonus":1.520000000000001},{"rt":22014,"stimulus":"bees-with-color/bee-B2DF.svg","response":0,"trial_type":"image-button-response","trial_index":61,"time_elapsed":777024,"internal_node_id":"0.0-4.0-0.27","subject_id":"602bfa74abe14141ae89b2fe","study_id":"60edd13110225f80f9f3709b","session_id":"6196c6fbb16140caef902a47","condition":"full-information","relevant_dimensions":["pattern","legs"],"bee_group":{"antennae":"X","wings":"X","pattern":"S","legs":"M"},"action":"harvest","summary":"good-harvest","bonus":1.520000000000001},{"rt":3896,"stimulus":"\n                    <p><b>Action: <em>harvest</em></b></p>\n                    <p>This is the bee that you just saw.</p>\n                    <img src=\"bees-with-color/bee-B2DF.svg\" width=\"200\">\n                    <p><span class=\"greenText\"><b>Successful harvest!</b></span><br>Your pay has increased by $0.02. Your bonus pay is now $0.90.</p>\n            ","response":0,"trial_type":"html-button-response","trial_index":62,"time_elapsed":780921,"internal_node_id":"0.0-4.0-1.27","subject_id":"602bfa74abe14141ae89b2fe","study_id":"60edd13110225f80f9f3709b","session_id":"6196c6fbb16140caef902a47","condition":"full-information","relevant_dimensions":["pattern","legs"],"bee_group":{"antennae":"X","wings":"X","pattern":"S","legs":"M"},"bonus":1.520000000000001},{"rt":1296,"stimulus":"bees-with-color/bee-B1DF.svg","response":0,"trial_type":"image-button-response","trial_index":63,"time_elapsed":782216,"internal_node_id":"0.0-4.0-0.28","subject_id":"602bfa74abe14141ae89b2fe","study_id":"60edd13110225f80f9f3709b","session_id":"6196c6fbb16140caef902a47","condition":"full-information","relevant_dimensions":["pattern","legs"],"bee_group":{"antennae":"X","wings":"X","pattern":"S","legs":"M"},"action":"harvest","summary":"good-harvest","bonus":1.520000000000001},{"rt":1015,"stimulus":"\n                    <p><b>Action: <em>harvest</em></b></p>\n                    <p>This is the bee that you just saw.</p>\n                    <img src=\"bees-with-color/bee-B1DF.svg\" width=\"200\">\n                    <p><span class=\"greenText\"><b>Successful harvest!</b></span><br>Your pay has increased by $0.02. Your bonus pay is now $0.92.</p>\n            ","response":0,"trial_type":"html-button-response","trial_index":64,"time_elapsed":783232,"internal_node_id":"0.0-4.0-1.28","subject_id":"602bfa74abe14141ae89b2fe","study_id":"60edd13110225f80f9f3709b","session_id":"6196c6fbb16140caef902a47","condition":"full-information","relevant_dimensions":["pattern","legs"],"bee_group":{"antennae":"X","wings":"X","pattern":"S","legs":"M"},"bonus":1.520000000000001},{"rt":1335,"stimulus":"bees-with-color/bee-B2SF.svg","response":0,"trial_type":"image-button-response","trial_index":65,"time_elapsed":784569,"internal_node_id":"0.0-4.0-0.29","subject_id":"602bfa74abe14141ae89b2fe","study_id":"60edd13110225f80f9f3709b","session_id":"6196c6fbb16140caef902a47","condition":"full-information","relevant_dimensions":["pattern","legs"],"bee_group":{"antennae":"X","wings":"X","pattern":"S","legs":"M"},"action":"harvest","summary":"good-harvest","bonus":1.520000000000001},{"rt":815,"stimulus":"\n                    <p><b>Action: <em>harvest</em></b></p>\n                    <p>This is the bee that you just saw.</p>\n                    <img src=\"bees-with-color/bee-B2SF.svg\" width=\"200\">\n                    <p><span class=\"greenText\"><b>Successful harvest!</b></span><br>Your pay has increased by $0.02. Your bonus pay is now $0.94.</p>\n            ","response":0,"trial_type":"html-button-response","trial_index":66,"time_elapsed":785385,"internal_node_id":"0.0-4.0-1.29","subject_id":"602bfa74abe14141ae89b2fe","study_id":"60edd13110225f80f9f3709b","session_id":"6196c6fbb16140caef902a47","condition":"full-information","relevant_dimensions":["pattern","legs"],"bee_group":{"antennae":"X","wings":"X","pattern":"S","legs":"M"},"bonus":1.520000000000001},{"rt":1135,"stimulus":"bees-with-color/bee-A1DF.svg","response":0,"trial_type":"image-button-response","trial_index":67,"time_elapsed":786520,"internal_node_id":"0.0-4.0-0.30","subject_id":"602bfa74abe14141ae89b2fe","study_id":"60edd13110225f80f9f3709b","session_id":"6196c6fbb16140caef902a47","condition":"full-information","relevant_dimensions":["pattern","legs"],"bee_group":{"antennae":"X","wings":"X","pattern":"S","legs":"M"},"action":"harvest","summary":"good-harvest","bonus":1.520000000000001},{"rt":886,"stimulus":"\n                    <p><b>Action: <em>harvest</em></b></p>\n                    <p>This is the bee that you just saw.</p>\n                    <img src=\"bees-with-color/bee-A1DF.svg\" width=\"200\">\n                    <p><span class=\"greenText\"><b>Successful harvest!</b></span><br>Your pay has increased by $0.02. Your bonus pay is now $0.96.</p>\n            ","response":0,"trial_type":"html-button-response","trial_index":68,"time_elapsed":787408,"internal_node_id":"0.0-4.0-1.30","subject_id":"602bfa74abe14141ae89b2fe","study_id":"60edd13110225f80f9f3709b","session_id":"6196c6fbb16140caef902a47","condition":"full-information","relevant_dimensions":["pattern","legs"],"bee_group":{"antennae":"X","wings":"X","pattern":"S","legs":"M"},"bonus":1.520000000000001},{"rt":1023,"stimulus":"bees-with-color/bee-A2DF.svg","response":0,"trial_type":"image-button-response","trial_index":69,"time_elapsed":788433,"internal_node_id":"0.0-4.0-0.31","subject_id":"602bfa74abe14141ae89b2fe","study_id":"60edd13110225f80f9f3709b","session_id":"6196c6fbb16140caef902a47","condition":"full-information","relevant_dimensions":["pattern","legs"],"bee_group":{"antennae":"X","wings":"X","pattern":"S","legs":"M"},"action":"harvest","summary":"good-harvest","bonus":1.520000000000001},{"rt":816,"stimulus":"\n                    <p><b>Action: <em>harvest</em></b></p>\n                    <p>This is the bee that you just saw.</p>\n                    <img src=\"bees-with-color/bee-A2DF.svg\" width=\"200\">\n                    <p><span class=\"greenText\"><b>Successful harvest!</b></span><br>Your pay has increased by $0.02. Your bonus pay is now $0.98.</p>\n            ","response":0,"trial_type":"html-button-response","trial_index":70,"time_elapsed":789249,"internal_node_id":"0.0-4.0-1.31","subject_id":"602bfa74abe14141ae89b2fe","study_id":"60edd13110225f80f9f3709b","session_id":"6196c6fbb16140caef902a47","condition":"full-information","relevant_dimensions":["pattern","legs"],"bee_group":{"antennae":"X","wings":"X","pattern":"S","legs":"M"},"bonus":1.520000000000001},{"rt":5158,"stimulus":"bees-with-color/bee-A1SM.svg","response":1,"trial_type":"image-button-response","trial_index":71,"time_elapsed":794409,"internal_node_id":"0.0-4.0-0.32","subject_id":"602bfa74abe14141ae89b2fe","study_id":"60edd13110225f80f9f3709b","session_id":"6196c6fbb16140caef902a47","condition":"full-information","relevant_dimensions":["pattern","legs"],"bee_group":{"antennae":"X","wings":"X","pattern":"S","legs":"M"},"action":"avoid","summary":"good-avoid","bonus":1.520000000000001},{"rt":12631,"stimulus":"\n                    <p><b>Action: <em>avoid</em></b></p>\n                    <p>This is the bee that you just saw.</p>\n                    <img src=\"bees-with-color/bee-A1SM.svg\" width=\"200\">\n                    <p><span class=\"greenText\">Good choice!</span>  This bee would have stung you.<br>Your bonus pay is unchanged, and remains at $0.98.</p>\n            ","response":0,"trial_type":"html-button-response","trial_index":72,"time_elapsed":807041,"internal_node_id":"0.0-4.0-1.32","subject_id":"602bfa74abe14141ae89b2fe","study_id":"60edd13110225f80f9f3709b","session_id":"6196c6fbb16140caef902a47","condition":"full-information","relevant_dimensions":["pattern","legs"],"bee_group":{"antennae":"X","wings":"X","pattern":"S","legs":"M"},"bonus":1.520000000000001},{"rt":2982,"stimulus":"bees-with-color/bee-B1SF.svg","response":0,"trial_type":"image-button-response","trial_index":73,"time_elapsed":810025,"internal_node_id":"0.0-4.0-0.33","subject_id":"602bfa74abe14141ae89b2fe","study_id":"60edd13110225f80f9f3709b","session_id":"6196c6fbb16140caef902a47","condition":"full-information","relevant_dimensions":["pattern","legs"],"bee_group":{"antennae":"X","wings":"X","pattern":"S","legs":"M"},"action":"harvest","summary":"good-harvest","bonus":1.520000000000001},{"rt":678,"stimulus":"\n                    <p><b>Action: <em>harvest</em></b></p>\n                    <p>This is the bee that you just saw.</p>\n                    <img src=\"bees-with-color/bee-B1SF.svg\" width=\"200\">\n                    <p><span class=\"greenText\"><b>Successful harvest!</b></span><br>Your pay has increased by $0.02. Your bonus pay is now $1.00.</p>\n            ","response":0,"trial_type":"html-button-response","trial_index":74,"time_elapsed":810705,"internal_node_id":"0.0-4.0-1.33","subject_id":"602bfa74abe14141ae89b2fe","study_id":"60edd13110225f80f9f3709b","session_id":"6196c6fbb16140caef902a47","condition":"full-information","relevant_dimensions":["pattern","legs"],"bee_group":{"antennae":"X","wings":"X","pattern":"S","legs":"M"},"bonus":1.520000000000001},{"rt":1040,"stimulus":"bees-with-color/bee-A2DF.svg","response":0,"trial_type":"image-button-response","trial_index":75,"time_elapsed":811745,"internal_node_id":"0.0-4.0-0.34","subject_id":"602bfa74abe14141ae89b2fe","study_id":"60edd13110225f80f9f3709b","session_id":"6196c6fbb16140caef902a47","condition":"full-information","relevant_dimensions":["pattern","legs"],"bee_group":{"antennae":"X","wings":"X","pattern":"S","legs":"M"},"action":"harvest","summary":"good-harvest","bonus":1.520000000000001},{"rt":942,"stimulus":"\n                    <p><b>Action: <em>harvest</em></b></p>\n                    <p>This is the bee that you just saw.</p>\n                    <img src=\"bees-with-color/bee-A2DF.svg\" width=\"200\">\n                    <p><span class=\"greenText\"><b>Successful harvest!</b></span><br>Your pay has increased by $0.02. Your bonus pay is now $1.02.</p>\n            ","response":0,"trial_type":"html-button-response","trial_index":76,"time_elapsed":812689,"internal_node_id":"0.0-4.0-1.34","subject_id":"602bfa74abe14141ae89b2fe","study_id":"60edd13110225f80f9f3709b","session_id":"6196c6fbb16140caef902a47","condition":"full-information","relevant_dimensions":["pattern","legs"],"bee_group":{"antennae":"X","wings":"X","pattern":"S","legs":"M"},"bonus":1.520000000000001},{"rt":1264,"stimulus":"bees-with-color/bee-A2SF.svg","response":0,"trial_type":"image-button-response","trial_index":77,"time_elapsed":813953,"internal_node_id":"0.0-4.0-0.35","subject_id":"602bfa74abe14141ae89b2fe","study_id":"60edd13110225f80f9f3709b","session_id":"6196c6fbb16140caef902a47","condition":"full-information","relevant_dimensions":["pattern","legs"],"bee_group":{"antennae":"X","wings":"X","pattern":"S","legs":"M"},"action":"harvest","summary":"good-harvest","bonus":1.520000000000001},{"rt":1015,"stimulus":"\n                    <p><b>Action: <em>harvest</em></b></p>\n                    <p>This is the bee that you just saw.</p>\n                    <img src=\"bees-with-color/bee-A2SF.svg\" width=\"200\">\n                    <p><span class=\"greenText\"><b>Successful harvest!</b></span><br>Your pay has increased by $0.02. Your bonus pay is now $1.04.</p>\n            ","response":0,"trial_type":"html-button-response","trial_index":78,"time_elapsed":814969,"internal_node_id":"0.0-4.0-1.35","subject_id":"602bfa74abe14141ae89b2fe","study_id":"60edd13110225f80f9f3709b","session_id":"6196c6fbb16140caef902a47","condition":"full-information","relevant_dimensions":["pattern","legs"],"bee_group":{"antennae":"X","wings":"X","pattern":"S","legs":"M"},"bonus":1.520000000000001},{"rt":1543,"stimulus":"bees-with-color/bee-B1SM.svg","response":1,"trial_type":"image-button-response","trial_index":79,"time_elapsed":816514,"internal_node_id":"0.0-4.0-0.36","subject_id":"602bfa74abe14141ae89b2fe","study_id":"60edd13110225f80f9f3709b","session_id":"6196c6fbb16140caef902a47","condition":"full-information","relevant_dimensions":["pattern","legs"],"bee_group":{"antennae":"X","wings":"X","pattern":"S","legs":"M"},"action":"avoid","summary":"good-avoid","bonus":1.520000000000001},{"rt":1215,"stimulus":"\n                    <p><b>Action: <em>avoid</em></b></p>\n                    <p>This is the bee that you just saw.</p>\n                    <img src=\"bees-with-color/bee-B1SM.svg\" width=\"200\">\n                    <p><span class=\"greenText\">Good choice!</span>  This bee would have stung you.<br>Your bonus pay is unchanged, and remains at $1.04.</p>\n            ","response":0,"trial_type":"html-button-response","trial_index":80,"time_elapsed":817730,"internal_node_id":"0.0-4.0-1.36","subject_id":"602bfa74abe14141ae89b2fe","study_id":"60edd13110225f80f9f3709b","session_id":"6196c6fbb16140caef902a47","condition":"full-information","relevant_dimensions":["pattern","legs"],"bee_group":{"antennae":"X","wings":"X","pattern":"S","legs":"M"},"bonus":1.520000000000001},{"rt":974,"stimulus":"bees-with-color/bee-A1SF.svg","response":0,"trial_type":"image-button-response","trial_index":81,"time_elapsed":818706,"internal_node_id":"0.0-4.0-0.37","subject_id":"602bfa74abe14141ae89b2fe","study_id":"60edd13110225f80f9f3709b","session_id":"6196c6fbb16140caef902a47","condition":"full-information","relevant_dimensions":["pattern","legs"],"bee_group":{"antennae":"X","wings":"X","pattern":"S","legs":"M"},"action":"harvest","summary":"good-harvest","bonus":1.520000000000001},{"rt":2424,"stimulus":"\n                    <p><b>Action: <em>harvest</em></b></p>\n                    <p>This is the bee that you just saw.</p>\n                    <img src=\"bees-with-color/bee-A1SF.svg\" width=\"200\">\n                    <p><span class=\"greenText\"><b>Successful harvest!</b></span><br>Your pay has increased by $0.02. Your bonus pay is now $1.06.</p>\n            ","response":0,"trial_type":"html-button-response","trial_index":82,"time_elapsed":821129,"internal_node_id":"0.0-4.0-1.37","subject_id":"602bfa74abe14141ae89b2fe","study_id":"60edd13110225f80f9f3709b","session_id":"6196c6fbb16140caef902a47","condition":"full-information","relevant_dimensions":["pattern","legs"],"bee_group":{"antennae":"X","wings":"X","pattern":"S","legs":"M"},"bonus":1.520000000000001},{"rt":1359,"stimulus":"bees-with-color/bee-B2DF.svg","response":0,"trial_type":"image-button-response","trial_index":83,"time_elapsed":822490,"internal_node_id":"0.0-4.0-0.38","subject_id":"602bfa74abe14141ae89b2fe","study_id":"60edd13110225f80f9f3709b","session_id":"6196c6fbb16140caef902a47","condition":"full-information","relevant_dimensions":["pattern","legs"],"bee_group":{"antennae":"X","wings":"X","pattern":"S","legs":"M"},"action":"harvest","summary":"good-harvest","bonus":1.520000000000001},{"rt":886,"stimulus":"\n                    <p><b>Action: <em>harvest</em></b></p>\n                    <p>This is the bee that you just saw.</p>\n                    <img src=\"bees-with-color/bee-B2DF.svg\" width=\"200\">\n                    <p><span class=\"greenText\"><b>Successful harvest!</b></span><br>Your pay has increased by $0.02. Your bonus pay is now $1.08.</p>\n            ","response":0,"trial_type":"html-button-response","trial_index":84,"time_elapsed":823378,"internal_node_id":"0.0-4.0-1.38","subject_id":"602bfa74abe14141ae89b2fe","study_id":"60edd13110225f80f9f3709b","session_id":"6196c6fbb16140caef902a47","condition":"full-information","relevant_dimensions":["pattern","legs"],"bee_group":{"antennae":"X","wings":"X","pattern":"S","legs":"M"},"bonus":1.520000000000001},{"rt":1702,"stimulus":"bees-with-color/bee-B2DM.svg","response":0,"trial_type":"image-button-response","trial_index":85,"time_elapsed":825081,"internal_node_id":"0.0-4.0-0.39","subject_id":"602bfa74abe14141ae89b2fe","study_id":"60edd13110225f80f9f3709b","session_id":"6196c6fbb16140caef902a47","condition":"full-information","relevant_dimensions":["pattern","legs"],"bee_group":{"antennae":"X","wings":"X","pattern":"S","legs":"M"},"action":"harvest","summary":"good-harvest","bonus":1.520000000000001},{"rt":880,"stimulus":"\n                    <p><b>Action: <em>harvest</em></b></p>\n                    <p>This is the bee that you just saw.</p>\n                    <img src=\"bees-with-color/bee-B2DM.svg\" width=\"200\">\n                    <p><span class=\"greenText\"><b>Successful harvest!</b></span><br>Your pay has increased by $0.02. Your bonus pay is now $1.10.</p>\n            ","response":0,"trial_type":"html-button-response","trial_index":86,"time_elapsed":825962,"internal_node_id":"0.0-4.0-1.39","subject_id":"602bfa74abe14141ae89b2fe","study_id":"60edd13110225f80f9f3709b","session_id":"6196c6fbb16140caef902a47","condition":"full-information","relevant_dimensions":["pattern","legs"],"bee_group":{"antennae":"X","wings":"X","pattern":"S","legs":"M"},"bonus":1.520000000000001},{"rt":1279,"stimulus":"bees-with-color/bee-B2SF.svg","response":0,"trial_type":"image-button-response","trial_index":87,"time_elapsed":827242,"internal_node_id":"0.0-4.0-0.40","subject_id":"602bfa74abe14141ae89b2fe","study_id":"60edd13110225f80f9f3709b","session_id":"6196c6fbb16140caef902a47","condition":"full-information","relevant_dimensions":["pattern","legs"],"bee_group":{"antennae":"X","wings":"X","pattern":"S","legs":"M"},"action":"harvest","summary":"good-harvest","bonus":1.520000000000001},{"rt":807,"stimulus":"\n                    <p><b>Action: <em>harvest</em></b></p>\n                    <p>This is the bee that you just saw.</p>\n                    <img src=\"bees-with-color/bee-B2SF.svg\" width=\"200\">\n                    <p><span class=\"greenText\"><b>Successful harvest!</b></span><br>Your pay has increased by $0.02. Your bonus pay is now $1.12.</p>\n            ","response":0,"trial_type":"html-button-response","trial_index":88,"time_elapsed":828049,"internal_node_id":"0.0-4.0-1.40","subject_id":"602bfa74abe14141ae89b2fe","study_id":"60edd13110225f80f9f3709b","session_id":"6196c6fbb16140caef902a47","condition":"full-information","relevant_dimensions":["pattern","legs"],"bee_group":{"antennae":"X","wings":"X","pattern":"S","legs":"M"},"bonus":1.520000000000001},{"rt":3791,"stimulus":"bees-with-color/bee-B1DF.svg","response":0,"trial_type":"image-button-response","trial_index":89,"time_elapsed":831841,"internal_node_id":"0.0-4.0-0.41","subject_id":"602bfa74abe14141ae89b2fe","study_id":"60edd13110225f80f9f3709b","session_id":"6196c6fbb16140caef902a47","condition":"full-information","relevant_dimensions":["pattern","legs"],"bee_group":{"antennae":"X","wings":"X","pattern":"S","legs":"M"},"action":"harvest","summary":"good-harvest","bonus":1.520000000000001},{"rt":966,"stimulus":"\n                    <p><b>Action: <em>harvest</em></b></p>\n                    <p>This is the bee that you just saw.</p>\n                    <img src=\"bees-with-color/bee-B1DF.svg\" width=\"200\">\n                    <p><span class=\"greenText\"><b>Successful harvest!</b></span><br>Your pay has increased by $0.02. Your bonus pay is now $1.14.</p>\n            ","response":0,"trial_type":"html-button-response","trial_index":90,"time_elapsed":832810,"internal_node_id":"0.0-4.0-1.41","subject_id":"602bfa74abe14141ae89b2fe","study_id":"60edd13110225f80f9f3709b","session_id":"6196c6fbb16140caef902a47","condition":"full-information","relevant_dimensions":["pattern","legs"],"bee_group":{"antennae":"X","wings":"X","pattern":"S","legs":"M"},"bonus":1.520000000000001},{"rt":1382,"stimulus":"bees-with-color/bee-A1DM.svg","response":0,"trial_type":"image-button-response","trial_index":91,"time_elapsed":834193,"internal_node_id":"0.0-4.0-0.42","subject_id":"602bfa74abe14141ae89b2fe","study_id":"60edd13110225f80f9f3709b","session_id":"6196c6fbb16140caef902a47","condition":"full-information","relevant_dimensions":["pattern","legs"],"bee_group":{"antennae":"X","wings":"X","pattern":"S","legs":"M"},"action":"harvest","summary":"good-harvest","bonus":1.520000000000001},{"rt":663,"stimulus":"\n                    <p><b>Action: <em>harvest</em></b></p>\n                    <p>This is the bee that you just saw.</p>\n                    <img src=\"bees-with-color/bee-A1DM.svg\" width=\"200\">\n                    <p><span class=\"greenText\"><b>Successful harvest!</b></span><br>Your pay has increased by $0.02. Your bonus pay is now $1.16.</p>\n            ","response":0,"trial_type":"html-button-response","trial_index":92,"time_elapsed":834858,"internal_node_id":"0.0-4.0-1.42","subject_id":"602bfa74abe14141ae89b2fe","study_id":"60edd13110225f80f9f3709b","session_id":"6196c6fbb16140caef902a47","condition":"full-information","relevant_dimensions":["pattern","legs"],"bee_group":{"antennae":"X","wings":"X","pattern":"S","legs":"M"},"bonus":1.520000000000001},{"rt":1654,"stimulus":"bees-with-color/bee-B2SM.svg","response":1,"trial_type":"image-button-response","trial_index":93,"time_elapsed":836514,"internal_node_id":"0.0-4.0-0.43","subject_id":"602bfa74abe14141ae89b2fe","study_id":"60edd13110225f80f9f3709b","session_id":"6196c6fbb16140caef902a47","condition":"full-information","relevant_dimensions":["pattern","legs"],"bee_group":{"antennae":"X","wings":"X","pattern":"S","legs":"M"},"action":"avoid","summary":"good-avoid","bonus":1.520000000000001},{"rt":5230,"stimulus":"\n                    <p><b>Action: <em>avoid</em></b></p>\n                    <p>This is the bee that you just saw.</p>\n                    <img src=\"bees-with-color/bee-B2SM.svg\" width=\"200\">\n                    <p><span class=\"greenText\">Good choice!</span>  This bee would have stung you.<br>Your bonus pay is unchanged, and remains at $1.16.</p>\n            ","response":0,"trial_type":"html-button-response","trial_index":94,"time_elapsed":841745,"internal_node_id":"0.0-4.0-1.43","subject_id":"602bfa74abe14141ae89b2fe","study_id":"60edd13110225f80f9f3709b","session_id":"6196c6fbb16140caef902a47","condition":"full-information","relevant_dimensions":["pattern","legs"],"bee_group":{"antennae":"X","wings":"X","pattern":"S","legs":"M"},"bonus":1.520000000000001},{"rt":1296,"stimulus":"bees-with-color/bee-A1DF.svg","response":0,"trial_type":"image-button-response","trial_index":95,"time_elapsed":843041,"internal_node_id":"0.0-4.0-0.44","subject_id":"602bfa74abe14141ae89b2fe","study_id":"60edd13110225f80f9f3709b","session_id":"6196c6fbb16140caef902a47","condition":"full-information","relevant_dimensions":["pattern","legs"],"bee_group":{"antennae":"X","wings":"X","pattern":"S","legs":"M"},"action":"harvest","summary":"good-harvest","bonus":1.520000000000001},{"rt":902,"stimulus":"\n                    <p><b>Action: <em>harvest</em></b></p>\n                    <p>This is the bee that you just saw.</p>\n                    <img src=\"bees-with-color/bee-A1DF.svg\" width=\"200\">\n                    <p><span class=\"greenText\"><b>Successful harvest!</b></span><br>Your pay has increased by $0.02. Your bonus pay is now $1.18.</p>\n            ","response":0,"trial_type":"html-button-response","trial_index":96,"time_elapsed":843946,"internal_node_id":"0.0-4.0-1.44","subject_id":"602bfa74abe14141ae89b2fe","study_id":"60edd13110225f80f9f3709b","session_id":"6196c6fbb16140caef902a47","condition":"full-information","relevant_dimensions":["pattern","legs"],"bee_group":{"antennae":"X","wings":"X","pattern":"S","legs":"M"},"bonus":1.520000000000001},{"rt":1199,"stimulus":"bees-with-color/bee-B1DM.svg","response":0,"trial_type":"image-button-response","trial_index":97,"time_elapsed":845146,"internal_node_id":"0.0-4.0-0.45","subject_id":"602bfa74abe14141ae89b2fe","study_id":"60edd13110225f80f9f3709b","session_id":"6196c6fbb16140caef902a47","condition":"full-information","relevant_dimensions":["pattern","legs"],"bee_group":{"antennae":"X","wings":"X","pattern":"S","legs":"M"},"action":"harvest","summary":"good-harvest","bonus":1.520000000000001},{"rt":711,"stimulus":"\n                    <p><b>Action: <em>harvest</em></b></p>\n                    <p>This is the bee that you just saw.</p>\n                    <img src=\"bees-with-color/bee-B1DM.svg\" width=\"200\">\n                    <p><span class=\"greenText\"><b>Successful harvest!</b></span><br>Your pay has increased by $0.02. Your bonus pay is now $1.20.</p>\n            ","response":0,"trial_type":"html-button-response","trial_index":98,"time_elapsed":845858,"internal_node_id":"0.0-4.0-1.45","subject_id":"602bfa74abe14141ae89b2fe","study_id":"60edd13110225f80f9f3709b","session_id":"6196c6fbb16140caef902a47","condition":"full-information","relevant_dimensions":["pattern","legs"],"bee_group":{"antennae":"X","wings":"X","pattern":"S","legs":"M"},"bonus":1.520000000000001},{"rt":1087,"stimulus":"bees-with-color/bee-A2SM.svg","response":1,"trial_type":"image-button-response","trial_index":99,"time_elapsed":846946,"internal_node_id":"0.0-4.0-0.46","subject_id":"602bfa74abe14141ae89b2fe","study_id":"60edd13110225f80f9f3709b","session_id":"6196c6fbb16140caef902a47","condition":"full-information","relevant_dimensions":["pattern","legs"],"bee_group":{"antennae":"X","wings":"X","pattern":"S","legs":"M"},"action":"avoid","summary":"good-avoid","bonus":1.520000000000001},{"rt":1270,"stimulus":"\n                    <p><b>Action: <em>avoid</em></b></p>\n                    <p>This is the bee that you just saw.</p>\n                    <img src=\"bees-with-color/bee-A2SM.svg\" width=\"200\">\n                    <p><span class=\"greenText\">Good choice!</span>  This bee would have stung you.<br>Your bonus pay is unchanged, and remains at $1.20.</p>\n            ","response":0,"trial_type":"html-button-response","trial_index":100,"time_elapsed":848218,"internal_node_id":"0.0-4.0-1.46","subject_id":"602bfa74abe14141ae89b2fe","study_id":"60edd13110225f80f9f3709b","session_id":"6196c6fbb16140caef902a47","condition":"full-information","relevant_dimensions":["pattern","legs"],"bee_group":{"antennae":"X","wings":"X","pattern":"S","legs":"M"},"bonus":1.520000000000001},{"rt":1351,"stimulus":"bees-with-color/bee-A2DM.svg","response":0,"trial_type":"image-button-response","trial_index":101,"time_elapsed":849570,"internal_node_id":"0.0-4.0-0.47","subject_id":"602bfa74abe14141ae89b2fe","study_id":"60edd13110225f80f9f3709b","session_id":"6196c6fbb16140caef902a47","condition":"full-information","relevant_dimensions":["pattern","legs"],"bee_group":{"antennae":"X","wings":"X","pattern":"S","legs":"M"},"action":"harvest","summary":"good-harvest","bonus":1.520000000000001},{"rt":766,"stimulus":"\n                    <p><b>Action: <em>harvest</em></b></p>\n                    <p>This is the bee that you just saw.</p>\n                    <img src=\"bees-with-color/bee-A2DM.svg\" width=\"200\">\n                    <p><span class=\"greenText\"><b>Successful harvest!</b></span><br>Your pay has increased by $0.02. Your bonus pay is now $1.22.</p>\n            ","response":0,"trial_type":"html-button-response","trial_index":102,"time_elapsed":850338,"internal_node_id":"0.0-4.0-1.47","subject_id":"602bfa74abe14141ae89b2fe","study_id":"60edd13110225f80f9f3709b","session_id":"6196c6fbb16140caef902a47","condition":"full-information","relevant_dimensions":["pattern","legs"],"bee_group":{"antennae":"X","wings":"X","pattern":"S","legs":"M"},"bonus":1.520000000000001},{"rt":1054,"stimulus":"bees-with-color/bee-B1DF.svg","response":0,"trial_type":"image-button-response","trial_index":103,"time_elapsed":851394,"internal_node_id":"0.0-4.0-0.48","subject_id":"602bfa74abe14141ae89b2fe","study_id":"60edd13110225f80f9f3709b","session_id":"6196c6fbb16140caef902a47","condition":"full-information","relevant_dimensions":["pattern","legs"],"bee_group":{"antennae":"X","wings":"X","pattern":"S","legs":"M"},"action":"harvest","summary":"good-harvest","bonus":1.520000000000001},{"rt":1414,"stimulus":"\n                    <p><b>Action: <em>harvest</em></b></p>\n                    <p>This is the bee that you just saw.</p>\n                    <img src=\"bees-with-color/bee-B1DF.svg\" width=\"200\">\n                    <p><span class=\"greenText\"><b>Successful harvest!</b></span><br>Your pay has increased by $0.02. Your bonus pay is now $1.24.</p>\n            ","response":0,"trial_type":"html-button-response","trial_index":104,"time_elapsed":852810,"internal_node_id":"0.0-4.0-1.48","subject_id":"602bfa74abe14141ae89b2fe","study_id":"60edd13110225f80f9f3709b","session_id":"6196c6fbb16140caef902a47","condition":"full-information","relevant_dimensions":["pattern","legs"],"bee_group":{"antennae":"X","wings":"X","pattern":"S","legs":"M"},"bonus":1.520000000000001},{"rt":1263,"stimulus":"bees-with-color/bee-A1DM.svg","response":0,"trial_type":"image-button-response","trial_index":105,"time_elapsed":854074,"internal_node_id":"0.0-4.0-0.49","subject_id":"602bfa74abe14141ae89b2fe","study_id":"60edd13110225f80f9f3709b","session_id":"6196c6fbb16140caef902a47","condition":"full-information","relevant_dimensions":["pattern","legs"],"bee_group":{"antennae":"X","wings":"X","pattern":"S","legs":"M"},"action":"harvest","summary":"good-harvest","bonus":1.520000000000001},{"rt":774,"stimulus":"\n                    <p><b>Action: <em>harvest</em></b></p>\n                    <p>This is the bee that you just saw.</p>\n                    <img src=\"bees-with-color/bee-A1DM.svg\" width=\"200\">\n                    <p><span class=\"greenText\"><b>Successful harvest!</b></span><br>Your pay has increased by $0.02. Your bonus pay is now $1.26.</p>\n            ","response":0,"trial_type":"html-button-response","trial_index":106,"time_elapsed":854850,"internal_node_id":"0.0-4.0-1.49","subject_id":"602bfa74abe14141ae89b2fe","study_id":"60edd13110225f80f9f3709b","session_id":"6196c6fbb16140caef902a47","condition":"full-information","relevant_dimensions":["pattern","legs"],"bee_group":{"antennae":"X","wings":"X","pattern":"S","legs":"M"},"bonus":1.520000000000001},{"rt":1184,"stimulus":"bees-with-color/bee-A1DF.svg","response":0,"trial_type":"image-button-response","trial_index":107,"time_elapsed":856033,"internal_node_id":"0.0-4.0-0.50","subject_id":"602bfa74abe14141ae89b2fe","study_id":"60edd13110225f80f9f3709b","session_id":"6196c6fbb16140caef902a47","condition":"full-information","relevant_dimensions":["pattern","legs"],"bee_group":{"antennae":"X","wings":"X","pattern":"S","legs":"M"},"action":"harvest","summary":"good-harvest","bonus":1.520000000000001},{"rt":783,"stimulus":"\n                    <p><b>Action: <em>harvest</em></b></p>\n                    <p>This is the bee that you just saw.</p>\n                    <img src=\"bees-with-color/bee-A1DF.svg\" width=\"200\">\n                    <p><span class=\"greenText\"><b>Successful harvest!</b></span><br>Your pay has increased by $0.02. Your bonus pay is now $1.28.</p>\n            ","response":0,"trial_type":"html-button-response","trial_index":108,"time_elapsed":856819,"internal_node_id":"0.0-4.0-1.50","subject_id":"602bfa74abe14141ae89b2fe","study_id":"60edd13110225f80f9f3709b","session_id":"6196c6fbb16140caef902a47","condition":"full-information","relevant_dimensions":["pattern","legs"],"bee_group":{"antennae":"X","wings":"X","pattern":"S","legs":"M"},"bonus":1.520000000000001},{"rt":1342,"stimulus":"bees-with-color/bee-A2SM.svg","response":1,"trial_type":"image-button-response","trial_index":109,"time_elapsed":858162,"internal_node_id":"0.0-4.0-0.51","subject_id":"602bfa74abe14141ae89b2fe","study_id":"60edd13110225f80f9f3709b","session_id":"6196c6fbb16140caef902a47","condition":"full-information","relevant_dimensions":["pattern","legs"],"bee_group":{"antennae":"X","wings":"X","pattern":"S","legs":"M"},"action":"avoid","summary":"good-avoid","bonus":1.520000000000001},{"rt":2334,"stimulus":"\n                    <p><b>Action: <em>avoid</em></b></p>\n                    <p>This is the bee that you just saw.</p>\n                    <img src=\"bees-with-color/bee-A2SM.svg\" width=\"200\">\n                    <p><span class=\"greenText\">Good choice!</span>  This bee would have stung you.<br>Your bonus pay is unchanged, and remains at $1.28.</p>\n            ","response":0,"trial_type":"html-button-response","trial_index":110,"time_elapsed":860498,"internal_node_id":"0.0-4.0-1.51","subject_id":"602bfa74abe14141ae89b2fe","study_id":"60edd13110225f80f9f3709b","session_id":"6196c6fbb16140caef902a47","condition":"full-information","relevant_dimensions":["pattern","legs"],"bee_group":{"antennae":"X","wings":"X","pattern":"S","legs":"M"},"bonus":1.520000000000001},{"rt":1383,"stimulus":"bees-with-color/bee-B1DM.svg","response":0,"trial_type":"image-button-response","trial_index":111,"time_elapsed":861882,"internal_node_id":"0.0-4.0-0.52","subject_id":"602bfa74abe14141ae89b2fe","study_id":"60edd13110225f80f9f3709b","session_id":"6196c6fbb16140caef902a47","condition":"full-information","relevant_dimensions":["pattern","legs"],"bee_group":{"antennae":"X","wings":"X","pattern":"S","legs":"M"},"action":"harvest","summary":"good-harvest","bonus":1.520000000000001},{"rt":1711,"stimulus":"\n                    <p><b>Action: <em>harvest</em></b></p>\n                    <p>This is the bee that you just saw.</p>\n                    <img src=\"bees-with-color/bee-B1DM.svg\" width=\"200\">\n                    <p><span class=\"greenText\"><b>Successful harvest!</b></span><br>Your pay has increased by $0.02. Your bonus pay is now $1.30.</p>\n            ","response":0,"trial_type":"html-button-response","trial_index":112,"time_elapsed":863594,"internal_node_id":"0.0-4.0-1.52","subject_id":"602bfa74abe14141ae89b2fe","study_id":"60edd13110225f80f9f3709b","session_id":"6196c6fbb16140caef902a47","condition":"full-information","relevant_dimensions":["pattern","legs"],"bee_group":{"antennae":"X","wings":"X","pattern":"S","legs":"M"},"bonus":1.520000000000001},{"rt":1575,"stimulus":"bees-with-color/bee-B2DM.svg","response":0,"trial_type":"image-button-response","trial_index":113,"time_elapsed":865170,"internal_node_id":"0.0-4.0-0.53","subject_id":"602bfa74abe14141ae89b2fe","study_id":"60edd13110225f80f9f3709b","session_id":"6196c6fbb16140caef902a47","condition":"full-information","relevant_dimensions":["pattern","legs"],"bee_group":{"antennae":"X","wings":"X","pattern":"S","legs":"M"},"action":"harvest","summary":"good-harvest","bonus":1.520000000000001},{"rt":664,"stimulus":"\n                    <p><b>Action: <em>harvest</em></b></p>\n                    <p>This is the bee that you just saw.</p>\n                    <img src=\"bees-with-color/bee-B2DM.svg\" width=\"200\">\n                    <p><span class=\"greenText\"><b>Successful harvest!</b></span><br>Your pay has increased by $0.02. Your bonus pay is now $1.32.</p>\n            ","response":0,"trial_type":"html-button-response","trial_index":114,"time_elapsed":865835,"internal_node_id":"0.0-4.0-1.53","subject_id":"602bfa74abe14141ae89b2fe","study_id":"60edd13110225f80f9f3709b","session_id":"6196c6fbb16140caef902a47","condition":"full-information","relevant_dimensions":["pattern","legs"],"bee_group":{"antennae":"X","wings":"X","pattern":"S","legs":"M"},"bonus":1.520000000000001},{"rt":1207,"stimulus":"bees-with-color/bee-B1SM.svg","response":1,"trial_type":"image-button-response","trial_index":115,"time_elapsed":867042,"internal_node_id":"0.0-4.0-0.54","subject_id":"602bfa74abe14141ae89b2fe","study_id":"60edd13110225f80f9f3709b","session_id":"6196c6fbb16140caef902a47","condition":"full-information","relevant_dimensions":["pattern","legs"],"bee_group":{"antennae":"X","wings":"X","pattern":"S","legs":"M"},"action":"avoid","summary":"good-avoid","bonus":1.520000000000001},{"rt":702,"stimulus":"\n                    <p><b>Action: <em>avoid</em></b></p>\n                    <p>This is the bee that you just saw.</p>\n                    <img src=\"bees-with-color/bee-B1SM.svg\" width=\"200\">\n                    <p><span class=\"greenText\">Good choice!</span>  This bee would have stung you.<br>Your bonus pay is unchanged, and remains at $1.32.</p>\n            ","response":0,"trial_type":"html-button-response","trial_index":116,"time_elapsed":867746,"internal_node_id":"0.0-4.0-1.54","subject_id":"602bfa74abe14141ae89b2fe","study_id":"60edd13110225f80f9f3709b","session_id":"6196c6fbb16140caef902a47","condition":"full-information","relevant_dimensions":["pattern","legs"],"bee_group":{"antennae":"X","wings":"X","pattern":"S","legs":"M"},"bonus":1.520000000000001},{"rt":1199,"stimulus":"bees-with-color/bee-A2DM.svg","response":0,"trial_type":"image-button-response","trial_index":117,"time_elapsed":868946,"internal_node_id":"0.0-4.0-0.55","subject_id":"602bfa74abe14141ae89b2fe","study_id":"60edd13110225f80f9f3709b","session_id":"6196c6fbb16140caef902a47","condition":"full-information","relevant_dimensions":["pattern","legs"],"bee_group":{"antennae":"X","wings":"X","pattern":"S","legs":"M"},"action":"harvest","summary":"good-harvest","bonus":1.520000000000001},{"rt":727,"stimulus":"\n                    <p><b>Action: <em>harvest</em></b></p>\n                    <p>This is the bee that you just saw.</p>\n                    <img src=\"bees-with-color/bee-A2DM.svg\" width=\"200\">\n                    <p><span class=\"greenText\"><b>Successful harvest!</b></span><br>Your pay has increased by $0.02. Your bonus pay is now $1.34.</p>\n            ","response":0,"trial_type":"html-button-response","trial_index":118,"time_elapsed":869674,"internal_node_id":"0.0-4.0-1.55","subject_id":"602bfa74abe14141ae89b2fe","study_id":"60edd13110225f80f9f3709b","session_id":"6196c6fbb16140caef902a47","condition":"full-information","relevant_dimensions":["pattern","legs"],"bee_group":{"antennae":"X","wings":"X","pattern":"S","legs":"M"},"bonus":1.520000000000001},{"rt":1808,"stimulus":"bees-with-color/bee-B2SM.svg","response":1,"trial_type":"image-button-response","trial_index":119,"time_elapsed":871482,"internal_node_id":"0.0-4.0-0.56","subject_id":"602bfa74abe14141ae89b2fe","study_id":"60edd13110225f80f9f3709b","session_id":"6196c6fbb16140caef902a47","condition":"full-information","relevant_dimensions":["pattern","legs"],"bee_group":{"antennae":"X","wings":"X","pattern":"S","legs":"M"},"action":"avoid","summary":"good-avoid","bonus":1.520000000000001},{"rt":1222,"stimulus":"\n                    <p><b>Action: <em>avoid</em></b></p>\n                    <p>This is the bee that you just saw.</p>\n                    <img src=\"bees-with-color/bee-B2SM.svg\" width=\"200\">\n                    <p><span class=\"greenText\">Good choice!</span>  This bee would have stung you.<br>Your bonus pay is unchanged, and remains at $1.34.</p>\n            ","response":0,"trial_type":"html-button-response","trial_index":120,"time_elapsed":872706,"internal_node_id":"0.0-4.0-1.56","subject_id":"602bfa74abe14141ae89b2fe","study_id":"60edd13110225f80f9f3709b","session_id":"6196c6fbb16140caef902a47","condition":"full-information","relevant_dimensions":["pattern","legs"],"bee_group":{"antennae":"X","wings":"X","pattern":"S","legs":"M"},"bonus":1.520000000000001},{"rt":1375,"stimulus":"bees-with-color/bee-B2SF.svg","response":0,"trial_type":"image-button-response","trial_index":121,"time_elapsed":874082,"internal_node_id":"0.0-4.0-0.57","subject_id":"602bfa74abe14141ae89b2fe","study_id":"60edd13110225f80f9f3709b","session_id":"6196c6fbb16140caef902a47","condition":"full-information","relevant_dimensions":["pattern","legs"],"bee_group":{"antennae":"X","wings":"X","pattern":"S","legs":"M"},"action":"harvest","summary":"good-harvest","bonus":1.520000000000001},{"rt":791,"stimulus":"\n                    <p><b>Action: <em>harvest</em></b></p>\n                    <p>This is the bee that you just saw.</p>\n                    <img src=\"bees-with-color/bee-B2SF.svg\" width=\"200\">\n                    <p><span class=\"greenText\"><b>Successful harvest!</b></span><br>Your pay has increased by $0.02. Your bonus pay is now $1.36.</p>\n            ","response":0,"trial_type":"html-button-response","trial_index":122,"time_elapsed":874874,"internal_node_id":"0.0-4.0-1.57","subject_id":"602bfa74abe14141ae89b2fe","study_id":"60edd13110225f80f9f3709b","session_id":"6196c6fbb16140caef902a47","condition":"full-information","relevant_dimensions":["pattern","legs"],"bee_group":{"antennae":"X","wings":"X","pattern":"S","legs":"M"},"bonus":1.520000000000001},{"rt":1342,"stimulus":"bees-with-color/bee-A2DF.svg","response":0,"trial_type":"image-button-response","trial_index":123,"time_elapsed":876218,"internal_node_id":"0.0-4.0-0.58","subject_id":"602bfa74abe14141ae89b2fe","study_id":"60edd13110225f80f9f3709b","session_id":"6196c6fbb16140caef902a47","condition":"full-information","relevant_dimensions":["pattern","legs"],"bee_group":{"antennae":"X","wings":"X","pattern":"S","legs":"M"},"action":"harvest","summary":"good-harvest","bonus":1.520000000000001},{"rt":736,"stimulus":"\n                    <p><b>Action: <em>harvest</em></b></p>\n                    <p>This is the bee that you just saw.</p>\n                    <img src=\"bees-with-color/bee-A2DF.svg\" width=\"200\">\n                    <p><span class=\"greenText\"><b>Successful harvest!</b></span><br>Your pay has increased by $0.02. Your bonus pay is now $1.38.</p>\n            ","response":0,"trial_type":"html-button-response","trial_index":124,"time_elapsed":876955,"internal_node_id":"0.0-4.0-1.58","subject_id":"602bfa74abe14141ae89b2fe","study_id":"60edd13110225f80f9f3709b","session_id":"6196c6fbb16140caef902a47","condition":"full-information","relevant_dimensions":["pattern","legs"],"bee_group":{"antennae":"X","wings":"X","pattern":"S","legs":"M"},"bonus":1.520000000000001},{"rt":1343,"stimulus":"bees-with-color/bee-A1SM.svg","response":1,"trial_type":"image-button-response","trial_index":125,"time_elapsed":878299,"internal_node_id":"0.0-4.0-0.59","subject_id":"602bfa74abe14141ae89b2fe","study_id":"60edd13110225f80f9f3709b","session_id":"6196c6fbb16140caef902a47","condition":"full-information","relevant_dimensions":["pattern","legs"],"bee_group":{"antennae":"X","wings":"X","pattern":"S","legs":"M"},"action":"avoid","summary":"good-avoid","bonus":1.520000000000001},{"rt":822,"stimulus":"\n                    <p><b>Action: <em>avoid</em></b></p>\n                    <p>This is the bee that you just saw.</p>\n                    <img src=\"bees-with-color/bee-A1SM.svg\" width=\"200\">\n                    <p><span class=\"greenText\">Good choice!</span>  This bee would have stung you.<br>Your bonus pay is unchanged, and remains at $1.38.</p>\n            ","response":0,"trial_type":"html-button-response","trial_index":126,"time_elapsed":879123,"internal_node_id":"0.0-4.0-1.59","subject_id":"602bfa74abe14141ae89b2fe","study_id":"60edd13110225f80f9f3709b","session_id":"6196c6fbb16140caef902a47","condition":"full-information","relevant_dimensions":["pattern","legs"],"bee_group":{"antennae":"X","wings":"X","pattern":"S","legs":"M"},"bonus":1.520000000000001},{"rt":1135,"stimulus":"bees-with-color/bee-B1SF.svg","response":0,"trial_type":"image-button-response","trial_index":127,"time_elapsed":880258,"internal_node_id":"0.0-4.0-0.60","subject_id":"602bfa74abe14141ae89b2fe","study_id":"60edd13110225f80f9f3709b","session_id":"6196c6fbb16140caef902a47","condition":"full-information","relevant_dimensions":["pattern","legs"],"bee_group":{"antennae":"X","wings":"X","pattern":"S","legs":"M"},"action":"harvest","summary":"good-harvest","bonus":1.520000000000001},{"rt":4231,"stimulus":"\n                    <p><b>Action: <em>harvest</em></b></p>\n                    <p>This is the bee that you just saw.</p>\n                    <img src=\"bees-with-color/bee-B1SF.svg\" width=\"200\">\n                    <p><span class=\"greenText\"><b>Successful harvest!</b></span><br>Your pay has increased by $0.02. Your bonus pay is now $1.40.</p>\n            ","response":0,"trial_type":"html-button-response","trial_index":128,"time_elapsed":884491,"internal_node_id":"0.0-4.0-1.60","subject_id":"602bfa74abe14141ae89b2fe","study_id":"60edd13110225f80f9f3709b","session_id":"6196c6fbb16140caef902a47","condition":"full-information","relevant_dimensions":["pattern","legs"],"bee_group":{"antennae":"X","wings":"X","pattern":"S","legs":"M"},"bonus":1.520000000000001},{"rt":1271,"stimulus":"bees-with-color/bee-A2SF.svg","response":0,"trial_type":"image-button-response","trial_index":129,"time_elapsed":885762,"internal_node_id":"0.0-4.0-0.61","subject_id":"602bfa74abe14141ae89b2fe","study_id":"60edd13110225f80f9f3709b","session_id":"6196c6fbb16140caef902a47","condition":"full-information","relevant_dimensions":["pattern","legs"],"bee_group":{"antennae":"X","wings":"X","pattern":"S","legs":"M"},"action":"harvest","summary":"good-harvest","bonus":1.520000000000001},{"rt":664,"stimulus":"\n                    <p><b>Action: <em>harvest</em></b></p>\n                    <p>This is the bee that you just saw.</p>\n                    <img src=\"bees-with-color/bee-A2SF.svg\" width=\"200\">\n                    <p><span class=\"greenText\"><b>Successful harvest!</b></span><br>Your pay has increased by $0.02. Your bonus pay is now $1.42.</p>\n            ","response":0,"trial_type":"html-button-response","trial_index":130,"time_elapsed":886427,"internal_node_id":"0.0-4.0-1.61","subject_id":"602bfa74abe14141ae89b2fe","study_id":"60edd13110225f80f9f3709b","session_id":"6196c6fbb16140caef902a47","condition":"full-information","relevant_dimensions":["pattern","legs"],"bee_group":{"antennae":"X","wings":"X","pattern":"S","legs":"M"},"bonus":1.520000000000001},{"rt":1063,"stimulus":"bees-with-color/bee-A1SF.svg","response":0,"trial_type":"image-button-response","trial_index":131,"time_elapsed":887491,"internal_node_id":"0.0-4.0-0.62","subject_id":"602bfa74abe14141ae89b2fe","study_id":"60edd13110225f80f9f3709b","session_id":"6196c6fbb16140caef902a47","condition":"full-information","relevant_dimensions":["pattern","legs"],"bee_group":{"antennae":"X","wings":"X","pattern":"S","legs":"M"},"action":"harvest","summary":"good-harvest","bonus":1.520000000000001},{"rt":775,"stimulus":"\n                    <p><b>Action: <em>harvest</em></b></p>\n                    <p>This is the bee that you just saw.</p>\n                    <img src=\"bees-with-color/bee-A1SF.svg\" width=\"200\">\n                    <p><span class=\"greenText\"><b>Successful harvest!</b></span><br>Your pay has increased by $0.02. Your bonus pay is now $1.44.</p>\n            ","response":0,"trial_type":"html-button-response","trial_index":132,"time_elapsed":888267,"internal_node_id":"0.0-4.0-1.62","subject_id":"602bfa74abe14141ae89b2fe","study_id":"60edd13110225f80f9f3709b","session_id":"6196c6fbb16140caef902a47","condition":"full-information","relevant_dimensions":["pattern","legs"],"bee_group":{"antennae":"X","wings":"X","pattern":"S","legs":"M"},"bonus":1.520000000000001},{"rt":983,"stimulus":"bees-with-color/bee-B2DF.svg","response":0,"trial_type":"image-button-response","trial_index":133,"time_elapsed":889250,"internal_node_id":"0.0-4.0-0.63","subject_id":"602bfa74abe14141ae89b2fe","study_id":"60edd13110225f80f9f3709b","session_id":"6196c6fbb16140caef902a47","condition":"full-information","relevant_dimensions":["pattern","legs"],"bee_group":{"antennae":"X","wings":"X","pattern":"S","legs":"M"},"action":"harvest","summary":"good-harvest","bonus":1.520000000000001},{"rt":1695,"stimulus":"\n                    <p><b>Action: <em>harvest</em></b></p>\n                    <p>This is the bee that you just saw.</p>\n                    <img src=\"bees-with-color/bee-B2DF.svg\" width=\"200\">\n                    <p><span class=\"greenText\"><b>Successful harvest!</b></span><br>Your pay has increased by $0.02. Your bonus pay is now $1.46.</p>\n            ","response":0,"trial_type":"html-button-response","trial_index":134,"time_elapsed":890947,"internal_node_id":"0.0-4.0-1.63","subject_id":"602bfa74abe14141ae89b2fe","study_id":"60edd13110225f80f9f3709b","session_id":"6196c6fbb16140caef902a47","condition":"full-information","relevant_dimensions":["pattern","legs"],"bee_group":{"antennae":"X","wings":"X","pattern":"S","legs":"M"},"bonus":1.520000000000001},{"rt":20819,"stimulus":"You have completed the first part of this experiment.<br><br>You will now begin a shorter second part, in which you will receive no feedback.<br>The same rules regarding bonus pay apply.<br><br>Press any key to begin.","response":" ","trial_type":"html-keyboard-response","trial_index":135,"time_elapsed":911767,"internal_node_id":"0.0-5.0","subject_id":"602bfa74abe14141ae89b2fe","study_id":"60edd13110225f80f9f3709b","session_id":"6196c6fbb16140caef902a47","condition":"full-information","relevant_dimensions":["pattern","legs"],"bee_group":{"antennae":"X","wings":"X","pattern":"S","legs":"M"},"bonus":1.520000000000001},{"rt":5131,"stimulus":"bees-with-color/bee-A1DF.svg","response":1,"trial_type":"image-button-response","trial_index":136,"time_elapsed":916899,"internal_node_id":"0.0-6.0-0.0","subject_id":"602bfa74abe14141ae89b2fe","study_id":"60edd13110225f80f9f3709b","session_id":"6196c6fbb16140caef902a47","condition":"full-information","relevant_dimensions":["pattern","legs"],"bee_group":{"antennae":"X","wings":"X","pattern":"S","legs":"M"},"bonus":1.520000000000001},{"rt":2103,"stimulus":"bees-with-color/bee-B1DF.svg","response":0,"trial_type":"image-button-response","trial_index":137,"time_elapsed":919003,"internal_node_id":"0.0-6.0-0.1","subject_id":"602bfa74abe14141ae89b2fe","study_id":"60edd13110225f80f9f3709b","session_id":"6196c6fbb16140caef902a47","condition":"full-information","relevant_dimensions":["pattern","legs"],"bee_group":{"antennae":"X","wings":"X","pattern":"S","legs":"M"},"bonus":1.520000000000001},{"rt":3646,"stimulus":"bees-with-color/bee-A1SM.svg","response":1,"trial_type":"image-button-response","trial_index":138,"time_elapsed":922652,"internal_node_id":"0.0-6.0-0.2","subject_id":"602bfa74abe14141ae89b2fe","study_id":"60edd13110225f80f9f3709b","session_id":"6196c6fbb16140caef902a47","condition":"full-information","relevant_dimensions":["pattern","legs"],"bee_group":{"antennae":"X","wings":"X","pattern":"S","legs":"M"},"bonus":1.520000000000001},{"rt":606,"stimulus":"bees-with-color/bee-B2DM.svg","response":0,"trial_type":"image-button-response","trial_index":139,"time_elapsed":923260,"internal_node_id":"0.0-6.0-0.3","subject_id":"602bfa74abe14141ae89b2fe","study_id":"60edd13110225f80f9f3709b","session_id":"6196c6fbb16140caef902a47","condition":"full-information","relevant_dimensions":["pattern","legs"],"bee_group":{"antennae":"X","wings":"X","pattern":"S","legs":"M"},"bonus":1.520000000000001},{"rt":958,"stimulus":"bees-with-color/bee-B1DM.svg","response":0,"trial_type":"image-button-response","trial_index":140,"time_elapsed":924219,"internal_node_id":"0.0-6.0-0.4","subject_id":"602bfa74abe14141ae89b2fe","study_id":"60edd13110225f80f9f3709b","session_id":"6196c6fbb16140caef902a47","condition":"full-information","relevant_dimensions":["pattern","legs"],"bee_group":{"antennae":"X","wings":"X","pattern":"S","legs":"M"},"bonus":1.520000000000001},{"rt":615,"stimulus":"bees-with-color/bee-A1DM.svg","response":1,"trial_type":"image-button-response","trial_index":141,"time_elapsed":924835,"internal_node_id":"0.0-6.0-0.5","subject_id":"602bfa74abe14141ae89b2fe","study_id":"60edd13110225f80f9f3709b","session_id":"6196c6fbb16140caef902a47","condition":"full-information","relevant_dimensions":["pattern","legs"],"bee_group":{"antennae":"X","wings":"X","pattern":"S","legs":"M"},"bonus":1.520000000000001},{"rt":639,"stimulus":"bees-with-color/bee-A1SF.svg","response":1,"trial_type":"image-button-response","trial_index":142,"time_elapsed":925475,"internal_node_id":"0.0-6.0-0.6","subject_id":"602bfa74abe14141ae89b2fe","study_id":"60edd13110225f80f9f3709b","session_id":"6196c6fbb16140caef902a47","condition":"full-information","relevant_dimensions":["pattern","legs"],"bee_group":{"antennae":"X","wings":"X","pattern":"S","legs":"M"},"bonus":1.520000000000001},{"rt":799,"stimulus":"bees-with-color/bee-B1SM.svg","response":1,"trial_type":"image-button-response","trial_index":143,"time_elapsed":926275,"internal_node_id":"0.0-6.0-0.7","subject_id":"602bfa74abe14141ae89b2fe","study_id":"60edd13110225f80f9f3709b","session_id":"6196c6fbb16140caef902a47","condition":"full-information","relevant_dimensions":["pattern","legs"],"bee_group":{"antennae":"X","wings":"X","pattern":"S","legs":"M"},"bonus":1.520000000000001},{"rt":759,"stimulus":"bees-with-color/bee-B2DF.svg","response":1,"trial_type":"image-button-response","trial_index":144,"time_elapsed":927035,"internal_node_id":"0.0-6.0-0.8","subject_id":"602bfa74abe14141ae89b2fe","study_id":"60edd13110225f80f9f3709b","session_id":"6196c6fbb16140caef902a47","condition":"full-information","relevant_dimensions":["pattern","legs"],"bee_group":{"antennae":"X","wings":"X","pattern":"S","legs":"M"},"bonus":1.520000000000001},{"rt":647,"stimulus":"bees-with-color/bee-B2SM.svg","response":1,"trial_type":"image-button-response","trial_index":145,"time_elapsed":927683,"internal_node_id":"0.0-6.0-0.9","subject_id":"602bfa74abe14141ae89b2fe","study_id":"60edd13110225f80f9f3709b","session_id":"6196c6fbb16140caef902a47","condition":"full-information","relevant_dimensions":["pattern","legs"],"bee_group":{"antennae":"X","wings":"X","pattern":"S","legs":"M"},"bonus":1.520000000000001},{"rt":558,"stimulus":"bees-with-color/bee-A2SF.svg","response":1,"trial_type":"image-button-response","trial_index":146,"time_elapsed":928243,"internal_node_id":"0.0-6.0-0.10","subject_id":"602bfa74abe14141ae89b2fe","study_id":"60edd13110225f80f9f3709b","session_id":"6196c6fbb16140caef902a47","condition":"full-information","relevant_dimensions":["pattern","legs"],"bee_group":{"antennae":"X","wings":"X","pattern":"S","legs":"M"},"bonus":1.520000000000001},{"rt":639,"stimulus":"bees-with-color/bee-B1SF.svg","response":1,"trial_type":"image-button-response","trial_index":147,"time_elapsed":928883,"internal_node_id":"0.0-6.0-0.11","subject_id":"602bfa74abe14141ae89b2fe","study_id":"60edd13110225f80f9f3709b","session_id":"6196c6fbb16140caef902a47","condition":"full-information","relevant_dimensions":["pattern","legs"],"bee_group":{"antennae":"X","wings":"X","pattern":"S","legs":"M"},"bonus":1.520000000000001},{"rt":184,"stimulus":"bees-with-color/bee-A2DF.svg","response":1,"trial_type":"image-button-response","trial_index":148,"time_elapsed":929067,"internal_node_id":"0.0-6.0-0.12","subject_id":"602bfa74abe14141ae89b2fe","study_id":"60edd13110225f80f9f3709b","session_id":"6196c6fbb16140caef902a47","condition":"full-information","relevant_dimensions":["pattern","legs"],"bee_group":{"antennae":"X","wings":"X","pattern":"S","legs":"M"},"bonus":1.520000000000001},{"rt":190,"stimulus":"bees-with-color/bee-B2SF.svg","response":1,"trial_type":"image-button-response","trial_index":149,"time_elapsed":929259,"internal_node_id":"0.0-6.0-0.13","subject_id":"602bfa74abe14141ae89b2fe","study_id":"60edd13110225f80f9f3709b","session_id":"6196c6fbb16140caef902a47","condition":"full-information","relevant_dimensions":["pattern","legs"],"bee_group":{"antennae":"X","wings":"X","pattern":"S","legs":"M"},"bonus":1.520000000000001},{"rt":167,"stimulus":"bees-with-color/bee-A2SM.svg","response":1,"trial_type":"image-button-response","trial_index":150,"time_elapsed":929427,"internal_node_id":"0.0-6.0-0.14","subject_id":"602bfa74abe14141ae89b2fe","study_id":"60edd13110225f80f9f3709b","session_id":"6196c6fbb16140caef902a47","condition":"full-information","relevant_dimensions":["pattern","legs"],"bee_group":{"antennae":"X","wings":"X","pattern":"S","legs":"M"},"bonus":1.520000000000001},{"rt":166,"stimulus":"bees-with-color/bee-A2DM.svg","response":1,"trial_type":"image-button-response","trial_index":151,"time_elapsed":929595,"internal_node_id":"0.0-6.0-0.15","subject_id":"602bfa74abe14141ae89b2fe","study_id":"60edd13110225f80f9f3709b","session_id":"6196c6fbb16140caef902a47","condition":"full-information","relevant_dimensions":["pattern","legs"],"bee_group":{"antennae":"X","wings":"X","pattern":"S","legs":"M"},"bonus":1.520000000000001},{"rt":151,"stimulus":"bees-with-color/bee-A2SM.svg","response":1,"trial_type":"image-button-response","trial_index":152,"time_elapsed":929748,"internal_node_id":"0.0-6.0-0.16","subject_id":"602bfa74abe14141ae89b2fe","study_id":"60edd13110225f80f9f3709b","session_id":"6196c6fbb16140caef902a47","condition":"full-information","relevant_dimensions":["pattern","legs"],"bee_group":{"antennae":"X","wings":"X","pattern":"S","legs":"M"},"bonus":1.520000000000001},{"rt":175,"stimulus":"bees-with-color/bee-B2DM.svg","response":1,"trial_type":"image-button-response","trial_index":153,"time_elapsed":929923,"internal_node_id":"0.0-6.0-0.17","subject_id":"602bfa74abe14141ae89b2fe","study_id":"60edd13110225f80f9f3709b","session_id":"6196c6fbb16140caef902a47","condition":"full-information","relevant_dimensions":["pattern","legs"],"bee_group":{"antennae":"X","wings":"X","pattern":"S","legs":"M"},"bonus":1.520000000000001},{"rt":390,"stimulus":"bees-with-color/bee-B2SM.svg","response":1,"trial_type":"image-button-response","trial_index":154,"time_elapsed":930316,"internal_node_id":"0.0-6.0-0.18","subject_id":"602bfa74abe14141ae89b2fe","study_id":"60edd13110225f80f9f3709b","session_id":"6196c6fbb16140caef902a47","condition":"full-information","relevant_dimensions":["pattern","legs"],"bee_group":{"antennae":"X","wings":"X","pattern":"S","legs":"M"},"bonus":1.520000000000001},{"rt":191,"stimulus":"bees-with-color/bee-A2DM.svg","response":1,"trial_type":"image-button-response","trial_index":155,"time_elapsed":930508,"internal_node_id":"0.0-6.0-0.19","subject_id":"602bfa74abe14141ae89b2fe","study_id":"60edd13110225f80f9f3709b","session_id":"6196c6fbb16140caef902a47","condition":"full-information","relevant_dimensions":["pattern","legs"],"bee_group":{"antennae":"X","wings":"X","pattern":"S","legs":"M"},"bonus":1.520000000000001},{"rt":199,"stimulus":"bees-with-color/bee-A1SF.svg","response":1,"trial_type":"image-button-response","trial_index":156,"time_elapsed":930708,"internal_node_id":"0.0-6.0-0.20","subject_id":"602bfa74abe14141ae89b2fe","study_id":"60edd13110225f80f9f3709b","session_id":"6196c6fbb16140caef902a47","condition":"full-information","relevant_dimensions":["pattern","legs"],"bee_group":{"antennae":"X","wings":"X","pattern":"S","legs":"M"},"bonus":1.520000000000001},{"rt":238,"stimulus":"bees-with-color/bee-B1DF.svg","response":1,"trial_type":"image-button-response","trial_index":157,"time_elapsed":930947,"internal_node_id":"0.0-6.0-0.21","subject_id":"602bfa74abe14141ae89b2fe","study_id":"60edd13110225f80f9f3709b","session_id":"6196c6fbb16140caef902a47","condition":"full-information","relevant_dimensions":["pattern","legs"],"bee_group":{"antennae":"X","wings":"X","pattern":"S","legs":"M"},"bonus":1.520000000000001},{"rt":406,"stimulus":"bees-with-color/bee-A1DF.svg","response":1,"trial_type":"image-button-response","trial_index":158,"time_elapsed":931356,"internal_node_id":"0.0-6.0-0.22","subject_id":"602bfa74abe14141ae89b2fe","study_id":"60edd13110225f80f9f3709b","session_id":"6196c6fbb16140caef902a47","condition":"full-information","relevant_dimensions":["pattern","legs"],"bee_group":{"antennae":"X","wings":"X","pattern":"S","legs":"M"},"bonus":1.520000000000001},{"rt":247,"stimulus":"bees-with-color/bee-B1DM.svg","response":1,"trial_type":"image-button-response","trial_index":159,"time_elapsed":931603,"internal_node_id":"0.0-6.0-0.23","subject_id":"602bfa74abe14141ae89b2fe","study_id":"60edd13110225f80f9f3709b","session_id":"6196c6fbb16140caef902a47","condition":"full-information","relevant_dimensions":["pattern","legs"],"bee_group":{"antennae":"X","wings":"X","pattern":"S","legs":"M"},"bonus":1.520000000000001},{"rt":182,"stimulus":"bees-with-color/bee-A2DF.svg","response":1,"trial_type":"image-button-response","trial_index":160,"time_elapsed":931787,"internal_node_id":"0.0-6.0-0.24","subject_id":"602bfa74abe14141ae89b2fe","study_id":"60edd13110225f80f9f3709b","session_id":"6196c6fbb16140caef902a47","condition":"full-information","relevant_dimensions":["pattern","legs"],"bee_group":{"antennae":"X","wings":"X","pattern":"S","legs":"M"},"bonus":1.520000000000001},{"rt":175,"stimulus":"bees-with-color/bee-B2DF.svg","response":1,"trial_type":"image-button-response","trial_index":161,"time_elapsed":931963,"internal_node_id":"0.0-6.0-0.25","subject_id":"602bfa74abe14141ae89b2fe","study_id":"60edd13110225f80f9f3709b","session_id":"6196c6fbb16140caef902a47","condition":"full-information","relevant_dimensions":["pattern","legs"],"bee_group":{"antennae":"X","wings":"X","pattern":"S","legs":"M"}