[{"success":true,"trial_type":"fullscreen","trial_index":0,"time_elapsed":4468,"internal_node_id":"0.0-0.0","subject_id":"5ef658dc548fce12fda46af8","study_id":"60edd13110225f80f9f3709b","session_id":"6196c9b55fc5c20a634e7d6e","condition":"contingent","relevant_dimensions":["antennae","legs"],"bee_group":{"antennae":"B","wings":"X","pattern":"X","legs":"M"},"bonus":1.4000000000000008},{"success":true,"timeout":false,"failed_images":[],"failed_audio":[],"failed_video":[],"trial_type":"preload","trial_index":1,"time_elapsed":5911,"internal_node_id":"0.0-1.0","subject_id":"5ef658dc548fce12fda46af8","study_id":"60edd13110225f80f9f3709b","session_id":"6196c9b55fc5c20a634e7d6e","condition":"contingent","relevant_dimensions":["antennae","legs"],"bee_group":{"antennae":"B","wings":"X","pattern":"X","legs":"M"},"bonus":1.4000000000000008},{"rt":1571.7000000476837,"stimulus":"Welcome! Press any key to begin.","response":"arrowright","trial_type":"html-keyboard-response","trial_index":2,"time_elapsed":7484,"internal_node_id":"0.0-2.0","subject_id":"5ef658dc548fce12fda46af8","study_id":"60edd13110225f80f9f3709b","session_id":"6196c9b55fc5c20a634e7d6e","condition":"contingent","relevant_dimensions":["antennae","legs"],"bee_group":{"antennae":"B","wings":"X","pattern":"X","legs":"M"},"bonus":1.4000000000000008},{"view_history":[{"page_index":0,"viewing_time":4888},{"page_index":1,"viewing_time":15255.5},{"page_index":2,"viewing_time":15697.5},{"page_index":3,"viewing_time":15527.399999976158},{"page_index":4,"viewing_time":4980.699999928474},{"page_index":5,"viewing_time":7120.400000095367},{"page_index":6,"viewing_time":11132.899999976158},{"page_index":7,"viewing_time":5818.799999952316},{"page_index":8,"viewing_time":6044.600000023842},{"page_index":9,"viewing_time":2494},{"page_index":10,"viewing_time":2862.600000023842},{"page_index":11,"viewing_time":8348.600000023842},{"page_index":12,"viewing_time":9618.899999976158},{"page_index":13,"viewing_time":1092.1000000238419},{"page_index":14,"viewing_time":2316}],"rt":113198.19999992847,"trial_type":"instructions","trial_index":3,"time_elapsed":120682,"internal_node_id":"0.0-3.0-0.0","subject_id":"5ef658dc548fce12fda46af8","study_id":"60edd13110225f80f9f3709b","session_id":"6196c9b55fc5c20a634e7d6e","condition":"contingent","relevant_dimensions":["antennae","legs"],"bee_group":{"antennae":"B","wings":"X","pattern":"X","legs":"M"},"bonus":1.4000000000000008},{"rt":10721,"response":{"Q0":["Two or six legs","Stripes or spots on body","Single or double wings","Antennae or no antennae"]},"question_order":[0],"trial_type":"survey-multi-select","trial_index":4,"time_elapsed":131406,"internal_node_id":"0.0-3.0-1.0","subject_id":"5ef658dc548fce12fda46af8","study_id":"60edd13110225f80f9f3709b","session_id":"6196c9b55fc5c20a634e7d6e","condition":"contingent","relevant_dimensions":["antennae","legs"],"bee_group":{"antennae":"B","wings":"X","pattern":"X","legs":"M"},"correct":true,"bonus":1.4000000000000008},{"rt":18150.600000023842,"response":{"Q1":"No.","Q2":"Based on the four features of the bee.","Q3":"You do not learn if it was friendly or dangerous, and do not alter your bonus."},"question_order":[0,1,2],"trial_type":"survey-multi-choice","trial_index":5,"time_elapsed":149560,"internal_node_id":"0.0-3.0-2.0","subject_id":"5ef658dc548fce12fda46af8","study_id":"60edd13110225f80f9f3709b","session_id":"6196c9b55fc5c20a634e7d6e","condition":"contingent","relevant_dimensions":["antennae","legs"],"bee_group":{"antennae":"B","wings":"X","pattern":"X","legs":"M"},"correct":true,"bonus":1.4000000000000008},{"rt":3533.399999976158,"stimulus":"<p>Congrats, you got everything right<br>When you're ready, click the button below to continue to the experiment.</p>","response":0,"trial_type":"html-button-response","trial_index":6,"time_elapsed":153097,"internal_node_id":"0.0-3.0-3.0","subject_id":"5ef658dc548fce12fda46af8","study_id":"60edd13110225f80f9f3709b","session_id":"6196c9b55fc5c20a634e7d6e","condition":"contingent","relevant_dimensions":["antennae","legs"],"bee_group":{"antennae":"B","wings":"X","pattern":"X","legs":"M"},"bonus":1.4000000000000008},{"rt":8037.100000023842,"stimulus":"bees-with-color/bee-A2DF.svg","response":0,"trial_type":"image-button-response","trial_index":7,"time_elapsed":161135,"internal_node_id":"0.0-4.0-0.0","subject_id":"5ef658dc548fce12fda46af8","study_id":"60edd13110225f80f9f3709b","session_id":"6196c9b55fc5c20a634e7d6e","condition":"contingent","relevant_dimensions":["antennae","legs"],"bee_group":{"antennae":"B","wings":"X","pattern":"X","legs":"M"},"action":"harvest","summary":"good-harvest","bonus":1.4000000000000008},{"rt":5748.899999976158,"stimulus":"\n                    <p><b>Action: <em>harvest</em></b></p>\n                    <p>This is the bee that you just saw.</p>\n                    <img src=\"bees-with-color/bee-A2DF.svg\" width=\"200\">\n                    <p><span class=\"greenText\"><b>Successful harvest!</b></span><br>Your pay has increased by $0.02. Your bonus pay is now $0.56.</p>\n            ","response":0,"trial_type":"html-button-response","trial_index":8,"time_elapsed":166886,"internal_node_id":"0.0-4.0-1.0","subject_id":"5ef658dc548fce12fda46af8","study_id":"60edd13110225f80f9f3709b","session_id":"6196c9b55fc5c20a634e7d6e","condition":"contingent","relevant_dimensions":["antennae","legs"],"bee_group":{"antennae":"B","wings":"X","pattern":"X","legs":"M"},"bonus":1.4000000000000008},{"rt":4678.699999928474,"stimulus":"bees-with-color/bee-A2SM.svg","response":0,"trial_type":"image-button-response","trial_index":9,"time_elapsed":171566,"internal_node_id":"0.0-4.0-0.1","subject_id":"5ef658dc548fce12fda46af8","study_id":"60edd13110225f80f9f3709b","session_id":"6196c9b55fc5c20a634e7d6e","condition":"contingent","relevant_dimensions":["antennae","legs"],"bee_group":{"antennae":"B","wings":"X","pattern":"X","legs":"M"},"action":"harvest","summary":"good-harvest","bonus":1.4000000000000008},{"rt":7489.200000047684,"stimulus":"\n                    <p><b>Action: <em>harvest</em></b></p>\n                    <p>This is the bee that you just saw.</p>\n                    <img src=\"bees-with-color/bee-A2SM.svg\" width=\"200\">\n                    <p><span class=\"greenText\"><b>Successful harvest!</b></span><br>Your pay has increased by $0.02. Your bonus pay is now $0.58.</p>\n            ","response":0,"trial_type":"html-button-response","trial_index":10,"time_elapsed":179057,"internal_node_id":"0.0-4.0-1.1","subject_id":"5ef658dc548fce12fda46af8","study_id":"60edd13110225f80f9f3709b","session_id":"6196c9b55fc5c20a634e7d6e","condition":"contingent","relevant_dimensions":["antennae","legs"],"bee_group":{"antennae":"B","wings":"X","pattern":"X","legs":"M"},"bonus":1.4000000000000008},{"rt":1732.5,"stimulus":"bees-with-color/bee-B2SM.svg","response":0,"trial_type":"image-button-response","trial_index":11,"time_elapsed":180791,"internal_node_id":"0.0-4.0-0.2","subject_id":"5ef658dc548fce12fda46af8","study_id":"60edd13110225f80f9f3709b","session_id":"6196c9b55fc5c20a634e7d6e","condition":"contingent","relevant_dimensions":["antennae","legs"],"bee_group":{"antennae":"B","wings":"X","pattern":"X","legs":"M"},"action":"harvest","summary":"bad-harvest","bonus":1.4000000000000008},{"rt":8651.5,"stimulus":"\n                    <p><b>Action: <em>harvest</em></b></p>\n                    <p>This is the bee that you just saw.</p>\n                    <img src=\"bees-with-color/bee-B2SM.svg\" width=\"200\">\n                    <p><span class=\"redText\">Bad choice, the bee was angry.</span><br><b>You have been stung!</b><br>Your pay has been decreased by $0.10. Your bonus pay is now $0.48.</p>\n            ","response":0,"trial_type":"html-button-response","trial_index":12,"time_elapsed":189444,"internal_node_id":"0.0-4.0-1.2","subject_id":"5ef658dc548fce12fda46af8","study_id":"60edd13110225f80f9f3709b","session_id":"6196c9b55fc5c20a634e7d6e","condition":"contingent","relevant_dimensions":["antennae","legs"],"bee_group":{"antennae":"B","wings":"X","pattern":"X","legs":"M"},"bonus":1.4000000000000008},{"rt":5579.600000023842,"stimulus":"bees-with-color/bee-A1DM.svg","response":0,"trial_type":"image-button-response","trial_index":13,"time_elapsed":195025,"internal_node_id":"0.0-4.0-0.3","subject_id":"5ef658dc548fce12fda46af8","study_id":"60edd13110225f80f9f3709b","session_id":"6196c9b55fc5c20a634e7d6e","condition":"contingent","relevant_dimensions":["antennae","legs"],"bee_group":{"antennae":"B","wings":"X","pattern":"X","legs":"M"},"action":"harvest","summary":"good-harvest","bonus":1.4000000000000008},{"rt":3201.2999999523163,"stimulus":"\n                    <p><b>Action: <em>harvest</em></b></p>\n                    <p>This is the bee that you just saw.</p>\n                    <img src=\"bees-with-color/bee-A1DM.svg\" width=\"200\">\n                    <p><span class=\"greenText\"><b>Successful harvest!</b></span><br>Your pay has increased by $0.02. Your bonus pay is now $0.50.</p>\n            ","response":0,"trial_type":"html-button-response","trial_index":14,"time_elapsed":198227,"internal_node_id":"0.0-4.0-1.3","subject_id":"5ef658dc548fce12fda46af8","study_id":"60edd13110225f80f9f3709b","session_id":"6196c9b55fc5c20a634e7d6e","condition":"contingent","relevant_dimensions":["antennae","legs"],"bee_group":{"antennae":"B","wings":"X","pattern":"X","legs":"M"},"bonus":1.4000000000000008},{"rt":1366.7999999523163,"stimulus":"bees-with-color/bee-B1DF.svg","response":1,"trial_type":"image-button-response","trial_index":15,"time_elapsed":199595,"internal_node_id":"0.0-4.0-0.4","subject_id":"5ef658dc548fce12fda46af8","study_id":"60edd13110225f80f9f3709b","session_id":"6196c9b55fc5c20a634e7d6e","condition":"contingent","relevant_dimensions":["antennae","legs"],"bee_group":{"antennae":"B","wings":"X","pattern":"X","legs":"M"},"action":"avoid","summary":"bad-avoid","bonus":1.4000000000000008},{"rt":1351.4000000953674,"stimulus":"\n                    <p><b>Action: <em>avoid</em></b></p>\n                    <p>This is the bee that you just saw.</p>\n                    <img src=\"bees-with-color/bee-B1DF.svg\" width=\"200\">\n                    <p><br>Your bonus pay is unchanged, and remains at $0.50.</p>\n            ","response":0,"trial_type":"html-button-response","trial_index":16,"time_elapsed":200947,"internal_node_id":"0.0-4.0-1.4","subject_id":"5ef658dc548fce12fda46af8","study_id":"60edd13110225f80f9f3709b","session_id":"6196c9b55fc5c20a634e7d6e","condition":"contingent","relevant_dimensions":["antennae","legs"],"bee_group":{"antennae":"B","wings":"X","pattern":"X","legs":"M"},"bonus":1.4000000000000008},{"rt":1250.8000000715256,"stimulus":"bees-with-color/bee-A1SM.svg","response":0,"trial_type":"image-button-response","trial_index":17,"time_elapsed":202199,"internal_node_id":"0.0-4.0-0.5","subject_id":"5ef658dc548fce12fda46af8","study_id":"60edd13110225f80f9f3709b","session_id":"6196c9b55fc5c20a634e7d6e","condition":"contingent","relevant_dimensions":["antennae","legs"],"bee_group":{"antennae":"B","wings":"X","pattern":"X","legs":"M"},"action":"harvest","summary":"good-harvest","bonus":1.4000000000000008},{"rt":1537.2000000476837,"stimulus":"\n                    <p><b>Action: <em>harvest</em></b></p>\n                    <p>This is the bee that you just saw.</p>\n                    <img src=\"bees-with-color/bee-A1SM.svg\" width=\"200\">\n                    <p><span class=\"greenText\"><b>Successful harvest!</b></span><br>Your pay has increased by $0.02. Your bonus pay is now $0.52.</p>\n            ","response":0,"trial_type":"html-button-response","trial_index":18,"time_elapsed":203737,"internal_node_id":"0.0-4.0-1.5","subject_id":"5ef658dc548fce12fda46af8","study_id":"60edd13110225f80f9f3709b","session_id":"6196c9b55fc5c20a634e7d6e","condition":"contingent","relevant_dimensions":["antennae","legs"],"bee_group":{"antennae":"B","wings":"X","pattern":"X","legs":"M"},"bonus":1.4000000000000008},{"rt":854.5999999046326,"stimulus":"bees-with-color/bee-B1SF.svg","response":1,"trial_type":"image-button-response","trial_index":19,"time_elapsed":204594,"internal_node_id":"0.0-4.0-0.6","subject_id":"5ef658dc548fce12fda46af8","study_id":"60edd13110225f80f9f3709b","session_id":"6196c9b55fc5c20a634e7d6e","condition":"contingent","relevant_dimensions":["antennae","legs"],"bee_group":{"antennae":"B","wings":"X","pattern":"X","legs":"M"},"action":"avoid","summary":"bad-avoid","bonus":1.4000000000000008},{"rt":580.8999999761581,"stimulus":"\n                    <p><b>Action: <em>avoid</em></b></p>\n                    <p>This is the bee that you just saw.</p>\n                    <img src=\"bees-with-color/bee-B1SF.svg\" width=\"200\">\n                    <p><br>Your bonus pay is unchanged, and remains at $0.52.</p>\n            ","response":0,"trial_type":"html-button-response","trial_index":20,"time_elapsed":205176,"internal_node_id":"0.0-4.0-1.6","subject_id":"5ef658dc548fce12fda46af8","study_id":"60edd13110225f80f9f3709b","session_id":"6196c9b55fc5c20a634e7d6e","condition":"contingent","relevant_dimensions":["antennae","legs"],"bee_group":{"antennae":"B","wings":"X","pattern":"X","legs":"M"},"bonus":1.4000000000000008},{"rt":839.2000000476837,"stimulus":"bees-with-color/bee-B1DM.svg","response":1,"trial_type":"image-button-response","trial_index":21,"time_elapsed":206016,"internal_node_id":"0.0-4.0-0.7","subject_id":"5ef658dc548fce12fda46af8","study_id":"60edd13110225f80f9f3709b","session_id":"6196c9b55fc5c20a634e7d6e","condition":"contingent","relevant_dimensions":["antennae","legs"],"bee_group":{"antennae":"B","wings":"X","pattern":"X","legs":"M"},"action":"avoid","summary":"good-avoid","bonus":1.4000000000000008},{"rt":461,"stimulus":"\n                    <p><b>Action: <em>avoid</em></b></p>\n                    <p>This is the bee that you just saw.</p>\n                    <img src=\"bees-with-color/bee-B1DM.svg\" width=\"200\">\n                    <p><br>Your bonus pay is unchanged, and remains at $0.52.</p>\n            ","response":0,"trial_type":"html-button-response","trial_index":22,"time_elapsed":206478,"internal_node_id":"0.0-4.0-1.7","subject_id":"5ef658dc548fce12fda46af8","study_id":"60edd13110225f80f9f3709b","session_id":"6196c9b55fc5c20a634e7d6e","condition":"contingent","relevant_dimensions":["antennae","legs"],"bee_group":{"antennae":"B","wings":"X","pattern":"X","legs":"M"},"bonus":1.4000000000000008},{"rt":2723,"stimulus":"bees-with-color/bee-A2SF.svg","response":0,"trial_type":"image-button-response","trial_index":23,"time_elapsed":209202,"internal_node_id":"0.0-4.0-0.8","subject_id":"5ef658dc548fce12fda46af8","study_id":"60edd13110225f80f9f3709b","session_id":"6196c9b55fc5c20a634e7d6e","condition":"contingent","relevant_dimensions":["antennae","legs"],"bee_group":{"antennae":"B","wings":"X","pattern":"X","legs":"M"},"action":"harvest","summary":"good-harvest","bonus":1.4000000000000008},{"rt":1187.1000000238419,"stimulus":"\n                    <p><b>Action: <em>harvest</em></b></p>\n                    <p>This is the bee that you just saw.</p>\n                    <img src=\"bees-with-color/bee-A2SF.svg\" width=\"200\">\n                    <p><span class=\"greenText\"><b>Successful harvest!</b></span><br>Your pay has increased by $0.02. Your bonus pay is now $0.54.</p>\n            ","response":0,"trial_type":"html-button-response","trial_index":24,"time_elapsed":210390,"internal_node_id":"0.0-4.0-1.8","subject_id":"5ef658dc548fce12fda46af8","study_id":"60edd13110225f80f9f3709b","session_id":"6196c9b55fc5c20a634e7d6e","condition":"contingent","relevant_dimensions":["antennae","legs"],"bee_group":{"antennae":"B","wings":"X","pattern":"X","legs":"M"},"bonus":1.4000000000000008},{"rt":1140.8999999761581,"stimulus":"bees-with-color/bee-A1DF.svg","response":0,"trial_type":"image-button-response","trial_index":25,"time_elapsed":211532,"internal_node_id":"0.0-4.0-0.9","subject_id":"5ef658dc548fce12fda46af8","study_id":"60edd13110225f80f9f3709b","session_id":"6196c9b55fc5c20a634e7d6e","condition":"contingent","relevant_dimensions":["antennae","legs"],"bee_group":{"antennae":"B","wings":"X","pattern":"X","legs":"M"},"action":"harvest","summary":"good-harvest","bonus":1.4000000000000008},{"rt":803.3000000715256,"stimulus":"\n                    <p><b>Action: <em>harvest</em></b></p>\n                    <p>This is the bee that you just saw.</p>\n                    <img src=\"bees-with-color/bee-A1DF.svg\" width=\"200\">\n                    <p><span class=\"greenText\"><b>Successful harvest!</b></span><br>Your pay has increased by $0.02. Your bonus pay is now $0.56.</p>\n            ","response":0,"trial_type":"html-button-response","trial_index":26,"time_elapsed":212336,"internal_node_id":"0.0-4.0-1.9","subject_id":"5ef658dc548fce12fda46af8","study_id":"60edd13110225f80f9f3709b","session_id":"6196c9b55fc5c20a634e7d6e","condition":"contingent","relevant_dimensions":["antennae","legs"],"bee_group":{"antennae":"B","wings":"X","pattern":"X","legs":"M"},"bonus":1.4000000000000008},{"rt":1213.5,"stimulus":"bees-with-color/bee-A2DM.svg","response":0,"trial_type":"image-button-response","trial_index":27,"time_elapsed":213550,"internal_node_id":"0.0-4.0-0.10","subject_id":"5ef658dc548fce12fda46af8","study_id":"60edd13110225f80f9f3709b","session_id":"6196c9b55fc5c20a634e7d6e","condition":"contingent","relevant_dimensions":["antennae","legs"],"bee_group":{"antennae":"B","wings":"X","pattern":"X","legs":"M"},"action":"harvest","summary":"good-harvest","bonus":1.4000000000000008},{"rt":822.8999999761581,"stimulus":"\n                    <p><b>Action: <em>harvest</em></b></p>\n                    <p>This is the bee that you just saw.</p>\n                    <img src=\"bees-with-color/bee-A2DM.svg\" width=\"200\">\n                    <p><span class=\"greenText\"><b>Successful harvest!</b></span><br>Your pay has increased by $0.02. Your bonus pay is now $0.58.</p>\n            ","response":0,"trial_type":"html-button-response","trial_index":28,"time_elapsed":214375,"internal_node_id":"0.0-4.0-1.10","subject_id":"5ef658dc548fce12fda46af8","study_id":"60edd13110225f80f9f3709b","session_id":"6196c9b55fc5c20a634e7d6e","condition":"contingent","relevant_dimensions":["antennae","legs"],"bee_group":{"antennae":"B","wings":"X","pattern":"X","legs":"M"},"bonus":1.4000000000000008},{"rt":782.8999999761581,"stimulus":"bees-with-color/bee-B2DF.svg","response":1,"trial_type":"image-button-response","trial_index":29,"time_elapsed":215158,"internal_node_id":"0.0-4.0-0.11","subject_id":"5ef658dc548fce12fda46af8","study_id":"60edd13110225f80f9f3709b","session_id":"6196c9b55fc5c20a634e7d6e","condition":"contingent","relevant_dimensions":["antennae","legs"],"bee_group":{"antennae":"B","wings":"X","pattern":"X","legs":"M"},"action":"avoid","summary":"bad-avoid","bonus":1.4000000000000008},{"rt":543.2000000476837,"stimulus":"\n                    <p><b>Action: <em>avoid</em></b></p>\n                    <p>This is the bee that you just saw.</p>\n                    <img src=\"bees-with-color/bee-B2DF.svg\" width=\"200\">\n                    <p><br>Your bonus pay is unchanged, and remains at $0.58.</p>\n            ","response":0,"trial_type":"html-button-response","trial_index":30,"time_elapsed":215703,"internal_node_id":"0.0-4.0-1.11","subject_id":"5ef658dc548fce12fda46af8","study_id":"60edd13110225f80f9f3709b","session_id":"6196c9b55fc5c20a634e7d6e","condition":"contingent","relevant_dimensions":["antennae","legs"],"bee_group":{"antennae":"B","wings":"X","pattern":"X","legs":"M"},"bonus":1.4000000000000008},{"rt":736.8999999761581,"stimulus":"bees-with-color/bee-B1SM.svg","response":1,"trial_type":"image-button-response","trial_index":31,"time_elapsed":216441,"internal_node_id":"0.0-4.0-0.12","subject_id":"5ef658dc548fce12fda46af8","study_id":"60edd13110225f80f9f3709b","session_id":"6196c9b55fc5c20a634e7d6e","condition":"contingent","relevant_dimensions":["antennae","legs"],"bee_group":{"antennae":"B","wings":"X","pattern":"X","legs":"M"},"action":"avoid","summary":"good-avoid","bonus":1.4000000000000008},{"rt":453.39999997615814,"stimulus":"\n                    <p><b>Action: <em>avoid</em></b></p>\n                    <p>This is the bee that you just saw.</p>\n                    <img src=\"bees-with-color/bee-B1SM.svg\" width=\"200\">\n                    <p><br>Your bonus pay is unchanged, and remains at $0.58.</p>\n            ","response":0,"trial_type":"html-button-response","trial_index":32,"time_elapsed":216895,"internal_node_id":"0.0-4.0-1.12","subject_id":"5ef658dc548fce12fda46af8","study_id":"60edd13110225f80f9f3709b","session_id":"6196c9b55fc5c20a634e7d6e","condition":"contingent","relevant_dimensions":["antennae","legs"],"bee_group":{"antennae":"B","wings":"X","pattern":"X","legs":"M"},"bonus":1.4000000000000008},{"rt":819,"stimulus":"bees-with-color/bee-B2DM.svg","response":1,"trial_type":"image-button-response","trial_index":33,"time_elapsed":217715,"internal_node_id":"0.0-4.0-0.13","subject_id":"5ef658dc548fce12fda46af8","study_id":"60edd13110225f80f9f3709b","session_id":"6196c9b55fc5c20a634e7d6e","condition":"contingent","relevant_dimensions":["antennae","legs"],"bee_group":{"antennae":"B","wings":"X","pattern":"X","legs":"M"},"action":"avoid","summary":"good-avoid","bonus":1.4000000000000008},{"rt":443.1999999284744,"stimulus":"\n                    <p><b>Action: <em>avoid</em></b></p>\n                    <p>This is the bee that you just saw.</p>\n                    <img src=\"bees-with-color/bee-B2DM.svg\" width=\"200\">\n                    <p><br>Your bonus pay is unchanged, and remains at $0.58.</p>\n            ","response":0,"trial_type":"html-button-response","trial_index":34,"time_elapsed":218159,"internal_node_id":"0.0-4.0-1.13","subject_id":"5ef658dc548fce12fda46af8","study_id":"60edd13110225f80f9f3709b","session_id":"6196c9b55fc5c20a634e7d6e","condition":"contingent","relevant_dimensions":["antennae","legs"],"bee_group":{"antennae":"B","wings":"X","pattern":"X","legs":"M"},"bonus":1.4000000000000008},{"rt":729.1999999284744,"stimulus":"bees-with-color/bee-A1SF.svg","response":0,"trial_type":"image-button-response","trial_index":35,"time_elapsed":218889,"internal_node_id":"0.0-4.0-0.14","subject_id":"5ef658dc548fce12fda46af8","study_id":"60edd13110225f80f9f3709b","session_id":"6196c9b55fc5c20a634e7d6e","condition":"contingent","relevant_dimensions":["antennae","legs"],"bee_group":{"antennae":"B","wings":"X","pattern":"X","legs":"M"},"action":"harvest","summary":"good-harvest","bonus":1.4000000000000008},{"rt":729.1999999284744,"stimulus":"\n                    <p><b>Action: <em>harvest</em></b></p>\n                    <p>This is the bee that you just saw.</p>\n                    <img src=\"bees-with-color/bee-A1SF.svg\" width=\"200\">\n                    <p><span class=\"greenText\"><b>Successful harvest!</b></span><br>Your pay has increased by $0.02. Your bonus pay is now $0.60.</p>\n            ","response":0,"trial_type":"html-button-response","trial_index":36,"time_elapsed":219619,"internal_node_id":"0.0-4.0-1.14","subject_id":"5ef658dc548fce12fda46af8","study_id":"60edd13110225f80f9f3709b","session_id":"6196c9b55fc5c20a634e7d6e","condition":"contingent","relevant_dimensions":["antennae","legs"],"bee_group":{"antennae":"B","wings":"X","pattern":"X","legs":"M"},"bonus":1.4000000000000008},{"rt":737.2000000476837,"stimulus":"bees-with-color/bee-B2SF.svg","response":1,"trial_type":"image-button-response","trial_index":37,"time_elapsed":220357,"internal_node_id":"0.0-4.0-0.15","subject_id":"5ef658dc548fce12fda46af8","study_id":"60edd13110225f80f9f3709b","session_id":"6196c9b55fc5c20a634e7d6e","condition":"contingent","relevant_dimensions":["antennae","legs"],"bee_group":{"antennae":"B","wings":"X","pattern":"X","legs":"M"},"action":"avoid","summary":"bad-avoid","bonus":1.4000000000000008},{"rt":505.2000000476837,"stimulus":"\n                    <p><b>Action: <em>avoid</em></b></p>\n                    <p>This is the bee that you just saw.</p>\n                    <img src=\"bees-with-color/bee-B2SF.svg\" width=\"200\">\n                    <p><br>Your bonus pay is unchanged, and remains at $0.60.</p>\n            ","response":0,"trial_type":"html-button-response","trial_index":38,"time_elapsed":220863,"internal_node_id":"0.0-4.0-1.15","subject_id":"5ef658dc548fce12fda46af8","study_id":"60edd13110225f80f9f3709b","session_id":"6196c9b55fc5c20a634e7d6e","condition":"contingent","relevant_dimensions":["antennae","legs"],"bee_group":{"antennae":"B","wings":"X","pattern":"X","legs":"M"},"bonus":1.4000000000000008},{"rt":1167.3000000715256,"stimulus":"bees-with-color/bee-B1SM.svg","response":1,"trial_type":"image-button-response","trial_index":39,"time_elapsed":222031,"internal_node_id":"0.0-4.0-0.16","subject_id":"5ef658dc548fce12fda46af8","study_id":"60edd13110225f80f9f3709b","session_id":"6196c9b55fc5c20a634e7d6e","condition":"contingent","relevant_dimensions":["antennae","legs"],"bee_group":{"antennae":"B","wings":"X","pattern":"X","legs":"M"},"action":"avoid","summary":"good-avoid","bonus":1.4000000000000008},{"rt":473.2000000476837,"stimulus":"\n                    <p><b>Action: <em>avoid</em></b></p>\n                    <p>This is the bee that you just saw.</p>\n                    <img src=\"bees-with-color/bee-B1SM.svg\" width=\"200\">\n                    <p><br>Your bonus pay is unchanged, and remains at $0.60.</p>\n            ","response":0,"trial_type":"html-button-response","trial_index":40,"time_elapsed":222505,"internal_node_id":"0.0-4.0-1.16","subject_id":"5ef658dc548fce12fda46af8","study_id":"60edd13110225f80f9f3709b","session_id":"6196c9b55fc5c20a634e7d6e","condition":"contingent","relevant_dimensions":["antennae","legs"],"bee_group":{"antennae":"B","wings":"X","pattern":"X","legs":"M"},"bonus":1.4000000000000008},{"rt":807.2000000476837,"stimulus":"bees-with-color/bee-A1SM.svg","response":0,"trial_type":"image-button-response","trial_index":41,"time_elapsed":223313,"internal_node_id":"0.0-4.0-0.17","subject_id":"5ef658dc548fce12fda46af8","study_id":"60edd13110225f80f9f3709b","session_id":"6196c9b55fc5c20a634e7d6e","condition":"contingent","relevant_dimensions":["antennae","legs"],"bee_group":{"antennae":"B","wings":"X","pattern":"X","legs":"M"},"action":"harvest","summary":"good-harvest","bonus":1.4000000000000008},{"rt":1177.5,"stimulus":"\n                    <p><b>Action: <em>harvest</em></b></p>\n                    <p>This is the bee that you just saw.</p>\n                    <img src=\"bees-with-color/bee-A1SM.svg\" width=\"200\">\n                    <p><span class=\"greenText\"><b>Successful harvest!</b></span><br>Your pay has increased by $0.02. Your bonus pay is now $0.62.</p>\n            ","response":0,"trial_type":"html-button-response","trial_index":42,"time_elapsed":224491,"internal_node_id":"0.0-4.0-1.17","subject_id":"5ef658dc548fce12fda46af8","study_id":"60edd13110225f80f9f3709b","session_id":"6196c9b55fc5c20a634e7d6e","condition":"contingent","relevant_dimensions":["antennae","legs"],"bee_group":{"antennae":"B","wings":"X","pattern":"X","legs":"M"},"bonus":1.4000000000000008},{"rt":950.8000000715256,"stimulus":"bees-with-color/bee-A2DF.svg","response":0,"trial_type":"image-button-response","trial_index":43,"time_elapsed":225443,"internal_node_id":"0.0-4.0-0.18","subject_id":"5ef658dc548fce12fda46af8","study_id":"60edd13110225f80f9f3709b","session_id":"6196c9b55fc5c20a634e7d6e","condition":"contingent","relevant_dimensions":["antennae","legs"],"bee_group":{"antennae":"B","wings":"X","pattern":"X","legs":"M"},"action":"harvest","summary":"good-harvest","bonus":1.4000000000000008},{"rt":717.5,"stimulus":"\n                    <p><b>Action: <em>harvest</em></b></p>\n                    <p>This is the bee that you just saw.</p>\n                    <img src=\"bees-with-color/bee-A2DF.svg\" width=\"200\">\n                    <p><span class=\"greenText\"><b>Successful harvest!</b></span><br>Your pay has increased by $0.02. Your bonus pay is now $0.64.</p>\n            ","response":0,"trial_type":"html-button-response","trial_index":44,"time_elapsed":226162,"internal_node_id":"0.0-4.0-1.18","subject_id":"5ef658dc548fce12fda46af8","study_id":"60edd13110225f80f9f3709b","session_id":"6196c9b55fc5c20a634e7d6e","condition":"contingent","relevant_dimensions":["antennae","legs"],"bee_group":{"antennae":"B","wings":"X","pattern":"X","legs":"M"},"bonus":1.4000000000000008},{"rt":797.2999999523163,"stimulus":"bees-with-color/bee-B2DF.svg","response":1,"trial_type":"image-button-response","trial_index":45,"time_elapsed":226960,"internal_node_id":"0.0-4.0-0.19","subject_id":"5ef658dc548fce12fda46af8","study_id":"60edd13110225f80f9f3709b","session_id":"6196c9b55fc5c20a634e7d6e","condition":"contingent","relevant_dimensions":["antennae","legs"],"bee_group":{"antennae":"B","wings":"X","pattern":"X","legs":"M"},"action":"avoid","summary":"bad-avoid","bonus":1.4000000000000008},{"rt":527,"stimulus":"\n                    <p><b>Action: <em>avoid</em></b></p>\n                    <p>This is the bee that you just saw.</p>\n                    <img src=\"bees-with-color/bee-B2DF.svg\" width=\"200\">\n                    <p><br>Your bonus pay is unchanged, and remains at $0.64.</p>\n            ","response":0,"trial_type":"html-button-response","trial_index":46,"time_elapsed":227488,"internal_node_id":"0.0-4.0-1.19","subject_id":"5ef658dc548fce12fda46af8","study_id":"60edd13110225f80f9f3709b","session_id":"6196c9b55fc5c20a634e7d6e","condition":"contingent","relevant_dimensions":["antennae","legs"],"bee_group":{"antennae":"B","wings":"X","pattern":"X","legs":"M"},"bonus":1.4000000000000008},{"rt":771.2999999523163,"stimulus":"bees-with-color/bee-B1SF.svg","response":1,"trial_type":"image-button-response","trial_index":47,"time_elapsed":228260,"internal_node_id":"0.0-4.0-0.20","subject_id":"5ef658dc548fce12fda46af8","study_id":"60edd13110225f80f9f3709b","session_id":"6196c9b55fc5c20a634e7d6e","condition":"contingent","relevant_dimensions":["antennae","legs"],"bee_group":{"antennae":"B","wings":"X","pattern":"X","legs":"M"},"action":"avoid","summary":"bad-avoid","bonus":1.4000000000000008},{"rt":462.90000009536743,"stimulus":"\n                    <p><b>Action: <em>avoid</em></b></p>\n                    <p>This is the bee that you just saw.</p>\n                    <img src=\"bees-with-color/bee-B1SF.svg\" width=\"200\">\n                    <p><br>Your bonus pay is unchanged, and remains at $0.64.</p>\n            ","response":0,"trial_type":"html-button-response","trial_index":48,"time_elapsed":228724,"internal_node_id":"0.0-4.0-1.20","subject_id":"5ef658dc548fce12fda46af8","study_id":"60edd13110225f80f9f3709b","session_id":"6196c9b55fc5c20a634e7d6e","condition":"contingent","relevant_dimensions":["antennae","legs"],"bee_group":{"antennae":"B","wings":"X","pattern":"X","legs":"M"},"bonus":1.4000000000000008},{"rt":743.1999999284744,"stimulus":"bees-with-color/bee-B2DM.svg","response":1,"trial_type":"image-button-response","trial_index":49,"time_elapsed":229468,"internal_node_id":"0.0-4.0-0.21","subject_id":"5ef658dc548fce12fda46af8","study_id":"60edd13110225f80f9f3709b","session_id":"6196c9b55fc5c20a634e7d6e","condition":"contingent","relevant_dimensions":["antennae","legs"],"bee_group":{"antennae":"B","wings":"X","pattern":"X","legs":"M"},"action":"avoid","summary":"good-avoid","bonus":1.4000000000000008},{"rt":439.2999999523163,"stimulus":"\n                    <p><b>Action: <em>avoid</em></b></p>\n                    <p>This is the bee that you just saw.</p>\n                    <img src=\"bees-with-color/bee-B2DM.svg\" width=\"200\">\n                    <p><br>Your bonus pay is unchanged, and remains at $0.64.</p>\n            ","response":0,"trial_type":"html-button-response","trial_index":50,"time_elapsed":229908,"internal_node_id":"0.0-4.0-1.21","subject_id":"5ef658dc548fce12fda46af8","study_id":"60edd13110225f80f9f3709b","session_id":"6196c9b55fc5c20a634e7d6e","condition":"contingent","relevant_dimensions":["antennae","legs"],"bee_group":{"antennae":"B","wings":"X","pattern":"X","legs":"M"},"bonus":1.4000000000000008},{"rt":851.3000000715256,"stimulus":"bees-with-color/bee-A1DM.svg","response":0,"trial_type":"image-button-response","trial_index":51,"time_elapsed":230760,"internal_node_id":"0.0-4.0-0.22","subject_id":"5ef658dc548fce12fda46af8","study_id":"60edd13110225f80f9f3709b","session_id":"6196c9b55fc5c20a634e7d6e","condition":"contingent","relevant_dimensions":["antennae","legs"],"bee_group":{"antennae":"B","wings":"X","pattern":"X","legs":"M"},"action":"harvest","summary":"good-harvest","bonus":1.4000000000000008},{"rt":799.1000000238419,"stimulus":"\n                    <p><b>Action: <em>harvest</em></b></p>\n                    <p>This is the bee that you just saw.</p>\n                    <img src=\"bees-with-color/bee-A1DM.svg\" width=\"200\">\n                    <p><span class=\"greenText\"><b>Successful harvest!</b></span><br>Your pay has increased by $0.02. Your bonus pay is now $0.66.</p>\n            ","response":0,"trial_type":"html-button-response","trial_index":52,"time_elapsed":231560,"internal_node_id":"0.0-4.0-1.22","subject_id":"5ef658dc548fce12fda46af8","study_id":"60edd13110225f80f9f3709b","session_id":"6196c9b55fc5c20a634e7d6e","condition":"contingent","relevant_dimensions":["antennae","legs"],"bee_group":{"antennae":"B","wings":"X","pattern":"X","legs":"M"},"bonus":1.4000000000000008},{"rt":733.2000000476837,"stimulus":"bees-with-color/bee-A2SM.svg","response":0,"trial_type":"image-button-response","trial_index":53,"time_elapsed":232294,"internal_node_id":"0.0-4.0-0.23","subject_id":"5ef658dc548fce12fda46af8","study_id":"60edd13110225f80f9f3709b","session_id":"6196c9b55fc5c20a634e7d6e","condition":"contingent","relevant_dimensions":["antennae","legs"],"bee_group":{"antennae":"B","wings":"X","pattern":"X","legs":"M"},"action":"harvest","summary":"good-harvest","bonus":1.4000000000000008},{"rt":655.2000000476837,"stimulus":"\n                    <p><b>Action: <em>harvest</em></b></p>\n                    <p>This is the bee that you just saw.</p>\n                    <img src=\"bees-with-color/bee-A2SM.svg\" width=\"200\">\n                    <p><span class=\"greenText\"><b>Successful harvest!</b></span><br>Your pay has increased by $0.02. Your bonus pay is now $0.68.</p>\n            ","response":0,"trial_type":"html-button-response","trial_index":54,"time_elapsed":232950,"internal_node_id":"0.0-4.0-1.23","subject_id":"5ef658dc548fce12fda46af8","study_id":"60edd13110225f80f9f3709b","session_id":"6196c9b55fc5c20a634e7d6e","condition":"contingent","relevant_dimensions":["antennae","legs"],"bee_group":{"antennae":"B","wings":"X","pattern":"X","legs":"M"},"bonus":1.4000000000000008},{"rt":719.4000000953674,"stimulus":"bees-with-color/bee-A2SF.svg","response":0,"trial_type":"image-button-response","trial_index":55,"time_elapsed":233670,"internal_node_id":"0.0-4.0-0.24","subject_id":"5ef658dc548fce12fda46af8","study_id":"60edd13110225f80f9f3709b","session_id":"6196c9b55fc5c20a634e7d6e","condition":"contingent","relevant_dimensions":["antennae","legs"],"bee_group":{"antennae":"B","wings":"X","pattern":"X","legs":"M"},"action":"harvest","summary":"good-harvest","bonus":1.4000000000000008},{"rt":809.1000000238419,"stimulus":"\n                    <p><b>Action: <em>harvest</em></b></p>\n                    <p>This is the bee that you just saw.</p>\n                    <img src=\"bees-with-color/bee-A2SF.svg\" width=\"200\">\n                    <p><span class=\"greenText\"><b>Successful harvest!</b></span><br>Your pay has increased by $0.02. Your bonus pay is now $0.70.</p>\n            ","response":0,"trial_type":"html-button-response","trial_index":56,"time_elapsed":234480,"internal_node_id":"0.0-4.0-1.24","subject_id":"5ef658dc548fce12fda46af8","study_id":"60edd13110225f80f9f3709b","session_id":"6196c9b55fc5c20a634e7d6e","condition":"contingent","relevant_dimensions":["antennae","legs"],"bee_group":{"antennae":"B","wings":"X","pattern":"X","legs":"M"},"bonus":1.4000000000000008},{"rt":1123.3999999761581,"stimulus":"bees-with-color/bee-A1DF.svg","response":0,"trial_type":"image-button-response","trial_index":57,"time_elapsed":235604,"internal_node_id":"0.0-4.0-0.25","subject_id":"5ef658dc548fce12fda46af8","study_id":"60edd13110225f80f9f3709b","session_id":"6196c9b55fc5c20a634e7d6e","condition":"contingent","relevant_dimensions":["antennae","legs"],"bee_group":{"antennae":"B","wings":"X","pattern":"X","legs":"M"},"action":"harvest","summary":"good-harvest","bonus":1.4000000000000008},{"rt":773.2999999523163,"stimulus":"\n                    <p><b>Action: <em>harvest</em></b></p>\n                    <p>This is the bee that you just saw.</p>\n                    <img src=\"bees-with-color/bee-A1DF.svg\" width=\"200\">\n                    <p><span class=\"greenText\"><b>Successful harvest!</b></span><br>Your pay has increased by $0.02. Your bonus pay is now $0.72.</p>\n            ","response":0,"trial_type":"html-button-response","trial_index":58,"time_elapsed":236378,"internal_node_id":"0.0-4.0-1.25","subject_id":"5ef658dc548fce12fda46af8","study_id":"60edd13110225f80f9f3709b","session_id":"6196c9b55fc5c20a634e7d6e","condition":"contingent","relevant_dimensions":["antennae","legs"],"bee_group":{"antennae":"B","wings":"X","pattern":"X","legs":"M"},"bonus":1.4000000000000008},{"rt":832.8999999761581,"stimulus":"bees-with-color/bee-A2DM.svg","response":0,"trial_type":"image-button-response","trial_index":59,"time_elapsed":237212,"internal_node_id":"0.0-4.0-0.26","subject_id":"5ef658dc548fce12fda46af8","study_id":"60edd13110225f80f9f3709b","session_id":"6196c9b55fc5c20a634e7d6e","condition":"contingent","relevant_dimensions":["antennae","legs"],"bee_group":{"antennae":"B","wings":"X","pattern":"X","legs":"M"},"action":"harvest","summary":"good-harvest","bonus":1.4000000000000008},{"rt":777.3999999761581,"stimulus":"\n                    <p><b>Action: <em>harvest</em></b></p>\n                    <p>This is the bee that you just saw.</p>\n                    <img src=\"bees-with-color/bee-A2DM.svg\" width=\"200\">\n                    <p><span class=\"greenText\"><b>Successful harvest!</b></span><br>Your pay has increased by $0.02. Your bonus pay is now $0.74.</p>\n            ","response":0,"trial_type":"html-button-response","trial_index":60,"time_elapsed":237991,"internal_node_id":"0.0-4.0-1.26","subject_id":"5ef658dc548fce12fda46af8","study_id":"60edd13110225f80f9f3709b","session_id":"6196c9b55fc5c20a634e7d6e","condition":"contingent","relevant_dimensions":["antennae","legs"],"bee_group":{"antennae":"B","wings":"X","pattern":"X","legs":"M"},"bonus":1.4000000000000008},{"rt":1425.1999999284744,"stimulus":"bees-with-color/bee-B1DM.svg","response":1,"trial_type":"image-button-response","trial_index":61,"time_elapsed":239417,"internal_node_id":"0.0-4.0-0.27","subject_id":"5ef658dc548fce12fda46af8","study_id":"60edd13110225f80f9f3709b","session_id":"6196c9b55fc5c20a634e7d6e","condition":"contingent","relevant_dimensions":["antennae","legs"],"bee_group":{"antennae":"B","wings":"X","pattern":"X","legs":"M"},"action":"avoid","summary":"good-avoid","bonus":1.4000000000000008},{"rt":596.9000000953674,"stimulus":"\n                    <p><b>Action: <em>avoid</em></b></p>\n                    <p>This is the bee that you just saw.</p>\n                    <img src=\"bees-with-color/bee-B1DM.svg\" width=\"200\">\n                    <p><br>Your bonus pay is unchanged, and remains at $0.74.</p>\n            ","response":0,"trial_type":"html-button-response","trial_index":62,"time_elapsed":240015,"internal_node_id":"0.0-4.0-1.27","subject_id":"5ef658dc548fce12fda46af8","study_id":"60edd13110225f80f9f3709b","session_id":"6196c9b55fc5c20a634e7d6e","condition":"contingent","relevant_dimensions":["antennae","legs"],"bee_group":{"antennae":"B","wings":"X","pattern":"X","legs":"M"},"bonus":1.4000000000000008},{"rt":633,"stimulus":"bees-with-color/bee-B2SF.svg","response":1,"trial_type":"image-button-response","trial_index":63,"time_elapsed":240649,"internal_node_id":"0.0-4.0-0.28","subject_id":"5ef658dc548fce12fda46af8","study_id":"60edd13110225f80f9f3709b","session_id":"6196c9b55fc5c20a634e7d6e","condition":"contingent","relevant_dimensions":["antennae","legs"],"bee_group":{"antennae":"B","wings":"X","pattern":"X","legs":"M"},"action":"avoid","summary":"bad-avoid","bonus":1.4000000000000008},{"rt":565.1000000238419,"stimulus":"\n                    <p><b>Action: <em>avoid</em></b></p>\n                    <p>This is the bee that you just saw.</p>\n                    <img src=\"bees-with-color/bee-B2SF.svg\" width=\"200\">\n                    <p><br>Your bonus pay is unchanged, and remains at $0.74.</p>\n            ","response":0,"trial_type":"html-button-response","trial_index":64,"time_elapsed":241215,"internal_node_id":"0.0-4.0-1.28","subject_id":"5ef658dc548fce12fda46af8","study_id":"60edd13110225f80f9f3709b","session_id":"6196c9b55fc5c20a634e7d6e","condition":"contingent","relevant_dimensions":["antennae","legs"],"bee_group":{"antennae":"B","wings":"X","pattern":"X","legs":"M"},"bonus":1.4000000000000008},{"rt":721.4000000953674,"stimulus":"bees-with-color/bee-B1DF.svg","response":1,"trial_type":"image-button-response","trial_index":65,"time_elapsed":241937,"internal_node_id":"0.0-4.0-0.29","subject_id":"5ef658dc548fce12fda46af8","study_id":"60edd13110225f80f9f3709b","session_id":"6196c9b55fc5c20a634e7d6e","condition":"contingent","relevant_dimensions":["antennae","legs"],"bee_group":{"antennae":"B","wings":"X","pattern":"X","legs":"M"},"action":"avoid","summary":"bad-avoid","bonus":1.4000000000000008},{"rt":613.1000000238419,"stimulus":"\n                    <p><b>Action: <em>avoid</em></b></p>\n                    <p>This is the bee that you just saw.</p>\n                    <img src=\"bees-with-color/bee-B1DF.svg\" width=\"200\">\n                    <p><br>Your bonus pay is unchanged, and remains at $0.74.</p>\n            ","response":0,"trial_type":"html-button-response","trial_index":66,"time_elapsed":242551,"internal_node_id":"0.0-4.0-1.29","subject_id":"5ef658dc548fce12fda46af8","study_id":"60edd13110225f80f9f3709b","session_id":"6196c9b55fc5c20a634e7d6e","condition":"contingent","relevant_dimensions":["antennae","legs"],"bee_group":{"antennae":"B","wings":"X","pattern":"X","legs":"M"},"bonus":1.4000000000000008},{"rt":1037.2000000476837,"stimulus":"bees-with-color/bee-B2SM.svg","response":1,"trial_type":"image-button-response","trial_index":67,"time_elapsed":243589,"internal_node_id":"0.0-4.0-0.30","subject_id":"5ef658dc548fce12fda46af8","study_id":"60edd13110225f80f9f3709b","session_id":"6196c9b55fc5c20a634e7d6e","condition":"contingent","relevant_dimensions":["antennae","legs"],"bee_group":{"antennae":"B","wings":"X","pattern":"X","legs":"M"},"action":"avoid","summary":"good-avoid","bonus":1.4000000000000008},{"rt":496.89999997615814,"stimulus":"\n                    <p><b>Action: <em>avoid</em></b></p>\n                    <p>This is the bee that you just saw.</p>\n                    <img src=\"bees-with-color/bee-B2SM.svg\" width=\"200\">\n                    <p><br>Your bonus pay is unchanged, and remains at $0.74.</p>\n            ","response":0,"trial_type":"html-button-response","trial_index":68,"time_elapsed":244087,"internal_node_id":"0.0-4.0-1.30","subject_id":"5ef658dc548fce12fda46af8","study_id":"60edd13110225f80f9f3709b","session_id":"6196c9b55fc5c20a634e7d6e","condition":"contingent","relevant_dimensions":["antennae","legs"],"bee_group":{"antennae":"B","wings":"X","pattern":"X","legs":"M"},"bonus":1.4000000000000008},{"rt":705.3999999761581,"stimulus":"bees-with-color/bee-A1SF.svg","response":0,"trial_type":"image-button-response","trial_index":69,"time_elapsed":244793,"internal_node_id":"0.0-4.0-0.31","subject_id":"5ef658dc548fce12fda46af8","study_id":"60edd13110225f80f9f3709b","session_id":"6196c9b55fc5c20a634e7d6e","condition":"contingent","relevant_dimensions":["antennae","legs"],"bee_group":{"antennae":"B","wings":"X","pattern":"X","legs":"M"},"action":"harvest","summary":"good-harvest","bonus":1.4000000000000008},{"rt":604.9000000953674,"stimulus":"\n                    <p><b>Action: <em>harvest</em></b></p>\n                    <p>This is the bee that you just saw.</p>\n                    <img src=\"bees-with-color/bee-A1SF.svg\" width=\"200\">\n                    <p><span class=\"greenText\"><b>Successful harvest!</b></span><br>Your pay has increased by $0.02. Your bonus pay is now $0.76.</p>\n            ","response":0,"trial_type":"html-button-response","trial_index":70,"time_elapsed":245399,"internal_node_id":"0.0-4.0-1.31","subject_id":"5ef658dc548fce12fda46af8","study_id":"60edd13110225f80f9f3709b","session_id":"6196c9b55fc5c20a634e7d6e","condition":"contingent","relevant_dimensions":["antennae","legs"],"bee_group":{"antennae":"B","wings":"X","pattern":"X","legs":"M"},"bonus":1.4000000000000008},{"rt":795.2999999523163,"stimulus":"bees-with-color/bee-A1DF.svg","response":0,"trial_type":"image-button-response","trial_index":71,"time_elapsed":246195,"internal_node_id":"0.0-4.0-0.32","subject_id":"5ef658dc548fce12fda46af8","study_id":"60edd13110225f80f9f3709b","session_id":"6196c9b55fc5c20a634e7d6e","condition":"contingent","relevant_dimensions":["antennae","legs"],"bee_group":{"antennae":"B","wings":"X","pattern":"X","legs":"M"},"action":"harvest","summary":"good-harvest","bonus":1.4000000000000008},{"rt":827.3999999761581,"stimulus":"\n                    <p><b>Action: <em>harvest</em></b></p>\n                    <p>This is the bee that you just saw.</p>\n                    <img src=\"bees-with-color/bee-A1DF.svg\" width=\"200\">\n                    <p><span class=\"greenText\"><b>Successful harvest!</b></span><br>Your pay has increased by $0.02. Your bonus pay is now $0.78.</p>\n            ","response":0,"trial_type":"html-button-response","trial_index":72,"time_elapsed":247023,"internal_node_id":"0.0-4.0-1.32","subject_id":"5ef658dc548fce12fda46af8","study_id":"60edd13110225f80f9f3709b","session_id":"6196c9b55fc5c20a634e7d6e","condition":"contingent","relevant_dimensions":["antennae","legs"],"bee_group":{"antennae":"B","wings":"X","pattern":"X","legs":"M"},"bonus":1.4000000000000008},{"rt":1461.4000000953674,"stimulus":"bees-with-color/bee-A1SF.svg","response":0,"trial_type":"image-button-response","trial_index":73,"time_elapsed":248486,"internal_node_id":"0.0-4.0-0.33","subject_id":"5ef658dc548fce12fda46af8","study_id":"60edd13110225f80f9f3709b","session_id":"6196c9b55fc5c20a634e7d6e","condition":"contingent","relevant_dimensions":["antennae","legs"],"bee_group":{"antennae":"B","wings":"X","pattern":"X","legs":"M"},"action":"harvest","summary":"good-harvest","bonus":1.4000000000000008},{"rt":1917.3999999761581,"stimulus":"\n                    <p><b>Action: <em>harvest</em></b></p>\n                    <p>This is the bee that you just saw.</p>\n                    <img src=\"bees-with-color/bee-A1SF.svg\" width=\"200\">\n                    <p><span class=\"greenText\"><b>Successful harvest!</b></span><br>Your pay has increased by $0.02. Your bonus pay is now $0.80.</p>\n            ","response":0,"trial_type":"html-button-response","trial_index":74,"time_elapsed":250404,"internal_node_id":"0.0-4.0-1.33","subject_id":"5ef658dc548fce12fda46af8","study_id":"60edd13110225f80f9f3709b","session_id":"6196c9b55fc5c20a634e7d6e","condition":"contingent","relevant_dimensions":["antennae","legs"],"bee_group":{"antennae":"B","wings":"X","pattern":"X","legs":"M"},"bonus":1.4000000000000008},{"rt":732.6999999284744,"stimulus":"bees-with-color/bee-A2DM.svg","response":0,"trial_type":"image-button-response","trial_index":75,"time_elapsed":251138,"internal_node_id":"0.0-4.0-0.34","subject_id":"5ef658dc548fce12fda46af8","study_id":"60edd13110225f80f9f3709b","session_id":"6196c9b55fc5c20a634e7d6e","condition":"contingent","relevant_dimensions":["antennae","legs"],"bee_group":{"antennae":"B","wings":"X","pattern":"X","legs":"M"},"action":"harvest","summary":"good-harvest","bonus":1.4000000000000008},{"rt":679,"stimulus":"\n                    <p><b>Action: <em>harvest</em></b></p>\n                    <p>This is the bee that you just saw.</p>\n                    <img src=\"bees-with-color/bee-A2DM.svg\" width=\"200\">\n                    <p><span class=\"greenText\"><b>Successful harvest!</b></span><br>Your pay has increased by $0.02. Your bonus pay is now $0.82.</p>\n            ","response":0,"trial_type":"html-button-response","trial_index":76,"time_elapsed":251818,"internal_node_id":"0.0-4.0-1.34","subject_id":"5ef658dc548fce12fda46af8","study_id":"60edd13110225f80f9f3709b","session_id":"6196c9b55fc5c20a634e7d6e","condition":"contingent","relevant_dimensions":["antennae","legs"],"bee_group":{"antennae":"B","wings":"X","pattern":"X","legs":"M"},"bonus":1.4000000000000008},{"rt":686.8999999761581,"stimulus":"bees-with-color/bee-A2DF.svg","response":0,"trial_type":"image-button-response","trial_index":77,"time_elapsed":252506,"internal_node_id":"0.0-4.0-0.35","subject_id":"5ef658dc548fce12fda46af8","study_id":"60edd13110225f80f9f3709b","session_id":"6196c9b55fc5c20a634e7d6e","condition":"contingent","relevant_dimensions":["antennae","legs"],"bee_group":{"antennae":"B","wings":"X","pattern":"X","legs":"M"},"action":"harvest","summary":"good-harvest","bonus":1.4000000000000008},{"rt":725.3000000715256,"stimulus":"\n                    <p><b>Action: <em>harvest</em></b></p>\n                    <p>This is the bee that you just saw.</p>\n                    <img src=\"bees-with-color/bee-A2DF.svg\" width=\"200\">\n                    <p><span class=\"greenText\"><b>Successful harvest!</b></span><br>Your pay has increased by $0.02. Your bonus pay is now $0.84.</p>\n            ","response":0,"trial_type":"html-button-response","trial_index":78,"time_elapsed":253232,"internal_node_id":"0.0-4.0-1.35","subject_id":"5ef658dc548fce12fda46af8","study_id":"60edd13110225f80f9f3709b","session_id":"6196c9b55fc5c20a634e7d6e","condition":"contingent","relevant_dimensions":["antennae","legs"],"bee_group":{"antennae":"B","wings":"X","pattern":"X","legs":"M"},"bonus":1.4000000000000008},{"rt":777.2000000476837,"stimulus":"bees-with-color/bee-A2SM.svg","response":0,"trial_type":"image-button-response","trial_index":79,"time_elapsed":254010,"internal_node_id":"0.0-4.0-0.36","subject_id":"5ef658dc548fce12fda46af8","study_id":"60edd13110225f80f9f3709b","session_id":"6196c9b55fc5c20a634e7d6e","condition":"contingent","relevant_dimensions":["antennae","legs"],"bee_group":{"antennae":"B","wings":"X","pattern":"X","legs":"M"},"action":"harvest","summary":"good-harvest","bonus":1.4000000000000008},{"rt":729.1000000238419,"stimulus":"\n                    <p><b>Action: <em>harvest</em></b></p>\n                    <p>This is the bee that you just saw.</p>\n                    <img src=\"bees-with-color/bee-A2SM.svg\" width=\"200\">\n                    <p><span class=\"greenText\"><b>Successful harvest!</b></span><br>Your pay has increased by $0.02. Your bonus pay is now $0.86.</p>\n            ","response":0,"trial_type":"html-button-response","trial_index":80,"time_elapsed":254740,"internal_node_id":"0.0-4.0-1.36","subject_id":"5ef658dc548fce12fda46af8","study_id":"60edd13110225f80f9f3709b","session_id":"6196c9b55fc5c20a634e7d6e","condition":"contingent","relevant_dimensions":["antennae","legs"],"bee_group":{"antennae":"B","wings":"X","pattern":"X","legs":"M"},"bonus":1.4000000000000008},{"rt":1239.2999999523163,"stimulus":"bees-with-color/bee-B1DM.svg","response":1,"trial_type":"image-button-response","trial_index":81,"time_elapsed":255980,"internal_node_id":"0.0-4.0-0.37","subject_id":"5ef658dc548fce12fda46af8","study_id":"60edd13110225f80f9f3709b","session_id":"6196c9b55fc5c20a634e7d6e","condition":"contingent","relevant_dimensions":["antennae","legs"],"bee_group":{"antennae":"B","wings":"X","pattern":"X","legs":"M"},"action":"avoid","summary":"good-avoid","bonus":1.4000000000000008},{"rt":565.1000000238419,"stimulus":"\n                    <p><b>Action: <em>avoid</em></b></p>\n                    <p>This is the bee that you just saw.</p>\n                    <img src=\"bees-with-color/bee-B1DM.svg\" width=\"200\">\n                    <p><br>Your bonus pay is unchanged, and remains at $0.86.</p>\n            ","response":0,"trial_type":"html-button-response","trial_index":82,"time_elapsed":256546,"internal_node_id":"0.0-4.0-1.37","subject_id":"5ef658dc548fce12fda46af8","study_id":"60edd13110225f80f9f3709b","session_id":"6196c9b55fc5c20a634e7d6e","condition":"contingent","relevant_dimensions":["antennae","legs"],"bee_group":{"antennae":"B","wings":"X","pattern":"X","legs":"M"},"bonus":1.4000000000000008},{"rt":683.1000000238419,"stimulus":"bees-with-color/bee-B1SM.svg","response":1,"trial_type":"image-button-response","trial_index":83,"time_elapsed":257230,"internal_node_id":"0.0-4.0-0.38","subject_id":"5ef658dc548fce12fda46af8","study_id":"60edd13110225f80f9f3709b","session_id":"6196c9b55fc5c20a634e7d6e","condition":"contingent","relevant_dimensions":["antennae","legs"],"bee_group":{"antennae":"B","wings":"X","pattern":"X","legs":"M"},"action":"avoid","summary":"good-avoid","bonus":1.4000000000000008},{"rt":531,"stimulus":"\n                    <p><b>Action: <em>avoid</em></b></p>\n                    <p>This is the bee that you just saw.</p>\n                    <img src=\"bees-with-color/bee-B1SM.svg\" width=\"200\">\n                    <p><br>Your bonus pay is unchanged, and remains at $0.86.</p>\n            ","response":0,"trial_type":"html-button-response","trial_index":84,"time_elapsed":257762,"internal_node_id":"0.0-4.0-1.38","subject_id":"5ef658dc548fce12fda46af8","study_id":"60edd13110225f80f9f3709b","session_id":"6196c9b55fc5c20a634e7d6e","condition":"contingent","relevant_dimensions":["antennae","legs"],"bee_group":{"antennae":"B","wings":"X","pattern":"X","legs":"M"},"bonus":1.4000000000000008},{"rt":698.9000000953674,"stimulus":"bees-with-color/bee-B1SF.svg","response":1,"trial_type":"image-button-response","trial_index":85,"time_elapsed":258462,"internal_node_id":"0.0-4.0-0.39","subject_id":"5ef658dc548fce12fda46af8","study_id":"60edd13110225f80f9f3709b","session_id":"6196c9b55fc5c20a634e7d6e","condition":"contingent","relevant_dimensions":["antennae","legs"],"bee_group":{"antennae":"B","wings":"X","pattern":"X","legs":"M"},"action":"avoid","summary":"bad-avoid","bonus":1.4000000000000008},{"rt":653.3999999761581,"stimulus":"\n                    <p><b>Action: <em>avoid</em></b></p>\n                    <p>This is the bee that you just saw.</p>\n                    <img src=\"bees-with-color/bee-B1SF.svg\" width=\"200\">\n                    <p><br>Your bonus pay is unchanged, and remains at $0.86.</p>\n            ","response":0,"trial_type":"html-button-response","trial_index":86,"time_elapsed":259116,"internal_node_id":"0.0-4.0-1.39","subject_id":"5ef658dc548fce12fda46af8","study_id":"60edd13110225f80f9f3709b","session_id":"6196c9b55fc5c20a634e7d6e","condition":"contingent","relevant_dimensions":["antennae","legs"],"bee_group":{"antennae":"B","wings":"X","pattern":"X","legs":"M"},"bonus":1.4000000000000008},{"rt":783.5,"stimulus":"bees-with-color/bee-B2DF.svg","response":1,"trial_type":"image-button-response","trial_index":87,"time_elapsed":259901,"internal_node_id":"0.0-4.0-0.40","subject_id":"5ef658dc548fce12fda46af8","study_id":"60edd13110225f80f9f3709b","session_id":"6196c9b55fc5c20a634e7d6e","condition":"contingent","relevant_dimensions":["antennae","legs"],"bee_group":{"antennae":"B","wings":"X","pattern":"X","legs":"M"},"action":"avoid","summary":"bad-avoid","bonus":1.4000000000000008},{"rt":2150.600000023842,"stimulus":"\n                    <p><b>Action: <em>avoid</em></b></p>\n                    <p>This is the bee that you just saw.</p>\n                    <img src=\"bees-with-color/bee-B2DF.svg\" width=\"200\">\n                    <p><br>Your bonus pay is unchanged, and remains at $0.86.</p>\n            ","response":0,"trial_type":"html-button-response","trial_index":88,"time_elapsed":262052,"internal_node_id":"0.0-4.0-1.40","subject_id":"5ef658dc548fce12fda46af8","study_id":"60edd13110225f80f9f3709b","session_id":"6196c9b55fc5c20a634e7d6e","condition":"contingent","relevant_dimensions":["antennae","legs"],"bee_group":{"antennae":"B","wings":"X","pattern":"X","legs":"M"},"bonus":1.4000000000000008},{"rt":1059,"stimulus":"bees-with-color/bee-B2SM.svg","response":1,"trial_type":"image-button-response","trial_index":89,"time_elapsed":263113,"internal_node_id":"0.0-4.0-0.41","subject_id":"5ef658dc548fce12fda46af8","study_id":"60edd13110225f80f9f3709b","session_id":"6196c9b55fc5c20a634e7d6e","condition":"contingent","relevant_dimensions":["antennae","legs"],"bee_group":{"antennae":"B","wings":"X","pattern":"X","legs":"M"},"action":"avoid","summary":"good-avoid","bonus":1.4000000000000008},{"rt":467.10000002384186,"stimulus":"\n                    <p><b>Action: <em>avoid</em></b></p>\n                    <p>This is the bee that you just saw.</p>\n                    <img src=\"bees-with-color/bee-B2SM.svg\" width=\"200\">\n                    <p><br>Your bonus pay is unchanged, and remains at $0.86.</p>\n            ","response":0,"trial_type":"html-button-response","trial_index":90,"time_elapsed":263581,"internal_node_id":"0.0-4.0-1.41","subject_id":"5ef658dc548fce12fda46af8","study_id":"60edd13110225f80f9f3709b","session_id":"6196c9b55fc5c20a634e7d6e","condition":"contingent","relevant_dimensions":["antennae","legs"],"bee_group":{"antennae":"B","wings":"X","pattern":"X","legs":"M"},"bonus":1.4000000000000008},{"rt":683.0999999046326,"stimulus":"bees-with-color/bee-B2DM.svg","response":1,"trial_type":"image-button-response","trial_index":91,"time_elapsed":264265,"internal_node_id":"0.0-4.0-0.42","subject_id":"5ef658dc548fce12fda46af8","study_id":"60edd13110225f80f9f3709b","session_id":"6196c9b55fc5c20a634e7d6e","condition":"contingent","relevant_dimensions":["antennae","legs"],"bee_group":{"antennae":"B","wings":"X","pattern":"X","legs":"M"},"action":"avoid","summary":"good-avoid","bonus":1.4000000000000008},{"rt":440.89999997615814,"stimulus":"\n                    <p><b>Action: <em>avoid</em></b></p>\n                    <p>This is the bee that you just saw.</p>\n                    <img src=\"bees-with-color/bee-B2DM.svg\" width=\"200\">\n                    <p><br>Your bonus pay is unchanged, and remains at $0.86.</p>\n            ","response":0,"trial_type":"html-button-response","trial_index":92,"time_elapsed":264707,"internal_node_id":"0.0-4.0-1.42","subject_id":"5ef658dc548fce12fda46af8","study_id":"60edd13110225f80f9f3709b","session_id":"6196c9b55fc5c20a634e7d6e","condition":"contingent","relevant_dimensions":["antennae","legs"],"bee_group":{"antennae":"B","wings":"X","pattern":"X","legs":"M"},"bonus":1.4000000000000008},{"rt":683.1000000238419,"stimulus":"bees-with-color/bee-B2SF.svg","response":1,"trial_type":"image-button-response","trial_index":93,"time_elapsed":265391,"internal_node_id":"0.0-4.0-0.43","subject_id":"5ef658dc548fce12fda46af8","study_id":"60edd13110225f80f9f3709b","session_id":"6196c9b55fc5c20a634e7d6e","condition":"contingent","relevant_dimensions":["antennae","legs"],"bee_group":{"antennae":"B","wings":"X","pattern":"X","legs":"M"},"action":"avoid","summary":"bad-avoid","bonus":1.4000000000000008},{"rt":432.8000000715256,"stimulus":"\n                    <p><b>Action: <em>avoid</em></b></p>\n                    <p>This is the bee that you just saw.</p>\n                    <img src=\"bees-with-color/bee-B2SF.svg\" width=\"200\">\n                    <p><br>Your bonus pay is unchanged, and remains at $0.86.</p>\n            ","response":0,"trial_type":"html-button-response","trial_index":94,"time_elapsed":265825,"internal_node_id":"0.0-4.0-1.43","subject_id":"5ef658dc548fce12fda46af8","study_id":"60edd13110225f80f9f3709b","session_id":"6196c9b55fc5c20a634e7d6e","condition":"contingent","relevant_dimensions":["antennae","legs"],"bee_group":{"antennae":"B","wings":"X","pattern":"X","legs":"M"},"bonus":1.4000000000000008},{"rt":671,"stimulus":"bees-with-color/bee-A1SM.svg","response":0,"trial_type":"image-button-response","trial_index":95,"time_elapsed":266497,"internal_node_id":"0.0-4.0-0.44","subject_id":"5ef658dc548fce12fda46af8","study_id":"60edd13110225f80f9f3709b","session_id":"6196c9b55fc5c20a634e7d6e","condition":"contingent","relevant_dimensions":["antennae","legs"],"bee_group":{"antennae":"B","wings":"X","pattern":"X","legs":"M"},"action":"harvest","summary":"good-harvest","bonus":1.4000000000000008},{"rt":649,"stimulus":"\n                    <p><b>Action: <em>harvest</em></b></p>\n                    <p>This is the bee that you just saw.</p>\n                    <img src=\"bees-with-color/bee-A1SM.svg\" width=\"200\">\n                    <p><span class=\"greenText\"><b>Successful harvest!</b></span><br>Your pay has increased by $0.02. Your bonus pay is now $0.88.</p>\n            ","response":0,"trial_type":"html-button-response","trial_index":96,"time_elapsed":267147,"internal_node_id":"0.0-4.0-1.44","subject_id":"5ef658dc548fce12fda46af8","study_id":"60edd13110225f80f9f3709b","session_id":"6196c9b55fc5c20a634e7d6e","condition":"contingent","relevant_dimensions":["antennae","legs"],"bee_group":{"antennae":"B","wings":"X","pattern":"X","legs":"M"},"bonus":1.4000000000000008},{"rt":1315.2000000476837,"stimulus":"bees-with-color/bee-A2SF.svg","response":0,"trial_type":"image-button-response","trial_index":97,"time_elapsed":268463,"internal_node_id":"0.0-4.0-0.45","subject_id":"5ef658dc548fce12fda46af8","study_id":"60edd13110225f80f9f3709b","session_id":"6196c9b55fc5c20a634e7d6e","condition":"contingent","relevant_dimensions":["antennae","legs"],"bee_group":{"antennae":"B","wings":"X","pattern":"X","legs":"M"},"action":"harvest","summary":"good-harvest","bonus":1.4000000000000008},{"rt":749.1000000238419,"stimulus":"\n                    <p><b>Action: <em>harvest</em></b></p>\n                    <p>This is the bee that you just saw.</p>\n                    <img src=\"bees-with-color/bee-A2SF.svg\" width=\"200\">\n                    <p><span class=\"greenText\"><b>Successful harvest!</b></span><br>Your pay has increased by $0.02. Your bonus pay is now $0.90.</p>\n            ","response":0,"trial_type":"html-button-response","trial_index":98,"time_elapsed":269213,"internal_node_id":"0.0-4.0-1.45","subject_id":"5ef658dc548fce12fda46af8","study_id":"60edd13110225f80f9f3709b","session_id":"6196c9b55fc5c20a634e7d6e","condition":"contingent","relevant_dimensions":["antennae","legs"],"bee_group":{"antennae":"B","wings":"X","pattern":"X","legs":"M"},"bonus":1.4000000000000008},{"rt":889.1000000238419,"stimulus":"bees-with-color/bee-B1DF.svg","response":1,"trial_type":"image-button-response","trial_index":99,"time_elapsed":270103,"internal_node_id":"0.0-4.0-0.46","subject_id":"5ef658dc548fce12fda46af8","study_id":"60edd13110225f80f9f3709b","session_id":"6196c9b55fc5c20a634e7d6e","condition":"contingent","relevant_dimensions":["antennae","legs"],"bee_group":{"antennae":"B","wings":"X","pattern":"X","legs":"M"},"action":"avoid","summary":"bad-avoid","bonus":1.4000000000000008},{"rt":543,"stimulus":"\n                    <p><b>Action: <em>avoid</em></b></p>\n                    <p>This is the bee that you just saw.</p>\n                    <img src=\"bees-with-color/bee-B1DF.svg\" width=\"200\">\n                    <p><br>Your bonus pay is unchanged, and remains at $0.90.</p>\n            ","response":0,"trial_type":"html-button-response","trial_index":100,"time_elapsed":270647,"internal_node_id":"0.0-4.0-1.46","subject_id":"5ef658dc548fce12fda46af8","study_id":"60edd13110225f80f9f3709b","session_id":"6196c9b55fc5c20a634e7d6e","condition":"contingent","relevant_dimensions":["antennae","legs"],"bee_group":{"antennae":"B","wings":"X","pattern":"X","legs":"M"},"bonus":1.4000000000000008},{"rt":985.1000000238419,"stimulus":"bees-with-color/bee-A1DM.svg","response":0,"trial_type":"image-button-response","trial_index":101,"time_elapsed":271633,"internal_node_id":"0.0-4.0-0.47","subject_id":"5ef658dc548fce12fda46af8","study_id":"60edd13110225f80f9f3709b","session_id":"6196c9b55fc5c20a634e7d6e","condition":"contingent","relevant_dimensions":["antennae","legs"],"bee_group":{"antennae":"B","wings":"X","pattern":"X","legs":"M"},"action":"harvest","summary":"good-harvest","bonus":1.4000000000000008},{"rt":997.1000000238419,"stimulus":"\n                    <p><b>Action: <em>harvest</em></b></p>\n                    <p>This is the bee that you just saw.</p>\n                    <img src=\"bees-with-color/bee-A1DM.svg\" width=\"200\">\n                    <p><span class=\"greenText\"><b>Successful harvest!</b></span><br>Your pay has increased by $0.02. Your bonus pay is now $0.92.</p>\n            ","response":0,"trial_type":"html-button-response","trial_index":102,"time_elapsed":272632,"internal_node_id":"0.0-4.0-1.47","subject_id":"5ef658dc548fce12fda46af8","study_id":"60edd13110225f80f9f3709b","session_id":"6196c9b55fc5c20a634e7d6e","condition":"contingent","relevant_dimensions":["antennae","legs"],"bee_group":{"antennae":"B","wings":"X","pattern":"X","legs":"M"},"bonus":1.4000000000000008},{"rt":1025.1000000238419,"stimulus":"bees-with-color/bee-B1SF.svg","response":1,"trial_type":"image-button-response","trial_index":103,"time_elapsed":273658,"internal_node_id":"0.0-4.0-0.48","subject_id":"5ef658dc548fce12fda46af8","study_id":"60edd13110225f80f9f3709b","session_id":"6196c9b55fc5c20a634e7d6e","condition":"contingent","relevant_dimensions":["antennae","legs"],"bee_group":{"antennae":"B","wings":"X","pattern":"X","legs":"M"},"action":"avoid","summary":"bad-avoid","bonus":1.4000000000000008},{"rt":640.9000000953674,"stimulus":"\n                    <p><b>Action: <em>avoid</em></b></p>\n                    <p>This is the bee that you just saw.</p>\n                    <img src=\"bees-with-color/bee-B1SF.svg\" width=\"200\">\n                    <p><br>Your bonus pay is unchanged, and remains at $0.92.</p>\n            ","response":0,"trial_type":"html-button-response","trial_index":104,"time_elapsed":274300,"internal_node_id":"0.0-4.0-1.48","subject_id":"5ef658dc548fce12fda46af8","study_id":"60edd13110225f80f9f3709b","session_id":"6196c9b55fc5c20a634e7d6e","condition":"contingent","relevant_dimensions":["antennae","legs"],"bee_group":{"antennae":"B","wings":"X","pattern":"X","legs":"M"},"bonus":1.4000000000000008},{"rt":712.8000000715256,"stimulus":"bees-with-color/bee-B2DF.svg","response":1,"trial_type":"image-button-response","trial_index":105,"time_elapsed":275014,"internal_node_id":"0.0-4.0-0.49","subject_id":"5ef658dc548fce12fda46af8","study_id":"60edd13110225f80f9f3709b","session_id":"6196c9b55fc5c20a634e7d6e","condition":"contingent","relevant_dimensions":["antennae","legs"],"bee_group":{"antennae":"B","wings":"X","pattern":"X","legs":"M"},"action":"avoid","summary":"bad-avoid","bonus":1.4000000000000008},{"rt":464.90000009536743,"stimulus":"\n                    <p><b>Action: <em>avoid</em></b></p>\n                    <p>This is the bee that you just saw.</p>\n                    <img src=\"bees-with-color/bee-B2DF.svg\" width=\"200\">\n                    <p><br>Your bonus pay is unchanged, and remains at $0.92.</p>\n            ","response":0,"trial_type":"html-button-response","trial_index":106,"time_elapsed":275480,"internal_node_id":"0.0-4.0-1.49","subject_id":"5ef658dc548fce12fda46af8","study_id":"60edd13110225f80f9f3709b","session_id":"6196c9b55fc5c20a634e7d6e","condition":"contingent","relevant_dimensions":["antennae","legs"],"bee_group":{"antennae":"B","wings":"X","pattern":"X","legs":"M"},"bonus":1.4000000000000008},{"rt":690.9000000953674,"stimulus":"bees-with-color/bee-B2SF.svg","response":1,"trial_type":"image-button-response","trial_index":107,"time_elapsed":276172,"internal_node_id":"0.0-4.0-0.50","subject_id":"5ef658dc548fce12fda46af8","study_id":"60edd13110225f80f9f3709b","session_id":"6196c9b55fc5c20a634e7d6e","condition":"contingent","relevant_dimensions":["antennae","legs"],"bee_group":{"antennae":"B","wings":"X","pattern":"X","legs":"M"},"action":"avoid","summary":"bad-avoid","bonus":1.4000000000000008},{"rt":637,"stimulus":"\n                    <p><b>Action: <em>avoid</em></b></p>\n                    <p>This is the bee that you just saw.</p>\n                    <img src=\"bees-with-color/bee-B2SF.svg\" width=\"200\">\n                    <p><br>Your bonus pay is unchanged, and remains at $0.92.</p>\n            ","response":0,"trial_type":"html-button-response","trial_index":108,"time_elapsed":276810,"internal_node_id":"0.0-4.0-1.50","subject_id":"5ef658dc548fce12fda46af8","study_id":"60edd13110225f80f9f3709b","session_id":"6196c9b55fc5c20a634e7d6e","condition":"contingent","relevant_dimensions":["antennae","legs"],"bee_group":{"antennae":"B","wings":"X","pattern":"X","legs":"M"},"bonus":1.4000000000000008},{"rt":885.2000000476837,"stimulus":"bees-with-color/bee-A1SF.svg","response":0,"trial_type":"image-button-response","trial_index":109,"time_elapsed":277696,"internal_node_id":"0.0-4.0-0.51","subject_id":"5ef658dc548fce12fda46af8","study_id":"60edd13110225f80f9f3709b","session_id":"6196c9b55fc5c20a634e7d6e","condition":"contingent","relevant_dimensions":["antennae","legs"],"bee_group":{"antennae":"B","wings":"X","pattern":"X","legs":"M"},"action":"harvest","summary":"good-harvest","bonus":1.4000000000000008},{"rt":634.3999999761581,"stimulus":"\n                    <p><b>Action: <em>harvest</em></b></p>\n                    <p>This is the bee that you just saw.</p>\n                    <img src=\"bees-with-color/bee-A1SF.svg\" width=\"200\">\n                    <p><span class=\"greenText\"><b>Successful harvest!</b></span><br>Your pay has increased by $0.02. Your bonus pay is now $0.94.</p>\n            ","response":0,"trial_type":"html-button-response","trial_index":110,"time_elapsed":278332,"internal_node_id":"0.0-4.0-1.51","subject_id":"5ef658dc548fce12fda46af8","study_id":"60edd13110225f80f9f3709b","session_id":"6196c9b55fc5c20a634e7d6e","condition":"contingent","relevant_dimensions":["antennae","legs"],"bee_group":{"antennae":"B","wings":"X","pattern":"X","legs":"M"},"bonus":1.4000000000000008},{"rt":773.2999999523163,"stimulus":"bees-with-color/bee-B2SM.svg","response":1,"trial_type":"image-button-response","trial_index":111,"time_elapsed":279106,"internal_node_id":"0.0-4.0-0.52","subject_id":"5ef658dc548fce12fda46af8","study_id":"60edd13110225f80f9f3709b","session_id":"6196c9b55fc5c20a634e7d6e","condition":"contingent","relevant_dimensions":["antennae","legs"],"bee_group":{"antennae":"B","wings":"X","pattern":"X","legs":"M"},"action":"avoid","summary":"good-avoid","bonus":1.4000000000000008},{"rt":433,"stimulus":"\n                    <p><b>Action: <em>avoid</em></b></p>\n                    <p>This is the bee that you just saw.</p>\n                    <img src=\"bees-with-color/bee-B2SM.svg\" width=\"200\">\n                    <p><br>Your bonus pay is unchanged, and remains at $0.94.</p>\n            ","response":0,"trial_type":"html-button-response","trial_index":112,"time_elapsed":279540,"internal_node_id":"0.0-4.0-1.52","subject_id":"5ef658dc548fce12fda46af8","study_id":"60edd13110225f80f9f3709b","session_id":"6196c9b55fc5c20a634e7d6e","condition":"contingent","relevant_dimensions":["antennae","legs"],"bee_group":{"antennae":"B","wings":"X","pattern":"X","legs":"M"},"bonus":1.4000000000000008},{"rt":721,"stimulus":"bees-with-color/bee-A2SM.svg","response":0,"trial_type":"image-button-response","trial_index":113,"time_elapsed":280262,"internal_node_id":"0.0-4.0-0.53","subject_id":"5ef658dc548fce12fda46af8","study_id":"60edd13110225f80f9f3709b","session_id":"6196c9b55fc5c20a634e7d6e","condition":"contingent","relevant_dimensions":["antennae","legs"],"bee_group":{"antennae":"B","wings":"X","pattern":"X","legs":"M"},"action":"harvest","summary":"good-harvest","bonus":1.4000000000000008},{"rt":551.2000000476837,"stimulus":"\n                    <p><b>Action: <em>harvest</em></b></p>\n                    <p>This is the bee that you just saw.</p>\n                    <img src=\"bees-with-color/bee-A2SM.svg\" width=\"200\">\n                    <p><span class=\"greenText\"><b>Successful harvest!</b></span><br>Your pay has increased by $0.02. Your bonus pay is now $0.96.</p>\n            ","response":0,"trial_type":"html-button-response","trial_index":114,"time_elapsed":280814,"internal_node_id":"0.0-4.0-1.53","subject_id":"5ef658dc548fce12fda46af8","study_id":"60edd13110225f80f9f3709b","session_id":"6196c9b55fc5c20a634e7d6e","condition":"contingent","relevant_dimensions":["antennae","legs"],"bee_group":{"antennae":"B","wings":"X","pattern":"X","legs":"M"},"bonus":1.4000000000000008},{"rt":723.3000000715256,"stimulus":"bees-with-color/bee-B1DM.svg","response":1,"trial_type":"image-button-response","trial_index":115,"time_elapsed":281538,"internal_node_id":"0.0-4.0-0.54","subject_id":"5ef658dc548fce12fda46af8","study_id":"60edd13110225f80f9f3709b","session_id":"6196c9b55fc5c20a634e7d6e","condition":"contingent","relevant_dimensions":["antennae","legs"],"bee_group":{"antennae":"B","wings":"X","pattern":"X","legs":"M"},"action":"avoid","summary":"good-avoid","bonus":1.4000000000000008},{"rt":535.0999999046326,"stimulus":"\n                    <p><b>Action: <em>avoid</em></b></p>\n                    <p>This is the bee that you just saw.</p>\n                    <img src=\"bees-with-color/bee-B1DM.svg\" width=\"200\">\n                    <p><br>Your bonus pay is unchanged, and remains at $0.96.</p>\n            ","response":0,"trial_type":"html-button-response","trial_index":116,"time_elapsed":282074,"internal_node_id":"0.0-4.0-1.54","subject_id":"5ef658dc548fce12fda46af8","study_id":"60edd13110225f80f9f3709b","session_id":"6196c9b55fc5c20a634e7d6e","condition":"contingent","relevant_dimensions":["antennae","legs"],"bee_group":{"antennae":"B","wings":"X","pattern":"X","legs":"M"},"bonus":1.4000000000000008},{"rt":757,"stimulus":"bees-with-color/bee-A1DM.svg","response":0,"trial_type":"image-button-response","trial_index":117,"time_elapsed":282832,"internal_node_id":"0.0-4.0-0.55","subject_id":"5ef658dc548fce12fda46af8","study_id":"60edd13110225f80f9f3709b","session_id":"6196c9b55fc5c20a634e7d6e","condition":"contingent","relevant_dimensions":["antennae","legs"],"bee_group":{"antennae":"B","wings":"X","pattern":"X","legs":"M"},"action":"harvest","summary":"good-harvest","bonus":1.4000000000000008},{"rt":627.1000000238419,"stimulus":"\n                    <p><b>Action: <em>harvest</em></b></p>\n                    <p>This is the bee that you just saw.</p>\n                    <img src=\"bees-with-color/bee-A1DM.svg\" width=\"200\">\n                    <p><span class=\"greenText\"><b>Successful harvest!</b></span><br>Your pay has increased by $0.02. Your bonus pay is now $0.98.</p>\n            ","response":0,"trial_type":"html-button-response","trial_index":118,"time_elapsed":283460,"internal_node_id":"0.0-4.0-1.55","subject_id":"5ef658dc548fce12fda46af8","study_id":"60edd13110225f80f9f3709b","session_id":"6196c9b55fc5c20a634e7d6e","condition":"contingent","relevant_dimensions":["antennae","legs"],"bee_group":{"antennae":"B","wings":"X","pattern":"X","legs":"M"},"bonus":1.4000000000000008},{"rt":823.2999999523163,"stimulus":"bees-with-color/bee-B1SM.svg","response":1,"trial_type":"image-button-response","trial_index":119,"time_elapsed":284284,"internal_node_id":"0.0-4.0-0.56","subject_id":"5ef658dc548fce12fda46af8","study_id":"60edd13110225f80f9f3709b","session_id":"6196c9b55fc5c20a634e7d6e","condition":"contingent","relevant_dimensions":["antennae","legs"],"bee_group":{"antennae":"B","wings":"X","pattern":"X","legs":"M"},"action":"avoid","summary":"good-avoid","bonus":1.4000000000000008},{"rt":497.39999997615814,"stimulus":"\n                    <p><b>Action: <em>avoid</em></b></p>\n                    <p>This is the bee that you just saw.</p>\n                    <img src=\"bees-with-color/bee-B1SM.svg\" width=\"200\">\n                    <p><br>Your bonus pay is unchanged, and remains at $0.98.</p>\n            ","response":0,"trial_type":"html-button-response","trial_index":120,"time_elapsed":284783,"internal_node_id":"0.0-4.0-1.56","subject_id":"5ef658dc548fce12fda46af8","study_id":"60edd13110225f80f9f3709b","session_id":"6196c9b55fc5c20a634e7d6e","condition":"contingent","relevant_dimensions":["antennae","legs"],"bee_group":{"antennae":"B","wings":"X","pattern":"X","legs":"M"},"bonus":1.4000000000000008},{"rt":705.1000000238419,"stimulus":"bees-with-color/bee-A2DM.svg","response":0,"trial_type":"image-button-response","trial_index":121,"time_elapsed":285489,"internal_node_id":"0.0-4.0-0.57","subject_id":"5ef658dc548fce12fda46af8","study_id":"60edd13110225f80f9f3709b","session_id":"6196c9b55fc5c20a634e7d6e","condition":"contingent","relevant_dimensions":["antennae","legs"],"bee_group":{"antennae":"B","wings":"X","pattern":"X","legs":"M"},"action":"harvest","summary":"good-harvest","bonus":1.4000000000000008},{"rt":574.8000000715256,"stimulus":"\n                    <p><b>Action: <em>harvest</em></b></p>\n                    <p>This is the bee that you just saw.</p>\n                    <img src=\"bees-with-color/bee-A2DM.svg\" width=\"200\">\n                    <p><span class=\"greenText\"><b>Successful harvest!</b></span><br>Your pay has increased by $0.02. Your bonus pay is now $1.00.</p>\n            ","response":0,"trial_type":"html-button-response","trial_index":122,"time_elapsed":286065,"internal_node_id":"0.0-4.0-1.57","subject_id":"5ef658dc548fce12fda46af8","study_id":"60edd13110225f80f9f3709b","session_id":"6196c9b55fc5c20a634e7d6e","condition":"contingent","relevant_dimensions":["antennae","legs"],"bee_group":{"antennae":"B","wings":"X","pattern":"X","legs":"M"},"bonus":1.4000000000000008},{"rt":1569.0999999046326,"stimulus":"bees-with-color/bee-A1SM.svg","response":0,"trial_type":"image-button-response","trial_index":123,"time_elapsed":287635,"internal_node_id":"0.0-4.0-0.58","subject_id":"5ef658dc548fce12fda46af8","study_id":"60edd13110225f80f9f3709b","session_id":"6196c9b55fc5c20a634e7d6e","condition":"contingent","relevant_dimensions":["antennae","legs"],"bee_group":{"antennae":"B","wings":"X","pattern":"X","legs":"M"},"action":"harvest","summary":"good-harvest","bonus":1.4000000000000008},{"rt":873.1000000238419,"stimulus":"\n                    <p><b>Action: <em>harvest</em></b></p>\n                    <p>This is the bee that you just saw.</p>\n                    <img src=\"bees-with-color/bee-A1SM.svg\" width=\"200\">\n                    <p><span class=\"greenText\"><b>Successful harvest!</b></span><br>Your pay has increased by $0.02. Your bonus pay is now $1.02.</p>\n            ","response":0,"trial_type":"html-button-response","trial_index":124,"time_elapsed":288509,"internal_node_id":"0.0-4.0-1.58","subject_id":"5ef658dc548fce12fda46af8","study_id":"60edd13110225f80f9f3709b","session_id":"6196c9b55fc5c20a634e7d6e","condition":"contingent","relevant_dimensions":["antennae","legs"],"bee_group":{"antennae":"B","wings":"X","pattern":"X","legs":"M"},"bonus":1.4000000000000008},{"rt":761.1000000238419,"stimulus":"bees-with-color/bee-A2SF.svg","response":0,"trial_type":"image-button-response","trial_index":125,"time_elapsed":289271,"internal_node_id":"0.0-4.0-0.59","subject_id":"5ef658dc548fce12fda46af8","study_id":"60edd13110225f80f9f3709b","session_id":"6196c9b55fc5c20a634e7d6e","condition":"contingent","relevant_dimensions":["antennae","legs"],"bee_group":{"antennae":"B","wings":"X","pattern":"X","legs":"M"},"action":"harvest","summary":"good-harvest","bonus":1.4000000000000008},{"rt":543.2000000476837,"stimulus":"\n                    <p><b>Action: <em>harvest</em></b></p>\n                    <p>This is the bee that you just saw.</p>\n                    <img src=\"bees-with-color/bee-A2SF.svg\" width=\"200\">\n                    <p><span class=\"greenText\"><b>Successful harvest!</b></span><br>Your pay has increased by $0.02. Your bonus pay is now $1.04.</p>\n            ","response":0,"trial_type":"html-button-response","trial_index":126,"time_elapsed":289815,"internal_node_id":"0.0-4.0-1.59","subject_id":"5ef658dc548fce12fda46af8","study_id":"60edd13110225f80f9f3709b","session_id":"6196c9b55fc5c20a634e7d6e","condition":"contingent","relevant_dimensions":["antennae","legs"],"bee_group":{"antennae":"B","wings":"X","pattern":"X","legs":"M"},"bonus":1.4000000000000008},{"rt":733.1000000238419,"stimulus":"bees-with-color/bee-B2DM.svg","response":1,"trial_type":"image-button-response","trial_index":127,"time_elapsed":290549,"internal_node_id":"0.0-4.0-0.60","subject_id":"5ef658dc548fce12fda46af8","study_id":"60edd13110225f80f9f3709b","session_id":"6196c9b55fc5c20a634e7d6e","condition":"contingent","relevant_dimensions":["antennae","legs"],"bee_group":{"antennae":"B","wings":"X","pattern":"X","legs":"M"},"action":"avoid","summary":"good-avoid","bonus":1.4000000000000008},{"rt":539.1000000238419,"stimulus":"\n                    <p><b>Action: <em>avoid</em></b></p>\n                    <p>This is the bee that you just saw.</p>\n                    <img src=\"bees-with-color/bee-B2DM.svg\" width=\"200\">\n                    <p><br>Your bonus pay is unchanged, and remains at $1.04.</p>\n            ","response":0,"trial_type":"html-button-response","trial_index":128,"time_elapsed":291089,"internal_node_id":"0.0-4.0-1.60","subject_id":"5ef658dc548fce12fda46af8","study_id":"60edd13110225f80f9f3709b","session_id":"6196c9b55fc5c20a634e7d6e","condition":"contingent","relevant_dimensions":["antennae","legs"],"bee_group":{"antennae":"B","wings":"X","pattern":"X","legs":"M"},"bonus":1.4000000000000008},{"rt":783.1000000238419,"stimulus":"bees-with-color/bee-A2DF.svg","response":0,"trial_type":"image-button-response","trial_index":129,"time_elapsed":291873,"internal_node_id":"0.0-4.0-0.61","subject_id":"5ef658dc548fce12fda46af8","study_id":"60edd13110225f80f9f3709b","session_id":"6196c9b55fc5c20a634e7d6e","condition":"contingent","relevant_dimensions":["antennae","legs"],"bee_group":{"antennae":"B","wings":"X","pattern":"X","legs":"M"},"action":"harvest","summary":"good-harvest","bonus":1.4000000000000008},{"rt":637.1999999284744,"stimulus":"\n                    <p><b>Action: <em>harvest</em></b></p>\n                    <p>This is the bee that you just saw.</p>\n                    <img src=\"bees-with-color/bee-A2DF.svg\" width=\"200\">\n                    <p><span class=\"greenText\"><b>Successful harvest!</b></span><br>Your pay has increased by $0.02. Your bonus pay is now $1.06.</p>\n            ","response":0,"trial_type":"html-button-response","trial_index":130,"time_elapsed":292511,"internal_node_id":"0.0-4.0-1.61","subject_id":"5ef658dc548fce12fda46af8","study_id":"60edd13110225f80f9f3709b","session_id":"6196c9b55fc5c20a634e7d6e","condition":"contingent","relevant_dimensions":["antennae","legs"],"bee_group":{"antennae":"B","wings":"X","pattern":"X","legs":"M"},"bonus":1.4000000000000008},{"rt":989.1999999284744,"stimulus":"bees-with-color/bee-B1DF.svg","response":1,"trial_type":"image-button-response","trial_index":131,"time_elapsed":293501,"internal_node_id":"0.0-4.0-0.62","subject_id":"5ef658dc548fce12fda46af8","study_id":"60edd13110225f80f9f3709b","session_id":"6196c9b55fc5c20a634e7d6e","condition":"contingent","relevant_dimensions":["antennae","legs"],"bee_group":{"antennae":"B","wings":"X","pattern":"X","legs":"M"},"action":"avoid","summary":"bad-avoid","bonus":1.4000000000000008},{"rt":485.10000002384186,"stimulus":"\n                    <p><b>Action: <em>avoid</em></b></p>\n                    <p>This is the bee that you just saw.</p>\n                    <img src=\"bees-with-color/bee-B1DF.svg\" width=\"200\">\n                    <p><br>Your bonus pay is unchanged, and remains at $1.06.</p>\n            ","response":0,"trial_type":"html-button-response","trial_index":132,"time_elapsed":293988,"internal_node_id":"0.0-4.0-1.62","subject_id":"5ef658dc548fce12fda46af8","study_id":"60edd13110225f80f9f3709b","session_id":"6196c9b55fc5c20a634e7d6e","condition":"contingent","relevant_dimensions":["antennae","legs"],"bee_group":{"antennae":"B","wings":"X","pattern":"X","legs":"M"},"bonus":1.4000000000000008},{"rt":1535.1000000238419,"stimulus":"bees-with-color/bee-A1DF.svg","response":0,"trial_type":"image-button-response","trial_index":133,"time_elapsed":295524,"internal_node_id":"0.0-4.0-0.63","subject_id":"5ef658dc548fce12fda46af8","study_id":"60edd13110225f80f9f3709b","session_id":"6196c9b55fc5c20a634e7d6e","condition":"contingent","relevant_dimensions":["antennae","legs"],"bee_group":{"antennae":"B","wings":"X","pattern":"X","legs":"M"},"action":"harvest","summary":"good-harvest","bonus":1.4000000000000008},{"rt":923.3000000715256,"stimulus":"\n                    <p><b>Action: <em>harvest</em></b></p>\n                    <p>This is the bee that you just saw.</p>\n                    <img src=\"bees-with-color/bee-A1DF.svg\" width=\"200\">\n                    <p><span class=\"greenText\"><b>Successful harvest!</b></span><br>Your pay has increased by $0.02. Your bonus pay is now $1.08.</p>\n            ","response":0,"trial_type":"html-button-response","trial_index":134,"time_elapsed":296448,"internal_node_id":"0.0-4.0-1.63","subject_id":"5ef658dc548fce12fda46af8","study_id":"60edd13110225f80f9f3709b","session_id":"6196c9b55fc5c20a634e7d6e","condition":"contingent","relevant_dimensions":["antennae","legs"],"bee_group":{"antennae":"B","wings":"X","pattern":"X","legs":"M"},"bonus":1.4000000000000008},{"rt":8712.399999976158,"stimulus":"You have completed the first part of this experiment.<br><br>You will now begin a shorter second part, in which you will receive no feedback.<br>The same rules regarding bonus pay apply.<br><br>Press any key to begin.","response":"arrowright","trial_type":"html-keyboard-response","trial_index":135,"time_elapsed":305161,"internal_node_id":"0.0-5.0","subject_id":"5ef658dc548fce12fda46af8","study_id":"60edd13110225f80f9f3709b","session_id":"6196c9b55fc5c20a634e7d6e","condition":"contingent","relevant_dimensions":["antennae","legs"],"bee_group":{"antennae":"B","wings":"X","pattern":"X","legs":"M"},"bonus":1.4000000000000008},{"rt":4898.899999976158,"stimulus":"bees-with-color/bee-B2SM.svg","response":1,"trial_type":"image-button-response","trial_index":136,"time_elapsed":310069,"internal_node_id":"0.0-6.0-0.0","subject_id":"5ef658dc548fce12fda46af8","study_id":"60edd13110225f80f9f3709b","session_id":"6196c9b55fc5c20a634e7d6e","condition":"contingent","relevant_dimensions":["antennae","legs"],"bee_group":{"antennae":"B","wings":"X","pattern":"X","legs":"M"},"bonus":1.4000000000000008},{"rt":1230.4000000953674,"stimulus":"bees-with-color/bee-A1DM.svg","response":0,"trial_type":"image-button-response","trial_index":137,"time_elapsed":311301,"internal_node_id":"0.0-6.0-0.1","subject_id":"5ef658dc548fce12fda46af8","study_id":"60edd13110225f80f9f3709b","session_id":"6196c9b55fc5c20a634e7d6e","condition":"contingent","relevant_dimensions":["antennae","legs"],"bee_group":{"antennae":"B","wings":"X","pattern":"X","legs":"M"},"bonus":1.4000000000000008},{"rt":736.5999999046326,"stimulus":"bees-with-color/bee-A1SM.svg","response":0,"trial_type":"image-button-response","trial_index":138,"time_elapsed":312039,"internal_node_id":"0.0-6.0-0.2","subject_id":"5ef658dc548fce12fda46af8","study_id":"60edd13110225f80f9f3709b","session_id":"6196c9b55fc5c20a634e7d6e","condition":"contingent","relevant_dimensions":["antennae","legs"],"bee_group":{"antennae":"B","wings":"X","pattern":"X","legs":"M"},"bonus":1.4000000000000008},{"rt":592.5,"stimulus":"bees-with-color/bee-A1DF.svg","response":0,"trial_type":"image-button-response","trial_index":139,"time_elapsed":312633,"internal_node_id":"0.0-6.0-0.3","subject_id":"5ef658dc548fce12fda46af8","study_id":"60edd13110225f80f9f3709b","session_id":"6196c9b55fc5c20a634e7d6e","condition":"contingent","relevant_dimensions":["antennae","legs"],"bee_group":{"antennae":"B","wings":"X","pattern":"X","legs":"M"},"bonus":1.4000000000000008},{"rt":464.2000000476837,"stimulus":"bees-with-color/bee-A2DF.svg","response":0,"trial_type":"image-button-response","trial_index":140,"time_elapsed":313099,"internal_node_id":"0.0-6.0-0.4","subject_id":"5ef658dc548fce12fda46af8","study_id":"60edd13110225f80f9f3709b","session_id":"6196c9b55fc5c20a634e7d6e","condition":"contingent","relevant_dimensions":["antennae","legs"],"bee_group":{"antennae":"B","wings":"X","pattern":"X","legs":"M"},"bonus":1.4000000000000008},{"rt":456.89999997615814,"stimulus":"bees-with-color/bee-A2DM.svg","response":0,"trial_type":"image-button-response","trial_index":141,"time_elapsed":313558,"internal_node_id":"0.0-6.0-0.5","subject_id":"5ef658dc548fce12fda46af8","study_id":"60edd13110225f80f9f3709b","session_id":"6196c9b55fc5c20a634e7d6e","condition":"contingent","relevant_dimensions":["antennae","legs"],"bee_group":{"antennae":"B","wings":"X","pattern":"X","legs":"M"},"bonus":1.4000000000000008},{"rt":962.7000000476837,"stimulus":"bees-with-color/bee-B1DM.svg","response":1,"trial_type":"image-button-response","trial_index":142,"time_elapsed":314522,"internal_node_id":"0.0-6.0-0.6","subject_id":"5ef658dc548fce12fda46af8","study_id":"60edd13110225f80f9f3709b","session_id":"6196c9b55fc5c20a634e7d6e","condition":"contingent","relevant_dimensions":["antennae","legs"],"bee_group":{"antennae":"B","wings":"X","pattern":"X","legs":"M"},"bonus":1.4000000000000008},{"rt":612.3999999761581,"stimulus":"bees-with-color/bee-B2DF.svg","response":1,"trial_type":"image-button-response","trial_index":143,"time_elapsed":315136,"internal_node_id":"0.0-6.0-0.7","subject_id":"5ef658dc548fce12fda46af8","study_id":"60edd13110225f80f9f3709b","session_id":"6196c9b55fc5c20a634e7d6e","condition":"contingent","relevant_dimensions":["antennae","legs"],"bee_group":{"antennae":"B","wings":"X","pattern":"X","legs":"M"},"bonus":1.4000000000000008},{"rt":810.6000000238419,"stimulus":"bees-with-color/bee-A1SF.svg","response":0,"trial_type":"image-button-response","trial_index":144,"time_elapsed":315948,"internal_node_id":"0.0-6.0-0.8","subject_id":"5ef658dc548fce12fda46af8","study_id":"60edd13110225f80f9f3709b","session_id":"6196c9b55fc5c20a634e7d6e","condition":"contingent","relevant_dimensions":["antennae","legs"],"bee_group":{"antennae":"B","wings":"X","pattern":"X","legs":"M"},"bonus":1.4000000000000008},{"rt":442.8000000715256,"stimulus":"bees-with-color/bee-A2SM.svg","response":0,"trial_type":"image-button-response","trial_index":145,"time_elapsed":316392,"internal_node_id":"0.0-6.0-0.9","subject_id":"5ef658dc548fce12fda46af8","study_id":"60edd13110225f80f9f3709b","session_id":"6196c9b55fc5c20a634e7d6e","condition":"contingent","relevant_dimensions":["antennae","legs"],"bee_group":{"antennae":"B","wings":"X","pattern":"X","legs":"M"},"bonus":1.4000000000000008},{"rt":872.9000000953674,"stimulus":"bees-with-color/bee-B1DF.svg","response":1,"trial_type":"image-button-response","trial_index":146,"time_elapsed":317266,"internal_node_id":"0.0-6.0-0.10","subject_id":"5ef658dc548fce12fda46af8","study_id":"60edd13110225f80f9f3709b","session_id":"6196c9b55fc5c20a634e7d6e","condition":"contingent","relevant_dimensions":["antennae","legs"],"bee_group":{"antennae":"B","wings":"X","pattern":"X","legs":"M"},"bonus":1.4000000000000008},{"rt":674.6999999284744,"stimulus":"bees-with-color/bee-A2SF.svg","response":0,"trial_type":"image-button-response","trial_index":147,"time_elapsed":317942,"internal_node_id":"0.0-6.0-0.11","subject_id":"5ef658dc548fce12fda46af8","study_id":"60edd13110225f80f9f3709b","session_id":"6196c9b55fc5c20a634e7d6e","condition":"contingent","relevant_dimensions":["antennae","legs"],"bee_group":{"antennae":"B","wings":"X","pattern":"X","legs":"M"},"bonus":1.4000000000000008},{"rt":740.4000000953674,"stimulus":"bees-with-color/bee-B2SF.svg","response":1,"trial_type":"image-button-response","trial_index":148,"time_elapsed":318684,"internal_node_id":"0.0-6.0-0.12","subject_id":"5ef658dc548fce12fda46af8","study_id":"60edd13110225f80f9f3709b","session_id":"6196c9b55fc5c20a634e7d6e","condition":"contingent","relevant_dimensions":["antennae","legs"],"bee_group":{"antennae":"B","wings":"X","pattern":"X","legs":"M"},"bonus":1.4000000000000008},{"rt":457.10000002384186,"stimulus":"bees-with-color/bee-B1SM.svg","response":1,"trial_type":"image-button-response","trial_index":149,"time_elapsed":319142,"internal_node_id":"0.0-6.0-0.13","subject_id":"5ef658dc548fce12fda46af8","study_id":"60edd13110225f80f9f3709b","session_id":"6196c9b55fc5c20a634e7d6e","condition":"contingent","relevant_dimensions":["antennae","legs"],"bee_group":{"antennae":"B","wings":"X","pattern":"X","legs":"M"},"bonus":1.4000000000000008},{"rt":430.5,"stimulus":"bees-with-color/bee-B1SF.svg","response":1,"trial_type":"image-button-response","trial_index":150,"time_elapsed":319574,"internal_node_id":"0.0-6.0-0.14","subject_id":"5ef658dc548fce12fda46af8","study_id":"60edd13110225f80f9f3709b","session_id":"6196c9b55fc5c20a634e7d6e","condition":"contingent","relevant_dimensions":["antennae","legs"],"bee_group":{"antennae":"B","wings":"X","pattern":"X","legs":"M"},"bonus":1.4000000000000008},{"rt":476.5,"stimulus":"bees-with-color/bee-B2DM.svg","response":1,"trial_type":"image-button-response","trial_index":151,"time_elapsed":320052,"internal_node_id":"0.0-6.0-0.15","subject_id":"5ef658dc548fce12fda46af8","study_id":"60edd13110225f80f9f3709b","session_id":"6196c9b55fc5c20a634e7d6e","condition":"contingent","relevant_dimensions":["antennae","legs"],"bee_group":{"antennae":"B","wings":"X","pattern":"X","legs":"M"},"bonus":1.4000000000000008},{"rt":752.6999999284744,"stimulus":"bees-with-color/bee-A1DM.svg","response":0,"trial_type":"image-button-response","trial_index":152,"time_elapsed":320806,"internal_node_id":"0.0-6.0-0.16","subject_id":"5ef658dc548fce12fda46af8","study_id":"60edd13110225f80f9f3709b","session_id":"6196c9b55fc5c20a634e7d6e","condition":"contingent","relevant_dimensions":["antennae","legs"],"bee_group":{"antennae":"B","wings":"X","pattern":"X","legs":"M"},"bonus":1.4000000000000008},{"rt":739.1000000238419,"stimulus":"bees-with-color/bee-B2SF.svg","response":1,"trial_type":"image-button-response","trial_index":153,"time_elapsed":321547,"internal_node_id":"0.0-6.0-0.17","subject_id":"5ef658dc548fce12fda46af8","study_id":"60edd13110225f80f9f3709b","session_id":"6196c9b55fc5c20a634e7d6e","condition":"contingent","relevant_dimensions":["antennae","legs"],"bee_group":{"antennae":"B","wings":"X","pattern":"X","legs":"M"},"bonus":1.4000000000000008},{"rt":539,"stimulus":"bees-with-color/bee-A2DF.svg","response":0,"trial_type":"image-button-response","trial_index":154,"time_elapsed":322087,"internal_node_id":"0.0-6.0-0.18","subject_id":"5ef658dc548fce12fda46af8","study_id":"60edd13110225f80f9f3709b","session_id":"6196c9b55fc5c20a634e7d6e","condition":"contingent","relevant_dimensions":["antennae","legs"],"bee_group":{"antennae":"B","wings":"X","pattern":"X","legs":"M"},"bonus":1.4000000000000008},{"rt":632.8999999761581,"stimulus":"bees-with-color/bee-B2DM.svg","response":1,"trial_type":"image-button-response","trial_index":155,"time_elapsed":322721,"internal_node_id":"0.0-6.0-0.19","subject_id":"5ef658dc548fce12fda46af8","study_id":"60edd13110225f80f9f3709b","session_id":"6196c9b55fc5c20a634e7d6e","condition":"contingent","relevant_dimensions":["antennae","legs"],"bee_group":{"antennae":"B","wings":"X","pattern":"X","legs":"M"},"bonus":1.4000000000000008},{"rt":695,"stimulus":"bees-with-color/bee-B1DF.svg","response":1,"trial_type":"image-button-response","trial_index":156,"time_elapsed":323417,"internal_node_id":"0.0-6.0-0.20","subject_id":"5ef658dc548fce12fda46af8","study_id":"60edd13110225f80f9f3709b","session_id":"6196c9b55fc5c20a634e7d6e","condition":"contingent","relevant_dimensions":["antennae","legs"],"bee_group":{"antennae":"B","wings":"X","pattern":"X","legs":"M"},"bonus":1.4000000000000008},{"rt":610.6000000238419,"stimulus":"bees-with-color/bee-A1SF.svg","response":0,"trial_type":"image-button-response","trial_index":157,"time_elapsed":324028,"internal_node_id":"0.0-6.0-0.21","subject_id":"5ef658dc548fce12fda46af8","study_id":"60edd13110225f80f9f3709b","session_id":"6196c9b55fc5c20a634e7d6e","condition":"contingent","relevant_dimensions":["antennae","legs"],"bee_group":{"antennae":"B","wings":"X","pattern":"X","legs":"M"},"bonus":1.4000000000000008},{"rt":671.2000000476837,"stimulus":"bees-with-color/bee-B2SM.svg","response":1,"trial_type":"image-button-response","trial_index":158,"time_elapsed":324701,"internal_node_id":"0.0-6.0-0.22","subject_id":"5ef658dc548fce12fda46af8","study_id":"60edd13110225f80f9f3709b","session_id":"6196c9b55fc5c20a634e7d6e","condition":"contingent","relevant_dimensions":["antennae","legs"],"bee_group":{"antennae":"B","wings":"X","pattern":"X","legs":"M"},"bonus":1.4000000000000008},{"rt":520.8999999761581,"stimulus":"bees-with-color/bee-B2DF.svg","response":1,"trial_type":"image-button-response","trial_index":159,"time_elapsed":325223,"internal_node_id":"0.0-6.0-0.23","subject_id":"5ef658dc548fce12fda46af8","study_id":"60edd13110225f80f9f3709b","session_id":"6196c9b55fc5c20a634e7d6e","condition":"contingent","relevant_dimensions":["antennae","legs"],"bee_group":{"antennae":"B","wings":"X","pattern":"X","legs":"M"},"bonus":1.4000000000000008},{"rt":642.8999999761581,"stimulus":"bees-with-color/bee-B1SM.svg","response":1,"trial_type":"image-button-response","trial_index":160,"time_elapsed":325867,"internal_node_id":"0.0-6.0-0.24","subject_id":"5ef658dc548fce12fda46af8","study_id":"60edd13110225f80f9f3709b","session_id":"6196c9b55fc5c20a634e7d6e","condition":"contingent","relevant_dimensions":["antennae","legs"],"bee_group":{"antennae":"B","wings":"X","pattern":"X","legs":"M"},"bonus":1.4000000000000008},{"rt":652.3999999761581,"stimulus":"bees-with-color/bee-A2SF.svg","response":0,"trial_type":"image-button-response","trial_index":161,"time_elapsed":326520,"internal_node_id":"0.0-6.0-0.25","subject_id":"5ef658dc548fce12fda46af8","study_id":"60edd13110225f80f9f3709b","session_id":"6196c9b55fc5c20a634e7d6e","condition":"contingent","relevant_dimensions":["antennae","legs"],"bee_group":{"antennae":"B","wings":"X","pattern":"X","legs":"M"},"bonus":1.4000000000000008},{"rt":523.5,"stimulus":"bees-with-color/bee-A2DM.svg","response":0,"trial_type":"image-button-response","trial_index":162,"time_elapsed":327045,"internal_node_id":"0.0-6.0-0.26","subject_id":"5ef658dc548fce12fda46af8","study_id":"60edd13110225f80f9f3709b","session_id":"6196c9b55fc5c20a634e7d6e","condition":"contingent","relevant_dimensions":["antennae","legs"],"bee_group":{"antennae":"B","wings":"X","pattern":"X","legs":"M"},"bonus":1.4000000000000008},{"rt":440.90000009536743,"stimulus":"bees-with-color/bee-A2SM.svg","response":0,"trial_type":"image-button-response","trial_index":163,"time_elapsed":327487,"internal_node_id":"0.0-6.0-0.27","subject_id":"5ef658dc548fce12fda46af8","study_id":"60edd13110225f80f9f3709b","session_id":"6196c9b55fc5c20a634e7d6e","condition":"contingent","relevant_dimensions":["antennae","legs"],"bee_group":{"antennae":"B","wings":"X","pattern":"X","legs":"M"},"bonus":1.4000000000000008},{"rt":566.8999999761581,"stimulus":"bees-with-color/bee-A1DF.svg","response":0,"trial_type":"image-button-response","trial_index":164,"time_elapsed":328055,"internal_node_id":"0.0-6.0-0.28","subject_id":"5ef658dc548fce12fda46af8","study_id":"60edd13110225f80f9f3709b","session_id":"6196c9b55fc5c2