[{"success":true,"trial_type":"fullscreen","trial_index":0,"time_elapsed":11188,"internal_node_id":"0.0-0.0","subject_id":"60df1a7f139746afa6a2768c","study_id":"60edd13110225f80f9f3709b","session_id":"6196ba73dd75573e4eee23f9","condition":"full-information","relevant_dimensions":["antennae","legs"],"bee_group":{"antennae":"B","wings":"X","pattern":"X","legs":"M"},"bonus":1.5200000000000014},{"success":true,"timeout":false,"failed_images":[],"failed_audio":[],"failed_video":[],"trial_type":"preload","trial_index":1,"time_elapsed":17031,"internal_node_id":"0.0-1.0","subject_id":"60df1a7f139746afa6a2768c","study_id":"60edd13110225f80f9f3709b","session_id":"6196ba73dd75573e4eee23f9","condition":"full-information","relevant_dimensions":["antennae","legs"],"bee_group":{"antennae":"B","wings":"X","pattern":"X","legs":"M"},"bonus":1.5200000000000014},{"rt":2604.9000000953674,"stimulus":"Welcome! Press any key to begin.","response":" ","trial_type":"html-keyboard-response","trial_index":2,"time_elapsed":19640,"internal_node_id":"0.0-2.0","subject_id":"60df1a7f139746afa6a2768c","study_id":"60edd13110225f80f9f3709b","session_id":"6196ba73dd75573e4eee23f9","condition":"full-information","relevant_dimensions":["antennae","legs"],"bee_group":{"antennae":"B","wings":"X","pattern":"X","legs":"M"},"bonus":1.5200000000000014},{"view_history":[{"page_index":0,"viewing_time":7524.600000143051},{"page_index":1,"viewing_time":20312.699999809265},{"page_index":2,"viewing_time":31169.700000047684},{"page_index":3,"viewing_time":20340.799999952316},{"page_index":4,"viewing_time":7815.5},{"page_index":5,"viewing_time":15845.600000143051},{"page_index":6,"viewing_time":56342.700000047684},{"page_index":7,"viewing_time":24734.199999809265},{"page_index":8,"viewing_time":30667.700000047684},{"page_index":9,"viewing_time":35157.10000014305},{"page_index":8,"viewing_time":29069.099999904633},{"page_index":9,"viewing_time":19155.599999904633},{"page_index":10,"viewing_time":19470.5},{"page_index":11,"viewing_time":14857.400000095367},{"page_index":12,"viewing_time":31350.599999904633},{"page_index":13,"viewing_time":2577.7000000476837},{"page_index":14,"viewing_time":4947}],"rt":371339.60000014305,"trial_type":"instructions","trial_index":3,"time_elapsed":390983,"internal_node_id":"0.0-3.0-0.0","subject_id":"60df1a7f139746afa6a2768c","study_id":"60edd13110225f80f9f3709b","session_id":"6196ba73dd75573e4eee23f9","condition":"full-information","relevant_dimensions":["antennae","legs"],"bee_group":{"antennae":"B","wings":"X","pattern":"X","legs":"M"},"bonus":1.5200000000000014},{"rt":23660.900000095367,"response":{"Q0":["Two or six legs","Stripes or spots on body","Single or double wings","Antennae or no antennae"]},"question_order":[0],"trial_type":"survey-multi-select","trial_index":4,"time_elapsed":414668,"internal_node_id":"0.0-3.0-1.0","subject_id":"60df1a7f139746afa6a2768c","study_id":"60edd13110225f80f9f3709b","session_id":"6196ba73dd75573e4eee23f9","condition":"full-information","relevant_dimensions":["antennae","legs"],"bee_group":{"antennae":"B","wings":"X","pattern":"X","legs":"M"},"correct":true,"bonus":1.5200000000000014},{"rt":40323.700000047684,"response":{"Q1":"No.","Q2":"Based on the four features of the bee.","Q3":"You learn if it was friendly or dangerous, but do not alter your bonus."},"question_order":[0,1,2],"trial_type":"survey-multi-choice","trial_index":5,"time_elapsed":455006,"internal_node_id":"0.0-3.0-2.0","subject_id":"60df1a7f139746afa6a2768c","study_id":"60edd13110225f80f9f3709b","session_id":"6196ba73dd75573e4eee23f9","condition":"full-information","relevant_dimensions":["antennae","legs"],"bee_group":{"antennae":"B","wings":"X","pattern":"X","legs":"M"},"correct":true,"bonus":1.5200000000000014},{"rt":7906.900000095367,"stimulus":"<p>Congrats, you got everything right<br>When you're ready, click the button below to continue to the experiment.</p>","response":0,"trial_type":"html-button-response","trial_index":6,"time_elapsed":462923,"internal_node_id":"0.0-3.0-3.0","subject_id":"60df1a7f139746afa6a2768c","study_id":"60edd13110225f80f9f3709b","session_id":"6196ba73dd75573e4eee23f9","condition":"full-information","relevant_dimensions":["antennae","legs"],"bee_group":{"antennae":"B","wings":"X","pattern":"X","legs":"M"},"bonus":1.5200000000000014},{"rt":65644.59999990463,"stimulus":"bees-with-color/bee-A2DF.svg","response":0,"trial_type":"image-button-response","trial_index":7,"time_elapsed":528577,"internal_node_id":"0.0-4.0-0.0","subject_id":"60df1a7f139746afa6a2768c","study_id":"60edd13110225f80f9f3709b","session_id":"6196ba73dd75573e4eee23f9","condition":"full-information","relevant_dimensions":["antennae","legs"],"bee_group":{"antennae":"B","wings":"X","pattern":"X","legs":"M"},"action":"harvest","summary":"good-harvest","bonus":1.5200000000000014},{"rt":21117.099999904633,"stimulus":"\n                    <p><b>Action: <em>harvest</em></b></p>\n                    <p>This is the bee that you just saw.</p>\n                    <img src=\"bees-with-color/bee-A2DF.svg\" width=\"200\">\n                    <p><span class=\"greenText\"><b>Successful harvest!</b></span><br>Your pay has increased by $0.02. Your bonus pay is now $0.56.</p>\n            ","response":0,"trial_type":"html-button-response","trial_index":8,"time_elapsed":549708,"internal_node_id":"0.0-4.0-1.0","subject_id":"60df1a7f139746afa6a2768c","study_id":"60edd13110225f80f9f3709b","session_id":"6196ba73dd75573e4eee23f9","condition":"full-information","relevant_dimensions":["antennae","legs"],"bee_group":{"antennae":"B","wings":"X","pattern":"X","legs":"M"},"bonus":1.5200000000000014},{"rt":44925.89999985695,"stimulus":"bees-with-color/bee-B1SF.svg","response":0,"trial_type":"image-button-response","trial_index":9,"time_elapsed":594648,"internal_node_id":"0.0-4.0-0.1","subject_id":"60df1a7f139746afa6a2768c","study_id":"60edd13110225f80f9f3709b","session_id":"6196ba73dd75573e4eee23f9","condition":"full-information","relevant_dimensions":["antennae","legs"],"bee_group":{"antennae":"B","wings":"X","pattern":"X","legs":"M"},"action":"harvest","summary":"good-harvest","bonus":1.5200000000000014},{"rt":22585,"stimulus":"\n                    <p><b>Action: <em>harvest</em></b></p>\n                    <p>This is the bee that you just saw.</p>\n                    <img src=\"bees-with-color/bee-B1SF.svg\" width=\"200\">\n                    <p><span class=\"greenText\"><b>Successful harvest!</b></span><br>Your pay has increased by $0.02. Your bonus pay is now $0.58.</p>\n            ","response":0,"trial_type":"html-button-response","trial_index":10,"time_elapsed":617244,"internal_node_id":"0.0-4.0-1.1","subject_id":"60df1a7f139746afa6a2768c","study_id":"60edd13110225f80f9f3709b","session_id":"6196ba73dd75573e4eee23f9","condition":"full-information","relevant_dimensions":["antennae","legs"],"bee_group":{"antennae":"B","wings":"X","pattern":"X","legs":"M"},"bonus":1.5200000000000014},{"rt":17622.699999809265,"stimulus":"bees-with-color/bee-A1SF.svg","response":0,"trial_type":"image-button-response","trial_index":11,"time_elapsed":634877,"internal_node_id":"0.0-4.0-0.2","subject_id":"60df1a7f139746afa6a2768c","study_id":"60edd13110225f80f9f3709b","session_id":"6196ba73dd75573e4eee23f9","condition":"full-information","relevant_dimensions":["antennae","legs"],"bee_group":{"antennae":"B","wings":"X","pattern":"X","legs":"M"},"action":"harvest","summary":"good-harvest","bonus":1.5200000000000014},{"rt":53522,"stimulus":"\n                    <p><b>Action: <em>harvest</em></b></p>\n                    <p>This is the bee that you just saw.</p>\n                    <img src=\"bees-with-color/bee-A1SF.svg\" width=\"200\">\n                    <p><span class=\"greenText\"><b>Successful harvest!</b></span><br>Your pay has increased by $0.02. Your bonus pay is now $0.60.</p>\n            ","response":0,"trial_type":"html-button-response","trial_index":12,"time_elapsed":688407,"internal_node_id":"0.0-4.0-1.2","subject_id":"60df1a7f139746afa6a2768c","study_id":"60edd13110225f80f9f3709b","session_id":"6196ba73dd75573e4eee23f9","condition":"full-information","relevant_dimensions":["antennae","legs"],"bee_group":{"antennae":"B","wings":"X","pattern":"X","legs":"M"},"bonus":1.5200000000000014},{"rt":5380.599999904633,"stimulus":"bees-with-color/bee-B1DM.svg","response":0,"trial_type":"image-button-response","trial_index":13,"time_elapsed":693797,"internal_node_id":"0.0-4.0-0.3","subject_id":"60df1a7f139746afa6a2768c","study_id":"60edd13110225f80f9f3709b","session_id":"6196ba73dd75573e4eee23f9","condition":"full-information","relevant_dimensions":["antennae","legs"],"bee_group":{"antennae":"B","wings":"X","pattern":"X","legs":"M"},"action":"harvest","summary":"bad-harvest","bonus":1.5200000000000014},{"rt":27184.10000014305,"stimulus":"\n                    <p><b>Action: <em>harvest</em></b></p>\n                    <p>This is the bee that you just saw.</p>\n                    <img src=\"bees-with-color/bee-B1DM.svg\" width=\"200\">\n                    <p><span class=\"redText\">Bad choice, the bee was angry.</span><br><b>You have been stung!</b><br>Your pay has been decreased by $0.10. Your bonus pay is now $0.50.</p>\n            ","response":0,"trial_type":"html-button-response","trial_index":14,"time_elapsed":720988,"internal_node_id":"0.0-4.0-1.3","subject_id":"60df1a7f139746afa6a2768c","study_id":"60edd13110225f80f9f3709b","session_id":"6196ba73dd75573e4eee23f9","condition":"full-information","relevant_dimensions":["antennae","legs"],"bee_group":{"antennae":"B","wings":"X","pattern":"X","legs":"M"},"bonus":1.5200000000000014},{"rt":5748.200000047684,"stimulus":"bees-with-color/bee-B2SF.svg","response":0,"trial_type":"image-button-response","trial_index":15,"time_elapsed":726746,"internal_node_id":"0.0-4.0-0.4","subject_id":"60df1a7f139746afa6a2768c","study_id":"60edd13110225f80f9f3709b","session_id":"6196ba73dd75573e4eee23f9","condition":"full-information","relevant_dimensions":["antennae","legs"],"bee_group":{"antennae":"B","wings":"X","pattern":"X","legs":"M"},"action":"harvest","summary":"good-harvest","bonus":1.5200000000000014},{"rt":18909.099999904633,"stimulus":"\n                    <p><b>Action: <em>harvest</em></b></p>\n                    <p>This is the bee that you just saw.</p>\n                    <img src=\"bees-with-color/bee-B2SF.svg\" width=\"200\">\n                    <p><span class=\"greenText\"><b>Successful harvest!</b></span><br>Your pay has increased by $0.02. Your bonus pay is now $0.52.</p>\n            ","response":0,"trial_type":"html-button-response","trial_index":16,"time_elapsed":745661,"internal_node_id":"0.0-4.0-1.4","subject_id":"60df1a7f139746afa6a2768c","study_id":"60edd13110225f80f9f3709b","session_id":"6196ba73dd75573e4eee23f9","condition":"full-information","relevant_dimensions":["antennae","legs"],"bee_group":{"antennae":"B","wings":"X","pattern":"X","legs":"M"},"bonus":1.5200000000000014},{"rt":5354.100000143051,"stimulus":"bees-with-color/bee-A2SF.svg","response":0,"trial_type":"image-button-response","trial_index":17,"time_elapsed":751023,"internal_node_id":"0.0-4.0-0.5","subject_id":"60df1a7f139746afa6a2768c","study_id":"60edd13110225f80f9f3709b","session_id":"6196ba73dd75573e4eee23f9","condition":"full-information","relevant_dimensions":["antennae","legs"],"bee_group":{"antennae":"B","wings":"X","pattern":"X","legs":"M"},"action":"harvest","summary":"good-harvest","bonus":1.5200000000000014},{"rt":6522.700000047684,"stimulus":"\n                    <p><b>Action: <em>harvest</em></b></p>\n                    <p>This is the bee that you just saw.</p>\n                    <img src=\"bees-with-color/bee-A2SF.svg\" width=\"200\">\n                    <p><span class=\"greenText\"><b>Successful harvest!</b></span><br>Your pay has increased by $0.02. Your bonus pay is now $0.54.</p>\n            ","response":0,"trial_type":"html-button-response","trial_index":18,"time_elapsed":757553,"internal_node_id":"0.0-4.0-1.5","subject_id":"60df1a7f139746afa6a2768c","study_id":"60edd13110225f80f9f3709b","session_id":"6196ba73dd75573e4eee23f9","condition":"full-information","relevant_dimensions":["antennae","legs"],"bee_group":{"antennae":"B","wings":"X","pattern":"X","legs":"M"},"bonus":1.5200000000000014},{"rt":5475.900000095367,"stimulus":"bees-with-color/bee-A1DF.svg","response":0,"trial_type":"image-button-response","trial_index":19,"time_elapsed":763039,"internal_node_id":"0.0-4.0-0.6","subject_id":"60df1a7f139746afa6a2768c","study_id":"60edd13110225f80f9f3709b","session_id":"6196ba73dd75573e4eee23f9","condition":"full-information","relevant_dimensions":["antennae","legs"],"bee_group":{"antennae":"B","wings":"X","pattern":"X","legs":"M"},"action":"harvest","summary":"good-harvest","bonus":1.5200000000000014},{"rt":4443.899999856949,"stimulus":"\n                    <p><b>Action: <em>harvest</em></b></p>\n                    <p>This is the bee that you just saw.</p>\n                    <img src=\"bees-with-color/bee-A1DF.svg\" width=\"200\">\n                    <p><span class=\"greenText\"><b>Successful harvest!</b></span><br>Your pay has increased by $0.02. Your bonus pay is now $0.56.</p>\n            ","response":0,"trial_type":"html-button-response","trial_index":20,"time_elapsed":767492,"internal_node_id":"0.0-4.0-1.6","subject_id":"60df1a7f139746afa6a2768c","study_id":"60edd13110225f80f9f3709b","session_id":"6196ba73dd75573e4eee23f9","condition":"full-information","relevant_dimensions":["antennae","legs"],"bee_group":{"antennae":"B","wings":"X","pattern":"X","legs":"M"},"bonus":1.5200000000000014},{"rt":3654,"stimulus":"bees-with-color/bee-B2DM.svg","response":1,"trial_type":"image-button-response","trial_index":21,"time_elapsed":771153,"internal_node_id":"0.0-4.0-0.7","subject_id":"60df1a7f139746afa6a2768c","study_id":"60edd13110225f80f9f3709b","session_id":"6196ba73dd75573e4eee23f9","condition":"full-information","relevant_dimensions":["antennae","legs"],"bee_group":{"antennae":"B","wings":"X","pattern":"X","legs":"M"},"action":"avoid","summary":"good-avoid","bonus":1.5200000000000014},{"rt":7012.700000047684,"stimulus":"\n                    <p><b>Action: <em>avoid</em></b></p>\n                    <p>This is the bee that you just saw.</p>\n                    <img src=\"bees-with-color/bee-B2DM.svg\" width=\"200\">\n                    <p><span class=\"greenText\">Good choice!</span>  This bee would have stung you.<br>Your bonus pay is unchanged, and remains at $0.56.</p>\n            ","response":0,"trial_type":"html-button-response","trial_index":22,"time_elapsed":778175,"internal_node_id":"0.0-4.0-1.7","subject_id":"60df1a7f139746afa6a2768c","study_id":"60edd13110225f80f9f3709b","session_id":"6196ba73dd75573e4eee23f9","condition":"full-information","relevant_dimensions":["antennae","legs"],"bee_group":{"antennae":"B","wings":"X","pattern":"X","legs":"M"},"bonus":1.5200000000000014},{"rt":3091.5,"stimulus":"bees-with-color/bee-B2SM.svg","response":1,"trial_type":"image-button-response","trial_index":23,"time_elapsed":781276,"internal_node_id":"0.0-4.0-0.8","subject_id":"60df1a7f139746afa6a2768c","study_id":"60edd13110225f80f9f3709b","session_id":"6196ba73dd75573e4eee23f9","condition":"full-information","relevant_dimensions":["antennae","legs"],"bee_group":{"antennae":"B","wings":"X","pattern":"X","legs":"M"},"action":"avoid","summary":"good-avoid","bonus":1.5200000000000014},{"rt":7144.299999952316,"stimulus":"\n                    <p><b>Action: <em>avoid</em></b></p>\n                    <p>This is the bee that you just saw.</p>\n                    <img src=\"bees-with-color/bee-B2SM.svg\" width=\"200\">\n                    <p><span class=\"greenText\">Good choice!</span>  This bee would have stung you.<br>Your bonus pay is unchanged, and remains at $0.56.</p>\n            ","response":0,"trial_type":"html-button-response","trial_index":24,"time_elapsed":788426,"internal_node_id":"0.0-4.0-1.8","subject_id":"60df1a7f139746afa6a2768c","study_id":"60edd13110225f80f9f3709b","session_id":"6196ba73dd75573e4eee23f9","condition":"full-information","relevant_dimensions":["antennae","legs"],"bee_group":{"antennae":"B","wings":"X","pattern":"X","legs":"M"},"bonus":1.5200000000000014},{"rt":2874.2999999523163,"stimulus":"bees-with-color/bee-A1DM.svg","response":1,"trial_type":"image-button-response","trial_index":25,"time_elapsed":791308,"internal_node_id":"0.0-4.0-0.9","subject_id":"60df1a7f139746afa6a2768c","study_id":"60edd13110225f80f9f3709b","session_id":"6196ba73dd75573e4eee23f9","condition":"full-information","relevant_dimensions":["antennae","legs"],"bee_group":{"antennae":"B","wings":"X","pattern":"X","legs":"M"},"action":"avoid","summary":"bad-avoid","bonus":1.5200000000000014},{"rt":15229,"stimulus":"\n                    <p><b>Action: <em>avoid</em></b></p>\n                    <p>This is the bee that you just saw.</p>\n                    <img src=\"bees-with-color/bee-A1DM.svg\" width=\"200\">\n                    <p><span class=\"redText\">Bad choice,</span> the bee was friendly.<br>Your bonus pay is unchanged, and remains at $0.56.</p>\n            ","response":0,"trial_type":"html-button-response","trial_index":26,"time_elapsed":806543,"internal_node_id":"0.0-4.0-1.9","subject_id":"60df1a7f139746afa6a2768c","study_id":"60edd13110225f80f9f3709b","session_id":"6196ba73dd75573e4eee23f9","condition":"full-information","relevant_dimensions":["antennae","legs"],"bee_group":{"antennae":"B","wings":"X","pattern":"X","legs":"M"},"bonus":1.5200000000000014},{"rt":12400.5,"stimulus":"bees-with-color/bee-B1DF.svg","response":0,"trial_type":"image-button-response","trial_index":27,"time_elapsed":818948,"internal_node_id":"0.0-4.0-0.10","subject_id":"60df1a7f139746afa6a2768c","study_id":"60edd13110225f80f9f3709b","session_id":"6196ba73dd75573e4eee23f9","condition":"full-information","relevant_dimensions":["antennae","legs"],"bee_group":{"antennae":"B","wings":"X","pattern":"X","legs":"M"},"action":"harvest","summary":"good-harvest","bonus":1.5200000000000014},{"rt":3839.7000000476837,"stimulus":"\n                    <p><b>Action: <em>harvest</em></b></p>\n                    <p>This is the bee that you just saw.</p>\n                    <img src=\"bees-with-color/bee-B1DF.svg\" width=\"200\">\n                    <p><span class=\"greenText\"><b>Successful harvest!</b></span><br>Your pay has increased by $0.02. Your bonus pay is now $0.58.</p>\n            ","response":0,"trial_type":"html-button-response","trial_index":28,"time_elapsed":822796,"internal_node_id":"0.0-4.0-1.10","subject_id":"60df1a7f139746afa6a2768c","study_id":"60edd13110225f80f9f3709b","session_id":"6196ba73dd75573e4eee23f9","condition":"full-information","relevant_dimensions":["antennae","legs"],"bee_group":{"antennae":"B","wings":"X","pattern":"X","legs":"M"},"bonus":1.5200000000000014},{"rt":4812.900000095367,"stimulus":"bees-with-color/bee-A1SM.svg","response":0,"trial_type":"image-button-response","trial_index":29,"time_elapsed":827619,"internal_node_id":"0.0-4.0-0.11","subject_id":"60df1a7f139746afa6a2768c","study_id":"60edd13110225f80f9f3709b","session_id":"6196ba73dd75573e4eee23f9","condition":"full-information","relevant_dimensions":["antennae","legs"],"bee_group":{"antennae":"B","wings":"X","pattern":"X","legs":"M"},"action":"harvest","summary":"good-harvest","bonus":1.5200000000000014},{"rt":13206.099999904633,"stimulus":"\n                    <p><b>Action: <em>harvest</em></b></p>\n                    <p>This is the bee that you just saw.</p>\n                    <img src=\"bees-with-color/bee-A1SM.svg\" width=\"200\">\n                    <p><span class=\"greenText\"><b>Successful harvest!</b></span><br>Your pay has increased by $0.02. Your bonus pay is now $0.60.</p>\n            ","response":0,"trial_type":"html-button-response","trial_index":30,"time_elapsed":840832,"internal_node_id":"0.0-4.0-1.11","subject_id":"60df1a7f139746afa6a2768c","study_id":"60edd13110225f80f9f3709b","session_id":"6196ba73dd75573e4eee23f9","condition":"full-information","relevant_dimensions":["antennae","legs"],"bee_group":{"antennae":"B","wings":"X","pattern":"X","legs":"M"},"bonus":1.5200000000000014},{"rt":13079.299999952316,"stimulus":"bees-with-color/bee-A2DM.svg","response":0,"trial_type":"image-button-response","trial_index":31,"time_elapsed":853920,"internal_node_id":"0.0-4.0-0.12","subject_id":"60df1a7f139746afa6a2768c","study_id":"60edd13110225f80f9f3709b","session_id":"6196ba73dd75573e4eee23f9","condition":"full-information","relevant_dimensions":["antennae","legs"],"bee_group":{"antennae":"B","wings":"X","pattern":"X","legs":"M"},"action":"harvest","summary":"good-harvest","bonus":1.5200000000000014},{"rt":40074.299999952316,"stimulus":"\n                    <p><b>Action: <em>harvest</em></b></p>\n                    <p>This is the bee that you just saw.</p>\n                    <img src=\"bees-with-color/bee-A2DM.svg\" width=\"200\">\n                    <p><span class=\"greenText\"><b>Successful harvest!</b></span><br>Your pay has increased by $0.02. Your bonus pay is now $0.62.</p>\n            ","response":0,"trial_type":"html-button-response","trial_index":32,"time_elapsed":894004,"internal_node_id":"0.0-4.0-1.12","subject_id":"60df1a7f139746afa6a2768c","study_id":"60edd13110225f80f9f3709b","session_id":"6196ba73dd75573e4eee23f9","condition":"full-information","relevant_dimensions":["antennae","legs"],"bee_group":{"antennae":"B","wings":"X","pattern":"X","legs":"M"},"bonus":1.5200000000000014},{"rt":4419.200000047684,"stimulus":"bees-with-color/bee-B1SM.svg","response":0,"trial_type":"image-button-response","trial_index":33,"time_elapsed":898431,"internal_node_id":"0.0-4.0-0.13","subject_id":"60df1a7f139746afa6a2768c","study_id":"60edd13110225f80f9f3709b","session_id":"6196ba73dd75573e4eee23f9","condition":"full-information","relevant_dimensions":["antennae","legs"],"bee_group":{"antennae":"B","wings":"X","pattern":"X","legs":"M"},"action":"harvest","summary":"bad-harvest","bonus":1.5200000000000014},{"rt":44553.40000009537,"stimulus":"\n                    <p><b>Action: <em>harvest</em></b></p>\n                    <p>This is the bee that you just saw.</p>\n                    <img src=\"bees-with-color/bee-B1SM.svg\" width=\"200\">\n                    <p><span class=\"redText\">Bad choice, the bee was angry.</span><br><b>You have been stung!</b><br>Your pay has been decreased by $0.10. Your bonus pay is now $0.52.</p>\n            ","response":0,"trial_type":"html-button-response","trial_index":34,"time_elapsed":942992,"internal_node_id":"0.0-4.0-1.13","subject_id":"60df1a7f139746afa6a2768c","study_id":"60edd13110225f80f9f3709b","session_id":"6196ba73dd75573e4eee23f9","condition":"full-information","relevant_dimensions":["antennae","legs"],"bee_group":{"antennae":"B","wings":"X","pattern":"X","legs":"M"},"bonus":1.5200000000000014},{"rt":5307.599999904633,"stimulus":"bees-with-color/bee-B2DF.svg","response":0,"trial_type":"image-button-response","trial_index":35,"time_elapsed":948310,"internal_node_id":"0.0-4.0-0.14","subject_id":"60df1a7f139746afa6a2768c","study_id":"60edd13110225f80f9f3709b","session_id":"6196ba73dd75573e4eee23f9","condition":"full-information","relevant_dimensions":["antennae","legs"],"bee_group":{"antennae":"B","wings":"X","pattern":"X","legs":"M"},"action":"harvest","summary":"good-harvest","bonus":1.5200000000000014},{"rt":4049.600000143051,"stimulus":"\n                    <p><b>Action: <em>harvest</em></b></p>\n                    <p>This is the bee that you just saw.</p>\n                    <img src=\"bees-with-color/bee-B2DF.svg\" width=\"200\">\n                    <p><span class=\"greenText\"><b>Successful harvest!</b></span><br>Your pay has increased by $0.02. Your bonus pay is now $0.54.</p>\n            ","response":0,"trial_type":"html-button-response","trial_index":36,"time_elapsed":952368,"internal_node_id":"0.0-4.0-1.14","subject_id":"60df1a7f139746afa6a2768c","study_id":"60edd13110225f80f9f3709b","session_id":"6196ba73dd75573e4eee23f9","condition":"full-information","relevant_dimensions":["antennae","legs"],"bee_group":{"antennae":"B","wings":"X","pattern":"X","legs":"M"},"bonus":1.5200000000000014},{"rt":3869.0999999046326,"stimulus":"bees-with-color/bee-A2SM.svg","response":0,"trial_type":"image-button-response","trial_index":37,"time_elapsed":956244,"internal_node_id":"0.0-4.0-0.15","subject_id":"60df1a7f139746afa6a2768c","study_id":"60edd13110225f80f9f3709b","session_id":"6196ba73dd75573e4eee23f9","condition":"full-information","relevant_dimensions":["antennae","legs"],"bee_group":{"antennae":"B","wings":"X","pattern":"X","legs":"M"},"action":"harvest","summary":"good-harvest","bonus":1.5200000000000014},{"rt":9376.799999952316,"stimulus":"\n                    <p><b>Action: <em>harvest</em></b></p>\n                    <p>This is the bee that you just saw.</p>\n                    <img src=\"bees-with-color/bee-A2SM.svg\" width=\"200\">\n                    <p><span class=\"greenText\"><b>Successful harvest!</b></span><br>Your pay has increased by $0.02. Your bonus pay is now $0.56.</p>\n            ","response":0,"trial_type":"html-button-response","trial_index":38,"time_elapsed":965629,"internal_node_id":"0.0-4.0-1.15","subject_id":"60df1a7f139746afa6a2768c","study_id":"60edd13110225f80f9f3709b","session_id":"6196ba73dd75573e4eee23f9","condition":"full-information","relevant_dimensions":["antennae","legs"],"bee_group":{"antennae":"B","wings":"X","pattern":"X","legs":"M"},"bonus":1.5200000000000014},{"rt":4385.799999952316,"stimulus":"bees-with-color/bee-B2SF.svg","response":0,"trial_type":"image-button-response","trial_index":39,"time_elapsed":970025,"internal_node_id":"0.0-4.0-0.16","subject_id":"60df1a7f139746afa6a2768c","study_id":"60edd13110225f80f9f3709b","session_id":"6196ba73dd75573e4eee23f9","condition":"full-information","relevant_dimensions":["antennae","legs"],"bee_group":{"antennae":"B","wings":"X","pattern":"X","legs":"M"},"action":"harvest","summary":"good-harvest","bonus":1.5200000000000014},{"rt":17109.799999952316,"stimulus":"\n                    <p><b>Action: <em>harvest</em></b></p>\n                    <p>This is the bee that you just saw.</p>\n                    <img src=\"bees-with-color/bee-B2SF.svg\" width=\"200\">\n                    <p><span class=\"greenText\"><b>Successful harvest!</b></span><br>Your pay has increased by $0.02. Your bonus pay is now $0.58.</p>\n            ","response":0,"trial_type":"html-button-response","trial_index":40,"time_elapsed":987141,"internal_node_id":"0.0-4.0-1.16","subject_id":"60df1a7f139746afa6a2768c","study_id":"60edd13110225f80f9f3709b","session_id":"6196ba73dd75573e4eee23f9","condition":"full-information","relevant_dimensions":["antennae","legs"],"bee_group":{"antennae":"B","wings":"X","pattern":"X","legs":"M"},"bonus":1.5200000000000014},{"rt":4360.200000047684,"stimulus":"bees-with-color/bee-A2DF.svg","response":0,"trial_type":"image-button-response","trial_index":41,"time_elapsed":991512,"internal_node_id":"0.0-4.0-0.17","subject_id":"60df1a7f139746afa6a2768c","study_id":"60edd13110225f80f9f3709b","session_id":"6196ba73dd75573e4eee23f9","condition":"full-information","relevant_dimensions":["antennae","legs"],"bee_group":{"antennae":"B","wings":"X","pattern":"X","legs":"M"},"action":"harvest","summary":"good-harvest","bonus":1.5200000000000014},{"rt":7471.699999809265,"stimulus":"\n                    <p><b>Action: <em>harvest</em></b></p>\n                    <p>This is the bee that you just saw.</p>\n                    <img src=\"bees-with-color/bee-A2DF.svg\" width=\"200\">\n                    <p><span class=\"greenText\"><b>Successful harvest!</b></span><br>Your pay has increased by $0.02. Your bonus pay is now $0.60.</p>\n            ","response":0,"trial_type":"html-button-response","trial_index":42,"time_elapsed":998994,"internal_node_id":"0.0-4.0-1.17","subject_id":"60df1a7f139746afa6a2768c","study_id":"60edd13110225f80f9f3709b","session_id":"6196ba73dd75573e4eee23f9","condition":"full-information","relevant_dimensions":["antennae","legs"],"bee_group":{"antennae":"B","wings":"X","pattern":"X","legs":"M"},"bonus":1.5200000000000014},{"rt":5037.099999904633,"stimulus":"bees-with-color/bee-A2SF.svg","response":0,"trial_type":"image-button-response","trial_index":43,"time_elapsed":1004041,"internal_node_id":"0.0-4.0-0.18","subject_id":"60df1a7f139746afa6a2768c","study_id":"60edd13110225f80f9f3709b","session_id":"6196ba73dd75573e4eee23f9","condition":"full-information","relevant_dimensions":["antennae","legs"],"bee_group":{"antennae":"B","wings":"X","pattern":"X","legs":"M"},"action":"harvest","summary":"good-harvest","bonus":1.5200000000000014},{"rt":2361.2000000476837,"stimulus":"\n                    <p><b>Action: <em>harvest</em></b></p>\n                    <p>This is the bee that you just saw.</p>\n                    <img src=\"bees-with-color/bee-A2SF.svg\" width=\"200\">\n                    <p><span class=\"greenText\"><b>Successful harvest!</b></span><br>Your pay has increased by $0.02. Your bonus pay is now $0.62.</p>\n            ","response":0,"trial_type":"html-button-response","trial_index":44,"time_elapsed":1006412,"internal_node_id":"0.0-4.0-1.18","subject_id":"60df1a7f139746afa6a2768c","study_id":"60edd13110225f80f9f3709b","session_id":"6196ba73dd75573e4eee23f9","condition":"full-information","relevant_dimensions":["antennae","legs"],"bee_group":{"antennae":"B","wings":"X","pattern":"X","legs":"M"},"bonus":1.5200000000000014},{"rt":8354.400000095367,"stimulus":"bees-with-color/bee-B1SM.svg","response":1,"trial_type":"image-button-response","trial_index":45,"time_elapsed":1014776,"internal_node_id":"0.0-4.0-0.19","subject_id":"60df1a7f139746afa6a2768c","study_id":"60edd13110225f80f9f3709b","session_id":"6196ba73dd75573e4eee23f9","condition":"full-information","relevant_dimensions":["antennae","legs"],"bee_group":{"antennae":"B","wings":"X","pattern":"X","legs":"M"},"action":"avoid","summary":"good-avoid","bonus":1.5200000000000014},{"rt":9856.5,"stimulus":"\n                    <p><b>Action: <em>avoid</em></b></p>\n                    <p>This is the bee that you just saw.</p>\n                    <img src=\"bees-with-color/bee-B1SM.svg\" width=\"200\">\n                    <p><span class=\"greenText\">Good choice!</span>  This bee would have stung you.<br>Your bonus pay is unchanged, and remains at $0.62.</p>\n            ","response":0,"trial_type":"html-button-response","trial_index":46,"time_elapsed":1024642,"internal_node_id":"0.0-4.0-1.19","subject_id":"60df1a7f139746afa6a2768c","study_id":"60edd13110225f80f9f3709b","session_id":"6196ba73dd75573e4eee23f9","condition":"full-information","relevant_dimensions":["antennae","legs"],"bee_group":{"antennae":"B","wings":"X","pattern":"X","legs":"M"},"bonus":1.5200000000000014},{"rt":6445.200000047684,"stimulus":"bees-with-color/bee-B2SM.svg","response":0,"trial_type":"image-button-response","trial_index":47,"time_elapsed":1031097,"internal_node_id":"0.0-4.0-0.20","subject_id":"60df1a7f139746afa6a2768c","study_id":"60edd13110225f80f9f3709b","session_id":"6196ba73dd75573e4eee23f9","condition":"full-information","relevant_dimensions":["antennae","legs"],"bee_group":{"antennae":"B","wings":"X","pattern":"X","legs":"M"},"action":"harvest","summary":"bad-harvest","bonus":1.5200000000000014},{"rt":12334.400000095367,"stimulus":"\n                    <p><b>Action: <em>harvest</em></b></p>\n                    <p>This is the bee that you just saw.</p>\n                    <img src=\"bees-with-color/bee-B2SM.svg\" width=\"200\">\n                    <p><span class=\"redText\">Bad choice, the bee was angry.</span><br><b>You have been stung!</b><br>Your pay has been decreased by $0.10. Your bonus pay is now $0.52.</p>\n            ","response":0,"trial_type":"html-button-response","trial_index":48,"time_elapsed":1043439,"internal_node_id":"0.0-4.0-1.20","subject_id":"60df1a7f139746afa6a2768c","study_id":"60edd13110225f80f9f3709b","session_id":"6196ba73dd75573e4eee23f9","condition":"full-information","relevant_dimensions":["antennae","legs"],"bee_group":{"antennae":"B","wings":"X","pattern":"X","legs":"M"},"bonus":1.5200000000000014},{"rt":6375.899999856949,"stimulus":"bees-with-color/bee-A2SM.svg","response":0,"trial_type":"image-button-response","trial_index":49,"time_elapsed":1049826,"internal_node_id":"0.0-4.0-0.21","subject_id":"60df1a7f139746afa6a2768c","study_id":"60edd13110225f80f9f3709b","session_id":"6196ba73dd75573e4eee23f9","condition":"full-information","relevant_dimensions":["antennae","legs"],"bee_group":{"antennae":"B","wings":"X","pattern":"X","legs":"M"},"action":"harvest","summary":"good-harvest","bonus":1.5200000000000014},{"rt":16024.299999952316,"stimulus":"\n                    <p><b>Action: <em>harvest</em></b></p>\n                    <p>This is the bee that you just saw.</p>\n                    <img src=\"bees-with-color/bee-A2SM.svg\" width=\"200\">\n                    <p><span class=\"greenText\"><b>Successful harvest!</b></span><br>Your pay has increased by $0.02. Your bonus pay is now $0.54.</p>\n            ","response":0,"trial_type":"html-button-response","trial_index":50,"time_elapsed":1065857,"internal_node_id":"0.0-4.0-1.21","subject_id":"60df1a7f139746afa6a2768c","study_id":"60edd13110225f80f9f3709b","session_id":"6196ba73dd75573e4eee23f9","condition":"full-information","relevant_dimensions":["antennae","legs"],"bee_group":{"antennae":"B","wings":"X","pattern":"X","legs":"M"},"bonus":1.5200000000000014},{"rt":5555.399999856949,"stimulus":"bees-with-color/bee-B1DF.svg","response":0,"trial_type":"image-button-response","trial_index":51,"time_elapsed":1071421,"internal_node_id":"0.0-4.0-0.22","subject_id":"60df1a7f139746afa6a2768c","study_id":"60edd13110225f80f9f3709b","session_id":"6196ba73dd75573e4eee23f9","condition":"full-information","relevant_dimensions":["antennae","legs"],"bee_group":{"antennae":"B","wings":"X","pattern":"X","legs":"M"},"action":"harvest","summary":"good-harvest","bonus":1.5200000000000014},{"rt":2686.600000143051,"stimulus":"\n                    <p><b>Action: <em>harvest</em></b></p>\n                    <p>This is the bee that you just saw.</p>\n                    <img src=\"bees-with-color/bee-B1DF.svg\" width=\"200\">\n                    <p><span class=\"greenText\"><b>Successful harvest!</b></span><br>Your pay has increased by $0.02. Your bonus pay is now $0.56.</p>\n            ","response":0,"trial_type":"html-button-response","trial_index":52,"time_elapsed":1074113,"internal_node_id":"0.0-4.0-1.22","subject_id":"60df1a7f139746afa6a2768c","study_id":"60edd13110225f80f9f3709b","session_id":"6196ba73dd75573e4eee23f9","condition":"full-information","relevant_dimensions":["antennae","legs"],"bee_group":{"antennae":"B","wings":"X","pattern":"X","legs":"M"},"bonus":1.5200000000000014},{"rt":2898,"stimulus":"bees-with-color/bee-B1SF.svg","response":0,"trial_type":"image-button-response","trial_index":53,"time_elapsed":1077013,"internal_node_id":"0.0-4.0-0.23","subject_id":"60df1a7f139746afa6a2768c","study_id":"60edd13110225f80f9f3709b","session_id":"6196ba73dd75573e4eee23f9","condition":"full-information","relevant_dimensions":["antennae","legs"],"bee_group":{"antennae":"B","wings":"X","pattern":"X","legs":"M"},"action":"harvest","summary":"good-harvest","bonus":1.5200000000000014},{"rt":2514.5999999046326,"stimulus":"\n                    <p><b>Action: <em>harvest</em></b></p>\n                    <p>This is the bee that you just saw.</p>\n                    <img src=\"bees-with-color/bee-B1SF.svg\" width=\"200\">\n                    <p><span class=\"greenText\"><b>Successful harvest!</b></span><br>Your pay has increased by $0.02. Your bonus pay is now $0.58.</p>\n            ","response":0,"trial_type":"html-button-response","trial_index":54,"time_elapsed":1079533,"internal_node_id":"0.0-4.0-1.23","subject_id":"60df1a7f139746afa6a2768c","study_id":"60edd13110225f80f9f3709b","session_id":"6196ba73dd75573e4eee23f9","condition":"full-information","relevant_dimensions":["antennae","legs"],"bee_group":{"antennae":"B","wings":"X","pattern":"X","legs":"M"},"bonus":1.5200000000000014},{"rt":8188.400000095367,"stimulus":"bees-with-color/bee-B2DM.svg","response":0,"trial_type":"image-button-response","trial_index":55,"time_elapsed":1087731,"internal_node_id":"0.0-4.0-0.24","subject_id":"60df1a7f139746afa6a2768c","study_id":"60edd13110225f80f9f3709b","session_id":"6196ba73dd75573e4eee23f9","condition":"full-information","relevant_dimensions":["antennae","legs"],"bee_group":{"antennae":"B","wings":"X","pattern":"X","legs":"M"},"action":"harvest","summary":"bad-harvest","bonus":1.5200000000000014},{"rt":15102.599999904633,"stimulus":"\n                    <p><b>Action: <em>harvest</em></b></p>\n                    <p>This is the bee that you just saw.</p>\n                    <img src=\"bees-with-color/bee-B2DM.svg\" width=\"200\">\n                    <p><span class=\"redText\">Bad choice, the bee was angry.</span><br><b>You have been stung!</b><br>Your pay has been decreased by $0.10. Your bonus pay is now $0.48.</p>\n            ","response":0,"trial_type":"html-button-response","trial_index":56,"time_elapsed":1102839,"internal_node_id":"0.0-4.0-1.24","subject_id":"60df1a7f139746afa6a2768c","study_id":"60edd13110225f80f9f3709b","session_id":"6196ba73dd75573e4eee23f9","condition":"full-information","relevant_dimensions":["antennae","legs"],"bee_group":{"antennae":"B","wings":"X","pattern":"X","legs":"M"},"bonus":1.5200000000000014},{"rt":12504.5,"stimulus":"bees-with-color/bee-A2DM.svg","response":0,"trial_type":"image-button-response","trial_index":57,"time_elapsed":1115350,"internal_node_id":"0.0-4.0-0.25","subject_id":"60df1a7f139746afa6a2768c","study_id":"60edd13110225f80f9f3709b","session_id":"6196ba73dd75573e4eee23f9","condition":"full-information","relevant_dimensions":["antennae","legs"],"bee_group":{"antennae":"B","wings":"X","pattern":"X","legs":"M"},"action":"harvest","summary":"good-harvest","bonus":1.5200000000000014},{"rt":4590.900000095367,"stimulus":"\n                    <p><b>Action: <em>harvest</em></b></p>\n                    <p>This is the bee that you just saw.</p>\n                    <img src=\"bees-with-color/bee-A2DM.svg\" width=\"200\">\n                    <p><span class=\"greenText\"><b>Successful harvest!</b></span><br>Your pay has increased by $0.02. Your bonus pay is now $0.50.</p>\n            ","response":0,"trial_type":"html-button-response","trial_index":58,"time_elapsed":1119946,"internal_node_id":"0.0-4.0-1.25","subject_id":"60df1a7f139746afa6a2768c","study_id":"60edd13110225f80f9f3709b","session_id":"6196ba73dd75573e4eee23f9","condition":"full-information","relevant_dimensions":["antennae","legs"],"bee_group":{"antennae":"B","wings":"X","pattern":"X","legs":"M"},"bonus":1.5200000000000014},{"rt":3946.9000000953674,"stimulus":"bees-with-color/bee-B1DM.svg","response":1,"trial_type":"image-button-response","trial_index":59,"time_elapsed":1123900,"internal_node_id":"0.0-4.0-0.26","subject_id":"60df1a7f139746afa6a2768c","study_id":"60edd13110225f80f9f3709b","session_id":"6196ba73dd75573e4eee23f9","condition":"full-information","relevant_dimensions":["antennae","legs"],"bee_group":{"antennae":"B","wings":"X","pattern":"X","legs":"M"},"action":"avoid","summary":"good-avoid","bonus":1.5200000000000014},{"rt":28103.200000047684,"stimulus":"\n                    <p><b>Action: <em>avoid</em></b></p>\n                    <p>This is the bee that you just saw.</p>\n                    <img src=\"bees-with-color/bee-B1DM.svg\" width=\"200\">\n                    <p><span class=\"greenText\">Good choice!</span>  This bee would have stung you.<br>Your bonus pay is unchanged, and remains at $0.50.</p>\n            ","response":0,"trial_type":"html-button-response","trial_index":60,"time_elapsed":1152016,"internal_node_id":"0.0-4.0-1.26","subject_id":"60df1a7f139746afa6a2768c","study_id":"60edd13110225f80f9f3709b","session_id":"6196ba73dd75573e4eee23f9","condition":"full-information","relevant_dimensions":["antennae","legs"],"bee_group":{"antennae":"B","wings":"X","pattern":"X","legs":"M"},"bonus":1.5200000000000014},{"rt":3664.5,"stimulus":"bees-with-color/bee-B2DF.svg","response":0,"trial_type":"image-button-response","trial_index":61,"time_elapsed":1155685,"internal_node_id":"0.0-4.0-0.27","subject_id":"60df1a7f139746afa6a2768c","study_id":"60edd13110225f80f9f3709b","session_id":"6196ba73dd75573e4eee23f9","condition":"full-information","relevant_dimensions":["antennae","legs"],"bee_group":{"antennae":"B","wings":"X","pattern":"X","legs":"M"},"action":"harvest","summary":"good-harvest","bonus":1.5200000000000014},{"rt":4592.600000143051,"stimulus":"\n                    <p><b>Action: <em>harvest</em></b></p>\n                    <p>This is the bee that you just saw.</p>\n                    <img src=\"bees-with-color/bee-B2DF.svg\" width=\"200\">\n                    <p><span class=\"greenText\"><b>Successful harvest!</b></span><br>Your pay has increased by $0.02. Your bonus pay is now $0.52.</p>\n            ","response":0,"trial_type":"html-button-response","trial_index":62,"time_elapsed":1160286,"internal_node_id":"0.0-4.0-1.27","subject_id":"60df1a7f139746afa6a2768c","study_id":"60edd13110225f80f9f3709b","session_id":"6196ba73dd75573e4eee23f9","condition":"full-information","relevant_dimensions":["antennae","legs"],"bee_group":{"antennae":"B","wings":"X","pattern":"X","legs":"M"},"bonus":1.5200000000000014},{"rt":2613.5999999046326,"stimulus":"bees-with-color/bee-A1DF.svg","response":0,"trial_type":"image-button-response","trial_index":63,"time_elapsed":1162908,"internal_node_id":"0.0-4.0-0.28","subject_id":"60df1a7f139746afa6a2768c","study_id":"60edd13110225f80f9f3709b","session_id":"6196ba73dd75573e4eee23f9","condition":"full-information","relevant_dimensions":["antennae","legs"],"bee_group":{"antennae":"B","wings":"X","pattern":"X","legs":"M"},"action":"harvest","summary":"good-harvest","bonus":1.5200000000000014},{"rt":2143.9000000953674,"stimulus":"\n                    <p><b>Action: <em>harvest</em></b></p>\n                    <p>This is the bee that you just saw.</p>\n                    <img src=\"bees-with-color/bee-A1DF.svg\" width=\"200\">\n                    <p><span class=\"greenText\"><b>Successful harvest!</b></span><br>Your pay has increased by $0.02. Your bonus pay is now $0.54.</p>\n            ","response":0,"trial_type":"html-button-response","trial_index":64,"time_elapsed":1165059,"internal_node_id":"0.0-4.0-1.28","subject_id":"60df1a7f139746afa6a2768c","study_id":"60edd13110225f80f9f3709b","session_id":"6196ba73dd75573e4eee23f9","condition":"full-information","relevant_dimensions":["antennae","legs"],"bee_group":{"antennae":"B","wings":"X","pattern":"X","legs":"M"},"bonus":1.5200000000000014},{"rt":2504.4000000953674,"stimulus":"bees-with-color/bee-A1SF.svg","response":0,"trial_type":"image-button-response","trial_index":65,"time_elapsed":1167574,"internal_node_id":"0.0-4.0-0.29","subject_id":"60df1a7f139746afa6a2768c","study_id":"60edd13110225f80f9f3709b","session_id":"6196ba73dd75573e4eee23f9","condition":"full-information","relevant_dimensions":["antennae","legs"],"bee_group":{"antennae":"B","wings":"X","pattern":"X","legs":"M"},"action":"harvest","summary":"good-harvest","bonus":1.5200000000000014},{"rt":2138,"stimulus":"\n                    <p><b>Action: <em>harvest</em></b></p>\n                    <p>This is the bee that you just saw.</p>\n                    <img src=\"bees-with-color/bee-A1SF.svg\" width=\"200\">\n                    <p><span class=\"greenText\"><b>Successful harvest!</b></span><br>Your pay has increased by $0.02. Your bonus pay is now $0.56.</p>\n            ","response":0,"trial_type":"html-button-response","trial_index":66,"time_elapsed":1169718,"internal_node_id":"0.0-4.0-1.29","subject_id":"60df1a7f139746afa6a2768c","study_id":"60edd13110225f80f9f3709b","session_id":"6196ba73dd75573e4eee23f9","condition":"full-information","relevant_dimensions":["antennae","legs"],"bee_group":{"antennae":"B","wings":"X","pattern":"X","legs":"M"},"bonus":1.5200000000000014},{"rt":16642,"stimulus":"bees-with-color/bee-A1SM.svg","response":0,"trial_type":"image-button-response","trial_index":67,"time_elapsed":1186370,"internal_node_id":"0.0-4.0-0.30","subject_id":"60df1a7f139746afa6a2768c","study_id":"60edd13110225f80f9f3709b","session_id":"6196ba73dd75573e4eee23f9","condition":"full-information","relevant_dimensions":["antennae","legs"],"bee_group":{"antennae":"B","wings":"X","pattern":"X","legs":"M"},"action":"harvest","summary":"good-harvest","bonus":1.5200000000000014},{"rt":12870.100000143051,"stimulus":"\n                    <p><b>Action: <em>harvest</em></b></p>\n                    <p>This is the bee that you just saw.</p>\n                    <img src=\"bees-with-color/bee-A1SM.svg\" width=\"200\">\n                    <p><span class=\"greenText\"><b>Successful harvest!</b></span><br>Your pay has increased by $0.02. Your bonus pay is now $0.58.</p>\n            ","response":0,"trial_type":"html-button-response","trial_index":68,"time_elapsed":1199248,"internal_node_id":"0.0-4.0-1.30","subject_id":"60df1a7f139746afa6a2768c","study_id":"60edd13110225f80f9f3709b","session_id":"6196ba73dd75573e4eee23f9","condition":"full-information","relevant_dimensions":["antennae","legs"],"bee_group":{"antennae":"B","wings":"X","pattern":"X","legs":"M"},"bonus":1.5200000000000014},{"rt":4272.099999904633,"stimulus":"bees-with-color/bee-A1DM.svg","response":0,"trial_type":"image-button-response","trial_index":69,"time_elapsed":1203530,"internal_node_id":"0.0-4.0-0.31","subject_id":"60df1a7f139746afa6a2768c","study_id":"60edd13110225f80f9f3709b","session_id":"6196ba73dd75573e4eee23f9","condition":"full-information","relevant_dimensions":["antennae","legs"],"bee_group":{"antennae":"B","wings":"X","pattern":"X","legs":"M"},"action":"harvest","summary":"good-harvest","bonus":1.5200000000000014},{"rt":7629.299999952316,"stimulus":"\n                    <p><b>Action: <em>harvest</em></b></p>\n                    <p>This is the bee that you just saw.</p>\n                    <img src=\"bees-with-color/bee-A1DM.svg\" width=\"200\">\n                    <p><span class=\"greenText\"><b>Successful harvest!</b></span><br>Your pay has increased by $0.02. Your bonus pay is now $0.60.</p>\n            ","response":0,"trial_type":"html-button-response","trial_index":70,"time_elapsed":1211163,"internal_node_id":"0.0-4.0-1.31","subject_id":"60df1a7f139746afa6a2768c","study_id":"60edd13110225f80f9f3709b","session_id":"6196ba73dd75573e4eee23f9","condition":"full-information","relevant_dimensions":["antennae","legs"],"bee_group":{"antennae":"B","wings":"X","pattern":"X","legs":"M"},"bonus":1.5200000000000014},{"rt":3590.399999856949,"stimulus":"bees-with-color/bee-B1DF.svg","response":0,"trial_type":"image-button-response","trial_index":71,"time_elapsed":1214763,"internal_node_id":"0.0-4.0-0.32","subject_id":"60df1a7f139746afa6a2768c","study_id":"60edd13110225f80f9f3709b","session_id":"6196ba73dd75573e4eee23f9","condition":"full-information","relevant_dimensions":["antennae","legs"],"bee_group":{"antennae":"B","wings":"X","pattern":"X","legs":"M"},"action":"harvest","summary":"good-harvest","bonus":1.5200000000000014},{"rt":5164,"stimulus":"\n                    <p><b>Action: <em>harvest</em></b></p>\n                    <p>This is the bee that you just saw.</p>\n                    <img src=\"bees-with-color/bee-B1DF.svg\" width=\"200\">\n                    <p><span class=\"greenText\"><b>Successful harvest!</b></span><br>Your pay has increased by $0.02. Your bonus pay is now $0.62.</p>\n            ","response":0,"trial_type":"html-button-response","trial_index":72,"time_elapsed":1219936,"internal_node_id":"0.0-4.0-1.32","subject_id":"60df1a7f139746afa6a2768c","study_id":"60edd13110225f80f9f3709b","session_id":"6196ba73dd75573e4eee23f9","condition":"full-information","relevant_dimensions":["antennae","legs"],"bee_group":{"antennae":"B","wings":"X","pattern":"X","legs":"M"},"bonus":1.5200000000000014},{"rt":2536,"stimulus":"bees-with-color/bee-A2DM.svg","response":0,"trial_type":"image-button-response","trial_index":73,"time_elapsed":1222480,"internal_node_id":"0.0-4.0-0.33","subject_id":"60df1a7f139746afa6a2768c","study_id":"60edd13110225f80f9f3709b","session_id":"6196ba73dd75573e4eee23f9","condition":"full-information","relevant_dimensions":["antennae","legs"],"bee_group":{"antennae":"B","wings":"X","pattern":"X","legs":"M"},"action":"harvest","summary":"good-harvest","bonus":1.5200000000000014},{"rt":3471.4000000953674,"stimulus":"\n                    <p><b>Action: <em>harvest</em></b></p>\n                    <p>This is the bee that you just saw.</p>\n                    <img src=\"bees-with-color/bee-A2DM.svg\" width=\"200\">\n                    <p><span class=\"greenText\"><b>Successful harvest!</b></span><br>Your pay has increased by $0.02. Your bonus pay is now $0.64.</p>\n            ","response":0,"trial_type":"html-button-response","trial_index":74,"time_elapsed":1225960,"internal_node_id":"0.0-4.0-1.33","subject_id":"60df1a7f139746afa6a2768c","study_id":"60edd13110225f80f9f3709b","session_id":"6196ba73dd75573e4eee23f9","condition":"full-information","relevant_dimensions":["antennae","legs"],"bee_group":{"antennae":"B","wings":"X","pattern":"X","legs":"M"},"bonus":1.5200000000000014},{"rt":8376.199999809265,"stimulus":"bees-with-color/bee-B2DM.svg","response":1,"trial_type":"image-button-response","trial_index":75,"time_elapsed":1234346,"internal_node_id":"0.0-4.0-0.34","subject_id":"60df1a7f139746afa6a2768c","study_id":"60edd13110225f80f9f3709b","session_id":"6196ba73dd75573e4eee23f9","condition":"full-information","relevant_dimensions":["antennae","legs"],"bee_group":{"antennae":"B","wings":"X","pattern":"X","legs":"M"},"action":"avoid","summary":"good-avoid","bonus":1.5200000000000014},{"rt":6356.200000047684,"stimulus":"\n                    <p><b>Action: <em>avoid</em></b></p>\n                    <p>This is the bee that you just saw.</p>\n                    <img src=\"bees-with-color/bee-B2DM.svg\" width=\"200\">\n                    <p><span class=\"greenText\">Good choice!</span>  This bee would have stung you.<br>Your bonus pay is unchanged, and remains at $0.64.</p>\n            ","response":0,"trial_type":"html-button-response","trial_index":76,"time_elapsed":1240711,"internal_node_id":"0.0-4.0-1.34","subject_id":"60df1a7f139746afa6a2768c","study_id":"60edd13110225f80f9f3709b","session_id":"6196ba73dd75573e4eee23f9","condition":"full-information","relevant_dimensions":["antennae","legs"],"bee_group":{"antennae":"B","wings":"X","pattern":"X","legs":"M"},"bonus":1.5200000000000014},{"rt":2945.9000000953674,"stimulus":"bees-with-color/bee-A2DF.svg","response":0,"trial_type":"image-button-response","trial_index":77,"time_elapsed":1243667,"internal_node_id":"0.0-4.0-0.35","subject_id":"60df1a7f139746afa6a2768c","study_id":"60edd13110225f80f9f3709b","session_id":"6196ba73dd75573e4eee23f9","condition":"full-information","relevant_dimensions":["antennae","legs"],"bee_group":{"antennae":"B","wings":"X","pattern":"X","legs":"M"},"action":"harvest","summary":"good-harvest","bonus":1.5200000000000014},{"rt":2272.2999999523163,"stimulus":"\n                    <p><b>Action: <em>harvest</em></b></p>\n                    <p>This is the bee that you just saw.</p>\n                    <img src=\"bees-with-color/bee-A2DF.svg\" width=\"200\">\n                    <p><span class=\"greenText\"><b>Successful harvest!</b></span><br>Your pay has increased by $0.02. Your bonus pay is now $0.66.</p>\n            ","response":0,"trial_type":"html-button-response","trial_index":78,"time_elapsed":1245946,"internal_node_id":"0.0-4.0-1.35","subject_id":"60df1a7f139746afa6a2768c","study_id":"60edd13110225f80f9f3709b","session_id":"6196ba73dd75573e4eee23f9","condition":"full-information","relevant_dimensions":["antennae","legs"],"bee_group":{"antennae":"B","wings":"X","pattern":"X","legs":"M"},"bonus":1.5200000000000014},{"rt":4308.900000095367,"stimulus":"bees-with-color/bee-B1DM.svg","response":1,"trial_type":"image-button-response","trial_index":79,"time_elapsed":1250263,"internal_node_id":"0.0-4.0-0.36","subject_id":"60df1a7f139746afa6a2768c","study_id":"60edd13110225f80f9f3709b","session_id":"6196ba73dd75573e4eee23f9","condition":"full-information","relevant_dimensions":["antennae","legs"],"bee_group":{"antennae":"B","wings":"X","pattern":"X","legs":"M"},"action":"avoid","summary":"good-avoid","bonus":1.5200000000000014},{"rt":5092.300000190735,"stimulus":"\n                    <p><b>Action: <em>avoid</em></b></p>\n                    <p>This is the bee that you just saw.</p>\n                    <img src=\"bees-with-color/bee-B1DM.svg\" width=\"200\">\n                    <p><span class=\"greenText\">Good choice!</span>  This bee would have stung you.<br>Your bonus pay is unchanged, and remains at $0.66.</p>\n            ","response":0,"trial_type":"html-button-response","trial_index":80,"time_elapsed":1255362,"internal_node_id":"0.0-4.0-1.36","subject_id":"60df1a7f139746afa6a2768c","study_id":"60edd13110225f80f9f3709b","session_id":"6196ba73dd75573e4eee23f9","condition":"full-information","relevant_dimensions":["antennae","legs"],"bee_group":{"antennae":"B","wings":"X","pattern":"X","legs":"M"},"bonus":1.5200000000000014},{"rt":2364.7000000476837,"stimulus":"bees-with-color/bee-B1SF.svg","response":0,"trial_type":"image-button-response","trial_index":81,"time_elapsed":1257735,"internal_node_id":"0.0-4.0-0.37","subject_id":"60df1a7f139746afa6a2768c","study_id":"60edd13110225f80f9f3709b","session_id":"6196ba73dd75573e4eee23f9","condition":"full-information","relevant_dimensions":["antennae","legs"],"bee_group":{"antennae":"B","wings":"X","pattern":"X","legs":"M"},"action":"harvest","summary":"good-harvest","bonus":1.5200000000000014},{"rt":2849.9000000953674,"stimulus":"\n                    <p><b>Action: <em>harvest</em></b></p>\n                    <p>This is the bee that you just saw.</p>\n                    <img src=\"bees-with-color/bee-B1SF.svg\" width=\"200\">\n                    <p><span class=\"greenText\"><b>Successful harvest!</b></span><br>Your pay has increased by $0.02. Your bonus pay is now $0.68.</p>\n            ","response":0,"trial_type":"html-button-response","trial_index":82,"time_elapsed":1260591,"internal_node_id":"0.0-4.0-1.37","subject_id":"60df1a7f139746afa6a2768c","study_id":"60edd13110225f80f9f3709b","session_id":"6196ba73dd75573e4eee23f9","condition":"full-information","relevant_dimensions":["antennae","legs"],"bee_group":{"antennae":"B","wings":"X","pattern":"X","legs":"M"},"bonus":1.5200000000000014},{"rt":3719.7999999523163,"stimulus":"bees-with-color/bee-A2SM.svg","response":0,"trial_type":"image-button-response","trial_index":83,"time_elapsed":1264317,"internal_node_id":"0.0-4.0-0.38","subject_id":"60df1a7f139746afa6a2768c","study_id":"60edd13110225f80f9f3709b","session_id":"6196ba73dd75573e4eee23f9","condition":"full-information","relevant_dimensions":["antennae","legs"],"bee_group":{"antennae":"B","wings":"X","pattern":"X","legs":"M"},"action":"harvest","summary":"good-harvest","bonus":1.5200000000000014},{"rt":2555.5,"stimulus":"\n                    <p><b>Action: <em>harvest</em></b></p>\n                    <p>This is the bee that you just saw.</p>\n                    <img src=\"bees-with-color/bee-A2SM.svg\" width=\"200\">\n                    <p><span class=\"greenText\"><b>Successful harvest!</b></span><br>Your pay has increased by $0.02. Your bonus pay is now $0.70.</p>\n            ","response":0,"trial_type":"html-button-response","trial_index":84,"time_elapsed":1266878,"internal_node_id":"0.0-4.0-1.38","subject_id":"60df1a7f139746afa6a2768c","study_id":"60edd13110225f80f9f3709b","session_id":"6196ba73dd75573e4eee23f9","condition":"full-information","relevant_dimensions":["antennae","legs"],"bee_group":{"antennae":"B","wings":"X","pattern":"X","legs":"M"},"bonus":1.5200000000000014},{"rt":2675.2999999523163,"stimulus":"bees-with-color/bee-A2SF.svg","response":0,"trial_type":"image-button-response","trial_index":85,"time_elapsed":1269562,"internal_node_id":"0.0-4.0-0.39","subject_id":"60df1a7f139746afa6a2768c","study_id":"60edd13110225f80f9f3709b","session_id":"6196ba73dd75573e4eee23f9","condition":"full-information","relevant_dimensions":["antennae","legs"],"bee_group":{"antennae":"B","wings":"X","pattern":"X","legs":"M"},"action":"harvest","summary":"good-harvest","bonus":1.5200000000000014},{"rt":2439.399999856949,"stimulus":"\n                    <p><b>Action: <em>harvest</em></b></p>\n                    <p>This is the bee that you just saw.</p>\n                    <img src=\"bees-with-color/bee-A2SF.svg\" width=\"200\">\n                    <p><span class=\"greenText\"><b>Successful harvest!</b></span><br>Your pay has increased by $0.02. Your bonus pay is now $0.72.</p>\n            ","response":0,"trial_type":"html-button-response","trial_index":86,"time_elapsed":1272012,"internal_node_id":"0.0-4.0-1.39","subject_id":"60df1a7f139746afa6a2768c","study_id":"60edd13110225f80f9f3709b","session_id":"6196ba73dd75573e4eee23f9","condition":"full-information","relevant_dimensions":["antennae","legs"],"bee_group":{"antennae":"B","wings":"X","pattern":"X","legs":"M"},"bonus":1.5200000000000014},{"rt":2548.5999999046326,"stimulus":"bees-with-color/bee-B2SM.svg","response":1,"trial_type":"image-button-response","trial_index":87,"time_elapsed":1274569,"internal_node_id":"0.0-4.0-0.40","subject_id":"60df1a7f139746afa6a2768c","study_id":"60edd13110225f80f9f3709b","session_id":"6196ba73dd75573e4eee23f9","condition":"full-information","relevant_dimensions":["antennae","legs"],"bee_group":{"antennae":"B","wings":"X","pattern":"X","legs":"M"},"action":"avoid","summary":"good-avoid","bonus":1.5200000000000014},{"rt":2636.100000143051,"stimulus":"\n                    <p><b>Action: <em>avoid</em></b></p>\n                    <p>This is the bee that you just saw.</p>\n                    <img src=\"bees-with-color/bee-B2SM.svg\" width=\"200\">\n                    <p><span class=\"greenText\">Good choice!</span>  This bee would have stung you.<br>Your bonus pay is unchanged, and remains at $0.72.</p>\n            ","response":0,"trial_type":"html-button-response","trial_index":88,"time_elapsed":1277211,"internal_node_id":"0.0-4.0-1.40","subject_id":"60df1a7f139746afa6a2768c","study_id":"60edd13110225f80f9f3709b","session_id":"6196ba73dd75573e4eee23f9","condition":"full-information","relevant_dimensions":["antennae","legs"],"bee_group":{"antennae":"B","wings":"X","pattern":"X","legs":"M"},"bonus":1.5200000000000014},{"rt":2096.2999999523163,"stimulus":"bees-with-color/bee-A1DF.svg","response":0,"trial_type":"image-button-response","trial_index":89,"time_elapsed":1279318,"internal_node_id":"0.0-4.0-0.41","subject_id":"60df1a7f139746afa6a2768c","study_id":"60edd13110225f80f9f3709b","session_id":"6196ba73dd75573e4eee23f9","condition":"full-information","relevant_dimensions":["antennae","legs"],"bee_group":{"antennae":"B","wings":"X","pattern":"X","legs":"M"},"action":"harvest","summary":"good-harvest","bonus":1.5200000000000014},{"rt":2574.600000143051,"stimulus":"\n                    <p><b>Action: <em>harvest</em></b></p>\n                    <p>This is the bee that you just saw.</p>\n                    <img src=\"bees-with-color/bee-A1DF.svg\" width=\"200\">\n                    <p><span class=\"greenText\"><b>Successful harvest!</b></span><br>Your pay has increased by $0.02. Your bonus pay is now $0.74.</p>\n            ","response":0,"trial_type":"html-button-response","trial_index":90,"time_elapsed":1281898,"internal_node_id":"0.0-4.0-1.41","subject_id":"60df1a7f139746afa6a2768c","study_id":"60edd13110225f80f9f3709b","session_id":"6196ba73dd75573e4eee23f9","condition":"full-information","relevant_dimensions":["antennae","legs"],"bee_group":{"antennae":"B","wings":"X","pattern":"X","legs":"M"},"bonus":1.5200000000000014},{"rt":2495.2999999523163,"stimulus":"bees-with-color/bee-A1SM.svg","response":0,"trial_type":"image-button-response","trial_index":91,"time_elapsed":1284402,"internal_node_id":"0.0-4.0-0.42","subject_id":"60df1a7f139746afa6a2768c","study_id":"60edd13110225f80f9f3709b","session_id":"6196ba73dd75573e4eee23f9","condition":"full-information","relevant_dimensions":["antennae","legs"],"bee_group":{"antennae":"B","wings":"X","pattern":"X","legs":"M"},"action":"harvest","summary":"good-harvest","bonus":1.5200000000000014},{"rt":1839.0999999046326,"stimulus":"\n                    <p><b>Action: <em>harvest</em></b></p>\n                    <p>This is the bee that you just saw.</p>\n                    <img src=\"bees-with-color/bee-A1SM.svg\" width=\"200\">\n                    <p><span class=\"greenText\"><b>Successful harvest!</b></span><br>Your pay has increased by $0.02. Your bonus pay is now $0.76.</p>\n            ","response":0,"trial_type":"html-button-response","trial_index":92,"time_elapsed":1286247,"internal_node_id":"0.0-4.0-1.42","subject_id":"60df1a7f139746afa6a2768c","study_id":"60edd13110225f80f9f3709b","session_id":"6196ba73dd75573e4eee23f9","condition":"full-information","relevant_dimensions":["antennae","legs"],"bee_group":{"antennae":"B","wings":"X","pattern":"X","legs":"M"},"bonus":1.5200000000000014},{"rt":3009,"stimulus":"bees-with-color/bee-B2SF.svg","response":0,"trial_type":"image-button-response","trial_index":93,"time_elapsed":1289265,"internal_node_id":"0.0-4.0-0.43","subject_id":"60df1a7f139746afa6a2768c","study_id":"60edd13110225f80f9f3709b","session_id":"6196ba73dd75573e4eee23f9","condition":"full-information","relevant_dimensions":["antennae","legs"],"bee_group":{"antennae":"B","wings":"X","pattern":"X","legs":"M"},"action":"harvest","summary":"good-harvest","bonus":1.5200000000000014},{"rt":2787.300000190735,"stimulus":"\n                    <p><b>Action: <em>harvest</em></b></p>\n                    <p>This is the bee that you just saw.</p>\n                    <img src=\"bees-with-color/bee-B2SF.svg\" width=\"200\">\n                    <p><span class=\"greenText\"><b>Successful harvest!</b></span><br>Your pay has increased by $0.02. Your bonus pay is now $0.78.</p>\n            ","response":0,"trial_type":"html-button-response","trial_index":94,"time_elapsed":1292060,"internal_node_id":"0.0-4.0-1.43","subject_id":"60df1a7f139746afa6a2768c","study_id":"60edd13110225f80f9f3709b","session_id":"6196ba73dd75573e4eee23f9","condition":"full-information","relevant_dimensions":["antennae","legs"],"bee_group":{"antennae":"B","wings":"X","pattern":"X","legs":"M"},"bonus":1.5200000000000014},{"rt":2158.7000000476837,"stimulus":"bees-with-color/bee-A1SF.svg","response":0,"trial_type":"image-button-response","trial_index":95,"time_elapsed":1294227,"internal_node_id":"0.0-4.0-0.44","subject_id":"60df1a7f139746afa6a2768c","study_id":"60edd13110225f80f9f3709b","session_id":"6196ba73dd75573e4eee23f9","condition":"full-information","relevant_dimensions":["antennae","legs"],"bee_group":{"antennae":"B","wings":"X","pattern":"X","legs":"M"},"action":"harvest","summary":"good-harvest","bonus":1.5200000000000014},{"rt":1879.9000000953674,"stimulus":"\n                    <p><b>Action: <em>harvest</em></b></p>\n                    <p>This is the bee that you just saw.</p>\n                    <img src=\"bees-with-color/bee-A1SF.svg\" width=\"200\">\n                    <p><span class=\"greenText\"><b>Successful harvest!</b></span><br>Your pay has increased by $0.02. Your bonus pay is now $0.80.</p>\n            ","response":0,"trial_type":"html-button-response","trial_index":96,"time_elapsed":1296114,"internal_node_id":"0.0-4.0-1.44","subject_id":"60df1a7f139746afa6a2768c","study_id":"60edd13110225f80f9f3709b","session_id":"6196ba73dd75573e4eee23f9","condition":"full-information","relevant_dimensions":["antennae","legs"],"bee_group":{"antennae":"B","wings":"X","pattern":"X","legs":"M"},"bonus":1.5200000000000014},{"rt":2275.899999856949,"stimulus":"bees-with-color/bee-A1DM.svg","response":0,"trial_type":"image-button-response","trial_index":97,"time_elapsed":1298400,"internal_node_id":"0.0-4.0-0.45","subject_id":"60df1a7f139746afa6a2768c","study_id":"60edd13110225f80f9f3709b","session_id":"6196ba73dd75573e4eee23f9","condition":"full-information","relevant_dimensions":["antennae","legs"],"bee_group":{"antennae":"B","wings":"X","pattern":"X","legs":"M"},"action":"harvest","summary":"good-harvest","bonus":1.5200000000000014},{"rt":2044.6000001430511,"stimulus":"\n                    <p><b>Action: <em>harvest</em></b></p>\n                    <p>This is the bee that you just saw.</p>\n                    <img src=\"bees-with-color/bee-A1DM.svg\" width=\"200\">\n                    <p><span class=\"greenText\"><b>Successful harvest!</b></span><br>Your pay has increased by $0.02. Your bonus pay is now $0.82.</p>\n            ","response":0,"trial_type":"html-button-response","trial_index":98,"time_elapsed":1300451,"internal_node_id":"0.0-4.0-1.45","subject_id":"60df1a7f139746afa6a2768c","study_id":"60edd13110225f80f9f3709b","session_id":"6196ba73dd75573e4eee23f9","condition":"full-information","relevant_dimensions":["antennae","legs"],"bee_group":{"antennae":"B","wings":"X","pattern":"X","legs":"M"},"bonus":1.5200000000000014},{"rt":2305.5999999046326,"stimulus":"bees-with-color/bee-B1SM.svg","response":1,"trial_type":"image-button-response","trial_index":99,"time_elapsed":1302767,"internal_node_id":"0.0-4.0-0.46","subject_id":"60df1a7f139746afa6a2768c","study_id":"60edd13110225f80f9f3709b","session_id":"6196ba73dd75573e4eee23f9","condition":"full-information","relevant_dimensions":["antennae","legs"],"bee_group":{"antennae":"B","wings":"X","pattern":"X","legs":"M"},"action":"avoid","summary":"good-avoid","bonus":1.5200000000000014},{"rt":5123.700000047684,"stimulus":"\n                    <p><b>Action: <em>avoid</em></b></p>\n                    <p>This is the bee that you just saw.</p>\n                    <img src=\"bees-with-color/bee-B1SM.svg\" width=\"200\">\n                    <p><span class=\"greenText\">Good choice!</span>  This bee would have stung you.<br>Your bonus pay is unchanged, and remains at $0.82.</p>\n            ","response":0,"trial_type":"html-button-response","trial_index":100,"time_elapsed":1307897,"internal_node_id":"0.0-4.0-1.46","subject_id":"60df1a7f139746afa6a2768c","study_id":"60edd13110225f80f9f3709b","session_id":"6196ba73dd75573e4eee23f9","condition":"full-information","relevant_dimensions":["antennae","legs"],"bee_group":{"antennae":"B","wings":"X","pattern":"X","legs":"M"},"bonus":1.5200000000000014},{"rt":2942.7000000476837,"stimulus":"bees-with-color/bee-B2DF.svg","response":0,"trial_type":"image-button-response","trial_index":101,"time_elapsed":1310850,"internal_node_id":"0.0-4.0-0.47","subject_id":"60df1a7f139746afa6a2768c","study_id":"60edd13110225f80f9f3709b","session_id":"6196ba73dd75573e4eee23f9","condition":"full-information","relevant_dimensions":["antennae","legs"],"bee_group":{"antennae":"B","wings":"X","pattern":"X","legs":"M"},"action":"harvest","summary":"good-harvest","bonus":1.5200000000000014},{"rt":1778.9000000953674,"stimulus":"\n                    <p><b>Action: <em>harvest</em></b></p>\n                    <p>This is the bee that you just saw.</p>\n                    <img src=\"bees-with-color/bee-B2DF.svg\" width=\"200\">\n                    <p><span class=\"greenText\"><b>Successful harvest!</b></span><br>Your pay has increased by $0.02. Your bonus pay is now $0.84.</p>\n            ","response":0,"trial_type":"html-button-response","trial_index":102,"time_elapsed":1312636,"internal_node_id":"0.0-4.0-1.47","subject_id":"60df1a7f139746afa6a2768c","study_id":"60edd13110225f80f9f3709b","session_id":"6196ba73dd75573e4eee23f9","condition":"full-information","relevant_dimensions":["antennae","legs"],"bee_group":{"antennae":"B","wings":"X","pattern":"X","legs":"M"},"bonus":1.5200000000000014},{"rt":2352.2000000476837,"stimulus":"bees-with-color/bee-A2DM.svg","response":0,"trial_type":"image-button-response","trial_index":103,"time_elapsed":1314995,"internal_node_id":"0.0-4.0-0.48","subject_id":"60df1a7f139746afa6a2768c","study_id":"60edd13110225f80f9f3709b","session_id":"6196ba73dd75573e4eee23f9","condition":"full-information","relevant_dimensions":["antennae","legs"],"bee_group":{"antennae":"B","wings":"X","pattern":"X","legs":"M"},"action":"harvest","summary":"good-harvest","bonus":1.5200000000000014},{"rt":2026.5,"stimulus":"\n                    <p><b>Action: <em>harvest</em></b></p>\n                    <p>This is the bee that you just saw.</p>\n                    <img src=\"bees-with-color/bee-A2DM.svg\" width=\"200\">\n                    <p><span class=\"greenText\"><b>Successful harvest!</b></span><br>Your pay has increased by $0.02. Your bonus pay is now $0.86.</p>\n            ","response":0,"trial_type":"html-button-response","trial_index":104,"time_elapsed":1317030,"internal_node_id":"0.0-4.0-1.48","subject_id":"60df1a7f139746afa6a2768c","study_id":"60edd13110225f80f9f3709b","session_id":"6196ba73dd75573e4eee23f9","condition":"full-information","relevant_dimensions":["antennae","legs"],"bee_group":{"antennae":"B","wings":"X","pattern":"X","legs":"M"},"bonus":1.5200000000000014},{"rt":2421.300000190735,"stimulus":"bees-with-color/bee-B1SF.svg","response":0,"trial_type":"image-button-response","trial_index":105,"time_elapsed":1319464,"internal_node_id":"0.0-4.0-0.49","subject_id":"60df1a7f139746afa6a2768c","study_id":"60edd13110225f80f9f3709b","session_id":"6196ba73dd75573e4eee23f9","condition":"full-information","relevant_dimensions":["antennae","legs"],"bee_group":{"antennae":"B","wings":"X","pattern":"X","legs":"M"},"action":"harvest","summary":"good-harvest","bonus":1.5200000000000014},{"rt":1861.5,"stimulus":"\n                    <p><b>Action: <em>harvest</em></b></p>\n                    <p>This is the bee that you just saw.</p>\n                    <img src=\"bees-with-color/bee-B1SF.svg\" width=\"200\">\n                    <p><span class=\"greenText\"><b>Successful harvest!</b></span><br>Your pay has increased by $0.02. Your bonus pay is now $0.88.</p>\n            ","response":0,"trial_type":"html-button-response","trial_index":106,"time_elapsed":1321333,"internal_node_id":"0.0-4.0-1.49","subject_id":"60df1a7f139746afa6a2768c","study_id":"60edd13110225f80f9f3709b","session_id":"6196ba73dd75573e4eee23f9","condition":"full-information","relevant_dimensions":["antennae","legs"],"bee_group":{"antennae":"B","wings":"X","pattern":"X","legs":"M"},"bonus":1.5200000000000014},{"rt":1909.5,"stimulus":"bees-with-color/bee-B1DF.svg","response":0,"trial_type":"image-button-response","trial_index":107,"time_elapsed":1323251,"internal_node_id":"0.0-4.0-0.50","subject_id":"60df1a7f139746afa6a2768c","study_id":"60edd13110225f80f9f3709b","session_id":"6196ba73dd75573e4eee23f9","condition":"full-information","relevant_dimensions":["antennae","legs"],"bee_group":{"antennae":"B","wings":"X","pattern":"X","legs":"M"},"action":"harvest","summary":"good-harvest","bonus":1.5200000000000014},{"rt":1910.1999998092651,"stimulus":"\n                    <p><b>Action: <em>harvest</em></b></p>\n                    <p>This is the bee that you just saw.</p>\n                    <img src=\"bees-with-color/bee-B1DF.svg\" width=\"200\">\n                    <p><span class=\"greenText\"><b>Successful harvest!</b></span><br>Your pay has increased by $0.02. Your bonus pay is now $0.90.</p>\n            ","response":0,"trial_type":"html-button-response","trial_index":108,"time_elapsed":1325167,"internal_node_id":"0.0-4.0-1.50","subject_id":"60df1a7f139746afa6a2768c","study_id":"60edd13110225f80f9f3709b","session_id":"6196ba73dd75573e4eee23f9","condition":"full-information","relevant_dimensions":["antennae","legs"],"bee_group":{"antennae":"B","wings":"X","pattern":"X","legs":"M"},"bonus":1.5200000000000014},{"rt":1969.0999999046326,"stimulus":"bees-with-color/bee-A1SF.svg","response":0,"trial_type":"image-button-response","trial_index":109,"time_elapsed":1327144,"internal_node_id":"0.0-4.0-0.51","subject_id":"60df1a7f139746afa6a2768c","study_id":"60edd13110225f80f9f3709b","session_id":"6196ba73dd75573e4eee23f9","condition":"full-information","relevant_dimensions":["antennae","legs"],"bee_group":{"antennae":"B","wings":"X","pattern":"X","legs":"M"},"action":"harvest","summary":"good-harvest","bonus":1.5200000000000014},{"rt":2014.1999998092651,"stimulus":"\n                    <p><b>Action: <em>harvest</em></b></p>\n                    <p>This is the bee that you just saw.</p>\n                    <img src=\"bees-with-color/bee-A1SF.svg\" width=\"200\">\n                    <p><span class=\"greenText\"><b>Successful harvest!</b></span><br>Your pay has increased by $0.02. Your bonus pay is now $0.92.</p>\n            ","response":0,"trial_type":"html-button-response","trial_index":110,"time_elapsed":1329167,"internal_node_id":"0.0-4.0-1.51","subject_id":"60df1a7f139746afa6a2768c","study_id":"60edd13110225f80f9f3709b","session_id":"6196ba73dd75573e4eee23f9","condition":"full-information","relevant_dimensions":["antennae","legs"],"bee_group":{"antennae":"B","wings":"X","pattern":"X","legs":"M"},"bonus":1.5200000000000014},{"rt":3922,"stimulus":"bees-with-color/bee-B2DM.svg","response":1,"trial_type":"image-button-response","trial_index":111,"time_elapsed":1333092,"internal_node_id":"0.0-4.0-0.52","subject_id":"60df1a7f139746afa6a2768c","study_id":"60edd13110225f80f9f3709b","session_id":"6196ba73dd75573e4eee23f9","condition":"full-information","relevant_dimensions":["antennae","legs"],"bee_group":{"antennae":"B","wings":"X","pattern":"X","legs":"M"},"action":"avoid","summary":"good-avoid","bonus":1.5200000000000014},{"rt":2378.9000000953674,"stimulus":"\n                    <p><b>Action: <em>avoid</em></b></p>\n                    <p>This is the bee that you just saw.</p>\n                    <img src=\"bees-with-color/bee-B2DM.svg\" width=\"200\">\n                    <p><span class=\"greenText\">Good choice!</span>  This bee would have stung you.<br>Your bonus pay is unchanged, and remains at $0.92.</p>\n            ","response":0,"trial_type":"html-button-response","trial_index":112,"time_elapsed":1335478,"internal_node_id":"0.0-4.0-1.52","subject_id":"60df1a7f139746afa6a2768c","study_id":"60edd13110225f80f9f3709b","session_id":"6196ba73dd75573e4eee23f9","condition":"full-information","relevant_dimensions":["antennae","legs"],"bee_group":{"antennae":"B","wings":"X","pattern":"X","legs":"M"},"bonus":1.5200000000000014},{"rt":2822.399999856949,"stimulus":"bees-with-color/bee-A1DM.svg","response":0,"trial_type":"image-button-response","trial_index":113,"time_elapsed":1338309,"internal_node_id":"0.0-4.0-0.53","subject_id":"60df1a7f139746afa6a2768c","study_id":"60edd13110225f80f9f3709b","session_id":"6196ba73dd75573e4eee23f9","condition":"full-information","relevant_dimensions":["antennae","legs"],"bee_group":{"antennae":"B","wings":"X","pattern":"X","legs":"M"},"action":"harvest","summary":"good-harvest","bonus":1.5200000000000014},{"rt":2038.3999998569489,"stimulus":"\n                    <p><b>Action: <em>harvest</em></b></p>\n                    <p>This is the bee that you just saw.</p>\n                    <img src=\"bees-with-color/bee-A1DM.svg\" width=\"200\">\n                    <p><span class=\"greenText\"><b>Successful harvest!</b></span><br>Your pay has increased by $0.02. Your bonus pay is now $0.94.</p>\n            ","response":0,"trial_type":"html-button-response","trial_index":114,"time_elapsed":1340354,"internal_node_id":"0.0-4.0-1.53","subject_id":"60df1a7f139746afa6a2768c","study_id":"60edd13110225f80f9f3709b","session_id":"6196ba73dd75573e4eee23f9","condition":"full-information","relevant_dimensions":["antennae","legs"],"bee_group":{"antennae":"B","wings":"X","pattern":"X","legs":"M"},"bonus":1.5200000000000014},{"rt":2410.699999809265,"stimulus":"bees-with-color/bee-B1DM.svg","response":1,"trial_type":"image-button-response","trial_index":115,"time_elapsed":1342773,"internal_node_id":"0.0-4.0-0.54","subject_id":"60df1a7f139746afa6a2768c","study_id":"60edd13110225f80f9f3709b","session_id":"6196ba73dd75573e4eee23f9","condition":"full-information","relevant_dimensions":["antennae","legs"],"bee_group":{"antennae":"B","wings":"X","pattern":"X","legs":"M"},"action":"avoid","summary":"good-avoid","bonus":1.5200000000000014},{"rt":2595.4000000953674,"stimulus":"\n                    <p><b>Action: <em>avoid</em></b></p>\n                    <p>This is the bee that you just saw.</p>\n                    <img src=\"bees-with-color/bee-B1DM.svg\" width=\"200\">\n                    <p><span class=\"greenText\">Good choice!</span>  This bee would have stung you.<br>Your bonus pay is unchanged, and remains at $0.94.</p>\n            ","response":0,"trial_type":"html-button-response","trial_index":116,"time_elapsed":1345376,"internal_node_id":"0.0-4.0-1.54","subject_id":"60df1a7f139746afa6a2768c","study_id":"60edd13110225f80f9f3709b","session_id":"6196ba73dd75573e4eee23f9","condition":"full-information","relevant_dimensions":["antennae","legs"],"bee_group":{"antennae":"B","wings":"X","pattern":"X","legs":"M"},"bonus":1.5200000000000014},{"rt":2505,"stimulus":"bees-with-color/bee-A2DF.svg","response":0,"trial_type":"image-button-response","trial_index":117,"time_elapsed":1347887,"internal_node_id":"0.0-4.0-0.55","subject_id":"60df1a7f139746afa6a2768c","study_id":"60edd13110225f80f9f3709b","session_id":"6196ba73dd75573e4eee23f9","condition":"full-information","relevant_dimensions":["antennae","legs"],"bee_group":{"antennae":"B","wings":"X","pattern":"X","legs":"M"},"action":"harvest","summary":"good-harvest","bonus":1.5200000000000014},{"rt":1957.2999999523163,"stimulus":"\n                    <p><b>Action: <em>harvest</em></b></p>\n                    <p>This is the bee that you just saw.</p>\n                    <img src=\"bees-with-color/bee-A2DF.svg\" width=\"200\">\n                    <p><span class=\"greenText\"><b>Successful harvest!</b></span><br>Your pay has increased by $0.02. Your bonus pay is now $0.96.</p>\n            ","response":0,"trial_type":"html-button-response","trial_index":118,"time_elapsed":1349851,"internal_node_id":"0.0-4.0-1.55","subject_id":"60df1a7f139746afa6a2768c","study_id":"60edd13110225f80f9f3709b","session_id":"6196ba73dd75573e4eee23f9","condition":"full-information","relevant_dimensions":["antennae","legs"],"bee_group":{"antennae":"B","wings":"X","pattern":"X","legs":"M"},"bonus":1.5200000000000014},{"rt":2275.0999999046326,"stimulus":"bees-with-color/bee-A1DF.svg","response":0,"trial_type":"image-button-response","trial_index":119,"time_elapsed":1352134,"internal_node_id":"0.0-4.0-0.56","subject_id":"60df1a7f139746afa6a2768c","study_id":"60edd13110225f80f9f3709b","session_id":"6196ba73dd75573e4eee23f9","condition":"full-information","relevant_dimensions":["antennae","legs"],"bee_group":{"antennae":"B","wings":"X","pattern":"X","legs":"M"},"action":"harvest","summary":"good-harvest","bonus":1.5200000000000014},{"rt":1666.5999999046326,"stimulus":"\n                    <p><b>Action: <em>harvest</em></b></p>\n                    <p>This is the bee that you just saw.</p>\n                    <img src=\"bees-with-color/bee-A1DF.svg\" width=\"200\">\n                    <p><span class=\"greenText\"><b>Successful harvest!</b></span><br>Your pay has increased by $0.02. Your bonus pay is now $0.98.</p>\n            ","response":0,"trial_type":"html-button-response","trial_index":120,"time_elapsed":1353807,"internal_node_id":"0.0-4.0-1.56","subject_id":"60df1a7f139746afa6a2768c","study_id":"60edd13110225f80f9f3709b","session_id":"6196ba73dd75573e4eee23f9","condition":"full-information","relevant_dimensions":["antennae","legs"],"bee_group":{"antennae":"B","wings":"X","pattern":"X","legs":"M"},"bonus":1.5200000000000014},{"rt":2371.0999999046326,"stimulus":"bees-with-color/bee-B2SF.svg","response":0,"trial_type":"image-button-response","trial_index":121,"time_elapsed":1356185,"internal_node_id":"0.0-4.0-0.57","subject_id":"60df1a7f139746afa6a2768c","study_id":"60edd13110225f80f9f3709b","session_id":"6196ba73dd75573e4eee23f9","condition":"full-information","relevant_dimensions":["antennae","legs"],"bee_group":{"antennae":"B","wings":"X","pattern":"X","legs":"M"},"action":"harvest","summary":"good-harvest","bonus":1.5200000000000014},{"rt":2081.800000190735,"stimulus":"\n                    <p><b>Action: <em>harvest</em></b></p>\n                    <p>This is the bee that you just saw.</p>\n                    <img src=\"bees-with-color/bee-B2SF.svg\" width=\"200\">\n                    <p><span class=\"greenText\"><b>Successful harvest!</b></span><br>Your pay has increased by $0.02. Your bonus pay is now $1.00.</p>\n            ","response":0,"trial_type":"html-button-response","trial_index":122,"time_elapsed":1358272,"internal_node_id":"0.0-4.0-1.57","subject_id":"60df1a7f139746afa6a2768c","study_id":"60edd13110225f80f9f3709b","session_id":"6196ba73dd75573e4eee23f9","condition":"full-information","relevant_dimensions":["antennae","legs"],"bee_group":{"antennae":"B","wings":"X","pattern":"X","legs":"M"},"bonus":1.5200000000000014},{"rt":2506,"stimulus":"bees-with-color/bee-B1SM.svg","response":1,"trial_type":"image-button-response","trial_index":123,"time_elapsed":1360786,"internal_node_id":"0.0-4.0-0.58","subject_id":"60df1a7f139746afa6a2768c","study_id":"60edd13110225f80f9f3709b","session_id":"6196ba73dd75573e4eee23f9","condition":"full-information","relevant_dimensions":["antennae","legs"],"bee_group":{"antennae":"B","wings":"X","pattern":"X","legs":"M"},"action":"avoid","summary":"good-avoid","bonus":1.5200000000000014},{"rt":2048.399999856949,"stimulus":"\n                    <p><b>Action: <em>avoid</em></b></p>\n                    <p>This is the bee that you just saw.</p>\n                    <img src=\"bees-with-color/bee-B1SM.svg\" width=\"200\">\n                    <p><span class=\"greenText\">Good choice!</span>  This bee would have stung you.<br>Your bonus pay is unchanged, and remains at $1.00.</p>\n            ","response":0,"trial_type":"html-button-response","trial_index":124,"time_elapsed":1362842,"internal_node_id":"0.0-4.0-1.58","subject_id":"60df1a7f139746afa6a2768c","study_id":"60edd13110225f80f9f3709b","session_id":"6196ba73dd75573e4eee23f9","condition":"full-information","relevant_dimensions":["antennae","legs"],"bee_group":{"antennae":"B","wings":"X","pattern":"X","legs":"M"},"bonus":1.5200000000000014},{"rt":1987.7000000476837,"stimulus":"bees-with-color/bee-A2SF.svg","response":0,"trial_type":"image-button-response","trial_index":125,"time_elapsed":1364837,"internal_node_id":"0.0-4.0-0.59","subject_id":"60df1a7f139746afa6a2768c","study_id":"60edd13110225f80f9f3709b","session_id":"6196ba73dd75573e4eee23f9","condition":"full-information","relevant_dimensions":["antennae","legs"],"bee_group":{"antennae":"B","wings":"X","pattern":"X","legs":"M"},"action":"harvest","summary":"good-harvest","bonus":1.5200000000000014},{"rt":1997.1000001430511,"stimulus":"\n                    <p><b>Action: <em>harvest</em></b></p>\n                    <p>This is the bee that you just saw.</p>\n                    <img src=\"bees-with-color/bee-A2SF.svg\" width=\"200\">\n                    <p><span class=\"greenText\"><b>Successful harvest!</b></span><br>Your pay has increased by $0.02. Your bonus pay is now $1.02.</p>\n            ","response":0,"trial_type":"html-button-response","trial_index":126,"time_elapsed":1366842,"internal_node_id":"0.0-4.0-1.59","subject_id":"60df1a7f139746afa6a2768c","study_id":"60edd13110225f80f9f3709b","session_id":"6196ba73dd75573e4eee23f9","condition":"full-information","relevant_dimensions":["antennae","legs"],"bee_group":{"antennae":"B","wings":"X","pattern":"X","legs":"M"},"bonus":1.5200000000000014},{"rt":3302.9000000953674,"stimulus":"bees-with-color/bee-B2DF.svg","response":0,"trial_type":"image-button-response","trial_index":127,"time_elapsed":1370151,"internal_node_id":"0.0-4.0-0.60","subject_id":"60df1a7f139746afa6a2768c","study_id":"60edd13110225f80f9f3709b","session_id":"6196ba73dd75573e4eee23f9","condition":"full-information","relevant_dimensions":["antennae","legs"],"bee_group":{"antennae":"B","wings":"X","pattern":"X","legs":"M"},"action":"harvest","summary":"good-harvest","bonus":1.5200000000000014},{"rt":1609.7999999523163,"stimulus":"\n                    <p><b>Action: <em>harvest</em></b></p>\n                    <p>This is the bee that you just saw.</p>\n                    <img src=\"bees-with-color/bee-B2DF.svg\" width=\"200\">\n                    <p><span class=\"greenText\"><b>Successful harvest!</b></span><br>Your pay has increased by $0.02. Your bonus pay is now $1.04.</p>\n            ","response":0,"trial_type":"html-button-response","trial_index":128,"time_elapsed":1371769,"internal_node_id":"0.0-4.0-1.60","subject_id":"60df1a7f139746afa6a2768c","study_id":"60edd13110225f80f9f3709b","session_id":"6196ba73dd75573e4eee23f9","condition":"full-information","relevant_dimensions":["antennae","legs"],"bee_group":{"antennae":"B","wings":"X","pattern":"X","legs":"M"},"bonus":1.5200000000000014},{"rt":2077.399999856949,"stimulus":"bees-with-color/bee-B2SM.svg","response":1,"trial_type":"image-button-response","trial_index":129,"time_elapsed":1373857,"internal_node_id":"0.0-4.0-0.61","subject_id":"60df1a7f139746afa6a2768c","study_id":"60edd13110225f80f9f3709b","session_id":"6196ba73dd75573e4eee23f9","condition":"full-information","relevant_dimensions":["antennae","legs"],"bee_group":{"antennae":"B","wings":"X","pattern":"X","legs":"M"},"action":"avoid","summary":"good-avoid","bonus":1.5200000000000014},{"rt":2752.600000143051,"stimulus":"\n                    <p><b>Action: <em>avoid</em></b></p>\n                    <p>This is the bee that you just saw.</p>\n                    <img src=\"bees-with-color/bee-B2SM.svg\" width=\"200\">\n                    <p><span class=\"greenText\">Good choice!</span>  This bee would have stung you.<br>Your bonus pay is unchanged, and remains at $1.04.</p>\n            ","response":0,"trial_type":"html-button-response","trial_index":130,"time_elapsed":1376615,"internal_node_id":"0.0-4.0-1.61","subject_id":"60df1a7f139746afa6a2768c","study_id":"60edd13110225f80f9f3709b","session_id":"6196ba73dd75573e4eee23f9","condition":"full-information","relevant_dimensions":["antennae","legs"],"bee_group":{"antennae":"B","wings":"X","pattern":"X","legs":"M"},"bonus":1.5200000000000014},{"rt":2050.2999999523163,"stimulus":"bees-with-color/bee-A1SM.svg","response":0,"trial_type":"image-button-response","trial_index":131,"time_elapsed":1378673,"internal_node_id":"0.0-4.0-0.62","subject_id":"60df1a7f139746afa6a2768c","study_id":"60edd13110225f80f9f3709b","session_id":"6196ba73dd75573e4eee23f9","condition":"full-information","relevant_dimensions":["antennae","legs"],"bee_group":{"antennae":"B","wings":"X","pattern":"X","legs":"M"},"action":"harvest","summary":"good-harvest","bonus":1.5200000000000014},{"rt":1995.5,"stimulus":"\n                    <p><b>Action: <em>harvest</em></b></p>\n                    <p>This is the bee that you just saw.</p>\n                    <img src=\"bees-with-color/bee-A1SM.svg\" width=\"200\">\n                    <p><span class=\"greenText\"><b>Successful harvest!</b></span><br>Your pay has increased by $0.02. Your bonus pay is now $1.06.</p>\n            ","response":0,"trial_type":"html-button-response","trial_index":132,"time_elapsed":1380675,"internal_node_id":"0.0-4.0-1.62","subject_id":"60df1a7f139746afa6a2768c","study_id":"60edd13110225f80f9f3709b","session_id":"6196ba73dd75573e4eee23f9","condition":"full-information","relevant_dimensions":["antennae","legs"],"bee_group":{"antennae":"B","wings":"X","pattern":"X","legs":"M"},"bonus":1.5200000000000014},{"rt":2322.2999999523163,"stimulus":"bees-with-color/bee-A2SM.svg","response":0,"trial_type":"image-button-response","trial_index":133,"time_elapsed":1383004,"internal_node_id":"0.0-4.0-0.63","subject_id":"60df1a7f139746afa6a2768c","study_id":"60edd13110225f80f9f3709b","session_id":"6196ba73dd75573e4eee23f9","condition":"full-information","relevant_dimensions":["antennae","legs"],"bee_group":{"antennae":"B","wings":"X","pattern":"X","legs":"M"},"action":"harvest","summary":"good-harvest","bonus":1.5200000000000014},{"rt":2026.5,"stimulus":"\n                    <p><b>Action: <em>harvest</em></b></p>\n                    <p>This is the bee that you just saw.</p>\n                    <img src=\"bees-with-color/bee-A2SM.svg\" width=\"200\">\n                    <p><span class=\"greenText\"><b>Successful harvest!</b></span><br>Your pay has increased by $0.02. Your bonus pay is now $1.08.</p>\n            ","response":0,"trial_type":"html-button-response","trial_index":134,"time_elapsed":1385040,"internal_node_id":"0.0-4.0-1.63","subject_id":"60df1a7f139746afa6a2768c","study_id":"60edd13110225f80f9f3709b","session_id":"6196ba73dd75573e4eee23f9","condition":"full-information","relevant_dimensions":["antennae","legs"],"bee_group":{"antennae":"B","wings":"X","pattern":"X","legs":"M"},"bonus":1.5200000000000014},{"rt":9188.599999904633,"stimulus":"You have completed the first part of this experiment.<br><br>You will now begin a shorter second part, in which you will receive no feedback.<br>The same rules regarding bonus pay apply.<br><br>Press any key to begin.","response":" ","trial_type":"html-keyboard-response","trial_index":135,"time_elapsed":1394235,"internal_node_id":"0.0-5.0","subject_id":"60df1a7f139746afa6a2768c","study_id":"60edd13110225f80f9f3709b","session_id":"6196ba73dd75573e4eee23f9","condition":"full-information","relevant_dimensions":["antennae","legs"],"bee_group":{"antennae":"B","wings":"X","pattern":"X","legs":"M"},"bonus":1.5200000000000014},{"rt":4480.799999952316,"stimulus":"bees-with-color/bee-A2SM.svg","response":0,"trial_type":"image-button-response","trial_index":136,"time_elapsed":1398752,"internal_node_id":"0.0-6.0-0.0","subject_id":"60df1a7f139746afa6a2768c","study_id":"60edd13110225f80f9f3709b","session_id":"6196ba73dd75573e4eee23f9","condition":"full-information","relevant_dimensions":["antennae","legs"],"bee_group":{"antennae":"B","wings":"X","pattern":"X","legs":"M"},"bonus":1.5200000000000014},{"rt":1871.3000001907349,"stimulus":"bees-with-color/bee-A1SF.svg","response":0,"trial_type":"image-button-response","trial_index":137,"time_elapsed":1400636,"internal_node_id":"0.0-6.0-0.1","subject_id":"60df1a7f139746afa6a2768c","study_id":"60edd13110225f80f9f3709b","session_id":"6196ba73dd75573e4eee23f9","condition":"full-information","relevant_dimensions":["antennae","legs"],"bee_group":{"antennae":"B","wings":"X","pattern":"X","legs":"M"},"bonus":1.5200000000000014},{"rt":1803.7000000476837,"stimulus":"bees-with-color/bee-B1DF.svg","response":0,"trial_type":"image-button-response","trial_index":138,"time_elapsed":1402450,"internal_node_id":"0.0-6.0-0.2","subject_id":"60df1a7f139746afa6a2768c","study_id":"60edd13110225f80f9f3709b","session_id":"6196ba73dd75573e4eee23f9","condition":"full-information","relevant_dimensions":["antennae","legs"],"bee_group":{"antennae":"B","wings":"X","pattern":"X","legs":"M"},"bonus":1.5200000000000014},{"rt":3170.7999999523163,"stimulus":"bees-with-color/bee-B2DM.svg","response":1,"trial_type":"image-button-response","trial_index":139,"time_elapsed":1405632,"internal_node_id":"0.0-6.0-0.3","subject_id":"60df1a7f139746afa6a2768c","study_id":"60edd13110225f80f9f3709b","session_id":"6196ba73dd75573e4eee23f9","condition":"full-information","relevant_dimensions":["antennae","legs"],"bee_group":{"antennae":"B","wings":"X","pattern":"X","legs":"M"},"bonus":1.5200000000000014},{"rt":5337.799999952316,"stimulus":"bees-with-color/bee-B1SM.svg","response":1,"trial_type":"image-button-response","trial_index":140,"time_elapsed":1410982,"internal_node_id":"0.0-6.0-0.4","subject_id":"60df1a7f139746afa6a2768c","study_id":"60edd13110225f80f9f3709b","session_id":"6196ba73dd75573e4eee23f9","condition":"full-information","relevant_dimensions":["antennae","legs"],"bee_group":{"antennae":"B","wings":"X","pattern":"X","legs":"M"},"bonus":1.5200000000000014},{"rt":2354.2999999523163,"stimulus":"bees-with-color/bee-B1SF.svg","response":0,"trial_type":"image-button-response","trial_index":141,"time_elapsed":1413348,"internal_node_id":"0.0-6.0-0.5","subject_id":"60df1a7f139746afa6a2768c","study_id":"60edd13110225f80f9f3709b","session_id":"6196ba73dd75573e4eee23f9","condition":"full-information","relevant_dimensions":["antennae","legs"],"bee_group":{"antennae":"B","wings":"X","pattern":"X","legs":"M"},"bonus":1.5200000000000014},{"rt":1855.2999999523163,"stimulus":"bees-with-color/bee-B2SF.svg","response":0,"trial_type":"image-button-response","trial_index":142,"time_elapsed":1415214,"internal_node_id":"0.0-6.0-0.6","subject_id":"60df1a7f139746afa6a2768c","study_id":"60edd13110225f80f9f3709b","session_id":"6196ba73dd75573e4eee23f9","condition":"full-information","relevant_dimensions":["antennae","legs"],"bee_group":{"antennae":"B","wings":"X","pattern":"X","legs":"M"},"bonus":1.5200000000000014},{"rt":2081.2000000476837,"stimulus":"bees-with-color/bee-A2DF.svg","response":0,"trial_type":"image-button-response","trial_index":143,"time_elapsed":1417307,"internal_node_id":"0.0-6.0-0.7","subject_id":"60df1a7f139746afa6a2768c","study_id":"60edd13110225f80f9f3709b","session_id":"6196ba73dd75573e4eee23f9","condition":"full-information","relevant_dimensions":["antennae","legs"],"bee_group":{"antennae":"B","wings":"X","pattern":"X","legs":"M"},"bonus":1.5200000000000014},{"rt":2940.5,"stimulus":"bees-with-color/bee-A1SM.svg","response":1,"trial_type":"image-button-response","trial_index":144,"time_elapsed":1420256,"internal_node_id":"0.0-6.0-0.8","subject_id":"60df1a7f139746afa6a2768c","study_id":"60edd13110225f80f9f3709b","session_id":"6196ba73dd75573e4eee23f9","condition":"full-information","relevant_dimensions":["antennae","legs"],"bee_group":{"antennae":"B","wings":"X","pattern":"X","legs":"M"},"bonus":1.5200000000000014},{"rt":1684.1000001430511,"stimulus":"bees-with-color/bee-B2DF.svg","response":1,"trial_type":"image-button-response","trial_index":145,"time_elapsed":1421949,"internal_node_id":"0.0-6.0-0.9","subject_id":"60df1a7f139746afa6a2768c","study_id":"60edd13110225f80f9f3709b","session_id":"6196ba73dd75573e4eee23f9","condition":"full-information","relevant_dimensions":["antennae","legs"],"bee_group":{"antennae":"B","wings":"X","pattern":"X","legs":"M"},"bonus":1.5200000000000014},{"rt":6940.599999904633,"stimulus":"bees-with-color/bee-A1DM.svg","response":0,"trial_type":"image-button-response","trial_index":146,"time_elapsed":1428899,"internal_node_id":"0.0-6.0-0.10","subject_id":"60df1a7f139746afa6a2768c","study_id":"60edd13110225f80f9f3709b","session_id":"6196ba73dd75573e4eee23f9","condition":"full-information","relevant_dimensions":["antennae","legs"],"bee_group":{"antennae":"B","wings":"X","pattern":"X","legs":"M"},"bonus":1.5200000000000014},{"rt":4051.5,"stimulus":"bees-with-color/bee-A1DF.svg","response":0,"trial_type":"image-button-response","trial_index":147,"time_elapsed":1432961,"internal_node_id":"0.0-6.0-0.11","subject_id":"60df1a7f139746afa6a2768c","study_id":"60edd13110225f80f9f3709b","session_id":"6196ba73dd75573e4eee23f9","condition":"full-information","relevant_dimensions":["antennae","legs"],"bee_group":{"antennae":"B","wings":"X","pattern":"X","legs":"M"},"bonus":1.5200000000000014},{"rt":2189.399999856949,"stimulus":"bees-with-color/bee-B2SM.svg","response":1,"trial_type":"image-button-response","trial_index":148,"time_elapsed":1435162,"internal_node_id":"0.0-6.0-0.12","subject_id":"60df1a7f139746afa6a2768c","study_id":"60edd13110225f80f9f3709b","session_id":"6196ba73dd75573e4eee23f9","condition":"full-information","relevant_dimensions":["antennae","legs"],"bee_group":{"antennae":"B","wings":"X","pattern":"X","legs":"M"},"bonus":1.5200000000000014},{"rt":4406.900000095367,"stimulus":"bees-with-color/bee-A2DM.svg","response":0,"trial_type":"image-button-response","trial_index":149,"time_elapsed":1439579,"internal_node_id":"0.0-6.0-0.13","subject_id":"60df1a7f139746afa6a2768c","study_id":"60edd13110225f80f9f3709b","session_id":"6196ba73dd75573e4eee23f9","condition":"full-information","relevant_dimensions":["antennae","legs"],"bee_group":{"antennae":"B","wings":"X","pattern":"X","legs":"M"},"bonus":1.5200000000000014},{"rt":3230,"stimulus":"bees-with-color/bee-A2SF.svg","response":0,"trial_type":"image-button-response","trial_index":150,"time_elapsed":1442821,"internal_node_id":"0.0-6.0-0.14","subject_id":"60df1a7f139746afa6a2768c","study_id":"60edd13110225f80f9f3709b","session_id":"6196ba73dd75573e4eee23f9","condition":"full-information","relevant_dimensions":["antennae","legs"],"bee_group":{"antennae":"B","wings":"X","pattern":"X","legs":"M"},"bonus":1.5200000000000014},{"rt":2483,"stimulus":"bees-with-color/bee-B1DM.svg","response":1,"trial_type":"image-button-response","trial_index":151,"time_elapsed":1445312,"internal_node_id":"0.0-6.0-0.15","subject_id":"60df1a7f139746afa6a2768c","study_id":"60edd13110225f80f9f3709b","session_id":"6196ba73dd75573e4eee23f9","condition":"full-information","relevant_dimensions":["antennae","legs"],"bee_group":{"antennae":"B","wings":"X","pattern":"X","legs":"M"},"bonus":1.5200000000000014},{"rt":2190.7999999523163,"stimulus":"bees-with-color/bee-A1DF.svg","response":0,"trial_type":"image-button-response","trial_index":152,"time_elapsed":1447513,"internal_node_id":"0.0-6.0-0.16","subject_id":"60df1a7f139746afa6a2768c","study_id":"60edd13110225f80f9f3709b","session_id":"6196ba73dd75573e4eee23f9","condition":"full-information","relevant_dimensions":["antennae","legs"],"bee_group":{"antennae":"B","wings":"X","pattern":"X","legs":"M"},"bonus":1.5200000000000014},{"rt":3298.5999999046326,"stimulus":"bees-with-color/bee-B1SF.svg","response":0,"trial_type":"image-button-response","trial_index":153,"time_elapsed":1450819,"internal_node_id":"0.0-6.0-0.17","subject_id":"60df1a7f139746afa6a2768c","study_id":"60edd13110225f80f9f3709b","session_id":"6196ba73dd75573e4eee23f9","condition":"full-information","relevant_dimensions":["antennae","legs"],"bee_group":{"antennae":"B","wings":"X","pattern":"X","legs":"M"},"bonus":1.5200000000000014},{"rt":1826.6000001430511,"stimulus":"bees-with-color/bee-A1SM.svg","response":0,"trial_type":"image-button-response","trial_index":154,"time_elapsed":1452650,"internal_node_id":"0.0-6.0-0.18","subject_id":"60df1a7f139746afa6a2768c","study_id":"60edd13110225f80f9f3709b","session_id":"6196ba73dd75573e4eee23f9","condition":"full-information","relevant_dimensions":["antennae","legs"],"bee_group":{"antennae":"B","wings":"X","pattern":"X","legs":"M"},"bonus":1.5200000000000014},{"rt":4028,"stimulus":"bees-with-color/bee-A2SF.svg","response":0,"trial_type":"image-button-response","trial_index":155,"time_elapsed":1456691,"internal_node_id":"0.0-6.0-0.19","subject_id":"60df1a7f139746afa6a2768c","study_id":"60edd13110225f80f9f3709b","session_id":"6196ba73dd75573e4eee23f9","condition":"full-information","relevant_dimensions":["antennae","legs"],"bee_group":{"antennae":"B","wings":"X","pattern":"X","legs":"M"},"bonus":1.5200000000000014},{"rt":2510.5,"stimulus":"bees-with-color/bee-B1DM.svg","response":1,"trial_type":"image-button-response","trial_index":156,"time_elapsed":1459210,"internal_node_id":"0.0-6.0-0.20","subject_id":"60df1a7f139746afa6a2768c","study_id":"60edd13110225f80f9f3709b","session_id":"6196ba73dd75573e4eee23f9","condition":"full-information","relevant_dimensions"