[{"success":true,"trial_type":"fullscreen","trial_index":0,"time_elapsed":3115,"internal_node_id":"0.0-0.0","subject_id":"60fd945d4358e873e9cabf4f","study_id":"6197b3f67c2b5cd3b6d9596a","session_id":"619be58fc629f0d0caefe557","condition":"full-information","relevant_dimensions":["pattern","legs"],"bee_group":{"antennae":"X","wings":"X","pattern":"S","legs":"F"},"bonus":0.1},{"success":true,"timeout":false,"failed_images":[],"failed_audio":[],"failed_video":[],"trial_type":"preload","trial_index":1,"time_elapsed":5818,"internal_node_id":"0.0-1.0","subject_id":"60fd945d4358e873e9cabf4f","study_id":"6197b3f67c2b5cd3b6d9596a","session_id":"619be58fc629f0d0caefe557","condition":"full-information","relevant_dimensions":["pattern","legs"],"bee_group":{"antennae":"X","wings":"X","pattern":"S","legs":"F"},"bonus":0.1},{"rt":2815.7999999523163,"stimulus":"Welcome! Press any key to begin.","response":" ","trial_type":"html-keyboard-response","trial_index":2,"time_elapsed":8636,"internal_node_id":"0.0-2.0","subject_id":"60fd945d4358e873e9cabf4f","study_id":"6197b3f67c2b5cd3b6d9596a","session_id":"619be58fc629f0d0caefe557","condition":"full-information","relevant_dimensions":["pattern","legs"],"bee_group":{"antennae":"X","wings":"X","pattern":"S","legs":"F"},"bonus":0.1},{"view_history":[{"page_index":0,"viewing_time":2980.100000023842},{"page_index":1,"viewing_time":8709.700000047684},{"page_index":2,"viewing_time":7071.399999976158},{"page_index":3,"viewing_time":9448.700000047684},{"page_index":4,"viewing_time":7146.899999976158},{"page_index":5,"viewing_time":4363.299999952316},{"page_index":6,"viewing_time":8230},{"page_index":7,"viewing_time":6469.5},{"page_index":8,"viewing_time":1970.2000000476837},{"page_index":9,"viewing_time":3479.7999999523163},{"page_index":10,"viewing_time":2310.399999976158},{"page_index":11,"viewing_time":9050.300000071526},{"page_index":12,"viewing_time":13539.199999928474},{"page_index":13,"viewing_time":1550.5},{"page_index":14,"viewing_time":2850.600000023842}],"rt":89171,"trial_type":"instructions","trial_index":3,"time_elapsed":97809,"internal_node_id":"0.0-3.0-0.0","subject_id":"60fd945d4358e873e9cabf4f","study_id":"6197b3f67c2b5cd3b6d9596a","session_id":"619be58fc629f0d0caefe557","condition":"full-information","relevant_dimensions":["pattern","legs"],"bee_group":{"antennae":"X","wings":"X","pattern":"S","legs":"F"},"bonus":0.1},{"rt":15475.100000023842,"response":{"Q0":["Two or six legs","Stripes or spots on body","Single or double wings","Antennae or no antennae"]},"question_order":[0],"trial_type":"survey-multi-select","trial_index":4,"time_elapsed":113290,"internal_node_id":"0.0-3.0-1.0","subject_id":"60fd945d4358e873e9cabf4f","study_id":"6197b3f67c2b5cd3b6d9596a","session_id":"619be58fc629f0d0caefe557","condition":"full-information","relevant_dimensions":["pattern","legs"],"bee_group":{"antennae":"X","wings":"X","pattern":"S","legs":"F"},"correct":true,"bonus":0.1},{"rt":17792.700000047684,"response":{"Q1":"No.","Q2":"Based on the four features of the bee.","Q3":"You learn if it was friendly or dangerous, but do not alter your bonus."},"question_order":[0,1,2],"trial_type":"survey-multi-choice","trial_index":5,"time_elapsed":131089,"internal_node_id":"0.0-3.0-2.0","subject_id":"60fd945d4358e873e9cabf4f","study_id":"6197b3f67c2b5cd3b6d9596a","session_id":"619be58fc629f0d0caefe557","condition":"full-information","relevant_dimensions":["pattern","legs"],"bee_group":{"antennae":"X","wings":"X","pattern":"S","legs":"F"},"correct":true,"bonus":0.1},{"rt":2034.1999999284744,"stimulus":"<p>Congrats, you got everything right<br>When you're ready, click the button below to continue to the experiment.</p>","response":0,"trial_type":"html-button-response","trial_index":6,"time_elapsed":133130,"internal_node_id":"0.0-3.0-3.0","subject_id":"60fd945d4358e873e9cabf4f","study_id":"6197b3f67c2b5cd3b6d9596a","session_id":"619be58fc629f0d0caefe557","condition":"full-information","relevant_dimensions":["pattern","legs"],"bee_group":{"antennae":"X","wings":"X","pattern":"S","legs":"F"},"bonus":0.1},{"rt":3535.2000000476837,"stimulus":"bees-with-color/bee-B1SM.svg","response":0,"trial_type":"image-button-response","trial_index":7,"time_elapsed":136669,"internal_node_id":"0.0-4.0-0.0","subject_id":"60fd945d4358e873e9cabf4f","study_id":"6197b3f67c2b5cd3b6d9596a","session_id":"619be58fc629f0d0caefe557","condition":"full-information","relevant_dimensions":["pattern","legs"],"bee_group":{"antennae":"X","wings":"X","pattern":"S","legs":"F"},"action":"harvest","summary":"good-harvest","bonus":0.1},{"rt":3750.600000023842,"stimulus":"\n                    <p><b>Action: <em>harvest</em></b></p>\n                    <p>This is the bee that you just saw.</p>\n                    <img src=\"bees-with-color/bee-B1SM.svg\" width=\"200\">\n                    <p><span class=\"greenText\"><b>Successful harvest!</b></span><br>Your pay has increased by $0.02. Your bonus pay is now $0.56.</p>\n            ","response":0,"trial_type":"html-button-response","trial_index":8,"time_elapsed":140429,"internal_node_id":"0.0-4.0-1.0","subject_id":"60fd945d4358e873e9cabf4f","study_id":"6197b3f67c2b5cd3b6d9596a","session_id":"619be58fc629f0d0caefe557","condition":"full-information","relevant_dimensions":["pattern","legs"],"bee_group":{"antennae":"X","wings":"X","pattern":"S","legs":"F"},"bonus":0.1},{"rt":6806.5,"stimulus":"bees-with-color/bee-B1SF.svg","response":0,"trial_type":"image-button-response","trial_index":9,"time_elapsed":147239,"internal_node_id":"0.0-4.0-0.1","subject_id":"60fd945d4358e873e9cabf4f","study_id":"6197b3f67c2b5cd3b6d9596a","session_id":"619be58fc629f0d0caefe557","condition":"full-information","relevant_dimensions":["pattern","legs"],"bee_group":{"antennae":"X","wings":"X","pattern":"S","legs":"F"},"action":"harvest","summary":"bad-harvest","bonus":0.1},{"rt":2857.600000023842,"stimulus":"\n                    <p><b>Action: <em>harvest</em></b></p>\n                    <p>This is the bee that you just saw.</p>\n                    <img src=\"bees-with-color/bee-B1SF.svg\" width=\"200\">\n                    <p><span class=\"redText\">Bad choice, the bee was angry.</span><br><b>You have been stung!</b><br>Your pay has been decreased by $0.10. Your bonus pay is now $0.46.</p>\n            ","response":0,"trial_type":"html-button-response","trial_index":10,"time_elapsed":150099,"internal_node_id":"0.0-4.0-1.1","subject_id":"60fd945d4358e873e9cabf4f","study_id":"6197b3f67c2b5cd3b6d9596a","session_id":"619be58fc629f0d0caefe557","condition":"full-information","relevant_dimensions":["pattern","legs"],"bee_group":{"antennae":"X","wings":"X","pattern":"S","legs":"F"},"bonus":0.1},{"rt":4596.5,"stimulus":"bees-with-color/bee-A1DF.svg","response":1,"trial_type":"image-button-response","trial_index":11,"time_elapsed":154699,"internal_node_id":"0.0-4.0-0.2","subject_id":"60fd945d4358e873e9cabf4f","study_id":"6197b3f67c2b5cd3b6d9596a","session_id":"619be58fc629f0d0caefe557","condition":"full-information","relevant_dimensions":["pattern","legs"],"bee_group":{"antennae":"X","wings":"X","pattern":"S","legs":"F"},"action":"avoid","summary":"bad-avoid","bonus":0.1},{"rt":2628,"stimulus":"\n                    <p><b>Action: <em>avoid</em></b></p>\n                    <p>This is the bee that you just saw.</p>\n                    <img src=\"bees-with-color/bee-A1DF.svg\" width=\"200\">\n                    <p><span class=\"redText\">Bad choice,</span> the bee was friendly.<br>Your bonus pay is unchanged, and remains at $0.46.</p>\n            ","response":0,"trial_type":"html-button-response","trial_index":12,"time_elapsed":157329,"internal_node_id":"0.0-4.0-1.2","subject_id":"60fd945d4358e873e9cabf4f","study_id":"6197b3f67c2b5cd3b6d9596a","session_id":"619be58fc629f0d0caefe557","condition":"full-information","relevant_dimensions":["pattern","legs"],"bee_group":{"antennae":"X","wings":"X","pattern":"S","legs":"F"},"bonus":0.1},{"rt":4707.300000071526,"stimulus":"bees-with-color/bee-A2SM.svg","response":1,"trial_type":"image-button-response","trial_index":13,"time_elapsed":162039,"internal_node_id":"0.0-4.0-0.3","subject_id":"60fd945d4358e873e9cabf4f","study_id":"6197b3f67c2b5cd3b6d9596a","session_id":"619be58fc629f0d0caefe557","condition":"full-information","relevant_dimensions":["pattern","legs"],"bee_group":{"antennae":"X","wings":"X","pattern":"S","legs":"F"},"action":"avoid","summary":"bad-avoid","bonus":0.1},{"rt":3023.4000000953674,"stimulus":"\n                    <p><b>Action: <em>avoid</em></b></p>\n                    <p>This is the bee that you just saw.</p>\n                    <img src=\"bees-with-color/bee-A2SM.svg\" width=\"200\">\n                    <p><span class=\"redText\">Bad choice,</span> the bee was friendly.<br>Your bonus pay is unchanged, and remains at $0.46.</p>\n            ","response":0,"trial_type":"html-button-response","trial_index":14,"time_elapsed":165065,"internal_node_id":"0.0-4.0-1.3","subject_id":"60fd945d4358e873e9cabf4f","study_id":"6197b3f67c2b5cd3b6d9596a","session_id":"619be58fc629f0d0caefe557","condition":"full-information","relevant_dimensions":["pattern","legs"],"bee_group":{"antennae":"X","wings":"X","pattern":"S","legs":"F"},"bonus":0.1},{"rt":2031.3999999761581,"stimulus":"bees-with-color/bee-B2DF.svg","response":1,"trial_type":"image-button-response","trial_index":15,"time_elapsed":167099,"internal_node_id":"0.0-4.0-0.4","subject_id":"60fd945d4358e873e9cabf4f","study_id":"6197b3f67c2b5cd3b6d9596a","session_id":"619be58fc629f0d0caefe557","condition":"full-information","relevant_dimensions":["pattern","legs"],"bee_group":{"antennae":"X","wings":"X","pattern":"S","legs":"F"},"action":"avoid","summary":"bad-avoid","bonus":0.1},{"rt":2348.100000023842,"stimulus":"\n                    <p><b>Action: <em>avoid</em></b></p>\n                    <p>This is the bee that you just saw.</p>\n                    <img src=\"bees-with-color/bee-B2DF.svg\" width=\"200\">\n                    <p><span class=\"redText\">Bad choice,</span> the bee was friendly.<br>Your bonus pay is unchanged, and remains at $0.46.</p>\n            ","response":0,"trial_type":"html-button-response","trial_index":16,"time_elapsed":169450,"internal_node_id":"0.0-4.0-1.4","subject_id":"60fd945d4358e873e9cabf4f","study_id":"6197b3f67c2b5cd3b6d9596a","session_id":"619be58fc629f0d0caefe557","condition":"full-information","relevant_dimensions":["pattern","legs"],"bee_group":{"antennae":"X","wings":"X","pattern":"S","legs":"F"},"bonus":0.1},{"rt":2907,"stimulus":"bees-with-color/bee-A1DM.svg","response":0,"trial_type":"image-button-response","trial_index":17,"time_elapsed":172360,"internal_node_id":"0.0-4.0-0.5","subject_id":"60fd945d4358e873e9cabf4f","study_id":"6197b3f67c2b5cd3b6d9596a","session_id":"619be58fc629f0d0caefe557","condition":"full-information","relevant_dimensions":["pattern","legs"],"bee_group":{"antennae":"X","wings":"X","pattern":"S","legs":"F"},"action":"harvest","summary":"good-harvest","bonus":0.1},{"rt":2346.2000000476837,"stimulus":"\n                    <p><b>Action: <em>harvest</em></b></p>\n                    <p>This is the bee that you just saw.</p>\n                    <img src=\"bees-with-color/bee-A1DM.svg\" width=\"200\">\n                    <p><span class=\"greenText\"><b>Successful harvest!</b></span><br>Your pay has increased by $0.02. Your bonus pay is now $0.48.</p>\n            ","response":0,"trial_type":"html-button-response","trial_index":18,"time_elapsed":174709,"internal_node_id":"0.0-4.0-1.5","subject_id":"60fd945d4358e873e9cabf4f","study_id":"6197b3f67c2b5cd3b6d9596a","session_id":"619be58fc629f0d0caefe557","condition":"full-information","relevant_dimensions":["pattern","legs"],"bee_group":{"antennae":"X","wings":"X","pattern":"S","legs":"F"},"bonus":0.1},{"rt":5797.200000047684,"stimulus":"bees-with-color/bee-A1SM.svg","response":1,"trial_type":"image-button-response","trial_index":19,"time_elapsed":180510,"internal_node_id":"0.0-4.0-0.6","subject_id":"60fd945d4358e873e9cabf4f","study_id":"6197b3f67c2b5cd3b6d9596a","session_id":"619be58fc629f0d0caefe557","condition":"full-information","relevant_dimensions":["pattern","legs"],"bee_group":{"antennae":"X","wings":"X","pattern":"S","legs":"F"},"action":"avoid","summary":"bad-avoid","bonus":0.1},{"rt":2067.600000023842,"stimulus":"\n                    <p><b>Action: <em>avoid</em></b></p>\n                    <p>This is the bee that you just saw.</p>\n                    <img src=\"bees-with-color/bee-A1SM.svg\" width=\"200\">\n                    <p><span class=\"redText\">Bad choice,</span> the bee was friendly.<br>Your bonus pay is unchanged, and remains at $0.48.</p>\n            ","response":0,"trial_type":"html-button-response","trial_index":20,"time_elapsed":182580,"internal_node_id":"0.0-4.0-1.6","subject_id":"60fd945d4358e873e9cabf4f","study_id":"6197b3f67c2b5cd3b6d9596a","session_id":"619be58fc629f0d0caefe557","condition":"full-information","relevant_dimensions":["pattern","legs"],"bee_group":{"antennae":"X","wings":"X","pattern":"S","legs":"F"},"bonus":0.1},{"rt":3506.2999999523163,"stimulus":"bees-with-color/bee-A2SF.svg","response":1,"trial_type":"image-button-response","trial_index":21,"time_elapsed":186090,"internal_node_id":"0.0-4.0-0.7","subject_id":"60fd945d4358e873e9cabf4f","study_id":"6197b3f67c2b5cd3b6d9596a","session_id":"619be58fc629f0d0caefe557","condition":"full-information","relevant_dimensions":["pattern","legs"],"bee_group":{"antennae":"X","wings":"X","pattern":"S","legs":"F"},"action":"avoid","summary":"good-avoid","bonus":0.1},{"rt":2326.899999976158,"stimulus":"\n                    <p><b>Action: <em>avoid</em></b></p>\n                    <p>This is the bee that you just saw.</p>\n                    <img src=\"bees-with-color/bee-A2SF.svg\" width=\"200\">\n                    <p><span class=\"greenText\">Good choice!</span>  This bee would have stung you.<br>Your bonus pay is unchanged, and remains at $0.48.</p>\n            ","response":0,"trial_type":"html-button-response","trial_index":22,"time_elapsed":188419,"internal_node_id":"0.0-4.0-1.7","subject_id":"60fd945d4358e873e9cabf4f","study_id":"6197b3f67c2b5cd3b6d9596a","session_id":"619be58fc629f0d0caefe557","condition":"full-information","relevant_dimensions":["pattern","legs"],"bee_group":{"antennae":"X","wings":"X","pattern":"S","legs":"F"},"bonus":0.1},{"rt":2736.8000000715256,"stimulus":"bees-with-color/bee-B2SF.svg","response":0,"trial_type":"image-button-response","trial_index":23,"time_elapsed":191159,"internal_node_id":"0.0-4.0-0.8","subject_id":"60fd945d4358e873e9cabf4f","study_id":"6197b3f67c2b5cd3b6d9596a","session_id":"619be58fc629f0d0caefe557","condition":"full-information","relevant_dimensions":["pattern","legs"],"bee_group":{"antennae":"X","wings":"X","pattern":"S","legs":"F"},"action":"harvest","summary":"bad-harvest","bonus":0.1},{"rt":1657.6000000238419,"stimulus":"\n                    <p><b>Action: <em>harvest</em></b></p>\n                    <p>This is the bee that you just saw.</p>\n                    <img src=\"bees-with-color/bee-B2SF.svg\" width=\"200\">\n                    <p><span class=\"redText\">Bad choice, the bee was angry.</span><br><b>You have been stung!</b><br>Your pay has been decreased by $0.10. Your bonus pay is now $0.38.</p>\n            ","response":0,"trial_type":"html-button-response","trial_index":24,"time_elapsed":192820,"internal_node_id":"0.0-4.0-1.8","subject_id":"60fd945d4358e873e9cabf4f","study_id":"6197b3f67c2b5cd3b6d9596a","session_id":"619be58fc629f0d0caefe557","condition":"full-information","relevant_dimensions":["pattern","legs"],"bee_group":{"antennae":"X","wings":"X","pattern":"S","legs":"F"},"bonus":0.1},{"rt":4156.899999976158,"stimulus":"bees-with-color/bee-A1SF.svg","response":0,"trial_type":"image-button-response","trial_index":25,"time_elapsed":196980,"internal_node_id":"0.0-4.0-0.9","subject_id":"60fd945d4358e873e9cabf4f","study_id":"6197b3f67c2b5cd3b6d9596a","session_id":"619be58fc629f0d0caefe557","condition":"full-information","relevant_dimensions":["pattern","legs"],"bee_group":{"antennae":"X","wings":"X","pattern":"S","legs":"F"},"action":"harvest","summary":"bad-harvest","bonus":0.1},{"rt":1427.2999999523163,"stimulus":"\n                    <p><b>Action: <em>harvest</em></b></p>\n                    <p>This is the bee that you just saw.</p>\n                    <img src=\"bees-with-color/bee-A1SF.svg\" width=\"200\">\n                    <p><span class=\"redText\">Bad choice, the bee was angry.</span><br><b>You have been stung!</b><br>Your pay has been decreased by $0.10. Your bonus pay is now $0.28.</p>\n            ","response":0,"trial_type":"html-button-response","trial_index":26,"time_elapsed":198410,"internal_node_id":"0.0-4.0-1.9","subject_id":"60fd945d4358e873e9cabf4f","study_id":"6197b3f67c2b5cd3b6d9596a","session_id":"619be58fc629f0d0caefe557","condition":"full-information","relevant_dimensions":["pattern","legs"],"bee_group":{"antennae":"X","wings":"X","pattern":"S","legs":"F"},"bonus":0.1},{"rt":1706.6999999284744,"stimulus":"bees-with-color/bee-A2DF.svg","response":1,"trial_type":"image-button-response","trial_index":27,"time_elapsed":200119,"internal_node_id":"0.0-4.0-0.10","subject_id":"60fd945d4358e873e9cabf4f","study_id":"6197b3f67c2b5cd3b6d9596a","session_id":"619be58fc629f0d0caefe557","condition":"full-information","relevant_dimensions":["pattern","legs"],"bee_group":{"antennae":"X","wings":"X","pattern":"S","legs":"F"},"action":"avoid","summary":"bad-avoid","bonus":0.1},{"rt":2167.399999976158,"stimulus":"\n                    <p><b>Action: <em>avoid</em></b></p>\n                    <p>This is the bee that you just saw.</p>\n                    <img src=\"bees-with-color/bee-A2DF.svg\" width=\"200\">\n                    <p><span class=\"redText\">Bad choice,</span> the bee was friendly.<br>Your bonus pay is unchanged, and remains at $0.28.</p>\n            ","response":0,"trial_type":"html-button-response","trial_index":28,"time_elapsed":202290,"internal_node_id":"0.0-4.0-1.10","subject_id":"60fd945d4358e873e9cabf4f","study_id":"6197b3f67c2b5cd3b6d9596a","session_id":"619be58fc629f0d0caefe557","condition":"full-information","relevant_dimensions":["pattern","legs"],"bee_group":{"antennae":"X","wings":"X","pattern":"S","legs":"F"},"bonus":0.1},{"rt":2847.600000023842,"stimulus":"bees-with-color/bee-B2DM.svg","response":1,"trial_type":"image-button-response","trial_index":29,"time_elapsed":205139,"internal_node_id":"0.0-4.0-0.11","subject_id":"60fd945d4358e873e9cabf4f","study_id":"6197b3f67c2b5cd3b6d9596a","session_id":"619be58fc629f0d0caefe557","condition":"full-information","relevant_dimensions":["pattern","legs"],"bee_group":{"antennae":"X","wings":"X","pattern":"S","legs":"F"},"action":"avoid","summary":"bad-avoid","bonus":0.1},{"rt":1777.2000000476837,"stimulus":"\n                    <p><b>Action: <em>avoid</em></b></p>\n                    <p>This is the bee that you just saw.</p>\n                    <img src=\"bees-with-color/bee-B2DM.svg\" width=\"200\">\n                    <p><span class=\"redText\">Bad choice,</span> the bee was friendly.<br>Your bonus pay is unchanged, and remains at $0.28.</p>\n            ","response":0,"trial_type":"html-button-response","trial_index":30,"time_elapsed":206919,"internal_node_id":"0.0-4.0-1.11","subject_id":"60fd945d4358e873e9cabf4f","study_id":"6197b3f67c2b5cd3b6d9596a","session_id":"619be58fc629f0d0caefe557","condition":"full-information","relevant_dimensions":["pattern","legs"],"bee_group":{"antennae":"X","wings":"X","pattern":"S","legs":"F"},"bonus":0.1},{"rt":2307.3000000715256,"stimulus":"bees-with-color/bee-B1DF.svg","response":1,"trial_type":"image-button-response","trial_index":31,"time_elapsed":209230,"internal_node_id":"0.0-4.0-0.12","subject_id":"60fd945d4358e873e9cabf4f","study_id":"6197b3f67c2b5cd3b6d9596a","session_id":"619be58fc629f0d0caefe557","condition":"full-information","relevant_dimensions":["pattern","legs"],"bee_group":{"antennae":"X","wings":"X","pattern":"S","legs":"F"},"action":"avoid","summary":"bad-avoid","bonus":0.1},{"rt":1538,"stimulus":"\n                    <p><b>Action: <em>avoid</em></b></p>\n                    <p>This is the bee that you just saw.</p>\n                    <img src=\"bees-with-color/bee-B1DF.svg\" width=\"200\">\n                    <p><span class=\"redText\">Bad choice,</span> the bee was friendly.<br>Your bonus pay is unchanged, and remains at $0.28.</p>\n            ","response":0,"trial_type":"html-button-response","trial_index":32,"time_elapsed":210770,"internal_node_id":"0.0-4.0-1.12","subject_id":"60fd945d4358e873e9cabf4f","study_id":"6197b3f67c2b5cd3b6d9596a","session_id":"619be58fc629f0d0caefe557","condition":"full-information","relevant_dimensions":["pattern","legs"],"bee_group":{"antennae":"X","wings":"X","pattern":"S","legs":"F"},"bonus":0.1},{"rt":2794.2999999523163,"stimulus":"bees-with-color/bee-B2SM.svg","response":1,"trial_type":"image-button-response","trial_index":33,"time_elapsed":213567,"internal_node_id":"0.0-4.0-0.13","subject_id":"60fd945d4358e873e9cabf4f","study_id":"6197b3f67c2b5cd3b6d9596a","session_id":"619be58fc629f0d0caefe557","condition":"full-information","relevant_dimensions":["pattern","legs"],"bee_group":{"antennae":"X","wings":"X","pattern":"S","legs":"F"},"action":"avoid","summary":"bad-avoid","bonus":0.1},{"rt":1428.8000000715256,"stimulus":"\n                    <p><b>Action: <em>avoid</em></b></p>\n                    <p>This is the bee that you just saw.</p>\n                    <img src=\"bees-with-color/bee-B2SM.svg\" width=\"200\">\n                    <p><span class=\"redText\">Bad choice,</span> the bee was friendly.<br>Your bonus pay is unchanged, and remains at $0.28.</p>\n            ","response":0,"trial_type":"html-button-response","trial_index":34,"time_elapsed":214999,"internal_node_id":"0.0-4.0-1.13","subject_id":"60fd945d4358e873e9cabf4f","study_id":"6197b3f67c2b5cd3b6d9596a","session_id":"619be58fc629f0d0caefe557","condition":"full-information","relevant_dimensions":["pattern","legs"],"bee_group":{"antennae":"X","wings":"X","pattern":"S","legs":"F"},"bonus":0.1},{"rt":2297.1999999284744,"stimulus":"bees-with-color/bee-B1DM.svg","response":1,"trial_type":"image-button-response","trial_index":35,"time_elapsed":217300,"internal_node_id":"0.0-4.0-0.14","subject_id":"60fd945d4358e873e9cabf4f","study_id":"6197b3f67c2b5cd3b6d9596a","session_id":"619be58fc629f0d0caefe557","condition":"full-information","relevant_dimensions":["pattern","legs"],"bee_group":{"antennae":"X","wings":"X","pattern":"S","legs":"F"},"action":"avoid","summary":"bad-avoid","bonus":0.1},{"rt":1444.0999999046326,"stimulus":"\n                    <p><b>Action: <em>avoid</em></b></p>\n                    <p>This is the bee that you just saw.</p>\n                    <img src=\"bees-with-color/bee-B1DM.svg\" width=\"200\">\n                    <p><span class=\"redText\">Bad choice,</span> the bee was friendly.<br>Your bonus pay is unchanged, and remains at $0.28.</p>\n            ","response":0,"trial_type":"html-button-response","trial_index":36,"time_elapsed":218747,"internal_node_id":"0.0-4.0-1.14","subject_id":"60fd945d4358e873e9cabf4f","study_id":"6197b3f67c2b5cd3b6d9596a","session_id":"619be58fc629f0d0caefe557","condition":"full-information","relevant_dimensions":["pattern","legs"],"bee_group":{"antennae":"X","wings":"X","pattern":"S","legs":"F"},"bonus":0.1},{"rt":2819.8000000715256,"stimulus":"bees-with-color/bee-A2DM.svg","response":1,"trial_type":"image-button-response","trial_index":37,"time_elapsed":221569,"internal_node_id":"0.0-4.0-0.15","subject_id":"60fd945d4358e873e9cabf4f","study_id":"6197b3f67c2b5cd3b6d9596a","session_id":"619be58fc629f0d0caefe557","condition":"full-information","relevant_dimensions":["pattern","legs"],"bee_group":{"antennae":"X","wings":"X","pattern":"S","legs":"F"},"action":"avoid","summary":"bad-avoid","bonus":0.1},{"rt":1727.3999999761581,"stimulus":"\n                    <p><b>Action: <em>avoid</em></b></p>\n                    <p>This is the bee that you just saw.</p>\n                    <img src=\"bees-with-color/bee-A2DM.svg\" width=\"200\">\n                    <p><span class=\"redText\">Bad choice,</span> the bee was friendly.<br>Your bonus pay is unchanged, and remains at $0.28.</p>\n            ","response":0,"trial_type":"html-button-response","trial_index":38,"time_elapsed":223300,"internal_node_id":"0.0-4.0-1.15","subject_id":"60fd945d4358e873e9cabf4f","study_id":"6197b3f67c2b5cd3b6d9596a","session_id":"619be58fc629f0d0caefe557","condition":"full-information","relevant_dimensions":["pattern","legs"],"bee_group":{"antennae":"X","wings":"X","pattern":"S","legs":"F"},"bonus":0.1},{"rt":2137,"stimulus":"bees-with-color/bee-A1SM.svg","response":0,"trial_type":"image-button-response","trial_index":39,"time_elapsed":225439,"internal_node_id":"0.0-4.0-0.16","subject_id":"60fd945d4358e873e9cabf4f","study_id":"6197b3f67c2b5cd3b6d9596a","session_id":"619be58fc629f0d0caefe557","condition":"full-information","relevant_dimensions":["pattern","legs"],"bee_group":{"antennae":"X","wings":"X","pattern":"S","legs":"F"},"action":"harvest","summary":"good-harvest","bonus":0.1},{"rt":1877.9000000953674,"stimulus":"\n                    <p><b>Action: <em>harvest</em></b></p>\n                    <p>This is the bee that you just saw.</p>\n                    <img src=\"bees-with-color/bee-A1SM.svg\" width=\"200\">\n                    <p><span class=\"greenText\"><b>Successful harvest!</b></span><br>Your pay has increased by $0.02. Your bonus pay is now $0.30.</p>\n            ","response":0,"trial_type":"html-button-response","trial_index":40,"time_elapsed":227320,"internal_node_id":"0.0-4.0-1.16","subject_id":"60fd945d4358e873e9cabf4f","study_id":"6197b3f67c2b5cd3b6d9596a","session_id":"619be58fc629f0d0caefe557","condition":"full-information","relevant_dimensions":["pattern","legs"],"bee_group":{"antennae":"X","wings":"X","pattern":"S","legs":"F"},"bonus":0.1},{"rt":2043,"stimulus":"bees-with-color/bee-B2DF.svg","response":0,"trial_type":"image-button-response","trial_index":41,"time_elapsed":229366,"internal_node_id":"0.0-4.0-0.17","subject_id":"60fd945d4358e873e9cabf4f","study_id":"6197b3f67c2b5cd3b6d9596a","session_id":"619be58fc629f0d0caefe557","condition":"full-information","relevant_dimensions":["pattern","legs"],"bee_group":{"antennae":"X","wings":"X","pattern":"S","legs":"F"},"action":"harvest","summary":"good-harvest","bonus":0.1},{"rt":1457,"stimulus":"\n                    <p><b>Action: <em>harvest</em></b></p>\n                    <p>This is the bee that you just saw.</p>\n                    <img src=\"bees-with-color/bee-B2DF.svg\" width=\"200\">\n                    <p><span class=\"greenText\"><b>Successful harvest!</b></span><br>Your pay has increased by $0.02. Your bonus pay is now $0.32.</p>\n            ","response":0,"trial_type":"html-button-response","trial_index":42,"time_elapsed":230825,"internal_node_id":"0.0-4.0-1.17","subject_id":"60fd945d4358e873e9cabf4f","study_id":"6197b3f67c2b5cd3b6d9596a","session_id":"619be58fc629f0d0caefe557","condition":"full-information","relevant_dimensions":["pattern","legs"],"bee_group":{"antennae":"X","wings":"X","pattern":"S","legs":"F"},"bonus":0.1},{"rt":4401.800000071526,"stimulus":"bees-with-color/bee-A2DF.svg","response":1,"trial_type":"image-button-response","trial_index":43,"time_elapsed":235230,"internal_node_id":"0.0-4.0-0.18","subject_id":"60fd945d4358e873e9cabf4f","study_id":"6197b3f67c2b5cd3b6d9596a","session_id":"619be58fc629f0d0caefe557","condition":"full-information","relevant_dimensions":["pattern","legs"],"bee_group":{"antennae":"X","wings":"X","pattern":"S","legs":"F"},"action":"avoid","summary":"bad-avoid","bonus":0.1},{"rt":1437.1000000238419,"stimulus":"\n                    <p><b>Action: <em>avoid</em></b></p>\n                    <p>This is the bee that you just saw.</p>\n                    <img src=\"bees-with-color/bee-A2DF.svg\" width=\"200\">\n                    <p><span class=\"redText\">Bad choice,</span> the bee was friendly.<br>Your bonus pay is unchanged, and remains at $0.32.</p>\n            ","response":0,"trial_type":"html-button-response","trial_index":44,"time_elapsed":236669,"internal_node_id":"0.0-4.0-1.18","subject_id":"60fd945d4358e873e9cabf4f","study_id":"6197b3f67c2b5cd3b6d9596a","session_id":"619be58fc629f0d0caefe557","condition":"full-information","relevant_dimensions":["pattern","legs"],"bee_group":{"antennae":"X","wings":"X","pattern":"S","legs":"F"},"bonus":0.1},{"rt":2007.7000000476837,"stimulus":"bees-with-color/bee-A1DF.svg","response":0,"trial_type":"image-button-response","trial_index":45,"time_elapsed":238679,"internal_node_id":"0.0-4.0-0.19","subject_id":"60fd945d4358e873e9cabf4f","study_id":"6197b3f67c2b5cd3b6d9596a","session_id":"619be58fc629f0d0caefe557","condition":"full-information","relevant_dimensions":["pattern","legs"],"bee_group":{"antennae":"X","wings":"X","pattern":"S","legs":"F"},"action":"harvest","summary":"good-harvest","bonus":0.1},{"rt":1467.8000000715256,"stimulus":"\n                    <p><b>Action: <em>harvest</em></b></p>\n                    <p>This is the bee that you just saw.</p>\n                    <img src=\"bees-with-color/bee-A1DF.svg\" width=\"200\">\n                    <p><span class=\"greenText\"><b>Successful harvest!</b></span><br>Your pay has increased by $0.02. Your bonus pay is now $0.34.</p>\n            ","response":0,"trial_type":"html-button-response","trial_index":46,"time_elapsed":240149,"internal_node_id":"0.0-4.0-1.19","subject_id":"60fd945d4358e873e9cabf4f","study_id":"6197b3f67c2b5cd3b6d9596a","session_id":"619be58fc629f0d0caefe557","condition":"full-information","relevant_dimensions":["pattern","legs"],"bee_group":{"antennae":"X","wings":"X","pattern":"S","legs":"F"},"bonus":0.1},{"rt":2767.7000000476837,"stimulus":"bees-with-color/bee-A2SF.svg","response":0,"trial_type":"image-button-response","trial_index":47,"time_elapsed":242919,"internal_node_id":"0.0-4.0-0.20","subject_id":"60fd945d4358e873e9cabf4f","study_id":"6197b3f67c2b5cd3b6d9596a","session_id":"619be58fc629f0d0caefe557","condition":"full-information","relevant_dimensions":["pattern","legs"],"bee_group":{"antennae":"X","wings":"X","pattern":"S","legs":"F"},"action":"harvest","summary":"bad-harvest","bonus":0.1},{"rt":1438.2999999523163,"stimulus":"\n                    <p><b>Action: <em>harvest</em></b></p>\n                    <p>This is the bee that you just saw.</p>\n                    <img src=\"bees-with-color/bee-A2SF.svg\" width=\"200\">\n                    <p><span class=\"redText\">Bad choice, the bee was angry.</span><br><b>You have been stung!</b><br>Your pay has been decreased by $0.10. Your bonus pay is now $0.24.</p>\n            ","response":0,"trial_type":"html-button-response","trial_index":48,"time_elapsed":244359,"internal_node_id":"0.0-4.0-1.20","subject_id":"60fd945d4358e873e9cabf4f","study_id":"6197b3f67c2b5cd3b6d9596a","session_id":"619be58fc629f0d0caefe557","condition":"full-information","relevant_dimensions":["pattern","legs"],"bee_group":{"antennae":"X","wings":"X","pattern":"S","legs":"F"},"bonus":0.1},{"rt":1817.1999999284744,"stimulus":"bees-with-color/bee-B1DF.svg","response":1,"trial_type":"image-button-response","trial_index":49,"time_elapsed":246179,"internal_node_id":"0.0-4.0-0.21","subject_id":"60fd945d4358e873e9cabf4f","study_id":"6197b3f67c2b5cd3b6d9596a","session_id":"619be58fc629f0d0caefe557","condition":"full-information","relevant_dimensions":["pattern","legs"],"bee_group":{"antennae":"X","wings":"X","pattern":"S","legs":"F"},"action":"avoid","summary":"bad-avoid","bonus":0.1},{"rt":1527.8000000715256,"stimulus":"\n                    <p><b>Action: <em>avoid</em></b></p>\n                    <p>This is the bee that you just saw.</p>\n                    <img src=\"bees-with-color/bee-B1DF.svg\" width=\"200\">\n                    <p><span class=\"redText\">Bad choice,</span> the bee was friendly.<br>Your bonus pay is unchanged, and remains at $0.24.</p>\n            ","response":0,"trial_type":"html-button-response","trial_index":50,"time_elapsed":247709,"internal_node_id":"0.0-4.0-1.21","subject_id":"60fd945d4358e873e9cabf4f","study_id":"6197b3f67c2b5cd3b6d9596a","session_id":"619be58fc629f0d0caefe557","condition":"full-information","relevant_dimensions":["pattern","legs"],"bee_group":{"antennae":"X","wings":"X","pattern":"S","legs":"F"},"bonus":0.1},{"rt":1696.7999999523163,"stimulus":"bees-with-color/bee-A1SF.svg","response":0,"trial_type":"image-button-response","trial_index":51,"time_elapsed":249409,"internal_node_id":"0.0-4.0-0.22","subject_id":"60fd945d4358e873e9cabf4f","study_id":"6197b3f67c2b5cd3b6d9596a","session_id":"619be58fc629f0d0caefe557","condition":"full-information","relevant_dimensions":["pattern","legs"],"bee_group":{"antennae":"X","wings":"X","pattern":"S","legs":"F"},"action":"harvest","summary":"bad-harvest","bonus":0.1},{"rt":1467.8999999761581,"stimulus":"\n                    <p><b>Action: <em>harvest</em></b></p>\n                    <p>This is the bee that you just saw.</p>\n                    <img src=\"bees-with-color/bee-A1SF.svg\" width=\"200\">\n                    <p><span class=\"redText\">Bad choice, the bee was angry.</span><br><b>You have been stung!</b><br>Your pay has been decreased by $0.10. Your bonus pay is now $0.14.</p>\n            ","response":0,"trial_type":"html-button-response","trial_index":52,"time_elapsed":250879,"internal_node_id":"0.0-4.0-1.22","subject_id":"60fd945d4358e873e9cabf4f","study_id":"6197b3f67c2b5cd3b6d9596a","session_id":"619be58fc629f0d0caefe557","condition":"full-information","relevant_dimensions":["pattern","legs"],"bee_group":{"antennae":"X","wings":"X","pattern":"S","legs":"F"},"bonus":0.1},{"rt":1537.6000000238419,"stimulus":"bees-with-color/bee-A2DM.svg","response":0,"trial_type":"image-button-response","trial_index":53,"time_elapsed":252419,"internal_node_id":"0.0-4.0-0.23","subject_id":"60fd945d4358e873e9cabf4f","study_id":"6197b3f67c2b5cd3b6d9596a","session_id":"619be58fc629f0d0caefe557","condition":"full-information","relevant_dimensions":["pattern","legs"],"bee_group":{"antennae":"X","wings":"X","pattern":"S","legs":"F"},"action":"harvest","summary":"good-harvest","bonus":0.1},{"rt":1338.6999999284744,"stimulus":"\n                    <p><b>Action: <em>harvest</em></b></p>\n                    <p>This is the bee that you just saw.</p>\n                    <img src=\"bees-with-color/bee-A2DM.svg\" width=\"200\">\n                    <p><span class=\"greenText\"><b>Successful harvest!</b></span><br>Your pay has increased by $0.02. Your bonus pay is now $0.16.</p>\n            ","response":0,"trial_type":"html-button-response","trial_index":54,"time_elapsed":253760,"internal_node_id":"0.0-4.0-1.23","subject_id":"60fd945d4358e873e9cabf4f","study_id":"6197b3f67c2b5cd3b6d9596a","session_id":"619be58fc629f0d0caefe557","condition":"full-information","relevant_dimensions":["pattern","legs"],"bee_group":{"antennae":"X","wings":"X","pattern":"S","legs":"F"},"bonus":0.1},{"rt":1787,"stimulus":"bees-with-color/bee-B2SF.svg","response":0,"trial_type":"image-button-response","trial_index":55,"time_elapsed":255549,"internal_node_id":"0.0-4.0-0.24","subject_id":"60fd945d4358e873e9cabf4f","study_id":"6197b3f67c2b5cd3b6d9596a","session_id":"619be58fc629f0d0caefe557","condition":"full-information","relevant_dimensions":["pattern","legs"],"bee_group":{"antennae":"X","wings":"X","pattern":"S","legs":"F"},"action":"harvest","summary":"bad-harvest","bonus":0.1},{"rt":1308.1999999284744,"stimulus":"\n                    <p><b>Action: <em>harvest</em></b></p>\n                    <p>This is the bee that you just saw.</p>\n                    <img src=\"bees-with-color/bee-B2SF.svg\" width=\"200\">\n                    <p><span class=\"redText\">Bad choice, the bee was angry.</span><br><b>You have been stung!</b><br>Your pay has been decreased by $0.10. Your bonus pay is now $0.06.</p>\n            ","response":0,"trial_type":"html-button-response","trial_index":56,"time_elapsed":256859,"internal_node_id":"0.0-4.0-1.24","subject_id":"60fd945d4358e873e9cabf4f","study_id":"6197b3f67c2b5cd3b6d9596a","session_id":"619be58fc629f0d0caefe557","condition":"full-information","relevant_dimensions":["pattern","legs"],"bee_group":{"antennae":"X","wings":"X","pattern":"S","legs":"F"},"bonus":0.1},{"rt":2707,"stimulus":"bees-with-color/bee-B2DM.svg","response":0,"trial_type":"image-button-response","trial_index":57,"time_elapsed":259569,"internal_node_id":"0.0-4.0-0.25","subject_id":"60fd945d4358e873e9cabf4f","study_id":"6197b3f67c2b5cd3b6d9596a","session_id":"619be58fc629f0d0caefe557","condition":"full-information","relevant_dimensions":["pattern","legs"],"bee_group":{"antennae":"X","wings":"X","pattern":"S","legs":"F"},"action":"harvest","summary":"good-harvest","bonus":0.1},{"rt":1307.6000000238419,"stimulus":"\n                    <p><b>Action: <em>harvest</em></b></p>\n                    <p>This is the bee that you just saw.</p>\n                    <img src=\"bees-with-color/bee-B2DM.svg\" width=\"200\">\n                    <p><span class=\"greenText\"><b>Successful harvest!</b></span><br>Your pay has increased by $0.02. Your bonus pay is now $0.08.</p>\n            ","response":0,"trial_type":"html-button-response","trial_index":58,"time_elapsed":260879,"internal_node_id":"0.0-4.0-1.25","subject_id":"60fd945d4358e873e9cabf4f","study_id":"6197b3f67c2b5cd3b6d9596a","session_id":"619be58fc629f0d0caefe557","condition":"full-information","relevant_dimensions":["pattern","legs"],"bee_group":{"antennae":"X","wings":"X","pattern":"S","legs":"F"},"bonus":0.1},{"rt":2192.6999999284744,"stimulus":"bees-with-color/bee-B2SM.svg","response":0,"trial_type":"image-button-response","trial_index":59,"time_elapsed":263074,"internal_node_id":"0.0-4.0-0.26","subject_id":"60fd945d4358e873e9cabf4f","study_id":"6197b3f67c2b5cd3b6d9596a","session_id":"619be58fc629f0d0caefe557","condition":"full-information","relevant_dimensions":["pattern","legs"],"bee_group":{"antennae":"X","wings":"X","pattern":"S","legs":"F"},"action":"harvest","summary":"good-harvest","bonus":0.1},{"rt":1452.2000000476837,"stimulus":"\n                    <p><b>Action: <em>harvest</em></b></p>\n                    <p>This is the bee that you just saw.</p>\n                    <img src=\"bees-with-color/bee-B2SM.svg\" width=\"200\">\n                    <p><span class=\"greenText\"><b>Successful harvest!</b></span><br>Your pay has increased by $0.02. Your bonus pay is now $0.10.</p>\n            ","response":0,"trial_type":"html-button-response","trial_index":60,"time_elapsed":264530,"internal_node_id":"0.0-4.0-1.26","subject_id":"60fd945d4358e873e9cabf4f","study_id":"6197b3f67c2b5cd3b6d9596a","session_id":"619be58fc629f0d0caefe557","condition":"full-information","relevant_dimensions":["pattern","legs"],"bee_group":{"antennae":"X","wings":"X","pattern":"S","legs":"F"},"bonus":0.1},{"rt":2986.899999976158,"stimulus":"bees-with-color/bee-A2SM.svg","response":0,"trial_type":"image-button-response","trial_index":61,"time_elapsed":267519,"internal_node_id":"0.0-4.0-0.27","subject_id":"60fd945d4358e873e9cabf4f","study_id":"6197b3f67c2b5cd3b6d9596a","session_id":"619be58fc629f0d0caefe557","condition":"full-information","relevant_dimensions":["pattern","legs"],"bee_group":{"antennae":"X","wings":"X","pattern":"S","legs":"F"},"action":"harvest","summary":"good-harvest","bonus":0.1},{"rt":1488,"stimulus":"\n                    <p><b>Action: <em>harvest</em></b></p>\n                    <p>This is the bee that you just saw.</p>\n                    <img src=\"bees-with-color/bee-A2SM.svg\" width=\"200\">\n                    <p><span class=\"greenText\"><b>Successful harvest!</b></span><br>Your pay has increased by $0.02. Your bonus pay is now $0.12.</p>\n            ","response":0,"trial_type":"html-button-response","trial_index":62,"time_elapsed":269009,"internal_node_id":"0.0-4.0-1.27","subject_id":"60fd945d4358e873e9cabf4f","study_id":"6197b3f67c2b5cd3b6d9596a","session_id":"619be58fc629f0d0caefe557","condition":"full-information","relevant_dimensions":["pattern","legs"],"bee_group":{"antennae":"X","wings":"X","pattern":"S","legs":"F"},"bonus":0.1},{"rt":2227.899999976158,"stimulus":"bees-with-color/bee-B1SM.svg","response":0,"trial_type":"image-button-response","trial_index":63,"time_elapsed":271239,"internal_node_id":"0.0-4.0-0.28","subject_id":"60fd945d4358e873e9cabf4f","study_id":"6197b3f67c2b5cd3b6d9596a","session_id":"619be58fc629f0d0caefe557","condition":"full-information","relevant_dimensions":["pattern","legs"],"bee_group":{"antennae":"X","wings":"X","pattern":"S","legs":"F"},"action":"harvest","summary":"good-harvest","bonus":0.1},{"rt":1492.5,"stimulus":"\n                    <p><b>Action: <em>harvest</em></b></p>\n                    <p>This is the bee that you just saw.</p>\n                    <img src=\"bees-with-color/bee-B1SM.svg\" width=\"200\">\n                    <p><span class=\"greenText\"><b>Successful harvest!</b></span><br>Your pay has increased by $0.02. Your bonus pay is now $0.14.</p>\n            ","response":0,"trial_type":"html-button-response","trial_index":64,"time_elapsed":272734,"internal_node_id":"0.0-4.0-1.28","subject_id":"60fd945d4358e873e9cabf4f","study_id":"6197b3f67c2b5cd3b6d9596a","session_id":"619be58fc629f0d0caefe557","condition":"full-information","relevant_dimensions":["pattern","legs"],"bee_group":{"antennae":"X","wings":"X","pattern":"S","legs":"F"},"bonus":0.1},{"rt":4081.7999999523163,"stimulus":"bees-with-color/bee-B1SF.svg","response":1,"trial_type":"image-button-response","trial_index":65,"time_elapsed":276819,"internal_node_id":"0.0-4.0-0.29","subject_id":"60fd945d4358e873e9cabf4f","study_id":"6197b3f67c2b5cd3b6d9596a","session_id":"619be58fc629f0d0caefe557","condition":"full-information","relevant_dimensions":["pattern","legs"],"bee_group":{"antennae":"X","wings":"X","pattern":"S","legs":"F"},"action":"avoid","summary":"good-avoid","bonus":0.1},{"rt":1788.7000000476837,"stimulus":"\n                    <p><b>Action: <em>avoid</em></b></p>\n                    <p>This is the bee that you just saw.</p>\n                    <img src=\"bees-with-color/bee-B1SF.svg\" width=\"200\">\n                    <p><span class=\"greenText\">Good choice!</span>  This bee would have stung you.<br>Your bonus pay is unchanged, and remains at $0.14.</p>\n            ","response":0,"trial_type":"html-button-response","trial_index":66,"time_elapsed":278610,"internal_node_id":"0.0-4.0-1.29","subject_id":"60fd945d4358e873e9cabf4f","study_id":"6197b3f67c2b5cd3b6d9596a","session_id":"619be58fc629f0d0caefe557","condition":"full-information","relevant_dimensions":["pattern","legs"],"bee_group":{"antennae":"X","wings":"X","pattern":"S","legs":"F"},"bonus":0.1},{"rt":2885.399999976158,"stimulus":"bees-with-color/bee-A1DM.svg","response":0,"trial_type":"image-button-response","trial_index":67,"time_elapsed":281499,"internal_node_id":"0.0-4.0-0.30","subject_id":"60fd945d4358e873e9cabf4f","study_id":"6197b3f67c2b5cd3b6d9596a","session_id":"619be58fc629f0d0caefe557","condition":"full-information","relevant_dimensions":["pattern","legs"],"bee_group":{"antennae":"X","wings":"X","pattern":"S","legs":"F"},"action":"harvest","summary":"good-harvest","bonus":0.1},{"rt":1338.1000000238419,"stimulus":"\n                    <p><b>Action: <em>harvest</em></b></p>\n                    <p>This is the bee that you just saw.</p>\n                    <img src=\"bees-with-color/bee-A1DM.svg\" width=\"200\">\n                    <p><span class=\"greenText\"><b>Successful harvest!</b></span><br>Your pay has increased by $0.02. Your bonus pay is now $0.16.</p>\n            ","response":0,"trial_type":"html-button-response","trial_index":68,"time_elapsed":282839,"internal_node_id":"0.0-4.0-1.30","subject_id":"60fd945d4358e873e9cabf4f","study_id":"6197b3f67c2b5cd3b6d9596a","session_id":"619be58fc629f0d0caefe557","condition":"full-information","relevant_dimensions":["pattern","legs"],"bee_group":{"antennae":"X","wings":"X","pattern":"S","legs":"F"},"bonus":0.1},{"rt":2646.9000000953674,"stimulus":"bees-with-color/bee-B1DM.svg","response":1,"trial_type":"image-button-response","trial_index":69,"time_elapsed":285489,"internal_node_id":"0.0-4.0-0.31","subject_id":"60fd945d4358e873e9cabf4f","study_id":"6197b3f67c2b5cd3b6d9596a","session_id":"619be58fc629f0d0caefe557","condition":"full-information","relevant_dimensions":["pattern","legs"],"bee_group":{"antennae":"X","wings":"X","pattern":"S","legs":"F"},"action":"avoid","summary":"bad-avoid","bonus":0.1},{"rt":1494.5,"stimulus":"\n                    <p><b>Action: <em>avoid</em></b></p>\n                    <p>This is the bee that you just saw.</p>\n                    <img src=\"bees-with-color/bee-B1DM.svg\" width=\"200\">\n                    <p><span class=\"redText\">Bad choice,</span> the bee was friendly.<br>Your bonus pay is unchanged, and remains at $0.16.</p>\n            ","response":0,"trial_type":"html-button-response","trial_index":70,"time_elapsed":286986,"internal_node_id":"0.0-4.0-1.31","subject_id":"60fd945d4358e873e9cabf4f","study_id":"6197b3f67c2b5cd3b6d9596a","session_id":"619be58fc629f0d0caefe557","condition":"full-information","relevant_dimensions":["pattern","legs"],"bee_group":{"antennae":"X","wings":"X","pattern":"S","legs":"F"},"bonus":0.1},{"rt":1829.8000000715256,"stimulus":"bees-with-color/bee-B1DM.svg","response":0,"trial_type":"image-button-response","trial_index":71,"time_elapsed":288819,"internal_node_id":"0.0-4.0-0.32","subject_id":"60fd945d4358e873e9cabf4f","study_id":"6197b3f67c2b5cd3b6d9596a","session_id":"619be58fc629f0d0caefe557","condition":"full-information","relevant_dimensions":["pattern","legs"],"bee_group":{"antennae":"X","wings":"X","pattern":"S","legs":"F"},"action":"harvest","summary":"good-harvest","bonus":0.1},{"rt":1517.7999999523163,"stimulus":"\n                    <p><b>Action: <em>harvest</em></b></p>\n                    <p>This is the bee that you just saw.</p>\n                    <img src=\"bees-with-color/bee-B1DM.svg\" width=\"200\">\n                    <p><span class=\"greenText\"><b>Successful harvest!</b></span><br>Your pay has increased by $0.02. Your bonus pay is now $0.18.</p>\n            ","response":0,"trial_type":"html-button-response","trial_index":72,"time_elapsed":290340,"internal_node_id":"0.0-4.0-1.32","subject_id":"60fd945d4358e873e9cabf4f","study_id":"6197b3f67c2b5cd3b6d9596a","session_id":"619be58fc629f0d0caefe557","condition":"full-information","relevant_dimensions":["pattern","legs"],"bee_group":{"antennae":"X","wings":"X","pattern":"S","legs":"F"},"bonus":0.1},{"rt":2677.7000000476837,"stimulus":"bees-with-color/bee-A1SF.svg","response":1,"trial_type":"image-button-response","trial_index":73,"time_elapsed":293020,"internal_node_id":"0.0-4.0-0.33","subject_id":"60fd945d4358e873e9cabf4f","study_id":"6197b3f67c2b5cd3b6d9596a","session_id":"619be58fc629f0d0caefe557","condition":"full-information","relevant_dimensions":["pattern","legs"],"bee_group":{"antennae":"X","wings":"X","pattern":"S","legs":"F"},"action":"avoid","summary":"good-avoid","bonus":0.1},{"rt":1266.7000000476837,"stimulus":"\n                    <p><b>Action: <em>avoid</em></b></p>\n                    <p>This is the bee that you just saw.</p>\n                    <img src=\"bees-with-color/bee-A1SF.svg\" width=\"200\">\n                    <p><span class=\"greenText\">Good choice!</span>  This bee would have stung you.<br>Your bonus pay is unchanged, and remains at $0.18.</p>\n            ","response":0,"trial_type":"html-button-response","trial_index":74,"time_elapsed":294289,"internal_node_id":"0.0-4.0-1.33","subject_id":"60fd945d4358e873e9cabf4f","study_id":"6197b3f67c2b5cd3b6d9596a","session_id":"619be58fc629f0d0caefe557","condition":"full-information","relevant_dimensions":["pattern","legs"],"bee_group":{"antennae":"X","wings":"X","pattern":"S","legs":"F"},"bonus":0.1},{"rt":1607.1000000238419,"stimulus":"bees-with-color/bee-A2DF.svg","response":0,"trial_type":"image-button-response","trial_index":75,"time_elapsed":295899,"internal_node_id":"0.0-4.0-0.34","subject_id":"60fd945d4358e873e9cabf4f","study_id":"6197b3f67c2b5cd3b6d9596a","session_id":"619be58fc629f0d0caefe557","condition":"full-information","relevant_dimensions":["pattern","legs"],"bee_group":{"antennae":"X","wings":"X","pattern":"S","legs":"F"},"action":"harvest","summary":"good-harvest","bonus":0.1},{"rt":1547.6000000238419,"stimulus":"\n                    <p><b>Action: <em>harvest</em></b></p>\n                    <p>This is the bee that you just saw.</p>\n                    <img src=\"bees-with-color/bee-A2DF.svg\" width=\"200\">\n                    <p><span class=\"greenText\"><b>Successful harvest!</b></span><br>Your pay has increased by $0.02. Your bonus pay is now $0.20.</p>\n            ","response":0,"trial_type":"html-button-response","trial_index":76,"time_elapsed":297449,"internal_node_id":"0.0-4.0-1.34","subject_id":"60fd945d4358e873e9cabf4f","study_id":"6197b3f67c2b5cd3b6d9596a","session_id":"619be58fc629f0d0caefe557","condition":"full-information","relevant_dimensions":["pattern","legs"],"bee_group":{"antennae":"X","wings":"X","pattern":"S","legs":"F"},"bonus":0.1},{"rt":2866.3000000715256,"stimulus":"bees-with-color/bee-A2SF.svg","response":1,"trial_type":"image-button-response","trial_index":77,"time_elapsed":300319,"internal_node_id":"0.0-4.0-0.35","subject_id":"60fd945d4358e873e9cabf4f","study_id":"6197b3f67c2b5cd3b6d9596a","session_id":"619be58fc629f0d0caefe557","condition":"full-information","relevant_dimensions":["pattern","legs"],"bee_group":{"antennae":"X","wings":"X","pattern":"S","legs":"F"},"action":"avoid","summary":"good-avoid","bonus":0.1},{"rt":1347.1999999284744,"stimulus":"\n                    <p><b>Action: <em>avoid</em></b></p>\n                    <p>This is the bee that you just saw.</p>\n                    <img src=\"bees-with-color/bee-A2SF.svg\" width=\"200\">\n                    <p><span class=\"greenText\">Good choice!</span>  This bee would have stung you.<br>Your bonus pay is unchanged, and remains at $0.20.</p>\n            ","response":0,"trial_type":"html-button-response","trial_index":78,"time_elapsed":301669,"internal_node_id":"0.0-4.0-1.35","subject_id":"60fd945d4358e873e9cabf4f","study_id":"6197b3f67c2b5cd3b6d9596a","session_id":"619be58fc629f0d0caefe557","condition":"full-information","relevant_dimensions":["pattern","legs"],"bee_group":{"antennae":"X","wings":"X","pattern":"S","legs":"F"},"bonus":0.1},{"rt":3397.600000023842,"stimulus":"bees-with-color/bee-B2DF.svg","response":1,"trial_type":"image-button-response","trial_index":79,"time_elapsed":305069,"internal_node_id":"0.0-4.0-0.36","subject_id":"60fd945d4358e873e9cabf4f","study_id":"6197b3f67c2b5cd3b6d9596a","session_id":"619be58fc629f0d0caefe557","condition":"full-information","relevant_dimensions":["pattern","legs"],"bee_group":{"antennae":"X","wings":"X","pattern":"S","legs":"F"},"action":"avoid","summary":"bad-avoid","bonus":0.1},{"rt":1377.6000000238419,"stimulus":"\n                    <p><b>Action: <em>avoid</em></b></p>\n                    <p>This is the bee that you just saw.</p>\n                    <img src=\"bees-with-color/bee-B2DF.svg\" width=\"200\">\n                    <p><span class=\"redText\">Bad choice,</span> the bee was friendly.<br>Your bonus pay is unchanged, and remains at $0.20.</p>\n            ","response":0,"trial_type":"html-button-response","trial_index":80,"time_elapsed":306449,"internal_node_id":"0.0-4.0-1.36","subject_id":"60fd945d4358e873e9cabf4f","study_id":"6197b3f67c2b5cd3b6d9596a","session_id":"619be58fc629f0d0caefe557","condition":"full-information","relevant_dimensions":["pattern","legs"],"bee_group":{"antennae":"X","wings":"X","pattern":"S","legs":"F"},"bonus":0.1},{"rt":2107.5,"stimulus":"bees-with-color/bee-A1DF.svg","response":0,"trial_type":"image-button-response","trial_index":81,"time_elapsed":308559,"internal_node_id":"0.0-4.0-0.37","subject_id":"60fd945d4358e873e9cabf4f","study_id":"6197b3f67c2b5cd3b6d9596a","session_id":"619be58fc629f0d0caefe557","condition":"full-information","relevant_dimensions":["pattern","legs"],"bee_group":{"antennae":"X","wings":"X","pattern":"S","legs":"F"},"action":"harvest","summary":"good-harvest","bonus":0.1},{"rt":1397.8000000715256,"stimulus":"\n                    <p><b>Action: <em>harvest</em></b></p>\n                    <p>This is the bee that you just saw.</p>\n                    <img src=\"bees-with-color/bee-A1DF.svg\" width=\"200\">\n                    <p><span class=\"greenText\"><b>Successful harvest!</b></span><br>Your pay has increased by $0.02. Your bonus pay is now $0.22.</p>\n            ","response":0,"trial_type":"html-button-response","trial_index":82,"time_elapsed":309959,"internal_node_id":"0.0-4.0-1.37","subject_id":"60fd945d4358e873e9cabf4f","study_id":"6197b3f67c2b5cd3b6d9596a","session_id":"619be58fc629f0d0caefe557","condition":"full-information","relevant_dimensions":["pattern","legs"],"bee_group":{"antennae":"X","wings":"X","pattern":"S","legs":"F"},"bonus":0.1},{"rt":2085.399999976158,"stimulus":"bees-with-color/bee-B2SM.svg","response":0,"trial_type":"image-button-response","trial_index":83,"time_elapsed":312047,"internal_node_id":"0.0-4.0-0.38","subject_id":"60fd945d4358e873e9cabf4f","study_id":"6197b3f67c2b5cd3b6d9596a","session_id":"619be58fc629f0d0caefe557","condition":"full-information","relevant_dimensions":["pattern","legs"],"bee_group":{"antennae":"X","wings":"X","pattern":"S","legs":"F"},"action":"harvest","summary":"good-harvest","bonus":0.1},{"rt":1179.3999999761581,"stimulus":"\n                    <p><b>Action: <em>harvest</em></b></p>\n                    <p>This is the bee that you just saw.</p>\n                    <img src=\"bees-with-color/bee-B2SM.svg\" width=\"200\">\n                    <p><span class=\"greenText\"><b>Successful harvest!</b></span><br>Your pay has increased by $0.02. Your bonus pay is now $0.24.</p>\n            ","response":0,"trial_type":"html-button-response","trial_index":84,"time_elapsed":313229,"internal_node_id":"0.0-4.0-1.38","subject_id":"60fd945d4358e873e9cabf4f","study_id":"6197b3f67c2b5cd3b6d9596a","session_id":"619be58fc629f0d0caefe557","condition":"full-information","relevant_dimensions":["pattern","legs"],"bee_group":{"antennae":"X","wings":"X","pattern":"S","legs":"F"},"bonus":0.1},{"rt":1526.7999999523163,"stimulus":"bees-with-color/bee-A2DM.svg","response":0,"trial_type":"image-button-response","trial_index":85,"time_elapsed":314758,"internal_node_id":"0.0-4.0-0.39","subject_id":"60fd945d4358e873e9cabf4f","study_id":"6197b3f67c2b5cd3b6d9596a","session_id":"619be58fc629f0d0caefe557","condition":"full-information","relevant_dimensions":["pattern","legs"],"bee_group":{"antennae":"X","wings":"X","pattern":"S","legs":"F"},"action":"harvest","summary":"good-harvest","bonus":0.1},{"rt":1188.2000000476837,"stimulus":"\n                    <p><b>Action: <em>harvest</em></b></p>\n                    <p>This is the bee that you just saw.</p>\n                    <img src=\"bees-with-color/bee-A2DM.svg\" width=\"200\">\n                    <p><span class=\"greenText\"><b>Successful harvest!</b></span><br>Your pay has increased by $0.02. Your bonus pay is now $0.26.</p>\n            ","response":0,"trial_type":"html-button-response","trial_index":86,"time_elapsed":315949,"internal_node_id":"0.0-4.0-1.39","subject_id":"60fd945d4358e873e9cabf4f","study_id":"6197b3f67c2b5cd3b6d9596a","session_id":"619be58fc629f0d0caefe557","condition":"full-information","relevant_dimensions":["pattern","legs"],"bee_group":{"antennae":"X","wings":"X","pattern":"S","legs":"F"},"bonus":0.1},{"rt":1724.7999999523163,"stimulus":"bees-with-color/bee-A1SM.svg","response":0,"trial_type":"image-button-response","trial_index":87,"time_elapsed":317675,"internal_node_id":"0.0-4.0-0.40","subject_id":"60fd945d4358e873e9cabf4f","study_id":"6197b3f67c2b5cd3b6d9596a","session_id":"619be58fc629f0d0caefe557","condition":"full-information","relevant_dimensions":["pattern","legs"],"bee_group":{"antennae":"X","wings":"X","pattern":"S","legs":"F"},"action":"harvest","summary":"good-harvest","bonus":0.1},{"rt":1300.6999999284744,"stimulus":"\n                    <p><b>Action: <em>harvest</em></b></p>\n                    <p>This is the bee that you just saw.</p>\n                    <img src=\"bees-with-color/bee-A1SM.svg\" width=\"200\">\n                    <p><span class=\"greenText\"><b>Successful harvest!</b></span><br>Your pay has increased by $0.02. Your bonus pay is now $0.28.</p>\n            ","response":0,"trial_type":"html-button-response","trial_index":88,"time_elapsed":318978,"internal_node_id":"0.0-4.0-1.40","subject_id":"60fd945d4358e873e9cabf4f","study_id":"6197b3f67c2b5cd3b6d9596a","session_id":"619be58fc629f0d0caefe557","condition":"full-information","relevant_dimensions":["pattern","legs"],"bee_group":{"antennae":"X","wings":"X","pattern":"S","legs":"F"},"bonus":0.1},{"rt":1748.2000000476837,"stimulus":"bees-with-color/bee-A1DM.svg","response":0,"trial_type":"image-button-response","trial_index":89,"time_elapsed":320729,"internal_node_id":"0.0-4.0-0.41","subject_id":"60fd945d4358e873e9cabf4f","study_id":"6197b3f67c2b5cd3b6d9596a","session_id":"619be58fc629f0d0caefe557","condition":"full-information","relevant_dimensions":["pattern","legs"],"bee_group":{"antennae":"X","wings":"X","pattern":"S","legs":"F"},"action":"harvest","summary":"good-harvest","bonus":0.1},{"rt":1287.3000000715256,"stimulus":"\n                    <p><b>Action: <em>harvest</em></b></p>\n                    <p>This is the bee that you just saw.</p>\n                    <img src=\"bees-with-color/bee-A1DM.svg\" width=\"200\">\n                    <p><span class=\"greenText\"><b>Successful harvest!</b></span><br>Your pay has increased by $0.02. Your bonus pay is now $0.30.</p>\n            ","response":0,"trial_type":"html-button-response","trial_index":90,"time_elapsed":322019,"internal_node_id":"0.0-4.0-1.41","subject_id":"60fd945d4358e873e9cabf4f","study_id":"6197b3f67c2b5cd3b6d9596a","session_id":"619be58fc629f0d0caefe557","condition":"full-information","relevant_dimensions":["pattern","legs"],"bee_group":{"antennae":"X","wings":"X","pattern":"S","legs":"F"},"bonus":0.1},{"rt":2158.2999999523163,"stimulus":"bees-with-color/bee-B1SM.svg","response":0,"trial_type":"image-button-response","trial_index":91,"time_elapsed":324180,"internal_node_id":"0.0-4.0-0.42","subject_id":"60fd945d4358e873e9cabf4f","study_id":"6197b3f67c2b5cd3b6d9596a","session_id":"619be58fc629f0d0caefe557","condition":"full-information","relevant_dimensions":["pattern","legs"],"bee_group":{"antennae":"X","wings":"X","pattern":"S","legs":"F"},"action":"harvest","summary":"good-harvest","bonus":0.1},{"rt":1196.6000000238419,"stimulus":"\n                    <p><b>Action: <em>harvest</em></b></p>\n                    <p>This is the bee that you just saw.</p>\n                    <img src=\"bees-with-color/bee-B1SM.svg\" width=\"200\">\n                    <p><span class=\"greenText\"><b>Successful harvest!</b></span><br>Your pay has increased by $0.02. Your bonus pay is now $0.32.</p>\n            ","response":0,"trial_type":"html-button-response","trial_index":92,"time_elapsed":325379,"internal_node_id":"0.0-4.0-1.42","subject_id":"60fd945d4358e873e9cabf4f","study_id":"6197b3f67c2b5cd3b6d9596a","session_id":"619be58fc629f0d0caefe557","condition":"full-information","relevant_dimensions":["pattern","legs"],"bee_group":{"antennae":"X","wings":"X","pattern":"S","legs":"F"},"bonus":0.1},{"rt":2047.6999999284744,"stimulus":"bees-with-color/bee-A2SM.svg","response":0,"trial_type":"image-button-response","trial_index":93,"time_elapsed":327429,"internal_node_id":"0.0-4.0-0.43","subject_id":"60fd945d4358e873e9cabf4f","study_id":"6197b3f67c2b5cd3b6d9596a","session_id":"619be58fc629f0d0caefe557","condition":"full-information","relevant_dimensions":["pattern","legs"],"bee_group":{"antennae":"X","wings":"X","pattern":"S","legs":"F"},"action":"harvest","summary":"good-harvest","bonus":0.1},{"rt":1267.3999999761581,"stimulus":"\n                    <p><b>Action: <em>harvest</em></b></p>\n                    <p>This is the bee that you just saw.</p>\n                    <img src=\"bees-with-color/bee-A2SM.svg\" width=\"200\">\n                    <p><span class=\"greenText\"><b>Successful harvest!</b></span><br>Your pay has increased by $0.02. Your bonus pay is now $0.34.</p>\n            ","response":0,"trial_type":"html-button-response","trial_index":94,"time_elapsed":328699,"internal_node_id":"0.0-4.0-1.43","subject_id":"60fd945d4358e873e9cabf4f","study_id":"6197b3f67c2b5cd3b6d9596a","session_id":"619be58fc629f0d0caefe557","condition":"full-information","relevant_dimensions":["pattern","legs"],"bee_group":{"antennae":"X","wings":"X","pattern":"S","legs":"F"},"bonus":0.1},{"rt":4957.899999976158,"stimulus":"bees-with-color/bee-B2SF.svg","response":0,"trial_type":"image-button-response","trial_index":95,"time_elapsed":333659,"internal_node_id":"0.0-4.0-0.44","subject_id":"60fd945d4358e873e9cabf4f","study_id":"6197b3f67c2b5cd3b6d9596a","session_id":"619be58fc629f0d0caefe557","condition":"full-information","relevant_dimensions":["pattern","legs"],"bee_group":{"antennae":"X","wings":"X","pattern":"S","legs":"F"},"action":"harvest","summary":"bad-harvest","bonus":0.1},{"rt":1247,"stimulus":"\n                    <p><b>Action: <em>harvest</em></b></p>\n                    <p>This is the bee that you just saw.</p>\n                    <img src=\"bees-with-color/bee-B2SF.svg\" width=\"200\">\n                    <p><span class=\"redText\">Bad choice, the bee was angry.</span><br><b>You have been stung!</b><br>Your pay has been decreased by $0.10. Your bonus pay is now $0.24.</p>\n            ","response":0,"trial_type":"html-button-response","trial_index":96,"time_elapsed":334909,"internal_node_id":"0.0-4.0-1.44","subject_id":"60fd945d4358e873e9cabf4f","study_id":"6197b3f67c2b5cd3b6d9596a","session_id":"619be58fc629f0d0caefe557","condition":"full-information","relevant_dimensions":["pattern","legs"],"bee_group":{"antennae":"X","wings":"X","pattern":"S","legs":"F"},"bonus":0.1},{"rt":2048.4000000953674,"stimulus":"bees-with-color/bee-B1DF.svg","response":1,"trial_type":"image-button-response","trial_index":97,"time_elapsed":336960,"internal_node_id":"0.0-4.0-0.45","subject_id":"60fd945d4358e873e9cabf4f","study_id":"6197b3f67c2b5cd3b6d9596a","session_id":"619be58fc629f0d0caefe557","condition":"full-information","relevant_dimensions":["pattern","legs"],"bee_group":{"antennae":"X","wings":"X","pattern":"S","legs":"F"},"action":"avoid","summary":"bad-avoid","bonus":0.1},{"rt":1196.1999999284744,"stimulus":"\n                    <p><b>Action: <em>avoid</em></b></p>\n                    <p>This is the bee that you just saw.</p>\n                    <img src=\"bees-with-color/bee-B1DF.svg\" width=\"200\">\n                    <p><span class=\"redText\">Bad choice,</span> the bee was friendly.<br>Your bonus pay is unchanged, and remains at $0.24.</p>\n            ","response":0,"trial_type":"html-button-response","trial_index":98,"time_elapsed":338159,"internal_node_id":"0.0-4.0-1.45","subject_id":"60fd945d4358e873e9cabf4f","study_id":"6197b3f67c2b5cd3b6d9596a","session_id":"619be58fc629f0d0caefe557","condition":"full-information","relevant_dimensions":["pattern","legs"],"bee_group":{"antennae":"X","wings":"X","pattern":"S","legs":"F"},"bonus":0.1},{"rt":1615.6000000238419,"stimulus":"bees-with-color/bee-B1SF.svg","response":0,"trial_type":"image-button-response","trial_index":99,"time_elapsed":339779,"internal_node_id":"0.0-4.0-0.46","subject_id":"60fd945d4358e873e9cabf4f","study_id":"6197b3f67c2b5cd3b6d9596a","session_id":"619be58fc629f0d0caefe557","condition":"full-information","relevant_dimensions":["pattern","legs"],"bee_group":{"antennae":"X","wings":"X","pattern":"S","legs":"F"},"action":"harvest","summary":"bad-harvest","bonus":0.1},{"rt":1377.5,"stimulus":"\n                    <p><b>Action: <em>harvest</em></b></p>\n                    <p>This is the bee that you just saw.</p>\n                    <img src=\"bees-with-color/bee-B1SF.svg\" width=\"200\">\n                    <p><span class=\"redText\">Bad choice, the bee was angry.</span><br><b>You have been stung!</b><br>Your pay has been decreased by $0.10. Your bonus pay is now $0.14.</p>\n            ","response":0,"trial_type":"html-button-response","trial_index":100,"time_elapsed":341159,"internal_node_id":"0.0-4.0-1.46","subject_id":"60fd945d4358e873e9cabf4f","study_id":"6197b3f67c2b5cd3b6d9596a","session_id":"619be58fc629f0d0caefe557","condition":"full-information","relevant_dimensions":["pattern","legs"],"bee_group":{"antennae":"X","wings":"X","pattern":"S","legs":"F"},"bonus":0.1},{"rt":1628.1999999284744,"stimulus":"bees-with-color/bee-B2DM.svg","response":0,"trial_type":"image-button-response","trial_index":101,"time_elapsed":342790,"internal_node_id":"0.0-4.0-0.47","subject_id":"60fd945d4358e873e9cabf4f","study_id":"6197b3f67c2b5cd3b6d9596a","session_id":"619be58fc629f0d0caefe557","condition":"full-information","relevant_dimensions":["pattern","legs"],"bee_group":{"antennae":"X","wings":"X","pattern":"S","legs":"F"},"action":"harvest","summary":"good-harvest","bonus":0.1},{"rt":1317.1000000238419,"stimulus":"\n                    <p><b>Action: <em>harvest</em></b></p>\n                    <p>This is the bee that you just saw.</p>\n                    <img src=\"bees-with-color/bee-B2DM.svg\" width=\"200\">\n                    <p><span class=\"greenText\"><b>Successful harvest!</b></span><br>Your pay has increased by $0.02. Your bonus pay is now $0.16.</p>\n            ","response":0,"trial_type":"html-button-response","trial_index":102,"time_elapsed":344110,"internal_node_id":"0.0-4.0-1.47","subject_id":"60fd945d4358e873e9cabf4f","study_id":"6197b3f67c2b5cd3b6d9596a","session_id":"619be58fc629f0d0caefe557","condition":"full-information","relevant_dimensions":["pattern","legs"],"bee_group":{"antennae":"X","wings":"X","pattern":"S","legs":"F"},"bonus":0.1},{"rt":1947.3000000715256,"stimulus":"bees-with-color/bee-B2SM.svg","response":0,"trial_type":"image-button-response","trial_index":103,"time_elapsed":346059,"internal_node_id":"0.0-4.0-0.48","subject_id":"60fd945d4358e873e9cabf4f","study_id":"6197b3f67c2b5cd3b6d9596a","session_id":"619be58fc629f0d0caefe557","condition":"full-information","relevant_dimensions":["pattern","legs"],"bee_group":{"antennae":"X","wings":"X","pattern":"S","legs":"F"},"action":"harvest","summary":"good-harvest","bonus":0.1},{"rt":1377.7000000476837,"stimulus":"\n                    <p><b>Action: <em>harvest</em></b></p>\n                    <p>This is the bee that you just saw.</p>\n                    <img src=\"bees-with-color/bee-B2SM.svg\" width=\"200\">\n                    <p><span class=\"greenText\"><b>Successful harvest!</b></span><br>Your pay has increased by $0.02. Your bonus pay is now $0.18.</p>\n            ","response":0,"trial_type":"html-button-response","trial_index":104,"time_elapsed":347440,"internal_node_id":"0.0-4.0-1.48","subject_id":"60fd945d4358e873e9cabf4f","study_id":"6197b3f67c2b5cd3b6d9596a","session_id":"619be58fc629f0d0caefe557","condition":"full-information","relevant_dimensions":["pattern","legs"],"bee_group":{"antennae":"X","wings":"X","pattern":"S","legs":"F"},"bonus":0.1},{"rt":2326.9000000953674,"stimulus":"bees-with-color/bee-B2DF.svg","response":1,"trial_type":"image-button-response","trial_index":105,"time_elapsed":349769,"internal_node_id":"0.0-4.0-0.49","subject_id":"60fd945d4358e873e9cabf4f","study_id":"6197b3f67c2b5cd3b6d9596a","session_id":"619be58fc629f0d0caefe557","condition":"full-information","relevant_dimensions":["pattern","legs"],"bee_group":{"antennae":"X","wings":"X","pattern":"S","legs":"F"},"action":"avoid","summary":"bad-avoid","bonus":0.1},{"rt":1262.5,"stimulus":"\n                    <p><b>Action: <em>avoid</em></b></p>\n                    <p>This is the bee that you just saw.</p>\n                    <img src=\"bees-with-color/bee-B2DF.svg\" width=\"200\">\n                    <p><span class=\"redText\">Bad choice,</span> the bee was friendly.<br>Your bonus pay is unchanged, and remains at $0.18.</p>\n            ","response":0,"trial_type":"html-button-response","trial_index":106,"time_elapsed":351034,"internal_node_id":"0.0-4.0-1.49","subject_id":"60fd945d4358e873e9cabf4f","study_id":"6197b3f67c2b5cd3b6d9596a","session_id":"619be58fc629f0d0caefe557","condition":"full-information","relevant_dimensions":["pattern","legs"],"bee_group":{"antennae":"X","wings":"X","pattern":"S","legs":"F"},"bonus":0.1},{"rt":1622.1999999284744,"stimulus":"bees-with-color/bee-A2DM.svg","response":0,"trial_type":"image-button-response","trial_index":107,"time_elapsed":352659,"internal_node_id":"0.0-4.0-0.50","subject_id":"60fd945d4358e873e9cabf4f","study_id":"6197b3f67c2b5cd3b6d9596a","session_id":"619be58fc629f0d0caefe557","condition":"full-information","relevant_dimensions":["pattern","legs"],"bee_group":{"antennae":"X","wings":"X","pattern":"S","legs":"F"},"action":"harvest","summary":"good-harvest","bonus":0.1},{"rt":1327.8000000715256,"stimulus":"\n                    <p><b>Action: <em>harvest</em></b></p>\n                    <p>This is the bee that you just saw.</p>\n                    <img src=\"bees-with-color/bee-A2DM.svg\" width=\"200\">\n                    <p><span class=\"greenText\"><b>Successful harvest!</b></span><br>Your pay has increased by $0.02. Your bonus pay is now $0.20.</p>\n            ","response":0,"trial_type":"html-button-response","trial_index":108,"time_elapsed":353989,"internal_node_id":"0.0-4.0-1.50","subject_id":"60fd945d4358e873e9cabf4f","study_id":"6197b3f67c2b5cd3b6d9596a","session_id":"619be58fc629f0d0caefe557","condition":"full-information","relevant_dimensions":["pattern","legs"],"bee_group":{"antennae":"X","wings":"X","pattern":"S","legs":"F"},"bonus":0.1},{"rt":1386.7000000476837,"stimulus":"bees-with-color/bee-A2SF.svg","response":0,"trial_type":"image-button-response","trial_index":109,"time_elapsed":355379,"internal_node_id":"0.0-4.0-0.51","subject_id":"60fd945d4358e873e9cabf4f","study_id":"6197b3f67c2b5cd3b6d9596a","session_id":"619be58fc629f0d0caefe557","condition":"full-information","relevant_dimensions":["pattern","legs"],"bee_group":{"antennae":"X","wings":"X","pattern":"S","legs":"F"},"action":"harvest","summary":"bad-harvest","bonus":0.1},{"rt":1347.7000000476837,"stimulus":"\n                    <p><b>Action: <em>harvest</em></b></p>\n                    <p>This is the bee that you just saw.</p>\n                    <img src=\"bees-with-color/bee-A2SF.svg\" width=\"200\">\n                    <p><span class=\"redText\">Bad choice, the bee was angry.</span><br><b>You have been stung!</b><br>Your pay has been decreased by $0.10. Your bonus pay is now $0.10.</p>\n            ","response":0,"trial_type":"html-button-response","trial_index":110,"time_elapsed":356729,"internal_node_id":"0.0-4.0-1.51","subject_id":"60fd945d4358e873e9cabf4f","study_id":"6197b3f67c2b5cd3b6d9596a","session_id":"619be58fc629f0d0caefe557","condition":"full-information","relevant_dimensions":["pattern","legs"],"bee_group":{"antennae":"X","wings":"X","pattern":"S","legs":"F"},"bonus":0.1},{"rt":1836.7000000476837,"stimulus":"bees-with-color/bee-A1SF.svg","response":1,"trial_type":"image-button-response","trial_index":111,"time_elapsed":358569,"internal_node_id":"0.0-4.0-0.52","subject_id":"60fd945d4358e873e9cabf4f","study_id":"6197b3f67c2b5cd3b6d9596a","session_id":"619be58fc629f0d0caefe557","condition":"full-information","relevant_dimensions":["pattern","legs"],"bee_group":{"antennae":"X","wings":"X","pattern":"S","legs":"F"},"action":"avoid","summary":"good-avoid","bonus":0.1},{"rt":1287.2000000476837,"stimulus":"\n                    <p><b>Action: <em>avoid</em></b></p>\n                    <p>This is the bee that you just saw.</p>\n                    <img src=\"bees-with-color/bee-A1SF.svg\" width=\"200\">\n                    <p><span class=\"greenText\">Good choice!</span>  This bee would have stung you.<br>Your bonus pay is unchanged, and remains at $0.10.</p>\n            ","response":0,"trial_type":"html-button-response","trial_index":112,"time_elapsed":359859,"internal_node_id":"0.0-4.0-1.52","subject_id":"60fd945d4358e873e9cabf4f","study_id":"6197b3f67c2b5cd3b6d9596a","session_id":"619be58fc629f0d0caefe557","condition":"full-information","relevant_dimensions":["pattern","legs"],"bee_group":{"antennae":"X","wings":"X","pattern":"S","legs":"F"},"bonus":0.1},{"rt":1687,"stimulus":"bees-with-color/bee-B1DM.svg","response":0,"trial_type":"image-button-response","trial_index":113,"time_elapsed":361549,"internal_node_id":"0.0-4.0-0.53","subject_id":"60fd945d4358e873e9cabf4f","study_id":"6197b3f67c2b5cd3b6d9596a","session_id":"619be58fc629f0d0caefe557","condition":"full-information","relevant_dimensions":["pattern","legs"],"bee_group":{"antennae":"X","wings":"X","pattern":"S","legs":"F"},"action":"harvest","summary":"good-harvest","bonus":0.1},{"rt":1408.1000000238419,"stimulus":"\n                    <p><b>Action: <em>harvest</em></b></p>\n                    <p>This is the bee that you just saw.</p>\n                    <img src=\"bees-with-color/bee-B1DM.svg\" width=\"200\">\n                    <p><span class=\"greenText\"><b>Successful harvest!</b></span><br>Your pay has increased by $0.02. Your bonus pay is now $0.12.</p>\n            ","response":0,"trial_type":"html-button-response","trial_index":114,"time_elapsed":362959,"internal_node_id":"0.0-4.0-1.53","subject_id":"60fd945d4358e873e9cabf4f","study_id":"6197b3f67c2b5cd3b6d9596a","session_id":"619be58fc629f0d0caefe557","condition":"full-information","relevant_dimensions":["pattern","legs"],"bee_group":{"antennae":"X","wings":"X","pattern":"S","legs":"F"},"bonus":0.1},{"rt":2048.1999999284744,"stimulus":"bees-with-color/bee-B1SM.svg","response":1,"trial_type":"image-button-response","trial_index":115,"time_elapsed":365009,"internal_node_id":"0.0-4.0-0.54","subject_id":"60fd945d4358e873e9cabf4f","study_id":"6197b3f67c2b5cd3b6d9596a","session_id":"619be58fc629f0d0caefe557","condition":"full-information","relevant_dimensions":["pattern","legs"],"bee_group":{"antennae":"X","wings":"X","pattern":"S","legs":"F"},"action":"avoid","summary":"bad-avoid","bonus":0.1},{"rt":1078.8999999761581,"stimulus":"\n                    <p><b>Action: <em>avoid</em></b></p>\n                    <p>This is the bee that you just saw.</p>\n                    <img src=\"bees-with-color/bee-B1SM.svg\" width=\"200\">\n                    <p><span class=\"redText\">Bad choice,</span> the bee was friendly.<br>Your bonus pay is unchanged, and remains at $0.12.</p>\n            ","response":0,"trial_type":"html-button-response","trial_index":116,"time_elapsed":366089,"internal_node_id":"0.0-4.0-1.54","subject_id":"60fd945d4358e873e9cabf4f","study_id":"6197b3f67c2b5cd3b6d9596a","session_id":"619be58fc629f0d0caefe557","condition":"full-information","relevant_dimensions":["pattern","legs"],"bee_group":{"antennae":"X","wings":"X","pattern":"S","legs":"F"},"bonus":0.1},{"rt":1507.2999999523163,"stimulus":"bees-with-color/bee-A1DF.svg","response":0,"trial_type":"image-button-response","trial_index":117,"time_elapsed":367599,"internal_node_id":"0.0-4.0-0.55","subject_id":"60fd945d4358e873e9cabf4f","study_id":"6197b3f67c2b5cd3b6d9596a","session_id":"619be58fc629f0d0caefe557","condition":"full-information","relevant_dimensions":["pattern","legs"],"bee_group":{"antennae":"X","wings":"X","pattern":"S","legs":"F"},"action":"harvest","summary":"good-harvest","bonus":0.1},{"rt":1147.7000000476837,"stimulus":"\n                    <p><b>Action: <em>harvest</em></b></p>\n                    <p>This is the bee that you just saw.</p>\n                    <img src=\"bees-with-color/bee-A1DF.svg\" width=\"200\">\n                    <p><span class=\"greenText\"><b>Successful harvest!</b></span><br>Your pay has increased by $0.02. Your bonus pay is now $0.14.</p>\n            ","response":0,"trial_type":"html-button-response","trial_index":118,"time_elapsed":368749,"internal_node_id":"0.0-4.0-1.55","subject_id":"60fd945d4358e873e9cabf4f","study_id":"6197b3f67c2b5cd3b6d9596a","session_id":"619be58fc629f0d0caefe557","condition":"full-information","relevant_dimensions":["pattern","legs"],"bee_group":{"antennae":"X","wings":"X","pattern":"S","legs":"F"},"bonus":0.1},{"rt":2367.8000000715256,"stimulus":"bees-with-color/bee-B2SF.svg","response":1,"trial_type":"image-button-response","trial_index":119,"time_elapsed":371119,"internal_node_id":"0.0-4.0-0.56","subject_id":"60fd945d4358e873e9cabf4f","study_id":"6197b3f67c2b5cd3b6d9596a","session_id":"619be58fc629f0d0caefe557","condition":"full-information","relevant_dimensions":["pattern","legs"],"bee_group":{"antennae":"X","wings":"X","pattern":"S","legs":"F"},"action":"avoid","summary":"good-avoid","bonus":0.1},{"rt":1437.8999999761581,"stimulus":"\n                    <p><b>Action: <em>avoid</em></b></p>\n                    <p>This is the bee that you just saw.</p>\n                    <img src=\"bees-with-color/bee-B2SF.svg\" width=\"200\">\n                    <p><span class=\"greenText\">Good choice!</span>  This bee would have stung you.<br>Your bonus pay is unchanged, and remains at $0.14.</p>\n            ","response":0,"trial_type":"html-button-response","trial_index":120,"time_elapsed":372559,"internal_node_id":"0.0-4.0-1.56","subject_id":"60fd945d4358e873e9cabf4f","study_id":"6197b3f67c2b5cd3b6d9596a","session_id":"619be58fc629f0d0caefe557","condition":"full-information","relevant_dimensions":["pattern","legs"],"bee_group":{"antennae":"X","wings":"X","pattern":"S","legs":"F"},"bonus":0.1},{"rt":1877.9000000953674,"stimulus":"bees-with-color/bee-A1DM.svg","response":0,"trial_type":"image-button-response","trial_index":121,"time_elapsed":374439,"internal_node_id":"0.0-4.0-0.57","subject_id":"60fd945d4358e873e9cabf4f","study_id":"6197b3f67c2b5cd3b6d9596a","session_id":"619be58fc629f0d0caefe557","condition":"full-information","relevant_dimensions":["pattern","legs"],"bee_group":{"antennae":"X","wings":"X","pattern":"S","legs":"F"},"action":"harvest","summary":"good-harvest","bonus":0.1},{"rt":1207.8999999761581,"stimulus":"\n                    <p><b>Action: <em>harvest</em></b></p>\n                    <p>This is the bee that you just saw.</p>\n                    <img src=\"bees-with-color/bee-A1DM.svg\" width=\"200\">\n                    <p><span class=\"greenText\"><b>Successful harvest!</b></span><br>Your pay has increased by $0.02. Your bonus pay is now $0.16.</p>\n            ","response":0,"trial_type":"html-button-response","trial_index":122,"time_elapsed":375649,"internal_node_id":"0.0-4.0-1.57","subject_id":"60fd945d4358e873e9cabf4f","study_id":"6197b3f67c2b5cd3b6d9596a","session_id":"619be58fc629f0d0caefe557","condition":"full-information","relevant_dimensions":["pattern","legs"],"bee_group":{"antennae":"X","wings":"X","pattern":"S","legs":"F"},"bonus":0.1},{"rt":1387.2000000476837,"stimulus":"bees-with-color/bee-B2DM.svg","response":0,"trial_type":"image-button-response","trial_index":123,"time_elapsed":377039,"internal_node_id":"0.0-4.0-0.58","subject_id":"60fd945d4358e873e9cabf4f","study_id":"6197b3f67c2b5cd3b6d9596a","session_id":"619be58fc629f0d0caefe557","condition":"full-information","relevant_dimensions":["pattern","legs"],"bee_group":{"antennae":"X","wings":"X","pattern":"S","legs":"F"},"action":"harvest","summary":"good-harvest","bonus":0.1},{"rt":1177.8999999761581,"stimulus":"\n                    <p><b>Action: <em>harvest</em></b></p>\n                    <p>This is the bee that you just saw.</p>\n                    <img src=\"bees-with-color/bee-B2DM.svg\" width=\"200\">\n                    <p><span class=\"greenText\"><b>Successful harvest!</b></span><br>Your pay has increased by $0.02. Your bonus pay is now $0.18.</p>\n            ","response":0,"trial_type":"html-button-response","trial_index":124,"time_elapsed":378219,"internal_node_id":"0.0-4.0-1.58","subject_id":"60fd945d4358e873e9cabf4f","study_id":"6197b3f67c2b5cd3b6d9596a","session_id":"619be58fc629f0d0caefe557","condition":"full-information","relevant_dimensions":["pattern","legs"],"bee_group":{"antennae":"X","wings":"X","pattern":"S","legs":"F"},"bonus":0.1},{"rt":1597.6999999284744,"stimulus":"bees-with-color/bee-A2SM.svg","response":0,"trial_type":"image-button-response","trial_index":125,"time_elapsed":379819,"internal_node_id":"0.0-4.0-0.59","subject_id":"60fd945d4358e873e9cabf4f","study_id":"6197b3f67c2b5cd3b6d9596a","session_id":"619be58fc629f0d0caefe557","condition":"full-information","relevant_dimensions":["pattern","legs"],"bee_group":{"antennae":"X","wings":"X","pattern":"S","legs":"F"},"action":"harvest","summary":"good-harvest","bonus":0.1},{"rt":1157.8999999761581,"stimulus":"\n                    <p><b>Action: <em>harvest</em></b></p>\n                    <p>This is the bee that you just saw.</p>\n                    <img src=\"bees-with-color/bee-A2SM.svg\" width=\"200\">\n                    <p><span class=\"greenText\"><b>Successful harvest!</b></span><br>Your pay has increased by $0.02. Your bonus pay is now $0.20.</p>\n            ","response":0,"trial_type":"html-button-response","trial_index":126,"time_elapsed":380979,"internal_node_id":"0.0-4.0-1.59","subject_id":"60fd945d4358e873e9cabf4f","study_id":"6197b3f67c2b5cd3b6d9596a","session_id":"619be58fc629f0d0caefe557","condition":"full-information","relevant_dimensions":["pattern","legs"],"bee_group":{"antennae":"X","wings":"X","pattern":"S","legs":"F"},"bonus":0.1},{"rt":1608.2999999523163,"stimulus":"bees-with-color/bee-A1SM.svg","response":0,"trial_type":"image-button-response","trial_index":127,"time_elapsed":382589,"internal_node_id":"0.0-4.0-0.60","subject_id":"60fd945d4358e873e9cabf4f","study_id":"6197b3f67c2b5cd3b6d9596a","session_id":"619be58fc629f0d0caefe557","condition":"full-information","relevant_dimensions":["pattern","legs"],"bee_group":{"antennae":"X","wings":"X","pattern":"S","legs":"F"},"action":"harvest","summary":"good-harvest","bonus":0.1},{"rt":1223.6000000238419,"stimulus":"\n                    <p><b>Action: <em>harvest</em></b></p>\n                    <p>This is the bee that you just saw.</p>\n                    <img src=\"bees-with-color/bee-A1SM.svg\" width=\"200\">\n                    <p><span class=\"greenText\"><b>Successful harvest!</b></span><br>Your pay has increased by $0.02. Your bonus pay is now $0.22.</p>\n            ","response":0,"trial_type":"html-button-response","trial_index":128,"time_elapsed":383815,"internal_node_id":"0.0-4.0-1.60","subject_id":"60fd945d4358e873e9cabf4f","study_id":"6197b3f67c2b5cd3b6d9596a","session_id":"619be58fc629f0d0caefe557","condition":"full-information","relevant_dimensions":["pattern","legs"],"bee_group":{"antennae":"X","wings":"X","pattern":"S","legs":"F"},"bonus":0.1},{"rt":1851.5,"stimulus":"bees-with-color/bee-B1SF.svg","response":1,"trial_type":"image-button-response","trial_index":129,"time_elapsed":385669,"internal_node_id":"0.0-4.0-0.61","subject_id":"60fd945d4358e873e9cabf4f","study_id":"6197b3f67c2b5cd3b6d9596a","session_id":"619be58fc629f0d0caefe557","condition":"full-information","relevant_dimensions":["pattern","legs"],"bee_group":{"antennae":"X","wings":"X","pattern":"S","legs":"F"},"action":"avoid","summary":"good-avoid","bonus":0.1},{"rt":1314.7999999523163,"stimulus":"\n                    <p><b>Action: <em>avoid</em></b></p>\n                    <p>This is the bee that you just saw.</p>\n                    <img src=\"bees-with-color/bee-B1SF.svg\" width=\"200\">\n                    <p><span class=\"greenText\">Good choice!</span>  This bee would have stung you.<br>Your bonus pay is unchanged, and remains at $0.22.</p>\n            ","response":0,"trial_type":"html-button-response","trial_index":130,"time_elapsed":386986,"internal_node_id":"0.0-4.0-1.61","subject_id":"60fd945d4358e873e9cabf4f","study_id":"6197b3f67c2b5cd3b6d9596a","session_id":"619be58fc629f0d0caefe557","condition":"full-information","relevant_dimensions":["pattern","legs"],"bee_group":{"antennae":"X","wings":"X","pattern":"S","legs":"F"},"bonus":0.1},{"rt":1611.6000000238419,"stimulus":"bees-with-color/bee-A2DF.svg","response":0,"trial_type":"image-button-response","trial_index":131,"time_elapsed":388600,"internal_node_id":"0.0-4.0-0.62","subject_id":"60fd945d4358e873e9cabf4f","study_id":"6197b3f67c2b5cd3b6d9596a","session_id":"619be58fc629f0d0caefe557","condition":"full-information","relevant_dimensions":["pattern","legs"],"bee_group":{"antennae":"X","wings":"X","pattern":"S","legs":"F"},"action":"harvest","summary":"good-harvest","bonus":0.1},{"rt":1247.3000000715256,"stimulus":"\n                    <p><b>Action: <em>harvest</em></b></p>\n                    <p>This is the bee that you just saw.</p>\n                    <img src=\"bees-with-color/bee-A2DF.svg\" width=\"200\">\n                    <p><span class=\"greenText\"><b>Successful harvest!</b></span><br>Your pay has increased by $0.02. Your bonus pay is now $0.24.</p>\n            ","response":0,"trial_type":"html-button-response","trial_index":132,"time_elapsed":389849,"internal_node_id":"0.0-4.0-1.62","subject_id":"60fd945d4358e873e9cabf4f","study_id":"6197b3f67c2b5cd3b6d9596a","session_id":"619be58fc629f0d0caefe557","condition":"full-information","relevant_dimensions":["pattern","legs"],"bee_group":{"antennae":"X","wings":"X","pattern":"S","legs":"F"},"bonus":0.1},{"rt":1727.8999999761581,"stimulus":"bees-with-color/bee-B1DF.svg","response":1,"trial_type":"image-button-response","trial_index":133,"time_elapsed":391579,"internal_node_id":"0.0-4.0-0.63","subject_id":"60fd945d4358e873e9cabf4f","study_id":"6197b3f67c2b5cd3b6d9596a","session_id":"619be58fc629f0d0caefe557","condition":"full-information","relevant_dimensions":["pattern","legs"],"bee_group":{"antennae":"X","wings":"X","pattern":"S","legs":"F"},"action":"avoid","summary":"bad-avoid","bonus":0.1},{"rt":1566.5,"stimulus":"\n                    <p><b>Action: <em>avoid</em></b></p>\n                    <p>This is the bee that you just saw.</p>\n                    <img src=\"bees-with-color/bee-B1DF.svg\" width=\"200\">\n                    <p><span class=\"redText\">Bad choice,</span> the bee was friendly.<br>Your bonus pay is unchanged, and remains at $0.24.</p>\n            ","response":0,"trial_type":"html-button-response","trial_index":134,"time_elapsed":393149,"internal_node_id":"0.0-4.0-1.63","subject_id":"60fd945d4358e873e9cabf4f","study_id":"6197b3f67c2b5cd3b6d9596a","session_id":"619be58fc629f0d0caefe557","condition":"full-information","relevant_dimensions":["pattern","legs"],"bee_group":{"antennae":"X","wings":"X","pattern":"S","legs":"F"},"bonus":0.1},{"rt":5354.5,"stimulus":"You have completed the first part of this experiment.<br><br>You will now begin a shorter second part, in which you will receive no feedback.<br>The same rules regarding bonus pay apply.<br><br>Press any key to begin.","response":" ","trial_type":"html-keyboard-response","trial_index":135,"time_elapsed":398505,"internal_node_id":"0.0-5.0","subject_id":"60fd945d4358e873e9cabf4f","study_id":"6197b3f67c2b5cd3b6d9596a","session_id":"619be58fc629f0d0caefe557","condition":"full-information","relevant_dimensions":["pattern","legs"],"bee_group":{"antennae":"X","wings":"X","pattern":"S","legs":"F"},"bonus":0.1},{"rt":2699.5999999046326,"stimulus":"bees-with-color/bee-A2SM.svg","response":0,"trial_type":"image-button-response","trial_index":136,"time_elapsed":401219,"internal_node_id":"0.0-6.0-0.0","subject_id":"60fd945d4358e873e9cabf4f","study_id":"6197b3f67c2b5cd3b6d9596a","session_id":"619be58fc629f0d0caefe557","condition":"full-information","relevant_dimensions":["pattern","legs"],"bee_group":{"antennae":"X","wings":"X","pattern":"S","legs":"F"},"bonus":0.1},{"rt":4726.399999976158,"stimulus":"bees-with-color/bee-B1SF.svg","response":0,"trial_type":"image-button-response","trial_index":137,"time_elapsed":405948,"internal_node_id":"0.0-6.0-0.1","subject_id":"60fd945d4358e873e9cabf4f","study_id":"6197b3f67c2b5cd3b6d9596a","session_id":"619be58fc629f0d0caefe557","condition":"full-information","relevant_dimensions":["pattern","legs"],"bee_group":{"antennae":"X","wings":"X","pattern":"S","legs":"F"},"bonus":0.1},{"rt":977.5999999046326,"stimulus":"bees-with-color/bee-B2SM.svg","response":0,"trial_type":"image-button-response","trial_index":138,"time_elapsed":406929,"internal_node_id":"0.0-6.0-0.2","subject_id":"60fd945d4358e873e9cabf4f","study_id":"6197b3f67c2b5cd3b6d9596a","session_id":"619be58fc629f0d0caefe557","condition":"full-information","relevant_dimensions":["pattern","legs"],"bee_group":{"antennae":"X","wings":"X","pattern":"S","legs":"F"},"bonus":0.1},{"rt":867.4000000953674,"stimulus":"bees-with-color/bee-A2DM.svg","response":0,"trial_type":"image-button-response","trial_index":139,"time_elapsed":407800,"internal_node_id":"0.0-6.0-0.3","subject_id":"60fd945d4358e873e9cabf4f","study_id":"6197b3f67c2b5cd3b6d9596a","session_id":"619be58fc629f0d0caefe557","condition":"full-information","relevant_dimensions":["pattern","legs"],"bee_group":{"antennae":"X","wings":"X","pattern":"S","legs":"F"},"bonus":0.1},{"rt":1976.3999999761581,"stimulus":"bees-with-color/bee-B1DF.svg","response":1,"trial_type":"image-button-response","trial_index":140,"time_elapsed":409779,"internal_node_id":"0.0-6.0-0.4","subject_id":"60fd945d4358e873e9cabf4f","study_id":"6197b3f67c2b5cd3b6d9596a","session_id":"619be58fc629f0d0caefe557","condition":"full-information","relevant_dimensions":["pattern","legs"],"bee_group":{"antennae":"X","wings":"X","pattern":"S","legs":"F"},"bonus":0.1},{"rt":1552,"stimulus":"bees-with-color/bee-A2SF.svg","response":0,"trial_type":"image-button-response","trial_index":141,"time_elapsed":411334,"internal_node_id":"0.0-6.0-0.5","subject_id":"60fd945d4358e873e9cabf4f","study_id":"6197b3f67c2b5cd3b6d9596a","session_id":"619be58fc629f0d0caefe557","condition":"full-information","relevant_dimensions":["pattern","legs"],"bee_group":{"antennae":"X","wings":"X","pattern":"S","legs":"F"},"bonus":0.1},{"rt":3201.2000000476837,"stimulus":"bees-with-color/bee-A1SM.svg","response":0,"trial_type":"image-button-response","trial_index":142,"time_elapsed":414539,"internal_node_id":"0.0-6.0-0.6","subject_id":"60fd945d4358e873e9cabf4f","study_id":"6197b3f67c2b5cd3b6d9596a","session_id":"619be58fc629f0d0caefe557","condition":"full-information","relevant_dimensions":["pattern","legs"],"bee_group":{"antennae":"X","wings":"X","pattern":"S","legs":"F"},"bonus":0.1},{"rt":1576.8000000715256,"stimulus":"bees-with-color/bee-A2DF.svg","response":1,"trial_type":"image-button-response","trial_index":143,"time_elapsed":416119,"internal_node_id":"0.0-6.0-0.7","subject_id":"60fd945d4358e873e9cabf4f","study_id":"6197b3f67c2b5cd3b6d9596a","session_id":"619be58fc629f0d0caefe557","condition":"full-information","relevant_dimensions":["pattern","legs"],"bee_group":{"antennae":"X","wings":"X","pattern":"S","legs":"F"},"bonus":0.1},{"rt":1122.5,"stimulus":"bees-with-color/bee-A1DM.svg","response":1,"trial_type":"image-button-response","trial_index":144,"time_elapsed":417245,"internal_node_id":"0.0-6.0-0.8","subject_id":"60fd945d4358e873e9cabf4f","study_id":"6197b3f67c2b5cd3b6d9596a","session_id":"619be58fc629f0d0caefe557","condition":"full-information","relevant_dimensions":["pattern","legs"],"bee_group":{"antennae":"X","wings":"X","pattern":"S","legs":"F"},"bonus":0.1},{"rt":2161.5,"stimulus":"bees-with-color/bee-B2DM.svg","response":0,"trial_type":"image-button-response","trial_index":145,"time_elapsed":419410,"internal_node_id":"0.0-6.0-0.9","subject_id":"60fd945d4358e873e9cabf4f","study_id":"6197b3f67c2b5cd3b6d9596a","session_id":"619be58fc629f0d0caefe557","condition":"full-information","relevant_dimensions":["pattern","legs"],"bee_group":{"antennae":"X","wings":"X","pattern":"S","legs":"F"},"bonus":0.1},{"rt":1465.8000000715256,"stimulus":"bees-with-color/bee-B1SM.svg","response":1,"trial_type":"image-button-response","trial_index":146,"time_elapsed":420879,"internal_node_id":"0.0-6.0-0.10","subject_id":"60fd945d4358e873e9cabf4f","study_id":"6197b3f67c2b5cd3b6d9596a","session_id":"619be58fc629f0d0caefe557","condition":"full-information","relevant_dimensions":["pattern","legs"],"bee_group":{"antennae":"X","wings":"X","pattern":"S","legs":"F"},"bonus":0.1},{"rt":2227.5,"stimulus":"bees-with-color/bee-A1DF.svg","response":0,"trial_type":"image-button-response","trial_index":147,"time_elapsed":423109,"internal_node_id":"0.0-6.0-0.11","subject_id":"60fd945d4358e873e9cabf4f","study_id":"6197b3f67c2b5cd3b6d9596a","session_id":"619be58fc629f0d0caefe557","condition":"full-information","relevant_dimensions":["pattern","legs"],"bee_group":{"antennae":"X","wings":"X","pattern":"S","legs":"F"},"bonus":0.1},{"rt":1077.1999999284744,"stimulus":"bees-with-color/bee-B1DM.svg","response":0,"trial_type":"image-button-response","trial_index":148,"time_elapsed":424189,"internal_node_id":"0.0-6.0-0.12","subject_id":"60fd945d4358e873e9cabf4f","study_id":"6197b3f67c2b5cd3b6d9596a","session_id":"619be58fc629f0d0caefe557","condition":"full-information","relevant_dimensions":["pattern","legs"],"bee_group":{"antennae":"X","wings":"X","pattern":"S","legs":"F"},"bonus":0.1},{"rt":1366.5,"stimulus":"bees-with-color/bee-A1SF.svg","response":1,"trial_type":"image-button-response","trial_index":149,"time_elapsed":425559,"internal_node_id":"0.0-6.0-0.13","subject_id":"60fd945d4358e873e9cabf4f","study_id":"6197b3f67c2b5cd3b6d9596a","session_id":"619be58fc629f0d0caefe557","condition":"full-information","relevant_dimensions":["pattern","legs"],"bee_group":{"antennae":"X","wings":"X","pattern":"S","legs":"F"},"bonus":0.1},{"rt":1077.1000000238419,"stimulus":"bees-with-color/bee-B2SF.svg","response":0,"trial_type":"image-button-response","trial_index":150,"time_elapsed":426639,"internal_node_id":"0.0-6.0-0.14","subject_id":"60fd945d4358e873e9cabf4f","study_id":"6197b3f67c2b5cd3b6d9596a","session_id":"619be58fc629f0d0caefe557","condition":"full-information","relevant_dimensions":["pattern","legs"],"bee_group":{"antennae":"X","wings":"X","pattern":"S","legs":"F"},"bonus":0.1},{"rt":1247.2000000476837,"stimulus":"bees-with-color/bee-B2DF.svg","response":0,"trial_type":"image-button-response","trial_index":151,"time_elapsed":427889,"internal_node_id":"0.0-6.0-0.15","subject_id":"60fd945d4358e873e9cabf4f","study_id":"6197b3f67c2b5cd3b6d9596a","session_id":"619be58fc629f0d0caefe557","condition":"full-information","relevant_dimensions":["pattern","legs"],"bee_group":{"antennae":"X","wings":"X","pattern":"S","legs":"F"},"bonus":0.1},{"rt":1437,"stimulus":"bees-with-color/bee-B1DM.svg","response":1,"trial_type":"image-button-response","trial_index":152,"time_elapsed":429329,"internal_node_id":"0.0-6.0-0.16","subject_id":"60fd945d4358e873e9cabf4f","study_id":"6197b3f67c2b5cd3b6d9596a","session_id":"619be58fc629f0d0caefe557","condition":"full-information","relevant_dimensions":["pattern","legs"],"bee_group":{"antennae":"X","wings":"X","pattern":"S","legs":"F"},"bonus":0.1},{"rt":2704.600000023842,"stimulus":"bees-with-color/bee-B2SF.svg","response":0,"trial_type":"image-button-response","trial_index":153,"time_elapsed":432036,"internal_node_id":"0.0-6.0-0.17","subject_id":"60fd945d4358e873e9cabf4f","study_id":"6197b3f67c2b5cd3b6d9596a","session_id":"619be58fc629f0d0caefe557","condition":"full-information","relevant_dimensions":["pattern","legs"],"bee_group":{"antennae":"X","wings":"X","pattern":"S","legs":"F"},"bonus":0.1},{"rt":1219.7999999523163,"stimulus":"bees-with-color/bee-A1DM.svg","response":0,"trial_type":"image-button-response","trial_index":154,"time_elapsed":433260,"internal_node_id":"0.0-6.0-0.18","subject_id":"60fd945d4358e873e9cabf4f","study_id":"6197b3f67c2b5cd3b6d9596a","session_id":"619be58fc629f0d0caefe557","condition":"full-information","relevant_dimensions":["pattern","legs"],"bee_group":{"antennae":"X","wings":"X","pattern":"S","legs":"F"},"bonus":0.1},{"rt":1927.7000000476837,"stimulus":"bees-with-color/bee-B1SM.svg","response":1,"trial_type":"image-button-response","trial_index":155,"time_elapsed":435190,"internal_node_id":"0.0-6.0-0.19","subject_id":"60fd945d4358e873e9cabf4f","study_id":"6197b3f67c2b5cd3b6d9596a","session_id":"619be58fc629f0d0caefe557","condition":"full-information","relevant_dimensions":["pattern","legs"],"bee_group":{"antennae":"X","wings":"X","pattern":"S","legs":"F"},"bonus":0.1},{"rt":1347.3000000715256,"stimulus":"bees-with-color/bee-A1SM.svg","response":0,"trial_type":"image-button-response","trial_index":156,"time_elapsed":436539,"internal_node_id":"0.0-6.0-0.20","subject_id":"60fd945d4358e873e9cabf4f","study_id":"6197b3f67c2b5cd3b6d9596a","session_id":"619be58fc629f0d0caefe557","condition":"full-information","relevant_dimensions":["pattern","legs"],"bee_group":{"antennae":"X","wings":"X","pattern":"S","legs":"F"},"bonus":0.1},{"rt":2017.7000000476837,"stimulus":"bees-with-color/bee-B2DF.svg","response":0,"trial_type":"image-button-response","trial_index":157,"time_elapsed":438559,"internal_node_id":"0.0-6.0-0.21","subject_id":"60fd945d4358e873e9cabf4f","study_id":"6197b3f67c2b5cd3b6d9596a","session_id":"619be58fc629f0d0caefe557","condition":"full-information","relevant_dimensions":["pattern","legs"],"bee_group":{"antennae":"X","wings":"X","pattern":"S","legs":"F"},"bonus":0.1},{"rt":977.5,"stimulus":"bees-with-color/bee-A2DF.svg","response":0,"trial_type":"image-button-response","trial_index":158,"time_elapsed":439539,"internal_node_id":"0.0-6.0-0.22","subject_id":"60fd945d4358e873e9cabf4f","study_id":"6197b3f67c2b5cd3b6d9596a","session_id":"619be58fc629f0d0caefe557","condition":"full-information","relevant_dimensions":["pattern","legs"],"bee_group":{"antennae":"X","wings":"X","pattern":"S","legs":"F"},"bonus":0.1},{"rt":1877.6000000238419,"stimulus":"bees-with-color/bee-A2SF.svg","response":1,"trial_type":"image-button-response","trial_index":159,"time_elapsed":441419,"internal_node_id":"0.0-6.0-0.23","subject_id":"60fd945d4358e873e9cabf4f","study_id":"6197b3f67c2b5cd3b6d9596a","session_id":"619be58fc629f0d0caefe557","condition":"full-information","relevant_dimensions":["pattern","legs"],"bee_group":{"antennae":"X","wings":"X","pattern":"S","legs":"F"},"bonus":0.1},{"rt":1807.4000000953674,"stimulus":"bees-with-color/bee-B1SF.svg","response":0,"trial_type":"image-button-response","trial_index":160,"time_elapsed":443229,"internal_node_id":"0.0-6.0-0.24","subject_id":"60fd945d4358e873e9cabf4f","study_id":"6197b3f67c2b5cd3b6d9596a","session_id":"619be58fc629f0d0caefe557","condition":"full-information","relevant_dimensions":["pattern","legs"],"bee_group":{"antennae":"X","wings":"X","pattern":"S","legs":"F"},"bonus":0.1},{"rt":1037.6999999284744,"stimulus":"bees-with-color/bee-A2SM.svg","response":0,"trial_type":"image-button-response","trial_index":161,"time_elapsed":444269,"internal_node_id":"0.0-6.0-0.25","subject_id":"60fd945d4358e873e9cabf4f","study_id":"6197b3f67c2b5cd3b6d9596a","session_id":"619be58fc629f0d0caefe557","condition":"full-information","relevant_dimensions":["pattern","legs"],"bee_group":{"antennae":"X","wings":"X","pattern":"S","legs":"F"},"bonus":0.1},{"rt":1948.2000000476837,"stimulus":"bees-with-color/bee-B2DM.svg","response":0,"trial_type":"image-button-response","trial_index":162,"time_elapsed":446220,"internal_node_id":"0.0-6.0-0.26","subject_id":"60fd945d4358e873e9cabf4f","study_id":"6197b3f67c2b5cd3b6d9596a","session_id":"619be58fc629f0d0caefe557","condition":