[{"success":true,"trial_type":"fullscreen","trial_index":0,"time_elapsed":6957,"internal_node_id":"0.0-0.0","subject_id":"6078cfcf029bac8a284df18e","study_id":"6197b3f67c2b5cd3b6d9596a","session_id":"6197b889fb1ed88d7f60c1ff","condition":"contingent","relevant_dimensions":["antennae","wings"],"bee_group":{"antennae":"B","wings":"1","pattern":"X","legs":"X"},"bonus":1.7800000000000014},{"success":true,"timeout":false,"failed_images":[],"failed_audio":[],"failed_video":[],"trial_type":"preload","trial_index":1,"time_elapsed":8610,"internal_node_id":"0.0-1.0","subject_id":"6078cfcf029bac8a284df18e","study_id":"6197b3f67c2b5cd3b6d9596a","session_id":"6197b889fb1ed88d7f60c1ff","condition":"contingent","relevant_dimensions":["antennae","wings"],"bee_group":{"antennae":"B","wings":"1","pattern":"X","legs":"X"},"bonus":1.7800000000000014},{"rt":2857.5,"stimulus":"Welcome! Press any key to begin.","response":" ","trial_type":"html-keyboard-response","trial_index":2,"time_elapsed":11468,"internal_node_id":"0.0-2.0","subject_id":"6078cfcf029bac8a284df18e","study_id":"6197b3f67c2b5cd3b6d9596a","session_id":"6197b889fb1ed88d7f60c1ff","condition":"contingent","relevant_dimensions":["antennae","wings"],"bee_group":{"antennae":"B","wings":"1","pattern":"X","legs":"X"},"bonus":1.7800000000000014},{"view_history":[{"page_index":0,"viewing_time":4279},{"page_index":1,"viewing_time":14128.099999997765},{"page_index":2,"viewing_time":18823.60000000149},{"page_index":3,"viewing_time":20536.099999997765},{"page_index":4,"viewing_time":7808.10000000149},{"page_index":5,"viewing_time":8359.800000000745},{"page_index":6,"viewing_time":9864.099999997765},{"page_index":7,"viewing_time":8495.800000000745},{"page_index":8,"viewing_time":26392.10000000149},{"page_index":9,"viewing_time":9488.099999997765},{"page_index":10,"viewing_time":9784},{"page_index":11,"viewing_time":15560.5},{"page_index":12,"viewing_time":7247.60000000149},{"page_index":13,"viewing_time":1167.8999999985099},{"page_index":14,"viewing_time":2552}],"rt":164487.5,"trial_type":"instructions","trial_index":3,"time_elapsed":175956,"internal_node_id":"0.0-3.0-0.0","subject_id":"6078cfcf029bac8a284df18e","study_id":"6197b3f67c2b5cd3b6d9596a","session_id":"6197b889fb1ed88d7f60c1ff","condition":"contingent","relevant_dimensions":["antennae","wings"],"bee_group":{"antennae":"B","wings":"1","pattern":"X","legs":"X"},"bonus":1.7800000000000014},{"rt":13097.39999999851,"response":{"Q0":["Two or six legs","Stripes or spots on body","Single or double wings","Antennae or no antennae"]},"question_order":[0],"trial_type":"survey-multi-select","trial_index":4,"time_elapsed":189060,"internal_node_id":"0.0-3.0-1.0","subject_id":"6078cfcf029bac8a284df18e","study_id":"6197b3f67c2b5cd3b6d9596a","session_id":"6197b889fb1ed88d7f60c1ff","condition":"contingent","relevant_dimensions":["antennae","wings"],"bee_group":{"antennae":"B","wings":"1","pattern":"X","legs":"X"},"correct":true,"bonus":1.7800000000000014},{"rt":25051.29999999702,"response":{"Q1":"No.","Q2":"Based on the four features of the bee.","Q3":"You do not learn if it was friendly or dangerous, and do not alter your bonus."},"question_order":[0,1,2],"trial_type":"survey-multi-choice","trial_index":5,"time_elapsed":214117,"internal_node_id":"0.0-3.0-2.0","subject_id":"6078cfcf029bac8a284df18e","study_id":"6197b3f67c2b5cd3b6d9596a","session_id":"6197b889fb1ed88d7f60c1ff","condition":"contingent","relevant_dimensions":["antennae","wings"],"bee_group":{"antennae":"B","wings":"1","pattern":"X","legs":"X"},"correct":true,"bonus":1.7800000000000014},{"rt":2434.89999999851,"stimulus":"<p>Congrats, you got everything right<br>When you're ready, click the button below to continue to the experiment.</p>","response":0,"trial_type":"html-button-response","trial_index":6,"time_elapsed":216556,"internal_node_id":"0.0-3.0-3.0","subject_id":"6078cfcf029bac8a284df18e","study_id":"6197b3f67c2b5cd3b6d9596a","session_id":"6197b889fb1ed88d7f60c1ff","condition":"contingent","relevant_dimensions":["antennae","wings"],"bee_group":{"antennae":"B","wings":"1","pattern":"X","legs":"X"},"bonus":1.7800000000000014},{"rt":170557.6000000015,"stimulus":"bees-with-color/bee-A1SF.svg","response":0,"trial_type":"image-button-response","trial_index":7,"time_elapsed":387116,"internal_node_id":"0.0-4.0-0.0","subject_id":"6078cfcf029bac8a284df18e","study_id":"6197b3f67c2b5cd3b6d9596a","session_id":"6197b889fb1ed88d7f60c1ff","condition":"contingent","relevant_dimensions":["antennae","wings"],"bee_group":{"antennae":"B","wings":"1","pattern":"X","legs":"X"},"action":"harvest","summary":"good-harvest","bonus":1.7800000000000014},{"rt":17796.89999999851,"stimulus":"\n                    <p><b>Action: <em>harvest</em></b></p>\n                    <p>This is the bee that you just saw.</p>\n                    <img src=\"bees-with-color/bee-A1SF.svg\" width=\"200\">\n                    <p><span class=\"greenText\"><b>Successful harvest!</b></span><br>Your pay has increased by $0.02. Your bonus pay is now $0.56.</p>\n            ","response":0,"trial_type":"html-button-response","trial_index":8,"time_elapsed":404915,"internal_node_id":"0.0-4.0-1.0","subject_id":"6078cfcf029bac8a284df18e","study_id":"6197b3f67c2b5cd3b6d9596a","session_id":"6197b889fb1ed88d7f60c1ff","condition":"contingent","relevant_dimensions":["antennae","wings"],"bee_group":{"antennae":"B","wings":"1","pattern":"X","legs":"X"},"bonus":1.7800000000000014},{"rt":13718.10000000149,"stimulus":"bees-with-color/bee-B2DF.svg","response":0,"trial_type":"image-button-response","trial_index":9,"time_elapsed":418635,"internal_node_id":"0.0-4.0-0.1","subject_id":"6078cfcf029bac8a284df18e","study_id":"6197b3f67c2b5cd3b6d9596a","session_id":"6197b889fb1ed88d7f60c1ff","condition":"contingent","relevant_dimensions":["antennae","wings"],"bee_group":{"antennae":"B","wings":"1","pattern":"X","legs":"X"},"action":"harvest","summary":"good-harvest","bonus":1.7800000000000014},{"rt":39662,"stimulus":"\n                    <p><b>Action: <em>harvest</em></b></p>\n                    <p>This is the bee that you just saw.</p>\n                    <img src=\"bees-with-color/bee-B2DF.svg\" width=\"200\">\n                    <p><span class=\"greenText\"><b>Successful harvest!</b></span><br>Your pay has increased by $0.02. Your bonus pay is now $0.58.</p>\n            ","response":0,"trial_type":"html-button-response","trial_index":10,"time_elapsed":458299,"internal_node_id":"0.0-4.0-1.1","subject_id":"6078cfcf029bac8a284df18e","study_id":"6197b3f67c2b5cd3b6d9596a","session_id":"6197b889fb1ed88d7f60c1ff","condition":"contingent","relevant_dimensions":["antennae","wings"],"bee_group":{"antennae":"B","wings":"1","pattern":"X","legs":"X"},"bonus":1.7800000000000014},{"rt":26222.39999999851,"stimulus":"bees-with-color/bee-A1DF.svg","response":0,"trial_type":"image-button-response","trial_index":11,"time_elapsed":484524,"internal_node_id":"0.0-4.0-0.2","subject_id":"6078cfcf029bac8a284df18e","study_id":"6197b3f67c2b5cd3b6d9596a","session_id":"6197b889fb1ed88d7f60c1ff","condition":"contingent","relevant_dimensions":["antennae","wings"],"bee_group":{"antennae":"B","wings":"1","pattern":"X","legs":"X"},"action":"harvest","summary":"good-harvest","bonus":1.7800000000000014},{"rt":5214.5,"stimulus":"\n                    <p><b>Action: <em>harvest</em></b></p>\n                    <p>This is the bee that you just saw.</p>\n                    <img src=\"bees-with-color/bee-A1DF.svg\" width=\"200\">\n                    <p><span class=\"greenText\"><b>Successful harvest!</b></span><br>Your pay has increased by $0.02. Your bonus pay is now $0.60.</p>\n            ","response":0,"trial_type":"html-button-response","trial_index":12,"time_elapsed":489740,"internal_node_id":"0.0-4.0-1.2","subject_id":"6078cfcf029bac8a284df18e","study_id":"6197b3f67c2b5cd3b6d9596a","session_id":"6197b889fb1ed88d7f60c1ff","condition":"contingent","relevant_dimensions":["antennae","wings"],"bee_group":{"antennae":"B","wings":"1","pattern":"X","legs":"X"},"bonus":1.7800000000000014},{"rt":17646.199999999255,"stimulus":"bees-with-color/bee-A2DF.svg","response":0,"trial_type":"image-button-response","trial_index":13,"time_elapsed":507387,"internal_node_id":"0.0-4.0-0.3","subject_id":"6078cfcf029bac8a284df18e","study_id":"6197b3f67c2b5cd3b6d9596a","session_id":"6197b889fb1ed88d7f60c1ff","condition":"contingent","relevant_dimensions":["antennae","wings"],"bee_group":{"antennae":"B","wings":"1","pattern":"X","legs":"X"},"action":"harvest","summary":"good-harvest","bonus":1.7800000000000014},{"rt":3838.099999997765,"stimulus":"\n                    <p><b>Action: <em>harvest</em></b></p>\n                    <p>This is the bee that you just saw.</p>\n                    <img src=\"bees-with-color/bee-A2DF.svg\" width=\"200\">\n                    <p><span class=\"greenText\"><b>Successful harvest!</b></span><br>Your pay has increased by $0.02. Your bonus pay is now $0.62.</p>\n            ","response":0,"trial_type":"html-button-response","trial_index":14,"time_elapsed":511227,"internal_node_id":"0.0-4.0-1.3","subject_id":"6078cfcf029bac8a284df18e","study_id":"6197b3f67c2b5cd3b6d9596a","session_id":"6197b889fb1ed88d7f60c1ff","condition":"contingent","relevant_dimensions":["antennae","wings"],"bee_group":{"antennae":"B","wings":"1","pattern":"X","legs":"X"},"bonus":1.7800000000000014},{"rt":15766.39999999851,"stimulus":"bees-with-color/bee-A1DM.svg","response":0,"trial_type":"image-button-response","trial_index":15,"time_elapsed":526996,"internal_node_id":"0.0-4.0-0.4","subject_id":"6078cfcf029bac8a284df18e","study_id":"6197b3f67c2b5cd3b6d9596a","session_id":"6197b889fb1ed88d7f60c1ff","condition":"contingent","relevant_dimensions":["antennae","wings"],"bee_group":{"antennae":"B","wings":"1","pattern":"X","legs":"X"},"action":"harvest","summary":"good-harvest","bonus":1.7800000000000014},{"rt":3510.300000000745,"stimulus":"\n                    <p><b>Action: <em>harvest</em></b></p>\n                    <p>This is the bee that you just saw.</p>\n                    <img src=\"bees-with-color/bee-A1DM.svg\" width=\"200\">\n                    <p><span class=\"greenText\"><b>Successful harvest!</b></span><br>Your pay has increased by $0.02. Your bonus pay is now $0.64.</p>\n            ","response":0,"trial_type":"html-button-response","trial_index":16,"time_elapsed":530507,"internal_node_id":"0.0-4.0-1.4","subject_id":"6078cfcf029bac8a284df18e","study_id":"6197b3f67c2b5cd3b6d9596a","session_id":"6197b889fb1ed88d7f60c1ff","condition":"contingent","relevant_dimensions":["antennae","wings"],"bee_group":{"antennae":"B","wings":"1","pattern":"X","legs":"X"},"bonus":1.7800000000000014},{"rt":12350.400000002235,"stimulus":"bees-with-color/bee-B2DM.svg","response":0,"trial_type":"image-button-response","trial_index":17,"time_elapsed":542859,"internal_node_id":"0.0-4.0-0.5","subject_id":"6078cfcf029bac8a284df18e","study_id":"6197b3f67c2b5cd3b6d9596a","session_id":"6197b889fb1ed88d7f60c1ff","condition":"contingent","relevant_dimensions":["antennae","wings"],"bee_group":{"antennae":"B","wings":"1","pattern":"X","legs":"X"},"action":"harvest","summary":"good-harvest","bonus":1.7800000000000014},{"rt":3566.300000000745,"stimulus":"\n                    <p><b>Action: <em>harvest</em></b></p>\n                    <p>This is the bee that you just saw.</p>\n                    <img src=\"bees-with-color/bee-B2DM.svg\" width=\"200\">\n                    <p><span class=\"greenText\"><b>Successful harvest!</b></span><br>Your pay has increased by $0.02. Your bonus pay is now $0.66.</p>\n            ","response":0,"trial_type":"html-button-response","trial_index":18,"time_elapsed":546427,"internal_node_id":"0.0-4.0-1.5","subject_id":"6078cfcf029bac8a284df18e","study_id":"6197b3f67c2b5cd3b6d9596a","session_id":"6197b889fb1ed88d7f60c1ff","condition":"contingent","relevant_dimensions":["antennae","wings"],"bee_group":{"antennae":"B","wings":"1","pattern":"X","legs":"X"},"bonus":1.7800000000000014},{"rt":14742.39999999851,"stimulus":"bees-with-color/bee-B1SF.svg","response":0,"trial_type":"image-button-response","trial_index":19,"time_elapsed":561172,"internal_node_id":"0.0-4.0-0.6","subject_id":"6078cfcf029bac8a284df18e","study_id":"6197b3f67c2b5cd3b6d9596a","session_id":"6197b889fb1ed88d7f60c1ff","condition":"contingent","relevant_dimensions":["antennae","wings"],"bee_group":{"antennae":"B","wings":"1","pattern":"X","legs":"X"},"action":"harvest","summary":"bad-harvest","bonus":1.7800000000000014},{"rt":14422.10000000149,"stimulus":"\n                    <p><b>Action: <em>harvest</em></b></p>\n                    <p>This is the bee that you just saw.</p>\n                    <img src=\"bees-with-color/bee-B1SF.svg\" width=\"200\">\n                    <p><span class=\"redText\">Bad choice, the bee was angry.</span><br><b>You have been stung!</b><br>Your pay has been decreased by $0.10. Your bonus pay is now $0.56.</p>\n            ","response":0,"trial_type":"html-button-response","trial_index":20,"time_elapsed":575596,"internal_node_id":"0.0-4.0-1.6","subject_id":"6078cfcf029bac8a284df18e","study_id":"6197b3f67c2b5cd3b6d9596a","session_id":"6197b889fb1ed88d7f60c1ff","condition":"contingent","relevant_dimensions":["antennae","wings"],"bee_group":{"antennae":"B","wings":"1","pattern":"X","legs":"X"},"bonus":1.7800000000000014},{"rt":24374.89999999851,"stimulus":"bees-with-color/bee-B1DM.svg","response":0,"trial_type":"image-button-response","trial_index":21,"time_elapsed":599972,"internal_node_id":"0.0-4.0-0.7","subject_id":"6078cfcf029bac8a284df18e","study_id":"6197b3f67c2b5cd3b6d9596a","session_id":"6197b889fb1ed88d7f60c1ff","condition":"contingent","relevant_dimensions":["antennae","wings"],"bee_group":{"antennae":"B","wings":"1","pattern":"X","legs":"X"},"action":"harvest","summary":"bad-harvest","bonus":1.7800000000000014},{"rt":4005.699999999255,"stimulus":"\n                    <p><b>Action: <em>harvest</em></b></p>\n                    <p>This is the bee that you just saw.</p>\n                    <img src=\"bees-with-color/bee-B1DM.svg\" width=\"200\">\n                    <p><span class=\"redText\">Bad choice, the bee was angry.</span><br><b>You have been stung!</b><br>Your pay has been decreased by $0.10. Your bonus pay is now $0.46.</p>\n            ","response":0,"trial_type":"html-button-response","trial_index":22,"time_elapsed":603980,"internal_node_id":"0.0-4.0-1.7","subject_id":"6078cfcf029bac8a284df18e","study_id":"6197b3f67c2b5cd3b6d9596a","session_id":"6197b889fb1ed88d7f60c1ff","condition":"contingent","relevant_dimensions":["antennae","wings"],"bee_group":{"antennae":"B","wings":"1","pattern":"X","legs":"X"},"bonus":1.7800000000000014},{"rt":99069.90000000224,"stimulus":"bees-with-color/bee-B2SM.svg","response":0,"trial_type":"image-button-response","trial_index":23,"time_elapsed":703051,"internal_node_id":"0.0-4.0-0.8","subject_id":"6078cfcf029bac8a284df18e","study_id":"6197b3f67c2b5cd3b6d9596a","session_id":"6197b889fb1ed88d7f60c1ff","condition":"contingent","relevant_dimensions":["antennae","wings"],"bee_group":{"antennae":"B","wings":"1","pattern":"X","legs":"X"},"action":"harvest","summary":"good-harvest","bonus":1.7800000000000014},{"rt":4382.099999997765,"stimulus":"\n                    <p><b>Action: <em>harvest</em></b></p>\n                    <p>This is the bee that you just saw.</p>\n                    <img src=\"bees-with-color/bee-B2SM.svg\" width=\"200\">\n                    <p><span class=\"greenText\"><b>Successful harvest!</b></span><br>Your pay has increased by $0.02. Your bonus pay is now $0.48.</p>\n            ","response":0,"trial_type":"html-button-response","trial_index":24,"time_elapsed":707435,"internal_node_id":"0.0-4.0-1.8","subject_id":"6078cfcf029bac8a284df18e","study_id":"6197b3f67c2b5cd3b6d9596a","session_id":"6197b889fb1ed88d7f60c1ff","condition":"contingent","relevant_dimensions":["antennae","wings"],"bee_group":{"antennae":"B","wings":"1","pattern":"X","legs":"X"},"bonus":1.7800000000000014},{"rt":12958.60000000149,"stimulus":"bees-with-color/bee-A2SM.svg","response":0,"trial_type":"image-button-response","trial_index":25,"time_elapsed":720396,"internal_node_id":"0.0-4.0-0.9","subject_id":"6078cfcf029bac8a284df18e","study_id":"6197b3f67c2b5cd3b6d9596a","session_id":"6197b889fb1ed88d7f60c1ff","condition":"contingent","relevant_dimensions":["antennae","wings"],"bee_group":{"antennae":"B","wings":"1","pattern":"X","legs":"X"},"action":"harvest","summary":"good-harvest","bonus":1.7800000000000014},{"rt":3262,"stimulus":"\n                    <p><b>Action: <em>harvest</em></b></p>\n                    <p>This is the bee that you just saw.</p>\n                    <img src=\"bees-with-color/bee-A2SM.svg\" width=\"200\">\n                    <p><span class=\"greenText\"><b>Successful harvest!</b></span><br>Your pay has increased by $0.02. Your bonus pay is now $0.50.</p>\n            ","response":0,"trial_type":"html-button-response","trial_index":26,"time_elapsed":723659,"internal_node_id":"0.0-4.0-1.9","subject_id":"6078cfcf029bac8a284df18e","study_id":"6197b3f67c2b5cd3b6d9596a","session_id":"6197b889fb1ed88d7f60c1ff","condition":"contingent","relevant_dimensions":["antennae","wings"],"bee_group":{"antennae":"B","wings":"1","pattern":"X","legs":"X"},"bonus":1.7800000000000014},{"rt":22983.5,"stimulus":"bees-with-color/bee-A2SF.svg","response":0,"trial_type":"image-button-response","trial_index":27,"time_elapsed":746644,"internal_node_id":"0.0-4.0-0.10","subject_id":"6078cfcf029bac8a284df18e","study_id":"6197b3f67c2b5cd3b6d9596a","session_id":"6197b889fb1ed88d7f60c1ff","condition":"contingent","relevant_dimensions":["antennae","wings"],"bee_group":{"antennae":"B","wings":"1","pattern":"X","legs":"X"},"action":"harvest","summary":"good-harvest","bonus":1.7800000000000014},{"rt":3125.800000000745,"stimulus":"\n                    <p><b>Action: <em>harvest</em></b></p>\n                    <p>This is the bee that you just saw.</p>\n                    <img src=\"bees-with-color/bee-A2SF.svg\" width=\"200\">\n                    <p><span class=\"greenText\"><b>Successful harvest!</b></span><br>Your pay has increased by $0.02. Your bonus pay is now $0.52.</p>\n            ","response":0,"trial_type":"html-button-response","trial_index":28,"time_elapsed":749772,"internal_node_id":"0.0-4.0-1.10","subject_id":"6078cfcf029bac8a284df18e","study_id":"6197b3f67c2b5cd3b6d9596a","session_id":"6197b889fb1ed88d7f60c1ff","condition":"contingent","relevant_dimensions":["antennae","wings"],"bee_group":{"antennae":"B","wings":"1","pattern":"X","legs":"X"},"bonus":1.7800000000000014},{"rt":10974.699999999255,"stimulus":"bees-with-color/bee-A1SM.svg","response":0,"trial_type":"image-button-response","trial_index":29,"time_elapsed":760748,"internal_node_id":"0.0-4.0-0.11","subject_id":"6078cfcf029bac8a284df18e","study_id":"6197b3f67c2b5cd3b6d9596a","session_id":"6197b889fb1ed88d7f60c1ff","condition":"contingent","relevant_dimensions":["antennae","wings"],"bee_group":{"antennae":"B","wings":"1","pattern":"X","legs":"X"},"action":"harvest","summary":"good-harvest","bonus":1.7800000000000014},{"rt":2982.7999999970198,"stimulus":"\n                    <p><b>Action: <em>harvest</em></b></p>\n                    <p>This is the bee that you just saw.</p>\n                    <img src=\"bees-with-color/bee-A1SM.svg\" width=\"200\">\n                    <p><span class=\"greenText\"><b>Successful harvest!</b></span><br>Your pay has increased by $0.02. Your bonus pay is now $0.54.</p>\n            ","response":0,"trial_type":"html-button-response","trial_index":30,"time_elapsed":763732,"internal_node_id":"0.0-4.0-1.11","subject_id":"6078cfcf029bac8a284df18e","study_id":"6197b3f67c2b5cd3b6d9596a","session_id":"6197b889fb1ed88d7f60c1ff","condition":"contingent","relevant_dimensions":["antennae","wings"],"bee_group":{"antennae":"B","wings":"1","pattern":"X","legs":"X"},"bonus":1.7800000000000014},{"rt":12813.800000000745,"stimulus":"bees-with-color/bee-B1SM.svg","response":1,"trial_type":"image-button-response","trial_index":31,"time_elapsed":776548,"internal_node_id":"0.0-4.0-0.12","subject_id":"6078cfcf029bac8a284df18e","study_id":"6197b3f67c2b5cd3b6d9596a","session_id":"6197b889fb1ed88d7f60c1ff","condition":"contingent","relevant_dimensions":["antennae","wings"],"bee_group":{"antennae":"B","wings":"1","pattern":"X","legs":"X"},"action":"avoid","summary":"good-avoid","bonus":1.7800000000000014},{"rt":4365.800000000745,"stimulus":"\n                    <p><b>Action: <em>avoid</em></b></p>\n                    <p>This is the bee that you just saw.</p>\n                    <img src=\"bees-with-color/bee-B1SM.svg\" width=\"200\">\n                    <p><br>Your bonus pay is unchanged, and remains at $0.54.</p>\n            ","response":0,"trial_type":"html-button-response","trial_index":32,"time_elapsed":780915,"internal_node_id":"0.0-4.0-1.12","subject_id":"6078cfcf029bac8a284df18e","study_id":"6197b3f67c2b5cd3b6d9596a","session_id":"6197b889fb1ed88d7f60c1ff","condition":"contingent","relevant_dimensions":["antennae","wings"],"bee_group":{"antennae":"B","wings":"1","pattern":"X","legs":"X"},"bonus":1.7800000000000014},{"rt":12415.199999999255,"stimulus":"bees-with-color/bee-A2DM.svg","response":0,"trial_type":"image-button-response","trial_index":33,"time_elapsed":793332,"internal_node_id":"0.0-4.0-0.13","subject_id":"6078cfcf029bac8a284df18e","study_id":"6197b3f67c2b5cd3b6d9596a","session_id":"6197b889fb1ed88d7f60c1ff","condition":"contingent","relevant_dimensions":["antennae","wings"],"bee_group":{"antennae":"B","wings":"1","pattern":"X","legs":"X"},"action":"harvest","summary":"good-harvest","bonus":1.7800000000000014},{"rt":3086.10000000149,"stimulus":"\n                    <p><b>Action: <em>harvest</em></b></p>\n                    <p>This is the bee that you just saw.</p>\n                    <img src=\"bees-with-color/bee-A2DM.svg\" width=\"200\">\n                    <p><span class=\"greenText\"><b>Successful harvest!</b></span><br>Your pay has increased by $0.02. Your bonus pay is now $0.56.</p>\n            ","response":0,"trial_type":"html-button-response","trial_index":34,"time_elapsed":796419,"internal_node_id":"0.0-4.0-1.13","subject_id":"6078cfcf029bac8a284df18e","study_id":"6197b3f67c2b5cd3b6d9596a","session_id":"6197b889fb1ed88d7f60c1ff","condition":"contingent","relevant_dimensions":["antennae","wings"],"bee_group":{"antennae":"B","wings":"1","pattern":"X","legs":"X"},"bonus":1.7800000000000014},{"rt":21031.5,"stimulus":"bees-with-color/bee-B2SF.svg","response":0,"trial_type":"image-button-response","trial_index":35,"time_elapsed":817452,"internal_node_id":"0.0-4.0-0.14","subject_id":"6078cfcf029bac8a284df18e","study_id":"6197b3f67c2b5cd3b6d9596a","session_id":"6197b889fb1ed88d7f60c1ff","condition":"contingent","relevant_dimensions":["antennae","wings"],"bee_group":{"antennae":"B","wings":"1","pattern":"X","legs":"X"},"action":"harvest","summary":"good-harvest","bonus":1.7800000000000014},{"rt":3141.60000000149,"stimulus":"\n                    <p><b>Action: <em>harvest</em></b></p>\n                    <p>This is the bee that you just saw.</p>\n                    <img src=\"bees-with-color/bee-B2SF.svg\" width=\"200\">\n                    <p><span class=\"greenText\"><b>Successful harvest!</b></span><br>Your pay has increased by $0.02. Your bonus pay is now $0.58.</p>\n            ","response":0,"trial_type":"html-button-response","trial_index":36,"time_elapsed":820595,"internal_node_id":"0.0-4.0-1.14","subject_id":"6078cfcf029bac8a284df18e","study_id":"6197b3f67c2b5cd3b6d9596a","session_id":"6197b889fb1ed88d7f60c1ff","condition":"contingent","relevant_dimensions":["antennae","wings"],"bee_group":{"antennae":"B","wings":"1","pattern":"X","legs":"X"},"bonus":1.7800000000000014},{"rt":7694.099999997765,"stimulus":"bees-with-color/bee-B1DF.svg","response":1,"trial_type":"image-button-response","trial_index":37,"time_elapsed":828291,"internal_node_id":"0.0-4.0-0.15","subject_id":"6078cfcf029bac8a284df18e","study_id":"6197b3f67c2b5cd3b6d9596a","session_id":"6197b889fb1ed88d7f60c1ff","condition":"contingent","relevant_dimensions":["antennae","wings"],"bee_group":{"antennae":"B","wings":"1","pattern":"X","legs":"X"},"action":"avoid","summary":"good-avoid","bonus":1.7800000000000014},{"rt":1774.0999999977648,"stimulus":"\n                    <p><b>Action: <em>avoid</em></b></p>\n                    <p>This is the bee that you just saw.</p>\n                    <img src=\"bees-with-color/bee-B1DF.svg\" width=\"200\">\n                    <p><br>Your bonus pay is unchanged, and remains at $0.58.</p>\n            ","response":0,"trial_type":"html-button-response","trial_index":38,"time_elapsed":830067,"internal_node_id":"0.0-4.0-1.15","subject_id":"6078cfcf029bac8a284df18e","study_id":"6197b3f67c2b5cd3b6d9596a","session_id":"6197b889fb1ed88d7f60c1ff","condition":"contingent","relevant_dimensions":["antennae","wings"],"bee_group":{"antennae":"B","wings":"1","pattern":"X","legs":"X"},"bonus":1.7800000000000014},{"rt":14086.199999999255,"stimulus":"bees-with-color/bee-B2SM.svg","response":0,"trial_type":"image-button-response","trial_index":39,"time_elapsed":844155,"internal_node_id":"0.0-4.0-0.16","subject_id":"6078cfcf029bac8a284df18e","study_id":"6197b3f67c2b5cd3b6d9596a","session_id":"6197b889fb1ed88d7f60c1ff","condition":"contingent","relevant_dimensions":["antennae","wings"],"bee_group":{"antennae":"B","wings":"1","pattern":"X","legs":"X"},"action":"harvest","summary":"good-harvest","bonus":1.7800000000000014},{"rt":3063.099999997765,"stimulus":"\n                    <p><b>Action: <em>harvest</em></b></p>\n                    <p>This is the bee that you just saw.</p>\n                    <img src=\"bees-with-color/bee-B2SM.svg\" width=\"200\">\n                    <p><span class=\"greenText\"><b>Successful harvest!</b></span><br>Your pay has increased by $0.02. Your bonus pay is now $0.60.</p>\n            ","response":0,"trial_type":"html-button-response","trial_index":40,"time_elapsed":847219,"internal_node_id":"0.0-4.0-1.16","subject_id":"6078cfcf029bac8a284df18e","study_id":"6197b3f67c2b5cd3b6d9596a","session_id":"6197b889fb1ed88d7f60c1ff","condition":"contingent","relevant_dimensions":["antennae","wings"],"bee_group":{"antennae":"B","wings":"1","pattern":"X","legs":"X"},"bonus":1.7800000000000014},{"rt":7759.10000000149,"stimulus":"bees-with-color/bee-B1DM.svg","response":1,"trial_type":"image-button-response","trial_index":41,"time_elapsed":854979,"internal_node_id":"0.0-4.0-0.17","subject_id":"6078cfcf029bac8a284df18e","study_id":"6197b3f67c2b5cd3b6d9596a","session_id":"6197b889fb1ed88d7f60c1ff","condition":"contingent","relevant_dimensions":["antennae","wings"],"bee_group":{"antennae":"B","wings":"1","pattern":"X","legs":"X"},"action":"avoid","summary":"good-avoid","bonus":1.7800000000000014},{"rt":16246.300000000745,"stimulus":"\n                    <p><b>Action: <em>avoid</em></b></p>\n                    <p>This is the bee that you just saw.</p>\n                    <img src=\"bees-with-color/bee-B1DM.svg\" width=\"200\">\n                    <p><br>Your bonus pay is unchanged, and remains at $0.60.</p>\n            ","response":0,"trial_type":"html-button-response","trial_index":42,"time_elapsed":871227,"internal_node_id":"0.0-4.0-1.17","subject_id":"6078cfcf029bac8a284df18e","study_id":"6197b3f67c2b5cd3b6d9596a","session_id":"6197b889fb1ed88d7f60c1ff","condition":"contingent","relevant_dimensions":["antennae","wings"],"bee_group":{"antennae":"B","wings":"1","pattern":"X","legs":"X"},"bonus":1.7800000000000014},{"rt":19166.400000002235,"stimulus":"bees-with-color/bee-A1SF.svg","response":0,"trial_type":"image-button-response","trial_index":43,"time_elapsed":890395,"internal_node_id":"0.0-4.0-0.18","subject_id":"6078cfcf029bac8a284df18e","study_id":"6197b3f67c2b5cd3b6d9596a","session_id":"6197b889fb1ed88d7f60c1ff","condition":"contingent","relevant_dimensions":["antennae","wings"],"bee_group":{"antennae":"B","wings":"1","pattern":"X","legs":"X"},"action":"harvest","summary":"good-harvest","bonus":1.7800000000000014},{"rt":1303.2000000029802,"stimulus":"\n                    <p><b>Action: <em>harvest</em></b></p>\n                    <p>This is the bee that you just saw.</p>\n                    <img src=\"bees-with-color/bee-A1SF.svg\" width=\"200\">\n                    <p><span class=\"greenText\"><b>Successful harvest!</b></span><br>Your pay has increased by $0.02. Your bonus pay is now $0.62.</p>\n            ","response":0,"trial_type":"html-button-response","trial_index":44,"time_elapsed":891699,"internal_node_id":"0.0-4.0-1.18","subject_id":"6078cfcf029bac8a284df18e","study_id":"6197b3f67c2b5cd3b6d9596a","session_id":"6197b889fb1ed88d7f60c1ff","condition":"contingent","relevant_dimensions":["antennae","wings"],"bee_group":{"antennae":"B","wings":"1","pattern":"X","legs":"X"},"bonus":1.7800000000000014},{"rt":3942.5,"stimulus":"bees-with-color/bee-A2DF.svg","response":0,"trial_type":"image-button-response","trial_index":45,"time_elapsed":895643,"internal_node_id":"0.0-4.0-0.19","subject_id":"6078cfcf029bac8a284df18e","study_id":"6197b3f67c2b5cd3b6d9596a","session_id":"6197b889fb1ed88d7f60c1ff","condition":"contingent","relevant_dimensions":["antennae","wings"],"bee_group":{"antennae":"B","wings":"1","pattern":"X","legs":"X"},"action":"harvest","summary":"good-harvest","bonus":1.7800000000000014},{"rt":927.0999999977648,"stimulus":"\n                    <p><b>Action: <em>harvest</em></b></p>\n                    <p>This is the bee that you just saw.</p>\n                    <img src=\"bees-with-color/bee-A2DF.svg\" width=\"200\">\n                    <p><span class=\"greenText\"><b>Successful harvest!</b></span><br>Your pay has increased by $0.02. Your bonus pay is now $0.64.</p>\n            ","response":0,"trial_type":"html-button-response","trial_index":46,"time_elapsed":896571,"internal_node_id":"0.0-4.0-1.19","subject_id":"6078cfcf029bac8a284df18e","study_id":"6197b3f67c2b5cd3b6d9596a","session_id":"6197b889fb1ed88d7f60c1ff","condition":"contingent","relevant_dimensions":["antennae","wings"],"bee_group":{"antennae":"B","wings":"1","pattern":"X","legs":"X"},"bonus":1.7800000000000014},{"rt":8646.5,"stimulus":"bees-with-color/bee-B2SF.svg","response":0,"trial_type":"image-button-response","trial_index":47,"time_elapsed":905219,"internal_node_id":"0.0-4.0-0.20","subject_id":"6078cfcf029bac8a284df18e","study_id":"6197b3f67c2b5cd3b6d9596a","session_id":"6197b889fb1ed88d7f60c1ff","condition":"contingent","relevant_dimensions":["antennae","wings"],"bee_group":{"antennae":"B","wings":"1","pattern":"X","legs":"X"},"action":"harvest","summary":"good-harvest","bonus":1.7800000000000014},{"rt":1591.300000000745,"stimulus":"\n                    <p><b>Action: <em>harvest</em></b></p>\n                    <p>This is the bee that you just saw.</p>\n                    <img src=\"bees-with-color/bee-B2SF.svg\" width=\"200\">\n                    <p><span class=\"greenText\"><b>Successful harvest!</b></span><br>Your pay has increased by $0.02. Your bonus pay is now $0.66.</p>\n            ","response":0,"trial_type":"html-button-response","trial_index":48,"time_elapsed":906811,"internal_node_id":"0.0-4.0-1.20","subject_id":"6078cfcf029bac8a284df18e","study_id":"6197b3f67c2b5cd3b6d9596a","session_id":"6197b889fb1ed88d7f60c1ff","condition":"contingent","relevant_dimensions":["antennae","wings"],"bee_group":{"antennae":"B","wings":"1","pattern":"X","legs":"X"},"bonus":1.7800000000000014},{"rt":4798.39999999851,"stimulus":"bees-with-color/bee-B1SM.svg","response":1,"trial_type":"image-button-response","trial_index":49,"time_elapsed":911611,"internal_node_id":"0.0-4.0-0.21","subject_id":"6078cfcf029bac8a284df18e","study_id":"6197b3f67c2b5cd3b6d9596a","session_id":"6197b889fb1ed88d7f60c1ff","condition":"contingent","relevant_dimensions":["antennae","wings"],"bee_group":{"antennae":"B","wings":"1","pattern":"X","legs":"X"},"action":"avoid","summary":"good-avoid","bonus":1.7800000000000014},{"rt":2158.5,"stimulus":"\n                    <p><b>Action: <em>avoid</em></b></p>\n                    <p>This is the bee that you just saw.</p>\n                    <img src=\"bees-with-color/bee-B1SM.svg\" width=\"200\">\n                    <p><br>Your bonus pay is unchanged, and remains at $0.66.</p>\n            ","response":0,"trial_type":"html-button-response","trial_index":50,"time_elapsed":913771,"internal_node_id":"0.0-4.0-1.21","subject_id":"6078cfcf029bac8a284df18e","study_id":"6197b3f67c2b5cd3b6d9596a","session_id":"6197b889fb1ed88d7f60c1ff","condition":"contingent","relevant_dimensions":["antennae","wings"],"bee_group":{"antennae":"B","wings":"1","pattern":"X","legs":"X"},"bonus":1.7800000000000014},{"rt":3318.39999999851,"stimulus":"bees-with-color/bee-B2DM.svg","response":0,"trial_type":"image-button-response","trial_index":51,"time_elapsed":917091,"internal_node_id":"0.0-4.0-0.22","subject_id":"6078cfcf029bac8a284df18e","study_id":"6197b3f67c2b5cd3b6d9596a","session_id":"6197b889fb1ed88d7f60c1ff","condition":"contingent","relevant_dimensions":["antennae","wings"],"bee_group":{"antennae":"B","wings":"1","pattern":"X","legs":"X"},"action":"harvest","summary":"good-harvest","bonus":1.7800000000000014},{"rt":1334.699999999255,"stimulus":"\n                    <p><b>Action: <em>harvest</em></b></p>\n                    <p>This is the bee that you just saw.</p>\n                    <img src=\"bees-with-color/bee-B2DM.svg\" width=\"200\">\n                    <p><span class=\"greenText\"><b>Successful harvest!</b></span><br>Your pay has increased by $0.02. Your bonus pay is now $0.68.</p>\n            ","response":0,"trial_type":"html-button-response","trial_index":52,"time_elapsed":918427,"internal_node_id":"0.0-4.0-1.22","subject_id":"6078cfcf029bac8a284df18e","study_id":"6197b3f67c2b5cd3b6d9596a","session_id":"6197b889fb1ed88d7f60c1ff","condition":"contingent","relevant_dimensions":["antennae","wings"],"bee_group":{"antennae":"B","wings":"1","pattern":"X","legs":"X"},"bonus":1.7800000000000014},{"rt":2366.300000000745,"stimulus":"bees-with-color/bee-A2DM.svg","response":0,"trial_type":"image-button-response","trial_index":53,"time_elapsed":920795,"internal_node_id":"0.0-4.0-0.23","subject_id":"6078cfcf029bac8a284df18e","study_id":"6197b3f67c2b5cd3b6d9596a","session_id":"6197b889fb1ed88d7f60c1ff","condition":"contingent","relevant_dimensions":["antennae","wings"],"bee_group":{"antennae":"B","wings":"1","pattern":"X","legs":"X"},"action":"harvest","summary":"good-harvest","bonus":1.7800000000000014},{"rt":1110.3999999985099,"stimulus":"\n                    <p><b>Action: <em>harvest</em></b></p>\n                    <p>This is the bee that you just saw.</p>\n                    <img src=\"bees-with-color/bee-A2DM.svg\" width=\"200\">\n                    <p><span class=\"greenText\"><b>Successful harvest!</b></span><br>Your pay has increased by $0.02. Your bonus pay is now $0.70.</p>\n            ","response":0,"trial_type":"html-button-response","trial_index":54,"time_elapsed":921907,"internal_node_id":"0.0-4.0-1.23","subject_id":"6078cfcf029bac8a284df18e","study_id":"6197b3f67c2b5cd3b6d9596a","session_id":"6197b889fb1ed88d7f60c1ff","condition":"contingent","relevant_dimensions":["antennae","wings"],"bee_group":{"antennae":"B","wings":"1","pattern":"X","legs":"X"},"bonus":1.7800000000000014},{"rt":2822.900000002235,"stimulus":"bees-with-color/bee-A1SM.svg","response":0,"trial_type":"image-button-response","trial_index":55,"time_elapsed":924732,"internal_node_id":"0.0-4.0-0.24","subject_id":"6078cfcf029bac8a284df18e","study_id":"6197b3f67c2b5cd3b6d9596a","session_id":"6197b889fb1ed88d7f60c1ff","condition":"contingent","relevant_dimensions":["antennae","wings"],"bee_group":{"antennae":"B","wings":"1","pattern":"X","legs":"X"},"action":"harvest","summary":"good-harvest","bonus":1.7800000000000014},{"rt":790,"stimulus":"\n                    <p><b>Action: <em>harvest</em></b></p>\n                    <p>This is the bee that you just saw.</p>\n                    <img src=\"bees-with-color/bee-A1SM.svg\" width=\"200\">\n                    <p><span class=\"greenText\"><b>Successful harvest!</b></span><br>Your pay has increased by $0.02. Your bonus pay is now $0.72.</p>\n            ","response":0,"trial_type":"html-button-response","trial_index":56,"time_elapsed":925523,"internal_node_id":"0.0-4.0-1.24","subject_id":"6078cfcf029bac8a284df18e","study_id":"6197b3f67c2b5cd3b6d9596a","session_id":"6197b889fb1ed88d7f60c1ff","condition":"contingent","relevant_dimensions":["antennae","wings"],"bee_group":{"antennae":"B","wings":"1","pattern":"X","legs":"X"},"bonus":1.7800000000000014},{"rt":2294.39999999851,"stimulus":"bees-with-color/bee-A1DM.svg","response":0,"trial_type":"image-button-response","trial_index":57,"time_elapsed":927819,"internal_node_id":"0.0-4.0-0.25","subject_id":"6078cfcf029bac8a284df18e","study_id":"6197b3f67c2b5cd3b6d9596a","session_id":"6197b889fb1ed88d7f60c1ff","condition":"contingent","relevant_dimensions":["antennae","wings"],"bee_group":{"antennae":"B","wings":"1","pattern":"X","legs":"X"},"action":"harvest","summary":"good-harvest","bonus":1.7800000000000014},{"rt":662.3000000007451,"stimulus":"\n                    <p><b>Action: <em>harvest</em></b></p>\n                    <p>This is the bee that you just saw.</p>\n                    <img src=\"bees-with-color/bee-A1DM.svg\" width=\"200\">\n                    <p><span class=\"greenText\"><b>Successful harvest!</b></span><br>Your pay has increased by $0.02. Your bonus pay is now $0.74.</p>\n            ","response":0,"trial_type":"html-button-response","trial_index":58,"time_elapsed":928483,"internal_node_id":"0.0-4.0-1.25","subject_id":"6078cfcf029bac8a284df18e","study_id":"6197b3f67c2b5cd3b6d9596a","session_id":"6197b889fb1ed88d7f60c1ff","condition":"contingent","relevant_dimensions":["antennae","wings"],"bee_group":{"antennae":"B","wings":"1","pattern":"X","legs":"X"},"bonus":1.7800000000000014},{"rt":3254.300000000745,"stimulus":"bees-with-color/bee-A2SM.svg","response":0,"trial_type":"image-button-response","trial_index":59,"time_elapsed":931739,"internal_node_id":"0.0-4.0-0.26","subject_id":"6078cfcf029bac8a284df18e","study_id":"6197b3f67c2b5cd3b6d9596a","session_id":"6197b889fb1ed88d7f60c1ff","condition":"contingent","relevant_dimensions":["antennae","wings"],"bee_group":{"antennae":"B","wings":"1","pattern":"X","legs":"X"},"action":"harvest","summary":"good-harvest","bonus":1.7800000000000014},{"rt":1431.0999999977648,"stimulus":"\n                    <p><b>Action: <em>harvest</em></b></p>\n                    <p>This is the bee that you just saw.</p>\n                    <img src=\"bees-with-color/bee-A2SM.svg\" width=\"200\">\n                    <p><span class=\"greenText\"><b>Successful harvest!</b></span><br>Your pay has increased by $0.02. Your bonus pay is now $0.76.</p>\n            ","response":0,"trial_type":"html-button-response","trial_index":60,"time_elapsed":933171,"internal_node_id":"0.0-4.0-1.26","subject_id":"6078cfcf029bac8a284df18e","study_id":"6197b3f67c2b5cd3b6d9596a","session_id":"6197b889fb1ed88d7f60c1ff","condition":"contingent","relevant_dimensions":["antennae","wings"],"bee_group":{"antennae":"B","wings":"1","pattern":"X","legs":"X"},"bonus":1.7800000000000014},{"rt":3198.699999999255,"stimulus":"bees-with-color/bee-B1DF.svg","response":1,"trial_type":"image-button-response","trial_index":61,"time_elapsed":936371,"internal_node_id":"0.0-4.0-0.27","subject_id":"6078cfcf029bac8a284df18e","study_id":"6197b3f67c2b5cd3b6d9596a","session_id":"6197b889fb1ed88d7f60c1ff","condition":"contingent","relevant_dimensions":["antennae","wings"],"bee_group":{"antennae":"B","wings":"1","pattern":"X","legs":"X"},"action":"avoid","summary":"good-avoid","bonus":1.7800000000000014},{"rt":3559,"stimulus":"\n                    <p><b>Action: <em>avoid</em></b></p>\n                    <p>This is the bee that you just saw.</p>\n                    <img src=\"bees-with-color/bee-B1DF.svg\" width=\"200\">\n                    <p><br>Your bonus pay is unchanged, and remains at $0.76.</p>\n            ","response":0,"trial_type":"html-button-response","trial_index":62,"time_elapsed":939931,"internal_node_id":"0.0-4.0-1.27","subject_id":"6078cfcf029bac8a284df18e","study_id":"6197b3f67c2b5cd3b6d9596a","session_id":"6197b889fb1ed88d7f60c1ff","condition":"contingent","relevant_dimensions":["antennae","wings"],"bee_group":{"antennae":"B","wings":"1","pattern":"X","legs":"X"},"bonus":1.7800000000000014},{"rt":3310.800000000745,"stimulus":"bees-with-color/bee-A1DF.svg","response":0,"trial_type":"image-button-response","trial_index":63,"time_elapsed":943243,"internal_node_id":"0.0-4.0-0.28","subject_id":"6078cfcf029bac8a284df18e","study_id":"6197b3f67c2b5cd3b6d9596a","session_id":"6197b889fb1ed88d7f60c1ff","condition":"contingent","relevant_dimensions":["antennae","wings"],"bee_group":{"antennae":"B","wings":"1","pattern":"X","legs":"X"},"action":"harvest","summary":"good-harvest","bonus":1.7800000000000014},{"rt":975,"stimulus":"\n                    <p><b>Action: <em>harvest</em></b></p>\n                    <p>This is the bee that you just saw.</p>\n                    <img src=\"bees-with-color/bee-A1DF.svg\" width=\"200\">\n                    <p><span class=\"greenText\"><b>Successful harvest!</b></span><br>Your pay has increased by $0.02. Your bonus pay is now $0.78.</p>\n            ","response":0,"trial_type":"html-button-response","trial_index":64,"time_elapsed":944219,"internal_node_id":"0.0-4.0-1.28","subject_id":"6078cfcf029bac8a284df18e","study_id":"6197b3f67c2b5cd3b6d9596a","session_id":"6197b889fb1ed88d7f60c1ff","condition":"contingent","relevant_dimensions":["antennae","wings"],"bee_group":{"antennae":"B","wings":"1","pattern":"X","legs":"X"},"bonus":1.7800000000000014},{"rt":37142.800000000745,"stimulus":"bees-with-color/bee-B1SF.svg","response":1,"trial_type":"image-button-response","trial_index":65,"time_elapsed":981363,"internal_node_id":"0.0-4.0-0.29","subject_id":"6078cfcf029bac8a284df18e","study_id":"6197b3f67c2b5cd3b6d9596a","session_id":"6197b889fb1ed88d7f60c1ff","condition":"contingent","relevant_dimensions":["antennae","wings"],"bee_group":{"antennae":"B","wings":"1","pattern":"X","legs":"X"},"action":"avoid","summary":"good-avoid","bonus":1.7800000000000014},{"rt":2302,"stimulus":"\n                    <p><b>Action: <em>avoid</em></b></p>\n                    <p>This is the bee that you just saw.</p>\n                    <img src=\"bees-with-color/bee-B1SF.svg\" width=\"200\">\n                    <p><br>Your bonus pay is unchanged, and remains at $0.78.</p>\n            ","response":0,"trial_type":"html-button-response","trial_index":66,"time_elapsed":983667,"internal_node_id":"0.0-4.0-1.29","subject_id":"6078cfcf029bac8a284df18e","study_id":"6197b3f67c2b5cd3b6d9596a","session_id":"6197b889fb1ed88d7f60c1ff","condition":"contingent","relevant_dimensions":["antennae","wings"],"bee_group":{"antennae":"B","wings":"1","pattern":"X","legs":"X"},"bonus":1.7800000000000014},{"rt":3446.10000000149,"stimulus":"bees-with-color/bee-B2DF.svg","response":0,"trial_type":"image-button-response","trial_index":67,"time_elapsed":987115,"internal_node_id":"0.0-4.0-0.30","subject_id":"6078cfcf029bac8a284df18e","study_id":"6197b3f67c2b5cd3b6d9596a","session_id":"6197b889fb1ed88d7f60c1ff","condition":"contingent","relevant_dimensions":["antennae","wings"],"bee_group":{"antennae":"B","wings":"1","pattern":"X","legs":"X"},"action":"harvest","summary":"good-harvest","bonus":1.7800000000000014},{"rt":1006.1000000014901,"stimulus":"\n                    <p><b>Action: <em>harvest</em></b></p>\n                    <p>This is the bee that you just saw.</p>\n                    <img src=\"bees-with-color/bee-B2DF.svg\" width=\"200\">\n                    <p><span class=\"greenText\"><b>Successful harvest!</b></span><br>Your pay has increased by $0.02. Your bonus pay is now $0.80.</p>\n            ","response":0,"trial_type":"html-button-response","trial_index":68,"time_elapsed":988123,"internal_node_id":"0.0-4.0-1.30","subject_id":"6078cfcf029bac8a284df18e","study_id":"6197b3f67c2b5cd3b6d9596a","session_id":"6197b889fb1ed88d7f60c1ff","condition":"contingent","relevant_dimensions":["antennae","wings"],"bee_group":{"antennae":"B","wings":"1","pattern":"X","legs":"X"},"bonus":1.7800000000000014},{"rt":1494.800000000745,"stimulus":"bees-with-color/bee-A2SF.svg","response":0,"trial_type":"image-button-response","trial_index":69,"time_elapsed":989619,"internal_node_id":"0.0-4.0-0.31","subject_id":"6078cfcf029bac8a284df18e","study_id":"6197b3f67c2b5cd3b6d9596a","session_id":"6197b889fb1ed88d7f60c1ff","condition":"contingent","relevant_dimensions":["antennae","wings"],"bee_group":{"antennae":"B","wings":"1","pattern":"X","legs":"X"},"action":"harvest","summary":"good-harvest","bonus":1.7800000000000014},{"rt":767.3000000007451,"stimulus":"\n                    <p><b>Action: <em>harvest</em></b></p>\n                    <p>This is the bee that you just saw.</p>\n                    <img src=\"bees-with-color/bee-A2SF.svg\" width=\"200\">\n                    <p><span class=\"greenText\"><b>Successful harvest!</b></span><br>Your pay has increased by $0.02. Your bonus pay is now $0.82.</p>\n            ","response":0,"trial_type":"html-button-response","trial_index":70,"time_elapsed":990387,"internal_node_id":"0.0-4.0-1.31","subject_id":"6078cfcf029bac8a284df18e","study_id":"6197b3f67c2b5cd3b6d9596a","session_id":"6197b889fb1ed88d7f60c1ff","condition":"contingent","relevant_dimensions":["antennae","wings"],"bee_group":{"antennae":"B","wings":"1","pattern":"X","legs":"X"},"bonus":1.7800000000000014},{"rt":902.8000000007451,"stimulus":"bees-with-color/bee-A1SF.svg","response":0,"trial_type":"image-button-response","trial_index":71,"time_elapsed":991291,"internal_node_id":"0.0-4.0-0.32","subject_id":"6078cfcf029bac8a284df18e","study_id":"6197b3f67c2b5cd3b6d9596a","session_id":"6197b889fb1ed88d7f60c1ff","condition":"contingent","relevant_dimensions":["antennae","wings"],"bee_group":{"antennae":"B","wings":"1","pattern":"X","legs":"X"},"action":"harvest","summary":"good-harvest","bonus":1.7800000000000014},{"rt":591.1999999992549,"stimulus":"\n                    <p><b>Action: <em>harvest</em></b></p>\n                    <p>This is the bee that you just saw.</p>\n                    <img src=\"bees-with-color/bee-A1SF.svg\" width=\"200\">\n                    <p><span class=\"greenText\"><b>Successful harvest!</b></span><br>Your pay has increased by $0.02. Your bonus pay is now $0.84.</p>\n            ","response":0,"trial_type":"html-button-response","trial_index":72,"time_elapsed":991883,"internal_node_id":"0.0-4.0-1.32","subject_id":"6078cfcf029bac8a284df18e","study_id":"6197b3f67c2b5cd3b6d9596a","session_id":"6197b889fb1ed88d7f60c1ff","condition":"contingent","relevant_dimensions":["antennae","wings"],"bee_group":{"antennae":"B","wings":"1","pattern":"X","legs":"X"},"bonus":1.7800000000000014},{"rt":1383,"stimulus":"bees-with-color/bee-A1SM.svg","response":0,"trial_type":"image-button-response","trial_index":73,"time_elapsed":993267,"internal_node_id":"0.0-4.0-0.33","subject_id":"6078cfcf029bac8a284df18e","study_id":"6197b3f67c2b5cd3b6d9596a","session_id":"6197b889fb1ed88d7f60c1ff","condition":"contingent","relevant_dimensions":["antennae","wings"],"bee_group":{"antennae":"B","wings":"1","pattern":"X","legs":"X"},"action":"harvest","summary":"good-harvest","bonus":1.7800000000000014},{"rt":831,"stimulus":"\n                    <p><b>Action: <em>harvest</em></b></p>\n                    <p>This is the bee that you just saw.</p>\n                    <img src=\"bees-with-color/bee-A1SM.svg\" width=\"200\">\n                    <p><span class=\"greenText\"><b>Successful harvest!</b></span><br>Your pay has increased by $0.02. Your bonus pay is now $0.86.</p>\n            ","response":0,"trial_type":"html-button-response","trial_index":74,"time_elapsed":994099,"internal_node_id":"0.0-4.0-1.33","subject_id":"6078cfcf029bac8a284df18e","study_id":"6197b3f67c2b5cd3b6d9596a","session_id":"6197b889fb1ed88d7f60c1ff","condition":"contingent","relevant_dimensions":["antennae","wings"],"bee_group":{"antennae":"B","wings":"1","pattern":"X","legs":"X"},"bonus":1.7800000000000014},{"rt":3007.10000000149,"stimulus":"bees-with-color/bee-B2DM.svg","response":0,"trial_type":"image-button-response","trial_index":75,"time_elapsed":997107,"internal_node_id":"0.0-4.0-0.34","subject_id":"6078cfcf029bac8a284df18e","study_id":"6197b3f67c2b5cd3b6d9596a","session_id":"6197b889fb1ed88d7f60c1ff","condition":"contingent","relevant_dimensions":["antennae","wings"],"bee_group":{"antennae":"B","wings":"1","pattern":"X","legs":"X"},"action":"harvest","summary":"good-harvest","bonus":1.7800000000000014},{"rt":990.8000000007451,"stimulus":"\n                    <p><b>Action: <em>harvest</em></b></p>\n                    <p>This is the bee that you just saw.</p>\n                    <img src=\"bees-with-color/bee-B2DM.svg\" width=\"200\">\n                    <p><span class=\"greenText\"><b>Successful harvest!</b></span><br>Your pay has increased by $0.02. Your bonus pay is now $0.88.</p>\n            ","response":0,"trial_type":"html-button-response","trial_index":76,"time_elapsed":998099,"internal_node_id":"0.0-4.0-1.34","subject_id":"6078cfcf029bac8a284df18e","study_id":"6197b3f67c2b5cd3b6d9596a","session_id":"6197b889fb1ed88d7f60c1ff","condition":"contingent","relevant_dimensions":["antennae","wings"],"bee_group":{"antennae":"B","wings":"1","pattern":"X","legs":"X"},"bonus":1.7800000000000014},{"rt":1230.800000000745,"stimulus":"bees-with-color/bee-A2DM.svg","response":0,"trial_type":"image-button-response","trial_index":77,"time_elapsed":999331,"internal_node_id":"0.0-4.0-0.35","subject_id":"6078cfcf029bac8a284df18e","study_id":"6197b3f67c2b5cd3b6d9596a","session_id":"6197b889fb1ed88d7f60c1ff","condition":"contingent","relevant_dimensions":["antennae","wings"],"bee_group":{"antennae":"B","wings":"1","pattern":"X","legs":"X"},"action":"harvest","summary":"good-harvest","bonus":1.7800000000000014},{"rt":726.8999999985099,"stimulus":"\n                    <p><b>Action: <em>harvest</em></b></p>\n                    <p>This is the bee that you just saw.</p>\n                    <img src=\"bees-with-color/bee-A2DM.svg\" width=\"200\">\n                    <p><span class=\"greenText\"><b>Successful harvest!</b></span><br>Your pay has increased by $0.02. Your bonus pay is now $0.90.</p>\n            ","response":0,"trial_type":"html-button-response","trial_index":78,"time_elapsed":1000059,"internal_node_id":"0.0-4.0-1.35","subject_id":"6078cfcf029bac8a284df18e","study_id":"6197b3f67c2b5cd3b6d9596a","session_id":"6197b889fb1ed88d7f60c1ff","condition":"contingent","relevant_dimensions":["antennae","wings"],"bee_group":{"antennae":"B","wings":"1","pattern":"X","legs":"X"},"bonus":1.7800000000000014},{"rt":934.8000000007451,"stimulus":"bees-with-color/bee-A2SM.svg","response":0,"trial_type":"image-button-response","trial_index":79,"time_elapsed":1000995,"internal_node_id":"0.0-4.0-0.36","subject_id":"6078cfcf029bac8a284df18e","study_id":"6197b3f67c2b5cd3b6d9596a","session_id":"6197b889fb1ed88d7f60c1ff","condition":"contingent","relevant_dimensions":["antennae","wings"],"bee_group":{"antennae":"B","wings":"1","pattern":"X","legs":"X"},"action":"harvest","summary":"good-harvest","bonus":1.7800000000000014},{"rt":670.6999999992549,"stimulus":"\n                    <p><b>Action: <em>harvest</em></b></p>\n                    <p>This is the bee that you just saw.</p>\n                    <img src=\"bees-with-color/bee-A2SM.svg\" width=\"200\">\n                    <p><span class=\"greenText\"><b>Successful harvest!</b></span><br>Your pay has increased by $0.02. Your bonus pay is now $0.92.</p>\n            ","response":0,"trial_type":"html-button-response","trial_index":80,"time_elapsed":1001667,"internal_node_id":"0.0-4.0-1.36","subject_id":"6078cfcf029bac8a284df18e","study_id":"6197b3f67c2b5cd3b6d9596a","session_id":"6197b889fb1ed88d7f60c1ff","condition":"contingent","relevant_dimensions":["antennae","wings"],"bee_group":{"antennae":"B","wings":"1","pattern":"X","legs":"X"},"bonus":1.7800000000000014},{"rt":2575,"stimulus":"bees-with-color/bee-B1DF.svg","response":1,"trial_type":"image-button-response","trial_index":81,"time_elapsed":1004243,"internal_node_id":"0.0-4.0-0.37","subject_id":"6078cfcf029bac8a284df18e","study_id":"6197b3f67c2b5cd3b6d9596a","session_id":"6197b889fb1ed88d7f60c1ff","condition":"contingent","relevant_dimensions":["antennae","wings"],"bee_group":{"antennae":"B","wings":"1","pattern":"X","legs":"X"},"action":"avoid","summary":"good-avoid","bonus":1.7800000000000014},{"rt":838.7999999970198,"stimulus":"\n                    <p><b>Action: <em>avoid</em></b></p>\n                    <p>This is the bee that you just saw.</p>\n                    <img src=\"bees-with-color/bee-B1DF.svg\" width=\"200\">\n                    <p><br>Your bonus pay is unchanged, and remains at $0.92.</p>\n            ","response":0,"trial_type":"html-button-response","trial_index":82,"time_elapsed":1005083,"internal_node_id":"0.0-4.0-1.37","subject_id":"6078cfcf029bac8a284df18e","study_id":"6197b3f67c2b5cd3b6d9596a","session_id":"6197b889fb1ed88d7f60c1ff","condition":"contingent","relevant_dimensions":["antennae","wings"],"bee_group":{"antennae":"B","wings":"1","pattern":"X","legs":"X"},"bonus":1.7800000000000014},{"rt":3342.60000000149,"stimulus":"bees-with-color/bee-B1DM.svg","response":1,"trial_type":"image-button-response","trial_index":83,"time_elapsed":1008427,"internal_node_id":"0.0-4.0-0.38","subject_id":"6078cfcf029bac8a284df18e","study_id":"6197b3f67c2b5cd3b6d9596a","session_id":"6197b889fb1ed88d7f60c1ff","condition":"contingent","relevant_dimensions":["antennae","wings"],"bee_group":{"antennae":"B","wings":"1","pattern":"X","legs":"X"},"action":"avoid","summary":"good-avoid","bonus":1.7800000000000014},{"rt":806.7999999970198,"stimulus":"\n                    <p><b>Action: <em>avoid</em></b></p>\n                    <p>This is the bee that you just saw.</p>\n                    <img src=\"bees-with-color/bee-B1DM.svg\" width=\"200\">\n                    <p><br>Your bonus pay is unchanged, and remains at $0.92.</p>\n            ","response":0,"trial_type":"html-button-response","trial_index":84,"time_elapsed":1009235,"internal_node_id":"0.0-4.0-1.38","subject_id":"6078cfcf029bac8a284df18e","study_id":"6197b3f67c2b5cd3b6d9596a","session_id":"6197b889fb1ed88d7f60c1ff","condition":"contingent","relevant_dimensions":["antennae","wings"],"bee_group":{"antennae":"B","wings":"1","pattern":"X","legs":"X"},"bonus":1.7800000000000014},{"rt":2870.5,"stimulus":"bees-with-color/bee-A1DF.svg","response":0,"trial_type":"image-button-response","trial_index":85,"time_elapsed":1012107,"internal_node_id":"0.0-4.0-0.39","subject_id":"6078cfcf029bac8a284df18e","study_id":"6197b3f67c2b5cd3b6d9596a","session_id":"6197b889fb1ed88d7f60c1ff","condition":"contingent","relevant_dimensions":["antennae","wings"],"bee_group":{"antennae":"B","wings":"1","pattern":"X","legs":"X"},"action":"harvest","summary":"good-harvest","bonus":1.7800000000000014},{"rt":918.6999999992549,"stimulus":"\n                    <p><b>Action: <em>harvest</em></b></p>\n                    <p>This is the bee that you just saw.</p>\n                    <img src=\"bees-with-color/bee-A1DF.svg\" width=\"200\">\n                    <p><span class=\"greenText\"><b>Successful harvest!</b></span><br>Your pay has increased by $0.02. Your bonus pay is now $0.94.</p>\n            ","response":0,"trial_type":"html-button-response","trial_index":86,"time_elapsed":1013027,"internal_node_id":"0.0-4.0-1.39","subject_id":"6078cfcf029bac8a284df18e","study_id":"6197b3f67c2b5cd3b6d9596a","session_id":"6197b889fb1ed88d7f60c1ff","condition":"contingent","relevant_dimensions":["antennae","wings"],"bee_group":{"antennae":"B","wings":"1","pattern":"X","legs":"X"},"bonus":1.7800000000000014},{"rt":814.6000000014901,"stimulus":"bees-with-color/bee-A2DF.svg","response":0,"trial_type":"image-button-response","trial_index":87,"time_elapsed":1013843,"internal_node_id":"0.0-4.0-0.40","subject_id":"6078cfcf029bac8a284df18e","study_id":"6197b3f67c2b5cd3b6d9596a","session_id":"6197b889fb1ed88d7f60c1ff","condition":"contingent","relevant_dimensions":["antennae","wings"],"bee_group":{"antennae":"B","wings":"1","pattern":"X","legs":"X"},"action":"harvest","summary":"good-harvest","bonus":1.7800000000000014},{"rt":774.5,"stimulus":"\n                    <p><b>Action: <em>harvest</em></b></p>\n                    <p>This is the bee that you just saw.</p>\n                    <img src=\"bees-with-color/bee-A2DF.svg\" width=\"200\">\n                    <p><span class=\"greenText\"><b>Successful harvest!</b></span><br>Your pay has increased by $0.02. Your bonus pay is now $0.96.</p>\n            ","response":0,"trial_type":"html-button-response","trial_index":88,"time_elapsed":1014619,"internal_node_id":"0.0-4.0-1.40","subject_id":"6078cfcf029bac8a284df18e","study_id":"6197b3f67c2b5cd3b6d9596a","session_id":"6197b889fb1ed88d7f60c1ff","condition":"contingent","relevant_dimensions":["antennae","wings"],"bee_group":{"antennae":"B","wings":"1","pattern":"X","legs":"X"},"bonus":1.7800000000000014},{"rt":758.6999999992549,"stimulus":"bees-with-color/bee-A1DM.svg","response":0,"trial_type":"image-button-response","trial_index":89,"time_elapsed":1015379,"internal_node_id":"0.0-4.0-0.41","subject_id":"6078cfcf029bac8a284df18e","study_id":"6197b3f67c2b5cd3b6d9596a","session_id":"6197b889fb1ed88d7f60c1ff","condition":"contingent","relevant_dimensions":["antennae","wings"],"bee_group":{"antennae":"B","wings":"1","pattern":"X","legs":"X"},"action":"harvest","summary":"good-harvest","bonus":1.7800000000000014},{"rt":862.6999999992549,"stimulus":"\n                    <p><b>Action: <em>harvest</em></b></p>\n                    <p>This is the bee that you just saw.</p>\n                    <img src=\"bees-with-color/bee-A1DM.svg\" width=\"200\">\n                    <p><span class=\"greenText\"><b>Successful harvest!</b></span><br>Your pay has increased by $0.02. Your bonus pay is now $0.98.</p>\n            ","response":0,"trial_type":"html-button-response","trial_index":90,"time_elapsed":1016243,"internal_node_id":"0.0-4.0-1.41","subject_id":"6078cfcf029bac8a284df18e","study_id":"6197b3f67c2b5cd3b6d9596a","session_id":"6197b889fb1ed88d7f60c1ff","condition":"contingent","relevant_dimensions":["antennae","wings"],"bee_group":{"antennae":"B","wings":"1","pattern":"X","legs":"X"},"bonus":1.7800000000000014},{"rt":2174.7999999970198,"stimulus":"bees-with-color/bee-B1SF.svg","response":1,"trial_type":"image-button-response","trial_index":91,"time_elapsed":1018419,"internal_node_id":"0.0-4.0-0.42","subject_id":"6078cfcf029bac8a284df18e","study_id":"6197b3f67c2b5cd3b6d9596a","session_id":"6197b889fb1ed88d7f60c1ff","condition":"contingent","relevant_dimensions":["antennae","wings"],"bee_group":{"antennae":"B","wings":"1","pattern":"X","legs":"X"},"action":"avoid","summary":"good-avoid","bonus":1.7800000000000014},{"rt":2750.5,"stimulus":"\n                    <p><b>Action: <em>avoid</em></b></p>\n                    <p>This is the bee that you just saw.</p>\n                    <img src=\"bees-with-color/bee-B1SF.svg\" width=\"200\">\n                    <p><br>Your bonus pay is unchanged, and remains at $0.98.</p>\n            ","response":0,"trial_type":"html-button-response","trial_index":92,"time_elapsed":1021171,"internal_node_id":"0.0-4.0-1.42","subject_id":"6078cfcf029bac8a284df18e","study_id":"6197b3f67c2b5cd3b6d9596a","session_id":"6197b889fb1ed88d7f60c1ff","condition":"contingent","relevant_dimensions":["antennae","wings"],"bee_group":{"antennae":"B","wings":"1","pattern":"X","legs":"X"},"bonus":1.7800000000000014},{"rt":3134.5,"stimulus":"bees-with-color/bee-B2DF.svg","response":0,"trial_type":"image-button-response","trial_index":93,"time_elapsed":1024307,"internal_node_id":"0.0-4.0-0.43","subject_id":"6078cfcf029bac8a284df18e","study_id":"6197b3f67c2b5cd3b6d9596a","session_id":"6197b889fb1ed88d7f60c1ff","condition":"contingent","relevant_dimensions":["antennae","wings"],"bee_group":{"antennae":"B","wings":"1","pattern":"X","legs":"X"},"action":"harvest","summary":"good-harvest","bonus":1.7800000000000014},{"rt":807.1999999992549,"stimulus":"\n                    <p><b>Action: <em>harvest</em></b></p>\n                    <p>This is the bee that you just saw.</p>\n                    <img src=\"bees-with-color/bee-B2DF.svg\" width=\"200\">\n                    <p><span class=\"greenText\"><b>Successful harvest!</b></span><br>Your pay has increased by $0.02. Your bonus pay is now $1.00.</p>\n            ","response":0,"trial_type":"html-button-response","trial_index":94,"time_elapsed":1025115,"internal_node_id":"0.0-4.0-1.43","subject_id":"6078cfcf029bac8a284df18e","study_id":"6197b3f67c2b5cd3b6d9596a","session_id":"6197b889fb1ed88d7f60c1ff","condition":"contingent","relevant_dimensions":["antennae","wings"],"bee_group":{"antennae":"B","wings":"1","pattern":"X","legs":"X"},"bonus":1.7800000000000014},{"rt":3270.900000002235,"stimulus":"bees-with-color/bee-B1SM.svg","response":1,"trial_type":"image-button-response","trial_index":95,"time_elapsed":1028387,"internal_node_id":"0.0-4.0-0.44","subject_id":"6078cfcf029bac8a284df18e","study_id":"6197b3f67c2b5cd3b6d9596a","session_id":"6197b889fb1ed88d7f60c1ff","condition":"contingent","relevant_dimensions":["antennae","wings"],"bee_group":{"antennae":"B","wings":"1","pattern":"X","legs":"X"},"action":"avoid","summary":"good-avoid","bonus":1.7800000000000014},{"rt":2022.8999999985099,"stimulus":"\n                    <p><b>Action: <em>avoid</em></b></p>\n                    <p>This is the bee that you just saw.</p>\n                    <img src=\"bees-with-color/bee-B1SM.svg\" width=\"200\">\n                    <p><br>Your bonus pay is unchanged, and remains at $1.00.</p>\n            ","response":0,"trial_type":"html-button-response","trial_index":96,"time_elapsed":1030411,"internal_node_id":"0.0-4.0-1.44","subject_id":"6078cfcf029bac8a284df18e","study_id":"6197b3f67c2b5cd3b6d9596a","session_id":"6197b889fb1ed88d7f60c1ff","condition":"contingent","relevant_dimensions":["antennae","wings"],"bee_group":{"antennae":"B","wings":"1","pattern":"X","legs":"X"},"bonus":1.7800000000000014},{"rt":4822.599999997765,"stimulus":"bees-with-color/bee-B2SM.svg","response":0,"trial_type":"image-button-response","trial_index":97,"time_elapsed":1035235,"internal_node_id":"0.0-4.0-0.45","subject_id":"6078cfcf029bac8a284df18e","study_id":"6197b3f67c2b5cd3b6d9596a","session_id":"6197b889fb1ed88d7f60c1ff","condition":"contingent","relevant_dimensions":["antennae","wings"],"bee_group":{"antennae":"B","wings":"1","pattern":"X","legs":"X"},"action":"harvest","summary":"good-harvest","bonus":1.7800000000000014},{"rt":902.9000000022352,"stimulus":"\n                    <p><b>Action: <em>harvest</em></b></p>\n                    <p>This is the bee that you just saw.</p>\n                    <img src=\"bees-with-color/bee-B2SM.svg\" width=\"200\">\n                    <p><span class=\"greenText\"><b>Successful harvest!</b></span><br>Your pay has increased by $0.02. Your bonus pay is now $1.02.</p>\n            ","response":0,"trial_type":"html-button-response","trial_index":98,"time_elapsed":1036139,"internal_node_id":"0.0-4.0-1.45","subject_id":"6078cfcf029bac8a284df18e","study_id":"6197b3f67c2b5cd3b6d9596a","session_id":"6197b889fb1ed88d7f60c1ff","condition":"contingent","relevant_dimensions":["antennae","wings"],"bee_group":{"antennae":"B","wings":"1","pattern":"X","legs":"X"},"bonus":1.7800000000000014},{"rt":1598.699999999255,"stimulus":"bees-with-color/bee-B2SF.svg","response":0,"trial_type":"image-button-response","trial_index":99,"time_elapsed":1037739,"internal_node_id":"0.0-4.0-0.46","subject_id":"6078cfcf029bac8a284df18e","study_id":"6197b3f67c2b5cd3b6d9596a","session_id":"6197b889fb1ed88d7f60c1ff","condition":"contingent","relevant_dimensions":["antennae","wings"],"bee_group":{"antennae":"B","wings":"1","pattern":"X","legs":"X"},"action":"harvest","summary":"good-harvest","bonus":1.7800000000000014},{"rt":718.8000000007451,"stimulus":"\n                    <p><b>Action: <em>harvest</em></b></p>\n                    <p>This is the bee that you just saw.</p>\n                    <img src=\"bees-with-color/bee-B2SF.svg\" width=\"200\">\n                    <p><span class=\"greenText\"><b>Successful harvest!</b></span><br>Your pay has increased by $0.02. Your bonus pay is now $1.04.</p>\n            ","response":0,"trial_type":"html-button-response","trial_index":100,"time_elapsed":1038459,"internal_node_id":"0.0-4.0-1.46","subject_id":"6078cfcf029bac8a284df18e","study_id":"6197b3f67c2b5cd3b6d9596a","session_id":"6197b889fb1ed88d7f60c1ff","condition":"contingent","relevant_dimensions":["antennae","wings"],"bee_group":{"antennae":"B","wings":"1","pattern":"X","legs":"X"},"bonus":1.7800000000000014},{"rt":1206.9000000022352,"stimulus":"bees-with-color/bee-A2SF.svg","response":0,"trial_type":"image-button-response","trial_index":101,"time_elapsed":1039667,"internal_node_id":"0.0-4.0-0.47","subject_id":"6078cfcf029bac8a284df18e","study_id":"6197b3f67c2b5cd3b6d9596a","session_id":"6197b889fb1ed88d7f60c1ff","condition":"contingent","relevant_dimensions":["antennae","wings"],"bee_group":{"antennae":"B","wings":"1","pattern":"X","legs":"X"},"action":"harvest","summary":"good-harvest","bonus":1.7800000000000014},{"rt":1166.800000000745,"stimulus":"\n                    <p><b>Action: <em>harvest</em></b></p>\n                    <p>This is the bee that you just saw.</p>\n                    <img src=\"bees-with-color/bee-A2SF.svg\" width=\"200\">\n                    <p><span class=\"greenText\"><b>Successful harvest!</b></span><br>Your pay has increased by $0.02. Your bonus pay is now $1.06.</p>\n            ","response":0,"trial_type":"html-button-response","trial_index":102,"time_elapsed":1040836,"internal_node_id":"0.0-4.0-1.47","subject_id":"6078cfcf029bac8a284df18e","study_id":"6197b3f67c2b5cd3b6d9596a","session_id":"6197b889fb1ed88d7f60c1ff","condition":"contingent","relevant_dimensions":["antennae","wings"],"bee_group":{"antennae":"B","wings":"1","pattern":"X","legs":"X"},"bonus":1.7800000000000014},{"rt":2350.699999999255,"stimulus":"bees-with-color/bee-B1SF.svg","response":1,"trial_type":"image-button-response","trial_index":103,"time_elapsed":1043187,"internal_node_id":"0.0-4.0-0.48","subject_id":"6078cfcf029bac8a284df18e","study_id":"6197b3f67c2b5cd3b6d9596a","session_id":"6197b889fb1ed88d7f60c1ff","condition":"contingent","relevant_dimensions":["antennae","wings"],"bee_group":{"antennae":"B","wings":"1","pattern":"X","legs":"X"},"action":"avoid","summary":"good-avoid","bonus":1.7800000000000014},{"rt":2862.699999999255,"stimulus":"\n                    <p><b>Action: <em>avoid</em></b></p>\n                    <p>This is the bee that you just saw.</p>\n                    <img src=\"bees-with-color/bee-B1SF.svg\" width=\"200\">\n                    <p><br>Your bonus pay is unchanged, and remains at $1.06.</p>\n            ","response":0,"trial_type":"html-button-response","trial_index":104,"time_elapsed":1046051,"internal_node_id":"0.0-4.0-1.48","subject_id":"6078cfcf029bac8a284df18e","study_id":"6197b3f67c2b5cd3b6d9596a","session_id":"6197b889fb1ed88d7f60c1ff","condition":"contingent","relevant_dimensions":["antennae","wings"],"bee_group":{"antennae":"B","wings":"1","pattern":"X","legs":"X"},"bonus":1.7800000000000014},{"rt":1790.3999999985099,"stimulus":"bees-with-color/bee-A1SF.svg","response":0,"trial_type":"image-button-response","trial_index":105,"time_elapsed":1047843,"internal_node_id":"0.0-4.0-0.49","subject_id":"6078cfcf029bac8a284df18e","study_id":"6197b3f67c2b5cd3b6d9596a","session_id":"6197b889fb1ed88d7f60c1ff","condition":"contingent","relevant_dimensions":["antennae","wings"],"bee_group":{"antennae":"B","wings":"1","pattern":"X","legs":"X"},"action":"harvest","summary":"good-harvest","bonus":1.7800000000000014},{"rt":590.6999999992549,"stimulus":"\n                    <p><b>Action: <em>harvest</em></b></p>\n                    <p>This is the bee that you just saw.</p>\n                    <img src=\"bees-with-color/bee-A1SF.svg\" width=\"200\">\n                    <p><span class=\"greenText\"><b>Successful harvest!</b></span><br>Your pay has increased by $0.02. Your bonus pay is now $1.08.</p>\n            ","response":0,"trial_type":"html-button-response","trial_index":106,"time_elapsed":1048436,"internal_node_id":"0.0-4.0-1.49","subject_id":"6078cfcf029bac8a284df18e","study_id":"6197b3f67c2b5cd3b6d9596a","session_id":"6197b889fb1ed88d7f60c1ff","condition":"contingent","relevant_dimensions":["antennae","wings"],"bee_group":{"antennae":"B","wings":"1","pattern":"X","legs":"X"},"bonus":1.7800000000000014},{"rt":1046.699999999255,"stimulus":"bees-with-color/bee-A2DM.svg","response":0,"trial_type":"image-button-response","trial_index":107,"time_elapsed":1049484,"internal_node_id":"0.0-4.0-0.50","subject_id":"6078cfcf029bac8a284df18e","study_id":"6197b3f67c2b5cd3b6d9596a","session_id":"6197b889fb1ed88d7f60c1ff","condition":"contingent","relevant_dimensions":["antennae","wings"],"bee_group":{"antennae":"B","wings":"1","pattern":"X","legs":"X"},"action":"harvest","summary":"good-harvest","bonus":1.7800000000000014},{"rt":2062.5,"stimulus":"\n                    <p><b>Action: <em>harvest</em></b></p>\n                    <p>This is the bee that you just saw.</p>\n                    <img src=\"bees-with-color/bee-A2DM.svg\" width=\"200\">\n                    <p><span class=\"greenText\"><b>Successful harvest!</b></span><br>Your pay has increased by $0.02. Your bonus pay is now $1.10.</p>\n            ","response":0,"trial_type":"html-button-response","trial_index":108,"time_elapsed":1051548,"internal_node_id":"0.0-4.0-1.50","subject_id":"6078cfcf029bac8a284df18e","study_id":"6197b3f67c2b5cd3b6d9596a","session_id":"6197b889fb1ed88d7f60c1ff","condition":"contingent","relevant_dimensions":["antennae","wings"],"bee_group":{"antennae":"B","wings":"1","pattern":"X","legs":"X"},"bonus":1.7800000000000014},{"rt":2518.699999999255,"stimulus":"bees-with-color/bee-B1DF.svg","response":1,"trial_type":"image-button-response","trial_index":109,"time_elapsed":1054068,"internal_node_id":"0.0-4.0-0.51","subject_id":"6078cfcf029bac8a284df18e","study_id":"6197b3f67c2b5cd3b6d9596a","session_id":"6197b889fb1ed88d7f60c1ff","condition":"contingent","relevant_dimensions":["antennae","wings"],"bee_group":{"antennae":"B","wings":"1","pattern":"X","legs":"X"},"action":"avoid","summary":"good-avoid","bonus":1.7800000000000014},{"rt":1038.699999999255,"stimulus":"\n                    <p><b>Action: <em>avoid</em></b></p>\n                    <p>This is the bee that you just saw.</p>\n                    <img src=\"bees-with-color/bee-B1DF.svg\" width=\"200\">\n                    <p><br>Your bonus pay is unchanged, and remains at $1.10.</p>\n            ","response":0,"trial_type":"html-button-response","trial_index":110,"time_elapsed":1055108,"internal_node_id":"0.0-4.0-1.51","subject_id":"6078cfcf029bac8a284df18e","study_id":"6197b3f67c2b5cd3b6d9596a","session_id":"6197b889fb1ed88d7f60c1ff","condition":"contingent","relevant_dimensions":["antennae","wings"],"bee_group":{"antennae":"B","wings":"1","pattern":"X","legs":"X"},"bonus":1.7800000000000014},{"rt":3142.5,"stimulus":"bees-with-color/bee-A2DF.svg","response":0,"trial_type":"image-button-response","trial_index":111,"time_elapsed":1058252,"internal_node_id":"0.0-4.0-0.52","subject_id":"6078cfcf029bac8a284df18e","study_id":"6197b3f67c2b5cd3b6d9596a","session_id":"6197b889fb1ed88d7f60c1ff","condition":"contingent","relevant_dimensions":["antennae","wings"],"bee_group":{"antennae":"B","wings":"1","pattern":"X","legs":"X"},"action":"harvest","summary":"good-harvest","bonus":1.7800000000000014},{"rt":1734.300000000745,"stimulus":"\n                    <p><b>Action: <em>harvest</em></b></p>\n                    <p>This is the bee that you just saw.</p>\n                    <img src=\"bees-with-color/bee-A2DF.svg\" width=\"200\">\n                    <p><span class=\"greenText\"><b>Successful harvest!</b></span><br>Your pay has increased by $0.02. Your bonus pay is now $1.12.</p>\n            ","response":0,"trial_type":"html-button-response","trial_index":112,"time_elapsed":1059988,"internal_node_id":"0.0-4.0-1.52","subject_id":"6078cfcf029bac8a284df18e","study_id":"6197b3f67c2b5cd3b6d9596a","session_id":"6197b889fb1ed88d7f60c1ff","condition":"contingent","relevant_dimensions":["antennae","wings"],"bee_group":{"antennae":"B","wings":"1","pattern":"X","legs":"X"},"bonus":1.7800000000000014},{"rt":3214.5,"stimulus":"bees-with-color/bee-B2SM.svg","response":0,"trial_type":"image-button-response","trial_index":113,"time_elapsed":1063204,"internal_node_id":"0.0-4.0-0.53","subject_id":"6078cfcf029bac8a284df18e","study_id":"6197b3f67c2b5cd3b6d9596a","session_id":"6197b889fb1ed88d7f60c1ff","condition":"contingent","relevant_dimensions":["antennae","wings"],"bee_group":{"antennae":"B","wings":"1","pattern":"X","legs":"X"},"action":"harvest","summary":"good-harvest","bonus":1.7800000000000014},{"rt":1134.6000000014901,"stimulus":"\n                    <p><b>Action: <em>harvest</em></b></p>\n                    <p>This is the bee that you just saw.</p>\n                    <img src=\"bees-with-color/bee-B2SM.svg\" width=\"200\">\n                    <p><span class=\"greenText\"><b>Successful harvest!</b></span><br>Your pay has increased by $0.02. Your bonus pay is now $1.14.</p>\n            ","response":0,"trial_type":"html-button-response","trial_index":114,"time_elapsed":1064340,"internal_node_id":"0.0-4.0-1.53","subject_id":"6078cfcf029bac8a284df18e","study_id":"6197b3f67c2b5cd3b6d9596a","session_id":"6197b889fb1ed88d7f60c1ff","condition":"contingent","relevant_dimensions":["antennae","wings"],"bee_group":{"antennae":"B","wings":"1","pattern":"X","legs":"X"},"bonus":1.7800000000000014},{"rt":4717.60000000149,"stimulus":"bees-with-color/bee-B2SF.svg","response":0,"trial_type":"image-button-response","trial_index":115,"time_elapsed":1069059,"internal_node_id":"0.0-4.0-0.54","subject_id":"6078cfcf029bac8a284df18e","study_id":"6197b3f67c2b5cd3b6d9596a","session_id":"6197b889fb1ed88d7f60c1ff","condition":"contingent","relevant_dimensions":["antennae","wings"],"bee_group":{"antennae":"B","wings":"1","pattern":"X","legs":"X"},"action":"harvest","summary":"good-harvest","bonus":1.7800000000000014},{"rt":751.3999999985099,"stimulus":"\n                    <p><b>Action: <em>harvest</em></b></p>\n                    <p>This is the bee that you just saw.</p>\n                    <img src=\"bees-with-color/bee-B2SF.svg\" width=\"200\">\n                    <p><span class=\"greenText\"><b>Successful harvest!</b></span><br>Your pay has increased by $0.02. Your bonus pay is now $1.16.</p>\n            ","response":0,"trial_type":"html-button-response","trial_index":116,"time_elapsed":1069811,"internal_node_id":"0.0-4.0-1.54","subject_id":"6078cfcf029bac8a284df18e","study_id":"6197b3f67c2b5cd3b6d9596a","session_id":"6197b889fb1ed88d7f60c1ff","condition":"contingent","relevant_dimensions":["antennae","wings"],"bee_group":{"antennae":"B","wings":"1","pattern":"X","legs":"X"},"bonus":1.7800000000000014},{"rt":1134.699999999255,"stimulus":"bees-with-color/bee-B2DM.svg","response":0,"trial_type":"image-button-response","trial_index":117,"time_elapsed":1070947,"internal_node_id":"0.0-4.0-0.55","subject_id":"6078cfcf029bac8a284df18e","study_id":"6197b3f67c2b5cd3b6d9596a","session_id":"6197b889fb1ed88d7f60c1ff","condition":"contingent","relevant_dimensions":["antennae","wings"],"bee_group":{"antennae":"B","wings":"1","pattern":"X","legs":"X"},"action":"harvest","summary":"good-harvest","bonus":1.7800000000000014},{"rt":1118.8999999985099,"stimulus":"\n                    <p><b>Action: <em>harvest</em></b></p>\n                    <p>This is the bee that you just saw.</p>\n                    <img src=\"bees-with-color/bee-B2DM.svg\" width=\"200\">\n                    <p><span class=\"greenText\"><b>Successful harvest!</b></span><br>Your pay has increased by $0.02. Your bonus pay is now $1.18.</p>\n            ","response":0,"trial_type":"html-button-response","trial_index":118,"time_elapsed":1072067,"internal_node_id":"0.0-4.0-1.55","subject_id":"6078cfcf029bac8a284df18e","study_id":"6197b3f67c2b5cd3b6d9596a","session_id":"6197b889fb1ed88d7f60c1ff","condition":"contingent","relevant_dimensions":["antennae","wings"],"bee_group":{"antennae":"B","wings":"1","pattern":"X","legs":"X"},"bonus":1.7800000000000014},{"rt":1254.6000000014901,"stimulus":"bees-with-color/bee-A2SM.svg","response":0,"trial_type":"image-button-response","trial_index":119,"time_elapsed":1073323,"internal_node_id":"0.0-4.0-0.56","subject_id":"6078cfcf029bac8a284df18e","study_id":"6197b3f67c2b5cd3b6d9596a","session_id":"6197b889fb1ed88d7f60c1ff","condition":"contingent","relevant_dimensions":["antennae","wings"],"bee_group":{"antennae":"B","wings":"1","pattern":"X","legs":"X"},"action":"harvest","summary":"good-harvest","bonus":1.7800000000000014},{"rt":2247.10000000149,"stimulus":"\n                    <p><b>Action: <em>harvest</em></b></p>\n                    <p>This is the bee that you just saw.</p>\n                    <img src=\"bees-with-color/bee-A2SM.svg\" width=\"200\">\n                    <p><span class=\"greenText\"><b>Successful harvest!</b></span><br>Your pay has increased by $0.02. Your bonus pay is now $1.20.</p>\n            ","response":0,"trial_type":"html-button-response","trial_index":120,"time_elapsed":1075571,"internal_node_id":"0.0-4.0-1.56","subject_id":"6078cfcf029bac8a284df18e","study_id":"6197b3f67c2b5cd3b6d9596a","session_id":"6197b889fb1ed88d7f60c1ff","condition":"contingent","relevant_dimensions":["antennae","wings"],"bee_group":{"antennae":"B","wings":"1","pattern":"X","legs":"X"},"bonus":1.7800000000000014},{"rt":1286.800000000745,"stimulus":"bees-with-color/bee-A1DF.svg","response":0,"trial_type":"image-button-response","trial_index":121,"time_elapsed":1076859,"internal_node_id":"0.0-4.0-0.57","subject_id":"6078cfcf029bac8a284df18e","study_id":"6197b3f67c2b5cd3b6d9596a","session_id":"6197b889fb1ed88d7f60c1ff","condition":"contingent","relevant_dimensions":["antennae","wings"],"bee_group":{"antennae":"B","wings":"1","pattern":"X","legs":"X"},"action":"harvest","summary":"good-harvest","bonus":1.7800000000000014},{"rt":695,"stimulus":"\n                    <p><b>Action: <em>harvest</em></b></p>\n                    <p>This is the bee that you just saw.</p>\n                    <img src=\"bees-with-color/bee-A1DF.svg\" width=\"200\">\n                    <p><span class=\"greenText\"><b>Successful harvest!</b></span><br>Your pay has increased by $0.02. Your bonus pay is now $1.22.</p>\n            ","response":0,"trial_type":"html-button-response","trial_index":122,"time_elapsed":1077555,"internal_node_id":"0.0-4.0-1.57","subject_id":"6078cfcf029bac8a284df18e","study_id":"6197b3f67c2b5cd3b6d9596a","session_id":"6197b889fb1ed88d7f60c1ff","condition":"contingent","relevant_dimensions":["antennae","wings"],"bee_group":{"antennae":"B","wings":"1","pattern":"X","legs":"X"},"bonus":1.7800000000000014},{"rt":3791.099999997765,"stimulus":"bees-with-color/bee-B1DM.svg","response":1,"trial_type":"image-button-response","trial_index":123,"time_elapsed":1081347,"internal_node_id":"0.0-4.0-0.58","subject_id":"6078cfcf029bac8a284df18e","study_id":"6197b3f67c2b5cd3b6d9596a","session_id":"6197b889fb1ed88d7f60c1ff","condition":"contingent","relevant_dimensions":["antennae","wings"],"bee_group":{"antennae":"B","wings":"1","pattern":"X","legs":"X"},"action":"avoid","summary":"good-avoid","bonus":1.7800000000000014},{"rt":902.7999999970198,"stimulus":"\n                    <p><b>Action: <em>avoid</em></b></p>\n                    <p>This is the bee that you just saw.</p>\n                    <img src=\"bees-with-color/bee-B1DM.svg\" width=\"200\">\n                    <p><br>Your bonus pay is unchanged, and remains at $1.22.</p>\n            ","response":0,"trial_type":"html-button-response","trial_index":124,"time_elapsed":1082252,"internal_node_id":"0.0-4.0-1.58","subject_id":"6078cfcf029bac8a284df18e","study_id":"6197b3f67c2b5cd3b6d9596a","session_id":"6197b889fb1ed88d7f60c1ff","condition":"contingent","relevant_dimensions":["antennae","wings"],"bee_group":{"antennae":"B","wings":"1","pattern":"X","legs":"X"},"bonus":1.7800000000000014},{"rt":4990.39999999851,"stimulus":"bees-with-color/bee-B2DF.svg","response":0,"trial_type":"image-button-response","trial_index":125,"time_elapsed":1087243,"internal_node_id":"0.0-4.0-0.59","subject_id":"6078cfcf029bac8a284df18e","study_id":"6197b3f67c2b5cd3b6d9596a","session_id":"6197b889fb1ed88d7f60c1ff","condition":"contingent","relevant_dimensions":["antennae","wings"],"bee_group":{"antennae":"B","wings":"1","pattern":"X","legs":"X"},"action":"harvest","summary":"good-harvest","bonus":1.7800000000000014},{"rt":719,"stimulus":"\n                    <p><b>Action: <em>harvest</em></b></p>\n                    <p>This is the bee that you just saw.</p>\n                    <img src=\"bees-with-color/bee-B2DF.svg\" width=\"200\">\n                    <p><span class=\"greenText\"><b>Successful harvest!</b></span><br>Your pay has increased by $0.02. Your bonus pay is now $1.24.</p>\n            ","response":0,"trial_type":"html-button-response","trial_index":126,"time_elapsed":1087964,"internal_node_id":"0.0-4.0-1.59","subject_id":"6078cfcf029bac8a284df18e","study_id":"6197b3f67c2b5cd3b6d9596a","session_id":"6197b889fb1ed88d7f60c1ff","condition":"contingent","relevant_dimensions":["antennae","wings"],"bee_group":{"antennae":"B","wings":"1","pattern":"X","legs":"X"},"bonus":1.7800000000000014},{"rt":4598.5,"stimulus":"bees-with-color/bee-B1SM.svg","response":1,"trial_type":"image-button-response","trial_index":127,"time_elapsed":1092563,"internal_node_id":"0.0-4.0-0.60","subject_id":"6078cfcf029bac8a284df18e","study_id":"6197b3f67c2b5cd3b6d9596a","session_id":"6197b889fb1ed88d7f60c1ff","condition":"contingent","relevant_dimensions":["antennae","wings"],"bee_group":{"antennae":"B","wings":"1","pattern":"X","legs":"X"},"action":"avoid","summary":"good-avoid","bonus":1.7800000000000014},{"rt":2358.699999999255,"stimulus":"\n                    <p><b>Action: <em>avoid</em></b></p>\n                    <p>This is the bee that you just saw.</p>\n                    <img src=\"bees-with-color/bee-B1SM.svg\" width=\"200\">\n                    <p><br>Your bonus pay is unchanged, and remains at $1.24.</p>\n            ","response":0,"trial_type":"html-button-response","trial_index":128,"time_elapsed":1094924,"internal_node_id":"0.0-4.0-1.60","subject_id":"6078cfcf029bac8a284df18e","study_id":"6197b3f67c2b5cd3b6d9596a","session_id":"6197b889fb1ed88d7f60c1ff","condition":"contingent","relevant_dimensions":["antennae","wings"],"bee_group":{"antennae":"B","wings":"1","pattern":"X","legs":"X"},"bonus":1.7800000000000014},{"rt":3414.39999999851,"stimulus":"bees-with-color/bee-A1SM.svg","response":0,"trial_type":"image-button-response","trial_index":129,"time_elapsed":1098340,"internal_node_id":"0.0-4.0-0.61","subject_id":"6078cfcf029bac8a284df18e","study_id":"6197b3f67c2b5cd3b6d9596a","session_id":"6197b889fb1ed88d7f60c1ff","condition":"contingent","relevant_dimensions":["antennae","wings"],"bee_group":{"antennae":"B","wings":"1","pattern":"X","legs":"X"},"action":"harvest","summary":"good-harvest","bonus":1.7800000000000014},{"rt":982.5,"stimulus":"\n                    <p><b>Action: <em>harvest</em></b></p>\n                    <p>This is the bee that you just saw.</p>\n                    <img src=\"bees-with-color/bee-A1SM.svg\" width=\"200\">\n                    <p><span class=\"greenText\"><b>Successful harvest!</b></span><br>Your pay has increased by $0.02. Your bonus pay is now $1.26.</p>\n            ","response":0,"trial_type":"html-button-response","trial_index":130,"time_elapsed":1099324,"internal_node_id":"0.0-4.0-1.61","subject_id":"6078cfcf029bac8a284df18e","study_id":"6197b3f67c2b5cd3b6d9596a","session_id":"6197b889fb1ed88d7f60c1ff","condition":"contingent","relevant_dimensions":["antennae","wings"],"bee_group":{"antennae":"B","wings":"1","pattern":"X","legs":"X"},"bonus":1.7800000000000014},{"rt":2014.5,"stimulus":"bees-with-color/bee-A1DM.svg","response":0,"trial_type":"image-button-response","trial_index":131,"time_elapsed":1101339,"internal_node_id":"0.0-4.0-0.62","subject_id":"6078cfcf029bac8a284df18e","study_id":"6197b3f67c2b5cd3b6d9596a","session_id":"6197b889fb1ed88d7f60c1ff","condition":"contingent","relevant_dimensions":["antennae","wings"],"bee_group":{"antennae":"B","wings":"1","pattern":"X","legs":"X"},"action":"harvest","summary":"good-harvest","bonus":1.7800000000000014},{"rt":2142.60000000149,"stimulus":"\n                    <p><b>Action: <em>harvest</em></b></p>\n                    <p>This is the bee that you just saw.</p>\n                    <img src=\"bees-with-color/bee-A1DM.svg\" width=\"200\">\n                    <p><span class=\"greenText\"><b>Successful harvest!</b></span><br>Your pay has increased by $0.02. Your bonus pay is now $1.28.</p>\n            ","response":0,"trial_type":"html-button-response","trial_index":132,"time_elapsed":1103484,"internal_node_id":"0.0-4.0-1.62","subject_id":"6078cfcf029bac8a284df18e","study_id":"6197b3f67c2b5cd3b6d9596a","session_id":"6197b889fb1ed88d7f60c1ff","condition":"contingent","relevant_dimensions":["antennae","wings"],"bee_group":{"antennae":"B","wings":"1","pattern":"X","legs":"X"},"bonus":1.7800000000000014},{"rt":1366.3999999985099,"stimulus":"bees-with-color/bee-A2SF.svg","response":0,"trial_type":"image-button-response","trial_index":133,"time_elapsed":1104852,"internal_node_id":"0.0-4.0-0.63","subject_id":"6078cfcf029bac8a284df18e","study_id":"6197b3f67c2b5cd3b6d9596a","session_id":"6197b889fb1ed88d7f60c1ff","condition":"contingent","relevant_dimensions":["antennae","wings"],"bee_group":{"antennae":"B","wings":"1","pattern":"X","legs":"X"},"action":"harvest","summary":"good-harvest","bonus":1.7800000000000014},{"rt":2846,"stimulus":"\n                    <p><b>Action: <em>harvest</em></b></p>\n                    <p>This is the bee that you just saw.</p>\n                    <img src=\"bees-with-color/bee-A2SF.svg\" width=\"200\">\n                    <p><span class=\"greenText\"><b>Successful harvest!</b></span><br>Your pay has increased by $0.02. Your bonus pay is now $1.30.</p>\n            ","response":0,"trial_type":"html-button-response","trial_index":134,"time_elapsed":1107699,"internal_node_id":"0.0-4.0-1.63","subject_id":"6078cfcf029bac8a284df18e","study_id":"6197b3f67c2b5cd3b6d9596a","session_id":"6197b889fb1ed88d7f60c1ff","condition":"contingent","relevant_dimensions":["antennae","wings"],"bee_group":{"antennae":"B","wings":"1","pattern":"X","legs":"X"},"bonus":1.7800000000000014},{"rt":15247.89999999851,"stimulus":"You have completed the first part of this experiment.<br><br>You will now begin a shorter second part, in which you will receive no feedback.<br>The same rules regarding bonus pay apply.<br><br>Press any key to begin.","response":" ","trial_type":"html-keyboard-response","trial_index":135,"time_elapsed":1122948,"internal_node_id":"0.0-5.0","subject_id":"6078cfcf029bac8a284df18e","study_id":"6197b3f67c2b5cd3b6d9596a","session_id":"6197b889fb1ed88d7f60c1ff","condition":"contingent","relevant_dimensions":["antennae","wings"],"bee_group":{"antennae":"B","wings":"1","pattern":"X","legs":"X"},"bonus":1.7800000000000014},{"rt":9624,"stimulus":"bees-with-color/bee-B2SM.svg","response":0,"trial_type":"image-button-response","trial_index":136,"time_elapsed":1132579,"internal_node_id":"0.0-6.0-0.0","subject_id":"6078cfcf029bac8a284df18e","study_id":"6197b3f67c2b5cd3b6d9596a","session_id":"6197b889fb1ed88d7f60c1ff","condition":"contingent","relevant_dimensions":["antennae","wings"],"bee_group":{"antennae":"B","wings":"1","pattern":"X","legs":"X"},"bonus":1.7800000000000014},{"rt":2286.199999999255,"stimulus":"bees-with-color/bee-B2DM.svg","response":0,"trial_type":"image-button-response","trial_index":137,"time_elapsed":1134867,"internal_node_id":"0.0-6.0-0.1","subject_id":"6078cfcf029bac8a284df18e","study_id":"6197b3f67c2b5cd3b6d9596a","session_id":"6197b889fb1ed88d7f60c1ff","condition":"contingent","relevant_dimensions":["antennae","wings"],"bee_group":{"antennae":"B","wings":"1","pattern":"X","legs":"X"},"bonus":1.7800000000000014},{"rt":1789.8999999985099,"stimulus":"bees-with-color/bee-B1DM.svg","response":1,"trial_type":"image-button-response","trial_index":138,"time_elapsed":1136659,"internal_node_id":"0.0-6.0-0.2","subject_id":"6078cfcf029bac8a284df18e","study_id":"6197b3f67c2b5cd3b6d9596a","session_id":"6197b889fb1ed88d7f60c1ff","condition":"contingent","relevant_dimensions":["antennae","wings"],"bee_group":{"antennae":"B","wings":"1","pattern":"X","legs":"X"},"bonus":1.7800000000000014},{"rt":790.1999999992549,"stimulus":"bees-with-color/bee-A2SF.svg","response":0,"trial_type":"image-button-response","trial_index":139,"time_elapsed":1137452,"internal_node_id":"0.0-6.0-0.3","subject_id":"6078cfcf029bac8a284df18e","study_id":"6197b3f67c2b5cd3b6d9596a","session_id":"6197b889fb1ed88d7f60c1ff","condition":"contingent","relevant_dimensions":["antennae","wings"],"bee_group":{"antennae":"B","wings":"1","pattern":"X","legs":"X"},"bonus":1.7800000000000014},{"rt":1117.699999999255,"stimulus":"bees-with-color/bee-B1DF.svg","response":1,"trial_type":"image-button-response","trial_index":140,"time_elapsed":1138571,"internal_node_id":"0.0-6.0-0.4","subject_id":"6078cfcf029bac8a284df18e","study_id":"6197b3f67c2b5cd3b6d9596a","session_id":"6197b889fb1ed88d7f60c1ff","condition":"contingent","relevant_dimensions":["antennae","wings"],"bee_group":{"antennae":"B","wings":"1","pattern":"X","legs":"X"},"bonus":1.7800000000000014},{"rt":2358.5,"stimulus":"bees-with-color/bee-A1SF.svg","response":0,"trial_type":"image-button-response","trial_index":141,"time_elapsed":1140932,"internal_node_id":"0.0-6.0-0.5","subject_id":"6078cfcf029bac8a284df18e","study_id":"6197b3f67c2b5cd3b6d9596a","session_id":"6197b889fb1ed88d7f60c1ff","condition":"contingent","relevant_dimensions":["antennae","wings"],"bee_group":{"antennae":"B","wings":"1","pattern":"X","legs":"X"},"bonus":1.7800000000000014},{"rt":749.5,"stimulus":"bees-with-color/bee-A2SM.svg","response":0,"trial_type":"image-button-response","trial_index":142,"time_elapsed":1141683,"internal_node_id":"0.0-6.0-0.6","subject_id":"6078cfcf029bac8a284df18e","study_id":"6197b3f67c2b5cd3b6d9596a","session_id":"6197b889fb1ed88d7f60c1ff","condition":"contingent","relevant_dimensions":["antennae","wings"],"bee_group":{"antennae":"B","wings":"1","pattern":"X","legs":"X"},"bonus":1.7800000000000014},{"rt":821.8999999985099,"stimulus":"bees-with-color/bee-A1SM.svg","response":0,"trial_type":"image-button-response","trial_index":143,"time_elapsed":1142507,"internal_node_id":"0.0-6.0-0.7","subject_id":"6078cfcf029bac8a284df18e","study_id":"6197b3f67c2b5cd3b6d9596a","session_id":"6197b889fb1ed88d7f60c1ff","condition":"contingent","relevant_dimensions":["antennae","wings"],"bee_group":{"antennae":"B","wings":"1","pattern":"X","legs":"X"},"bonus":1.7800000000000014},{"rt":933,"stimulus":"bees-with-color/bee-A2DM.svg","response":0,"trial_type":"image-button-response","trial_index":144,"time_elapsed":1143443,"internal_node_id":"0.0-6.0-0.8","subject_id":"6078cfcf029bac8a284df18e","study_id":"6197b3f67c2b5cd3b6d9596a","session_id":"6197b889fb1ed88d7f60c1ff","condition":"contingent","relevant_dimensions":["antennae","wings"],"bee_group":{"antennae":"B","wings":"1","pattern":"X","legs":"X"},"bonus":1.7800000000000014},{"rt":1182.300000000745,"stimulus":"bees-with-color/bee-A1DF.svg","response":0,"trial_type":"image-button-response","trial_index":145,"time_elapsed":1144627,"internal_node_id":"0.0-6.0-0.9","subject_id":"6078cfcf029bac8a284df18e","study_id":"6197b3f67c2b5cd3b6d9596a","session_id":"6197b889fb1ed88d7f60c1ff","condition":"contingent","relevant_dimensions":["antennae","wings"],"bee_group":{"antennae":"B","wings":"1","pattern":"X","legs":"X"},"bonus":1.7800000000000014},{"rt":1166.8999999985099,"stimulus":"bees-with-color/bee-A2DF.svg","response":0,"trial_type":"image-button-response","trial_index":146,"time_elapsed":1145795,"internal_node_id":"0.0-6.0-0.10","subject_id":"6078cfcf029bac8a284df18e","study_id":"6197b3f67c2b5cd3b6d9596a","session_id":"6197b889fb1ed88d7f60c1ff","condition":"contingent","relevant_dimensions":["antennae","wings"],"bee_group":{"antennae":"B","wings":"1","pattern":"X","legs":"X"},"bonus":1.7800000000000014},{"rt":1446.199999999255,"stimulus":"bees-with-color/bee-B1SM.svg","response":1,"trial_type":"image-button-response","trial_index":147,"time_elapsed":1147243,"internal_node_id":"0.0-6.0-0.11","subject_id":"6078cfcf029bac8a284df18e","study_id":"6197b3f67c2b5cd3b6d9596a","session_id":"6197b889fb1ed88d7f60c1ff","condition":"contingent","relevant_dimensions":["antennae","wings"],"bee_group":{"antennae":"B","wings":"1","pattern":"X","legs":"X"},"bonus":1.7800000000000014},{"rt":1086.199999999255,"stimulus":"bees-with-color/bee-B1SF.svg","response":1,"trial_type":"image-button-response","trial_index":148,"time_elapsed":1148331,"internal_node_id":"0.0-6.0-0.12","subject_id":"6078cfcf029bac8a284df18e","study_id":"6197b3f67c2b5cd3b6d9596a","session_id":"6197b889fb1ed88d7f60c1ff","condition":"contingent","relevant_dimensions":["antennae","wings"],"bee_group":{"antennae":"B","wings":"1","pattern":"X","legs":"X"},"bonus":1.7800000000000014},{"rt":1534.4000000022352,"stimulus":"bees-with-color/bee-B2DF.svg","response":0,"trial_type":"image-button-response","trial_index":149,"time_elapsed":1149867,"internal_node_id":"0.0-6.0-0.13","subject_id":"6078cfcf029bac8a284df18e","study_id":"6197b3f67c2b5cd3b6d9596a","session_id":"6197b889fb1ed88d7f60c1ff","condition":"contingent","relevant_dimensions":["antennae","wings"],"bee_group":{"antennae":"B","wings":"1","pattern":"X","legs":"X"},"bonus":1.7800000000000014},{"rt":942.3999999985099,"stimulus":"bees-with-color/bee-A1DM.svg","response":0,"trial_type":"image-button-response","trial_index":150,"time_elapsed":1150811,"internal_node_id":"0.0-6.0-0.14","subject_id":"6078cfcf029bac8a284df18e","study_id":"6197b3f67c2b5cd3b6d9596a","session_id":"6197b889fb1ed88d7f60c1ff","condition":"contingent","relevant_dimensions":["antennae","wings"],"bee_group":{"antennae":"B","wings":"1","pattern":"X","legs":"X"},"bonus":1.7800000000000014},{"rt":1350.1000000014901,"stimulus":"bees-with-color/bee-B2SF.svg","response":0,"trial_type":"image-button-response","trial_index":151,"time_elapsed":1152163,"internal_node_id":"0.0-6.0-0.15","subject_id":"6078cfcf029bac8a284df18e","study_id":"6197b3f67c2b5cd3b6d9596a","session_id":"6197b889fb1ed88d7f60c1ff","condition":"contingent","relevant_dimensions":["antennae","wings"],"bee_group":{"antennae":"B","wings":"1","pattern":"X","legs":"X"},"bonus":1.7800000000000014},{"rt":942.9000000022352,"stimulus":"bees-with-color/bee-A1DF.svg","response":0,"trial_type":"image-button-response","trial_index":152,"time_elapsed":1153107,"internal_node_id":"0.0-6.0-0.16","subject_id":"6078cfcf029bac8a284df18e","study_id":"6197b3f67c2b5cd3b6d9596a","session_id":"6197b889fb1ed88d7f60c1ff","condition":"contingent","relevant_dimensions":["antennae","wings"],"bee_group":{"antennae":"B","wings":"1","pattern":"X","legs":"X"},"bonus":1.7800000000000014},{"rt":1942.3999999985099,"stimulus":"bees-with-color/bee-A1SM.svg","response":0,"trial_type":"image-button-response","trial_index":153,"time_elapsed":1155051,"internal_node_id":"0.0-6.0-0.17","subject_id":"6078cfcf029bac8a284df18e","study_id":"6197b3f67c2b5cd3b6d9596a","session_id":"6197b889fb1ed88d7f60c1ff","condition":"contingent","relevant_dimensions":["antennae","wings"],"bee_group":{"antennae":"B","wings":"1","pattern":"X","legs":"X"},"bonus":1.7800000000000014},{"rt":2062.599999997765,"stimulus":"bees-with-color/bee-A2SM.svg","response":0,"trial_type":"image-button-response","trial_index":154,"time_elapsed":1157115,"internal_node_id":"0.0-6.0-0.18","subject_id":"6078cfcf029bac8a284df18e","study_id":"6197b3f67c2b5cd3b6d9596a","session_id":"6197b889fb1ed88d7f60c1ff","condition":"contingent","relevant_dimensions":["antennae","wings"],"bee_group":{"antennae":"B","wings":"1","pattern":"X","legs":"X"},"bonus":1.7800000000000014},{"rt":1526.5999999977648,"stimulus":"bees-with-color/bee-B2SM.svg","response":0,"trial_type":"image-button-response","trial_index":155,"time_elapsed":1158643,"internal_node_id":"0.0-6.0-0.19","subject_id":"6078cfcf029bac8a284df18e","study_id":"6197b3f67c2b5cd3b6d9596a","session_id":"6197b889fb1ed88d7f60c1ff","condition":"contingent","relevant_dimensions":["antennae","wings"],"bee_group":{"antennae":"B","wings":"1","pattern":"X","legs":"X"},"bonus":1.7800000000000014},{"rt":1566.699999999255,"stimulus":"bees-with-color/bee-B1SM.svg","response":1,"trial_type":"image-button-response","trial_index":156,"time_elapsed":1160211,"internal_node_id":"0.0-6.0-0.20","subject_id":"6078cfcf029bac8a284df18e","study_id":"6197b3f67c2b5cd3b6d9596a","session_id":"6197b889fb1ed88d7f60c1ff","condition":"contingent","relevant_dimensions":["antennae","wings"],"bee_group":{"antennae":"B","wings":"1","pattern":"X","legs":"X"},"bonus":1.7800000000000014},{"rt":774.5,"stimulus":"bees-with-color/bee-A1SF.svg","response":0,"trial_type":"image-button-response","trial_index":157,"time_elapsed":1160987,"internal_node_id":"0.0-6.0-0.21","subject_id":"6078cfcf029bac8a284df18e","study_id":"6197b3f67c2b5cd3b6d9596a","session_id":"6197b889fb1ed88d7f60c1ff","condition":"contingent","relevant_dimensions":["antennae","wings"],"bee_group":{"antennae":"B","wings":"1","pattern":"X","legs":"X"},"bonus":1.7800000000000014},{"rt":966.6000000014901,"stimulus":"bees-with-color/bee-B1SF.svg","response":1,"trial_type":"image-button-response","trial_index":158,"time_elapsed":1161955,"internal_node_id":"0.0-6.0-0.22","subject_id":"6078cfcf029bac8a284df18e","study_id":"6197b3f67c2b5cd3b6d9596a","session_id":"6197b889fb1ed88d7f60c1ff","condition":"contingent","relevant_dimensions":["antennae","wings"],"bee_group":{"antennae":"B","wings":"1","pattern":"X","legs":"X"},"bonus":1.7800000000000014},{"rt":726.5,"stimulus":"bees-with-color/bee-A2SF.svg","response":0,"trial_type":"image-button-response","trial_index":159,"time_elapsed":1162683,"internal_node_id":"0.0-6.0-0.23","subject_id":"6078cfcf029bac8a284df18e","study_id":"6197b3f67c2b5cd3b6d9596a","session_id":"6197b889fb1ed88d7f60c1ff","condition":"contingent","relevant_dimensions":["antennae","wings"],"bee_group":{"antennae":"B","wings":"1","pattern":"X","legs":"X"},"bonus":1.7800000000000014},{"rt":1222.5,"stimulus":"bees-with-color/bee-B1DM.svg","response":1,"trial_type":"image-button-response","trial_index":160,"time_elapsed":1163907,"internal_node_id":"0.0-6.0-0.24","subject_id":"6078cfcf029bac8a284df18e","study_id":"6197b3f67c2b5cd3b6d9596a","session_id":"6197b889fb1ed88d7f60c1ff","condition":"contingent","relevant_dimensions":["antennae","wings"],"bee_group":{"antennae":"B","wings":"1","pattern":"X","legs":"X"},"bonus":1.7800000000000014},{"rt":966.6999999992549,"stimulus":"bees-with-color/bee-B2SF.svg","response":0,"trial_type":"image-button-response","trial_index":161,"time_elapsed":1164875,"internal_node_id":"0.0-6.0-0.25","subject_id":"6078cfcf029bac