[{"success":true,"trial_type":"fullscreen","trial_index":0,"time_elapsed":8543,"internal_node_id":"0.0-0.0","subject_id":"6171b1bc917dfe828a3130dd","study_id":"6197b3f67c2b5cd3b6d9596a","session_id":"619be320d0619739bd6b2e51","condition":"contingent","relevant_dimensions":["antennae","pattern"],"bee_group":{"antennae":"B","wings":"X","pattern":"S","legs":"X"},"bonus":1.1000000000000012},{"success":true,"timeout":false,"failed_images":[],"failed_audio":[],"failed_video":[],"trial_type":"preload","trial_index":1,"time_elapsed":10842,"internal_node_id":"0.0-1.0","subject_id":"6171b1bc917dfe828a3130dd","study_id":"6197b3f67c2b5cd3b6d9596a","session_id":"619be320d0619739bd6b2e51","condition":"contingent","relevant_dimensions":["antennae","pattern"],"bee_group":{"antennae":"B","wings":"X","pattern":"S","legs":"X"},"bonus":1.1000000000000012},{"rt":20919.899999976158,"stimulus":"Welcome! Press any key to begin.","response":" ","trial_type":"html-keyboard-response","trial_index":2,"time_elapsed":31765,"internal_node_id":"0.0-2.0","subject_id":"6171b1bc917dfe828a3130dd","study_id":"6197b3f67c2b5cd3b6d9596a","session_id":"619be320d0619739bd6b2e51","condition":"contingent","relevant_dimensions":["antennae","pattern"],"bee_group":{"antennae":"B","wings":"X","pattern":"S","legs":"X"},"bonus":1.1000000000000012},{"view_history":[{"page_index":0,"viewing_time":3460.100000023842},{"page_index":1,"viewing_time":1453.1000000238419},{"page_index":0,"viewing_time":1820.0999999046326},{"page_index":1,"viewing_time":23305},{"page_index":2,"viewing_time":28415.100000023842},{"page_index":3,"viewing_time":27774.899999976158},{"page_index":4,"viewing_time":5659.900000095367},{"page_index":5,"viewing_time":19092.199999928474},{"page_index":6,"viewing_time":12880},{"page_index":7,"viewing_time":5918},{"page_index":8,"viewing_time":3046},{"page_index":9,"viewing_time":2554},{"page_index":8,"viewing_time":192},{"page_index":7,"viewing_time":593.8999999761581},{"page_index":6,"viewing_time":11616.100000023842},{"page_index":7,"viewing_time":932},{"page_index":8,"viewing_time":1529.8999999761581},{"page_index":9,"viewing_time":2702},{"page_index":10,"viewing_time":2852},{"page_index":11,"viewing_time":13174},{"page_index":12,"viewing_time":8176.100000023842},{"page_index":13,"viewing_time":1340},{"page_index":14,"viewing_time":2684}],"rt":181170.79999995232,"trial_type":"instructions","trial_index":3,"time_elapsed":212938,"internal_node_id":"0.0-3.0-0.0","subject_id":"6171b1bc917dfe828a3130dd","study_id":"6197b3f67c2b5cd3b6d9596a","session_id":"619be320d0619739bd6b2e51","condition":"contingent","relevant_dimensions":["antennae","pattern"],"bee_group":{"antennae":"B","wings":"X","pattern":"S","legs":"X"},"bonus":1.1000000000000012},{"rt":15947.899999976158,"response":{"Q0":["Two or six legs","Stripes or spots on body","Single or double wings","Antennae or no antennae"]},"question_order":[0],"trial_type":"survey-multi-select","trial_index":4,"time_elapsed":228890,"internal_node_id":"0.0-3.0-1.0","subject_id":"6171b1bc917dfe828a3130dd","study_id":"6197b3f67c2b5cd3b6d9596a","session_id":"619be320d0619739bd6b2e51","condition":"contingent","relevant_dimensions":["antennae","pattern"],"bee_group":{"antennae":"B","wings":"X","pattern":"S","legs":"X"},"correct":true,"bonus":1.1000000000000012},{"rt":21596.899999976158,"response":{"Q1":"No.","Q2":"Based on the four features of the bee.","Q3":"You do not learn if it was friendly or dangerous, and do not alter your bonus."},"question_order":[0,1,2],"trial_type":"survey-multi-choice","trial_index":5,"time_elapsed":250492,"internal_node_id":"0.0-3.0-2.0","subject_id":"6171b1bc917dfe828a3130dd","study_id":"6197b3f67c2b5cd3b6d9596a","session_id":"619be320d0619739bd6b2e51","condition":"contingent","relevant_dimensions":["antennae","pattern"],"bee_group":{"antennae":"B","wings":"X","pattern":"S","legs":"X"},"correct":true,"bonus":1.1000000000000012},{"rt":3944.8000000715256,"stimulus":"<p>Congrats, you got everything right<br>When you're ready, click the button below to continue to the experiment.</p>","response":0,"trial_type":"html-button-response","trial_index":6,"time_elapsed":254442,"internal_node_id":"0.0-3.0-3.0","subject_id":"6171b1bc917dfe828a3130dd","study_id":"6197b3f67c2b5cd3b6d9596a","session_id":"619be320d0619739bd6b2e51","condition":"contingent","relevant_dimensions":["antennae","pattern"],"bee_group":{"antennae":"B","wings":"X","pattern":"S","legs":"X"},"bonus":1.1000000000000012},{"rt":3408.899999976158,"stimulus":"bees-with-color/bee-B2SF.svg","response":1,"trial_type":"image-button-response","trial_index":7,"time_elapsed":257854,"internal_node_id":"0.0-4.0-0.0","subject_id":"6171b1bc917dfe828a3130dd","study_id":"6197b3f67c2b5cd3b6d9596a","session_id":"619be320d0619739bd6b2e51","condition":"contingent","relevant_dimensions":["antennae","pattern"],"bee_group":{"antennae":"B","wings":"X","pattern":"S","legs":"X"},"action":"avoid","summary":"good-avoid","bonus":1.1000000000000012},{"rt":7055.5,"stimulus":"\n                    <p><b>Action: <em>avoid</em></b></p>\n                    <p>This is the bee that you just saw.</p>\n                    <img src=\"bees-with-color/bee-B2SF.svg\" width=\"200\">\n                    <p><br>Your bonus pay is unchanged, and remains at $0.54.</p>\n            ","response":0,"trial_type":"html-button-response","trial_index":8,"time_elapsed":264913,"internal_node_id":"0.0-4.0-1.0","subject_id":"6171b1bc917dfe828a3130dd","study_id":"6197b3f67c2b5cd3b6d9596a","session_id":"619be320d0619739bd6b2e51","condition":"contingent","relevant_dimensions":["antennae","pattern"],"bee_group":{"antennae":"B","wings":"X","pattern":"S","legs":"X"},"bonus":1.1000000000000012},{"rt":2509.5,"stimulus":"bees-with-color/bee-A2SF.svg","response":0,"trial_type":"image-button-response","trial_index":9,"time_elapsed":267425,"internal_node_id":"0.0-4.0-0.1","subject_id":"6171b1bc917dfe828a3130dd","study_id":"6197b3f67c2b5cd3b6d9596a","session_id":"619be320d0619739bd6b2e51","condition":"contingent","relevant_dimensions":["antennae","pattern"],"bee_group":{"antennae":"B","wings":"X","pattern":"S","legs":"X"},"action":"harvest","summary":"good-harvest","bonus":1.1000000000000012},{"rt":6927,"stimulus":"\n                    <p><b>Action: <em>harvest</em></b></p>\n                    <p>This is the bee that you just saw.</p>\n                    <img src=\"bees-with-color/bee-A2SF.svg\" width=\"200\">\n                    <p><span class=\"greenText\"><b>Successful harvest!</b></span><br>Your pay has increased by $0.02. Your bonus pay is now $0.56.</p>\n            ","response":0,"trial_type":"html-button-response","trial_index":10,"time_elapsed":274355,"internal_node_id":"0.0-4.0-1.1","subject_id":"6171b1bc917dfe828a3130dd","study_id":"6197b3f67c2b5cd3b6d9596a","session_id":"619be320d0619739bd6b2e51","condition":"contingent","relevant_dimensions":["antennae","pattern"],"bee_group":{"antennae":"B","wings":"X","pattern":"S","legs":"X"},"bonus":1.1000000000000012},{"rt":3363.600000023842,"stimulus":"bees-with-color/bee-A1DM.svg","response":0,"trial_type":"image-button-response","trial_index":11,"time_elapsed":277721,"internal_node_id":"0.0-4.0-0.2","subject_id":"6171b1bc917dfe828a3130dd","study_id":"6197b3f67c2b5cd3b6d9596a","session_id":"619be320d0619739bd6b2e51","condition":"contingent","relevant_dimensions":["antennae","pattern"],"bee_group":{"antennae":"B","wings":"X","pattern":"S","legs":"X"},"action":"harvest","summary":"good-harvest","bonus":1.1000000000000012},{"rt":3259.7999999523163,"stimulus":"\n                    <p><b>Action: <em>harvest</em></b></p>\n                    <p>This is the bee that you just saw.</p>\n                    <img src=\"bees-with-color/bee-A1DM.svg\" width=\"200\">\n                    <p><span class=\"greenText\"><b>Successful harvest!</b></span><br>Your pay has increased by $0.02. Your bonus pay is now $0.58.</p>\n            ","response":0,"trial_type":"html-button-response","trial_index":12,"time_elapsed":280983,"internal_node_id":"0.0-4.0-1.2","subject_id":"6171b1bc917dfe828a3130dd","study_id":"6197b3f67c2b5cd3b6d9596a","session_id":"619be320d0619739bd6b2e51","condition":"contingent","relevant_dimensions":["antennae","pattern"],"bee_group":{"antennae":"B","wings":"X","pattern":"S","legs":"X"},"bonus":1.1000000000000012},{"rt":1887.7999999523163,"stimulus":"bees-with-color/bee-A2DF.svg","response":0,"trial_type":"image-button-response","trial_index":13,"time_elapsed":282873,"internal_node_id":"0.0-4.0-0.3","subject_id":"6171b1bc917dfe828a3130dd","study_id":"6197b3f67c2b5cd3b6d9596a","session_id":"619be320d0619739bd6b2e51","condition":"contingent","relevant_dimensions":["antennae","pattern"],"bee_group":{"antennae":"B","wings":"X","pattern":"S","legs":"X"},"action":"harvest","summary":"good-harvest","bonus":1.1000000000000012},{"rt":3536.2999999523163,"stimulus":"\n                    <p><b>Action: <em>harvest</em></b></p>\n                    <p>This is the bee that you just saw.</p>\n                    <img src=\"bees-with-color/bee-A2DF.svg\" width=\"200\">\n                    <p><span class=\"greenText\"><b>Successful harvest!</b></span><br>Your pay has increased by $0.02. Your bonus pay is now $0.60.</p>\n            ","response":0,"trial_type":"html-button-response","trial_index":14,"time_elapsed":286411,"internal_node_id":"0.0-4.0-1.3","subject_id":"6171b1bc917dfe828a3130dd","study_id":"6197b3f67c2b5cd3b6d9596a","session_id":"619be320d0619739bd6b2e51","condition":"contingent","relevant_dimensions":["antennae","pattern"],"bee_group":{"antennae":"B","wings":"X","pattern":"S","legs":"X"},"bonus":1.1000000000000012},{"rt":905.7999999523163,"stimulus":"bees-with-color/bee-A2SM.svg","response":0,"trial_type":"image-button-response","trial_index":15,"time_elapsed":287319,"internal_node_id":"0.0-4.0-0.4","subject_id":"6171b1bc917dfe828a3130dd","study_id":"6197b3f67c2b5cd3b6d9596a","session_id":"619be320d0619739bd6b2e51","condition":"contingent","relevant_dimensions":["antennae","pattern"],"bee_group":{"antennae":"B","wings":"X","pattern":"S","legs":"X"},"action":"harvest","summary":"good-harvest","bonus":1.1000000000000012},{"rt":2540,"stimulus":"\n                    <p><b>Action: <em>harvest</em></b></p>\n                    <p>This is the bee that you just saw.</p>\n                    <img src=\"bees-with-color/bee-A2SM.svg\" width=\"200\">\n                    <p><span class=\"greenText\"><b>Successful harvest!</b></span><br>Your pay has increased by $0.02. Your bonus pay is now $0.62.</p>\n            ","response":0,"trial_type":"html-button-response","trial_index":16,"time_elapsed":289861,"internal_node_id":"0.0-4.0-1.4","subject_id":"6171b1bc917dfe828a3130dd","study_id":"6197b3f67c2b5cd3b6d9596a","session_id":"619be320d0619739bd6b2e51","condition":"contingent","relevant_dimensions":["antennae","pattern"],"bee_group":{"antennae":"B","wings":"X","pattern":"S","legs":"X"},"bonus":1.1000000000000012},{"rt":846,"stimulus":"bees-with-color/bee-A1DF.svg","response":0,"trial_type":"image-button-response","trial_index":17,"time_elapsed":290709,"internal_node_id":"0.0-4.0-0.5","subject_id":"6171b1bc917dfe828a3130dd","study_id":"6197b3f67c2b5cd3b6d9596a","session_id":"619be320d0619739bd6b2e51","condition":"contingent","relevant_dimensions":["antennae","pattern"],"bee_group":{"antennae":"B","wings":"X","pattern":"S","legs":"X"},"action":"harvest","summary":"good-harvest","bonus":1.1000000000000012},{"rt":2536.3000000715256,"stimulus":"\n                    <p><b>Action: <em>harvest</em></b></p>\n                    <p>This is the bee that you just saw.</p>\n                    <img src=\"bees-with-color/bee-A1DF.svg\" width=\"200\">\n                    <p><span class=\"greenText\"><b>Successful harvest!</b></span><br>Your pay has increased by $0.02. Your bonus pay is now $0.64.</p>\n            ","response":0,"trial_type":"html-button-response","trial_index":18,"time_elapsed":293248,"internal_node_id":"0.0-4.0-1.5","subject_id":"6171b1bc917dfe828a3130dd","study_id":"6197b3f67c2b5cd3b6d9596a","session_id":"619be320d0619739bd6b2e51","condition":"contingent","relevant_dimensions":["antennae","pattern"],"bee_group":{"antennae":"B","wings":"X","pattern":"S","legs":"X"},"bonus":1.1000000000000012},{"rt":4283.5,"stimulus":"bees-with-color/bee-B1SM.svg","response":0,"trial_type":"image-button-response","trial_index":19,"time_elapsed":297533,"internal_node_id":"0.0-4.0-0.6","subject_id":"6171b1bc917dfe828a3130dd","study_id":"6197b3f67c2b5cd3b6d9596a","session_id":"619be320d0619739bd6b2e51","condition":"contingent","relevant_dimensions":["antennae","pattern"],"bee_group":{"antennae":"B","wings":"X","pattern":"S","legs":"X"},"action":"harvest","summary":"bad-harvest","bonus":1.1000000000000012},{"rt":7930.399999976158,"stimulus":"\n                    <p><b>Action: <em>harvest</em></b></p>\n                    <p>This is the bee that you just saw.</p>\n                    <img src=\"bees-with-color/bee-B1SM.svg\" width=\"200\">\n                    <p><span class=\"redText\">Bad choice, the bee was angry.</span><br><b>You have been stung!</b><br>Your pay has been decreased by $0.10. Your bonus pay is now $0.54.</p>\n            ","response":0,"trial_type":"html-button-response","trial_index":20,"time_elapsed":305465,"internal_node_id":"0.0-4.0-1.6","subject_id":"6171b1bc917dfe828a3130dd","study_id":"6197b3f67c2b5cd3b6d9596a","session_id":"619be320d0619739bd6b2e51","condition":"contingent","relevant_dimensions":["antennae","pattern"],"bee_group":{"antennae":"B","wings":"X","pattern":"S","legs":"X"},"bonus":1.1000000000000012},{"rt":1966.1000000238419,"stimulus":"bees-with-color/bee-B1DM.svg","response":0,"trial_type":"image-button-response","trial_index":21,"time_elapsed":307433,"internal_node_id":"0.0-4.0-0.7","subject_id":"6171b1bc917dfe828a3130dd","study_id":"6197b3f67c2b5cd3b6d9596a","session_id":"619be320d0619739bd6b2e51","condition":"contingent","relevant_dimensions":["antennae","pattern"],"bee_group":{"antennae":"B","wings":"X","pattern":"S","legs":"X"},"action":"harvest","summary":"good-harvest","bonus":1.1000000000000012},{"rt":1602.6000000238419,"stimulus":"\n                    <p><b>Action: <em>harvest</em></b></p>\n                    <p>This is the bee that you just saw.</p>\n                    <img src=\"bees-with-color/bee-B1DM.svg\" width=\"200\">\n                    <p><span class=\"greenText\"><b>Successful harvest!</b></span><br>Your pay has increased by $0.02. Your bonus pay is now $0.56.</p>\n            ","response":0,"trial_type":"html-button-response","trial_index":22,"time_elapsed":309037,"internal_node_id":"0.0-4.0-1.7","subject_id":"6171b1bc917dfe828a3130dd","study_id":"6197b3f67c2b5cd3b6d9596a","session_id":"619be320d0619739bd6b2e51","condition":"contingent","relevant_dimensions":["antennae","pattern"],"bee_group":{"antennae":"B","wings":"X","pattern":"S","legs":"X"},"bonus":1.1000000000000012},{"rt":3378.2999999523163,"stimulus":"bees-with-color/bee-A2DM.svg","response":0,"trial_type":"image-button-response","trial_index":23,"time_elapsed":312417,"internal_node_id":"0.0-4.0-0.8","subject_id":"6171b1bc917dfe828a3130dd","study_id":"6197b3f67c2b5cd3b6d9596a","session_id":"619be320d0619739bd6b2e51","condition":"contingent","relevant_dimensions":["antennae","pattern"],"bee_group":{"antennae":"B","wings":"X","pattern":"S","legs":"X"},"action":"harvest","summary":"good-harvest","bonus":1.1000000000000012},{"rt":1000.6000000238419,"stimulus":"\n                    <p><b>Action: <em>harvest</em></b></p>\n                    <p>This is the bee that you just saw.</p>\n                    <img src=\"bees-with-color/bee-A2DM.svg\" width=\"200\">\n                    <p><span class=\"greenText\"><b>Successful harvest!</b></span><br>Your pay has increased by $0.02. Your bonus pay is now $0.58.</p>\n            ","response":0,"trial_type":"html-button-response","trial_index":24,"time_elapsed":313419,"internal_node_id":"0.0-4.0-1.8","subject_id":"6171b1bc917dfe828a3130dd","study_id":"6197b3f67c2b5cd3b6d9596a","session_id":"619be320d0619739bd6b2e51","condition":"contingent","relevant_dimensions":["antennae","pattern"],"bee_group":{"antennae":"B","wings":"X","pattern":"S","legs":"X"},"bonus":1.1000000000000012},{"rt":2292.399999976158,"stimulus":"bees-with-color/bee-B2DF.svg","response":0,"trial_type":"image-button-response","trial_index":25,"time_elapsed":315713,"internal_node_id":"0.0-4.0-0.9","subject_id":"6171b1bc917dfe828a3130dd","study_id":"6197b3f67c2b5cd3b6d9596a","session_id":"619be320d0619739bd6b2e51","condition":"contingent","relevant_dimensions":["antennae","pattern"],"bee_group":{"antennae":"B","wings":"X","pattern":"S","legs":"X"},"action":"harvest","summary":"good-harvest","bonus":1.1000000000000012},{"rt":1016.3999999761581,"stimulus":"\n                    <p><b>Action: <em>harvest</em></b></p>\n                    <p>This is the bee that you just saw.</p>\n                    <img src=\"bees-with-color/bee-B2DF.svg\" width=\"200\">\n                    <p><span class=\"greenText\"><b>Successful harvest!</b></span><br>Your pay has increased by $0.02. Your bonus pay is now $0.60.</p>\n            ","response":0,"trial_type":"html-button-response","trial_index":26,"time_elapsed":316731,"internal_node_id":"0.0-4.0-1.9","subject_id":"6171b1bc917dfe828a3130dd","study_id":"6197b3f67c2b5cd3b6d9596a","session_id":"619be320d0619739bd6b2e51","condition":"contingent","relevant_dimensions":["antennae","pattern"],"bee_group":{"antennae":"B","wings":"X","pattern":"S","legs":"X"},"bonus":1.1000000000000012},{"rt":1624.2999999523163,"stimulus":"bees-with-color/bee-B2DM.svg","response":0,"trial_type":"image-button-response","trial_index":27,"time_elapsed":318357,"internal_node_id":"0.0-4.0-0.10","subject_id":"6171b1bc917dfe828a3130dd","study_id":"6197b3f67c2b5cd3b6d9596a","session_id":"619be320d0619739bd6b2e51","condition":"contingent","relevant_dimensions":["antennae","pattern"],"bee_group":{"antennae":"B","wings":"X","pattern":"S","legs":"X"},"action":"harvest","summary":"good-harvest","bonus":1.1000000000000012},{"rt":1018.1000000238419,"stimulus":"\n                    <p><b>Action: <em>harvest</em></b></p>\n                    <p>This is the bee that you just saw.</p>\n                    <img src=\"bees-with-color/bee-B2DM.svg\" width=\"200\">\n                    <p><span class=\"greenText\"><b>Successful harvest!</b></span><br>Your pay has increased by $0.02. Your bonus pay is now $0.62.</p>\n            ","response":0,"trial_type":"html-button-response","trial_index":28,"time_elapsed":319377,"internal_node_id":"0.0-4.0-1.10","subject_id":"6171b1bc917dfe828a3130dd","study_id":"6197b3f67c2b5cd3b6d9596a","session_id":"619be320d0619739bd6b2e51","condition":"contingent","relevant_dimensions":["antennae","pattern"],"bee_group":{"antennae":"B","wings":"X","pattern":"S","legs":"X"},"bonus":1.1000000000000012},{"rt":1957.1000000238419,"stimulus":"bees-with-color/bee-A1SF.svg","response":0,"trial_type":"image-button-response","trial_index":29,"time_elapsed":321335,"internal_node_id":"0.0-4.0-0.11","subject_id":"6171b1bc917dfe828a3130dd","study_id":"6197b3f67c2b5cd3b6d9596a","session_id":"619be320d0619739bd6b2e51","condition":"contingent","relevant_dimensions":["antennae","pattern"],"bee_group":{"antennae":"B","wings":"X","pattern":"S","legs":"X"},"action":"harvest","summary":"good-harvest","bonus":1.1000000000000012},{"rt":1392.3999999761581,"stimulus":"\n                    <p><b>Action: <em>harvest</em></b></p>\n                    <p>This is the bee that you just saw.</p>\n                    <img src=\"bees-with-color/bee-A1SF.svg\" width=\"200\">\n                    <p><span class=\"greenText\"><b>Successful harvest!</b></span><br>Your pay has increased by $0.02. Your bonus pay is now $0.64.</p>\n            ","response":0,"trial_type":"html-button-response","trial_index":30,"time_elapsed":322729,"internal_node_id":"0.0-4.0-1.11","subject_id":"6171b1bc917dfe828a3130dd","study_id":"6197b3f67c2b5cd3b6d9596a","session_id":"619be320d0619739bd6b2e51","condition":"contingent","relevant_dimensions":["antennae","pattern"],"bee_group":{"antennae":"B","wings":"X","pattern":"S","legs":"X"},"bonus":1.1000000000000012},{"rt":792.2000000476837,"stimulus":"bees-with-color/bee-A1SM.svg","response":0,"trial_type":"image-button-response","trial_index":31,"time_elapsed":323523,"internal_node_id":"0.0-4.0-0.12","subject_id":"6171b1bc917dfe828a3130dd","study_id":"6197b3f67c2b5cd3b6d9596a","session_id":"619be320d0619739bd6b2e51","condition":"contingent","relevant_dimensions":["antennae","pattern"],"bee_group":{"antennae":"B","wings":"X","pattern":"S","legs":"X"},"action":"harvest","summary":"good-harvest","bonus":1.1000000000000012},{"rt":5220.5,"stimulus":"\n                    <p><b>Action: <em>harvest</em></b></p>\n                    <p>This is the bee that you just saw.</p>\n                    <img src=\"bees-with-color/bee-A1SM.svg\" width=\"200\">\n                    <p><span class=\"greenText\"><b>Successful harvest!</b></span><br>Your pay has increased by $0.02. Your bonus pay is now $0.66.</p>\n            ","response":0,"trial_type":"html-button-response","trial_index":32,"time_elapsed":328745,"internal_node_id":"0.0-4.0-1.12","subject_id":"6171b1bc917dfe828a3130dd","study_id":"6197b3f67c2b5cd3b6d9596a","session_id":"619be320d0619739bd6b2e51","condition":"contingent","relevant_dimensions":["antennae","pattern"],"bee_group":{"antennae":"B","wings":"X","pattern":"S","legs":"X"},"bonus":1.1000000000000012},{"rt":3598.100000023842,"stimulus":"bees-with-color/bee-B2SM.svg","response":0,"trial_type":"image-button-response","trial_index":33,"time_elapsed":332346,"internal_node_id":"0.0-4.0-0.13","subject_id":"6171b1bc917dfe828a3130dd","study_id":"6197b3f67c2b5cd3b6d9596a","session_id":"619be320d0619739bd6b2e51","condition":"contingent","relevant_dimensions":["antennae","pattern"],"bee_group":{"antennae":"B","wings":"X","pattern":"S","legs":"X"},"action":"harvest","summary":"bad-harvest","bonus":1.1000000000000012},{"rt":5026.100000023842,"stimulus":"\n                    <p><b>Action: <em>harvest</em></b></p>\n                    <p>This is the bee that you just saw.</p>\n                    <img src=\"bees-with-color/bee-B2SM.svg\" width=\"200\">\n                    <p><span class=\"redText\">Bad choice, the bee was angry.</span><br><b>You have been stung!</b><br>Your pay has been decreased by $0.10. Your bonus pay is now $0.56.</p>\n            ","response":0,"trial_type":"html-button-response","trial_index":34,"time_elapsed":337373,"internal_node_id":"0.0-4.0-1.13","subject_id":"6171b1bc917dfe828a3130dd","study_id":"6197b3f67c2b5cd3b6d9596a","session_id":"619be320d0619739bd6b2e51","condition":"contingent","relevant_dimensions":["antennae","pattern"],"bee_group":{"antennae":"B","wings":"X","pattern":"S","legs":"X"},"bonus":1.1000000000000012},{"rt":1739.7000000476837,"stimulus":"bees-with-color/bee-B1DF.svg","response":0,"trial_type":"image-button-response","trial_index":35,"time_elapsed":339115,"internal_node_id":"0.0-4.0-0.14","subject_id":"6171b1bc917dfe828a3130dd","study_id":"6197b3f67c2b5cd3b6d9596a","session_id":"619be320d0619739bd6b2e51","condition":"contingent","relevant_dimensions":["antennae","pattern"],"bee_group":{"antennae":"B","wings":"X","pattern":"S","legs":"X"},"action":"harvest","summary":"good-harvest","bonus":1.1000000000000012},{"rt":1190.2999999523163,"stimulus":"\n                    <p><b>Action: <em>harvest</em></b></p>\n                    <p>This is the bee that you just saw.</p>\n                    <img src=\"bees-with-color/bee-B1DF.svg\" width=\"200\">\n                    <p><span class=\"greenText\"><b>Successful harvest!</b></span><br>Your pay has increased by $0.02. Your bonus pay is now $0.58.</p>\n            ","response":0,"trial_type":"html-button-response","trial_index":36,"time_elapsed":340307,"internal_node_id":"0.0-4.0-1.14","subject_id":"6171b1bc917dfe828a3130dd","study_id":"6197b3f67c2b5cd3b6d9596a","session_id":"619be320d0619739bd6b2e51","condition":"contingent","relevant_dimensions":["antennae","pattern"],"bee_group":{"antennae":"B","wings":"X","pattern":"S","legs":"X"},"bonus":1.1000000000000012},{"rt":1810.6999999284744,"stimulus":"bees-with-color/bee-B1SF.svg","response":0,"trial_type":"image-button-response","trial_index":37,"time_elapsed":342120,"internal_node_id":"0.0-4.0-0.15","subject_id":"6171b1bc917dfe828a3130dd","study_id":"6197b3f67c2b5cd3b6d9596a","session_id":"619be320d0619739bd6b2e51","condition":"contingent","relevant_dimensions":["antennae","pattern"],"bee_group":{"antennae":"B","wings":"X","pattern":"S","legs":"X"},"action":"harvest","summary":"bad-harvest","bonus":1.1000000000000012},{"rt":3194.100000023842,"stimulus":"\n                    <p><b>Action: <em>harvest</em></b></p>\n                    <p>This is the bee that you just saw.</p>\n                    <img src=\"bees-with-color/bee-B1SF.svg\" width=\"200\">\n                    <p><span class=\"redText\">Bad choice, the bee was angry.</span><br><b>You have been stung!</b><br>Your pay has been decreased by $0.10. Your bonus pay is now $0.48.</p>\n            ","response":0,"trial_type":"html-button-response","trial_index":38,"time_elapsed":345315,"internal_node_id":"0.0-4.0-1.15","subject_id":"6171b1bc917dfe828a3130dd","study_id":"6197b3f67c2b5cd3b6d9596a","session_id":"619be320d0619739bd6b2e51","condition":"contingent","relevant_dimensions":["antennae","pattern"],"bee_group":{"antennae":"B","wings":"X","pattern":"S","legs":"X"},"bonus":1.1000000000000012},{"rt":1087.7999999523163,"stimulus":"bees-with-color/bee-B1DF.svg","response":0,"trial_type":"image-button-response","trial_index":39,"time_elapsed":346405,"internal_node_id":"0.0-4.0-0.16","subject_id":"6171b1bc917dfe828a3130dd","study_id":"6197b3f67c2b5cd3b6d9596a","session_id":"619be320d0619739bd6b2e51","condition":"contingent","relevant_dimensions":["antennae","pattern"],"bee_group":{"antennae":"B","wings":"X","pattern":"S","legs":"X"},"action":"harvest","summary":"good-harvest","bonus":1.1000000000000012},{"rt":762.1999999284744,"stimulus":"\n                    <p><b>Action: <em>harvest</em></b></p>\n                    <p>This is the bee that you just saw.</p>\n                    <img src=\"bees-with-color/bee-B1DF.svg\" width=\"200\">\n                    <p><span class=\"greenText\"><b>Successful harvest!</b></span><br>Your pay has increased by $0.02. Your bonus pay is now $0.50.</p>\n            ","response":0,"trial_type":"html-button-response","trial_index":40,"time_elapsed":347169,"internal_node_id":"0.0-4.0-1.16","subject_id":"6171b1bc917dfe828a3130dd","study_id":"6197b3f67c2b5cd3b6d9596a","session_id":"619be320d0619739bd6b2e51","condition":"contingent","relevant_dimensions":["antennae","pattern"],"bee_group":{"antennae":"B","wings":"X","pattern":"S","legs":"X"},"bonus":1.1000000000000012},{"rt":1346.5,"stimulus":"bees-with-color/bee-B2SF.svg","response":1,"trial_type":"image-button-response","trial_index":41,"time_elapsed":348517,"internal_node_id":"0.0-4.0-0.17","subject_id":"6171b1bc917dfe828a3130dd","study_id":"6197b3f67c2b5cd3b6d9596a","session_id":"619be320d0619739bd6b2e51","condition":"contingent","relevant_dimensions":["antennae","pattern"],"bee_group":{"antennae":"B","wings":"X","pattern":"S","legs":"X"},"action":"avoid","summary":"good-avoid","bonus":1.1000000000000012},{"rt":2986.5,"stimulus":"\n                    <p><b>Action: <em>avoid</em></b></p>\n                    <p>This is the bee that you just saw.</p>\n                    <img src=\"bees-with-color/bee-B2SF.svg\" width=\"200\">\n                    <p><br>Your bonus pay is unchanged, and remains at $0.50.</p>\n            ","response":0,"trial_type":"html-button-response","trial_index":42,"time_elapsed":351505,"internal_node_id":"0.0-4.0-1.17","subject_id":"6171b1bc917dfe828a3130dd","study_id":"6197b3f67c2b5cd3b6d9596a","session_id":"619be320d0619739bd6b2e51","condition":"contingent","relevant_dimensions":["antennae","pattern"],"bee_group":{"antennae":"B","wings":"X","pattern":"S","legs":"X"},"bonus":1.1000000000000012},{"rt":1718.2999999523163,"stimulus":"bees-with-color/bee-B2DM.svg","response":0,"trial_type":"image-button-response","trial_index":43,"time_elapsed":353225,"internal_node_id":"0.0-4.0-0.18","subject_id":"6171b1bc917dfe828a3130dd","study_id":"6197b3f67c2b5cd3b6d9596a","session_id":"619be320d0619739bd6b2e51","condition":"contingent","relevant_dimensions":["antennae","pattern"],"bee_group":{"antennae":"B","wings":"X","pattern":"S","legs":"X"},"action":"harvest","summary":"good-harvest","bonus":1.1000000000000012},{"rt":910,"stimulus":"\n                    <p><b>Action: <em>harvest</em></b></p>\n                    <p>This is the bee that you just saw.</p>\n                    <img src=\"bees-with-color/bee-B2DM.svg\" width=\"200\">\n                    <p><span class=\"greenText\"><b>Successful harvest!</b></span><br>Your pay has increased by $0.02. Your bonus pay is now $0.52.</p>\n            ","response":0,"trial_type":"html-button-response","trial_index":44,"time_elapsed":354137,"internal_node_id":"0.0-4.0-1.18","subject_id":"6171b1bc917dfe828a3130dd","study_id":"6197b3f67c2b5cd3b6d9596a","session_id":"619be320d0619739bd6b2e51","condition":"contingent","relevant_dimensions":["antennae","pattern"],"bee_group":{"antennae":"B","wings":"X","pattern":"S","legs":"X"},"bonus":1.1000000000000012},{"rt":1462.6999999284744,"stimulus":"bees-with-color/bee-B2DF.svg","response":0,"trial_type":"image-button-response","trial_index":45,"time_elapsed":355602,"internal_node_id":"0.0-4.0-0.19","subject_id":"6171b1bc917dfe828a3130dd","study_id":"6197b3f67c2b5cd3b6d9596a","session_id":"619be320d0619739bd6b2e51","condition":"contingent","relevant_dimensions":["antennae","pattern"],"bee_group":{"antennae":"B","wings":"X","pattern":"S","legs":"X"},"action":"harvest","summary":"good-harvest","bonus":1.1000000000000012},{"rt":811.8999999761581,"stimulus":"\n                    <p><b>Action: <em>harvest</em></b></p>\n                    <p>This is the bee that you just saw.</p>\n                    <img src=\"bees-with-color/bee-B2DF.svg\" width=\"200\">\n                    <p><span class=\"greenText\"><b>Successful harvest!</b></span><br>Your pay has increased by $0.02. Your bonus pay is now $0.54.</p>\n            ","response":0,"trial_type":"html-button-response","trial_index":46,"time_elapsed":356415,"internal_node_id":"0.0-4.0-1.19","subject_id":"6171b1bc917dfe828a3130dd","study_id":"6197b3f67c2b5cd3b6d9596a","session_id":"619be320d0619739bd6b2e51","condition":"contingent","relevant_dimensions":["antennae","pattern"],"bee_group":{"antennae":"B","wings":"X","pattern":"S","legs":"X"},"bonus":1.1000000000000012},{"rt":5060.299999952316,"stimulus":"bees-with-color/bee-A2DM.svg","response":1,"trial_type":"image-button-response","trial_index":47,"time_elapsed":361478,"internal_node_id":"0.0-4.0-0.20","subject_id":"6171b1bc917dfe828a3130dd","study_id":"6197b3f67c2b5cd3b6d9596a","session_id":"619be320d0619739bd6b2e51","condition":"contingent","relevant_dimensions":["antennae","pattern"],"bee_group":{"antennae":"B","wings":"X","pattern":"S","legs":"X"},"action":"avoid","summary":"bad-avoid","bonus":1.1000000000000012},{"rt":1100.3999999761581,"stimulus":"\n                    <p><b>Action: <em>avoid</em></b></p>\n                    <p>This is the bee that you just saw.</p>\n                    <img src=\"bees-with-color/bee-A2DM.svg\" width=\"200\">\n                    <p><br>Your bonus pay is unchanged, and remains at $0.54.</p>\n            ","response":0,"trial_type":"html-button-response","trial_index":48,"time_elapsed":362580,"internal_node_id":"0.0-4.0-1.20","subject_id":"6171b1bc917dfe828a3130dd","study_id":"6197b3f67c2b5cd3b6d9596a","session_id":"619be320d0619739bd6b2e51","condition":"contingent","relevant_dimensions":["antennae","pattern"],"bee_group":{"antennae":"B","wings":"X","pattern":"S","legs":"X"},"bonus":1.1000000000000012},{"rt":644.1000000238419,"stimulus":"bees-with-color/bee-B1SF.svg","response":0,"trial_type":"image-button-response","trial_index":49,"time_elapsed":363226,"internal_node_id":"0.0-4.0-0.21","subject_id":"6171b1bc917dfe828a3130dd","study_id":"6197b3f67c2b5cd3b6d9596a","session_id":"619be320d0619739bd6b2e51","condition":"contingent","relevant_dimensions":["antennae","pattern"],"bee_group":{"antennae":"B","wings":"X","pattern":"S","legs":"X"},"action":"harvest","summary":"bad-harvest","bonus":1.1000000000000012},{"rt":2284.3000000715256,"stimulus":"\n                    <p><b>Action: <em>harvest</em></b></p>\n                    <p>This is the bee that you just saw.</p>\n                    <img src=\"bees-with-color/bee-B1SF.svg\" width=\"200\">\n                    <p><span class=\"redText\">Bad choice, the bee was angry.</span><br><b>You have been stung!</b><br>Your pay has been decreased by $0.10. Your bonus pay is now $0.44.</p>\n            ","response":0,"trial_type":"html-button-response","trial_index":50,"time_elapsed":365512,"internal_node_id":"0.0-4.0-1.21","subject_id":"6171b1bc917dfe828a3130dd","study_id":"6197b3f67c2b5cd3b6d9596a","session_id":"619be320d0619739bd6b2e51","condition":"contingent","relevant_dimensions":["antennae","pattern"],"bee_group":{"antennae":"B","wings":"X","pattern":"S","legs":"X"},"bonus":1.1000000000000012},{"rt":1760.3000000715256,"stimulus":"bees-with-color/bee-B1DM.svg","response":0,"trial_type":"image-button-response","trial_index":51,"time_elapsed":367274,"internal_node_id":"0.0-4.0-0.22","subject_id":"6171b1bc917dfe828a3130dd","study_id":"6197b3f67c2b5cd3b6d9596a","session_id":"619be320d0619739bd6b2e51","condition":"contingent","relevant_dimensions":["antennae","pattern"],"bee_group":{"antennae":"B","wings":"X","pattern":"S","legs":"X"},"action":"harvest","summary":"good-harvest","bonus":1.1000000000000012},{"rt":1030.6000000238419,"stimulus":"\n                    <p><b>Action: <em>harvest</em></b></p>\n                    <p>This is the bee that you just saw.</p>\n                    <img src=\"bees-with-color/bee-B1DM.svg\" width=\"200\">\n                    <p><span class=\"greenText\"><b>Successful harvest!</b></span><br>Your pay has increased by $0.02. Your bonus pay is now $0.46.</p>\n            ","response":0,"trial_type":"html-button-response","trial_index":52,"time_elapsed":368306,"internal_node_id":"0.0-4.0-1.22","subject_id":"6171b1bc917dfe828a3130dd","study_id":"6197b3f67c2b5cd3b6d9596a","session_id":"619be320d0619739bd6b2e51","condition":"contingent","relevant_dimensions":["antennae","pattern"],"bee_group":{"antennae":"B","wings":"X","pattern":"S","legs":"X"},"bonus":1.1000000000000012},{"rt":852.7999999523163,"stimulus":"bees-with-color/bee-A2DF.svg","response":0,"trial_type":"image-button-response","trial_index":53,"time_elapsed":369160,"internal_node_id":"0.0-4.0-0.23","subject_id":"6171b1bc917dfe828a3130dd","study_id":"6197b3f67c2b5cd3b6d9596a","session_id":"619be320d0619739bd6b2e51","condition":"contingent","relevant_dimensions":["antennae","pattern"],"bee_group":{"antennae":"B","wings":"X","pattern":"S","legs":"X"},"action":"harvest","summary":"good-harvest","bonus":1.1000000000000012},{"rt":818.2000000476837,"stimulus":"\n                    <p><b>Action: <em>harvest</em></b></p>\n                    <p>This is the bee that you just saw.</p>\n                    <img src=\"bees-with-color/bee-A2DF.svg\" width=\"200\">\n                    <p><span class=\"greenText\"><b>Successful harvest!</b></span><br>Your pay has increased by $0.02. Your bonus pay is now $0.48.</p>\n            ","response":0,"trial_type":"html-button-response","trial_index":54,"time_elapsed":369980,"internal_node_id":"0.0-4.0-1.23","subject_id":"6171b1bc917dfe828a3130dd","study_id":"6197b3f67c2b5cd3b6d9596a","session_id":"619be320d0619739bd6b2e51","condition":"contingent","relevant_dimensions":["antennae","pattern"],"bee_group":{"antennae":"B","wings":"X","pattern":"S","legs":"X"},"bonus":1.1000000000000012},{"rt":2622.7000000476837,"stimulus":"bees-with-color/bee-A2SM.svg","response":0,"trial_type":"image-button-response","trial_index":55,"time_elapsed":372604,"internal_node_id":"0.0-4.0-0.24","subject_id":"6171b1bc917dfe828a3130dd","study_id":"6197b3f67c2b5cd3b6d9596a","session_id":"619be320d0619739bd6b2e51","condition":"contingent","relevant_dimensions":["antennae","pattern"],"bee_group":{"antennae":"B","wings":"X","pattern":"S","legs":"X"},"action":"harvest","summary":"good-harvest","bonus":1.1000000000000012},{"rt":800.4000000953674,"stimulus":"\n                    <p><b>Action: <em>harvest</em></b></p>\n                    <p>This is the bee that you just saw.</p>\n                    <img src=\"bees-with-color/bee-A2SM.svg\" width=\"200\">\n                    <p><span class=\"greenText\"><b>Successful harvest!</b></span><br>Your pay has increased by $0.02. Your bonus pay is now $0.50.</p>\n            ","response":0,"trial_type":"html-button-response","trial_index":56,"time_elapsed":373406,"internal_node_id":"0.0-4.0-1.24","subject_id":"6171b1bc917dfe828a3130dd","study_id":"6197b3f67c2b5cd3b6d9596a","session_id":"619be320d0619739bd6b2e51","condition":"contingent","relevant_dimensions":["antennae","pattern"],"bee_group":{"antennae":"B","wings":"X","pattern":"S","legs":"X"},"bonus":1.1000000000000012},{"rt":2546.399999976158,"stimulus":"bees-with-color/bee-A1DF.svg","response":0,"trial_type":"image-button-response","trial_index":57,"time_elapsed":375954,"internal_node_id":"0.0-4.0-0.25","subject_id":"6171b1bc917dfe828a3130dd","study_id":"6197b3f67c2b5cd3b6d9596a","session_id":"619be320d0619739bd6b2e51","condition":"contingent","relevant_dimensions":["antennae","pattern"],"bee_group":{"antennae":"B","wings":"X","pattern":"S","legs":"X"},"action":"harvest","summary":"good-harvest","bonus":1.1000000000000012},{"rt":858.7000000476837,"stimulus":"\n                    <p><b>Action: <em>harvest</em></b></p>\n                    <p>This is the bee that you just saw.</p>\n                    <img src=\"bees-with-color/bee-A1DF.svg\" width=\"200\">\n                    <p><span class=\"greenText\"><b>Successful harvest!</b></span><br>Your pay has increased by $0.02. Your bonus pay is now $0.52.</p>\n            ","response":0,"trial_type":"html-button-response","trial_index":58,"time_elapsed":376814,"internal_node_id":"0.0-4.0-1.25","subject_id":"6171b1bc917dfe828a3130dd","study_id":"6197b3f67c2b5cd3b6d9596a","session_id":"619be320d0619739bd6b2e51","condition":"contingent","relevant_dimensions":["antennae","pattern"],"bee_group":{"antennae":"B","wings":"X","pattern":"S","legs":"X"},"bonus":1.1000000000000012},{"rt":1264.3999999761581,"stimulus":"bees-with-color/bee-A1DM.svg","response":0,"trial_type":"image-button-response","trial_index":59,"time_elapsed":378080,"internal_node_id":"0.0-4.0-0.26","subject_id":"6171b1bc917dfe828a3130dd","study_id":"6197b3f67c2b5cd3b6d9596a","session_id":"619be320d0619739bd6b2e51","condition":"contingent","relevant_dimensions":["antennae","pattern"],"bee_group":{"antennae":"B","wings":"X","pattern":"S","legs":"X"},"action":"harvest","summary":"good-harvest","bonus":1.1000000000000012},{"rt":752.6000000238419,"stimulus":"\n                    <p><b>Action: <em>harvest</em></b></p>\n                    <p>This is the bee that you just saw.</p>\n                    <img src=\"bees-with-color/bee-A1DM.svg\" width=\"200\">\n                    <p><span class=\"greenText\"><b>Successful harvest!</b></span><br>Your pay has increased by $0.02. Your bonus pay is now $0.54.</p>\n            ","response":0,"trial_type":"html-button-response","trial_index":60,"time_elapsed":378834,"internal_node_id":"0.0-4.0-1.26","subject_id":"6171b1bc917dfe828a3130dd","study_id":"6197b3f67c2b5cd3b6d9596a","session_id":"619be320d0619739bd6b2e51","condition":"contingent","relevant_dimensions":["antennae","pattern"],"bee_group":{"antennae":"B","wings":"X","pattern":"S","legs":"X"},"bonus":1.1000000000000012},{"rt":1282.4000000953674,"stimulus":"bees-with-color/bee-A1SM.svg","response":1,"trial_type":"image-button-response","trial_index":61,"time_elapsed":380118,"internal_node_id":"0.0-4.0-0.27","subject_id":"6171b1bc917dfe828a3130dd","study_id":"6197b3f67c2b5cd3b6d9596a","session_id":"619be320d0619739bd6b2e51","condition":"contingent","relevant_dimensions":["antennae","pattern"],"bee_group":{"antennae":"B","wings":"X","pattern":"S","legs":"X"},"action":"avoid","summary":"bad-avoid","bonus":1.1000000000000012},{"rt":932.5,"stimulus":"\n                    <p><b>Action: <em>avoid</em></b></p>\n                    <p>This is the bee that you just saw.</p>\n                    <img src=\"bees-with-color/bee-A1SM.svg\" width=\"200\">\n                    <p><br>Your bonus pay is unchanged, and remains at $0.54.</p>\n            ","response":0,"trial_type":"html-button-response","trial_index":62,"time_elapsed":381052,"internal_node_id":"0.0-4.0-1.27","subject_id":"6171b1bc917dfe828a3130dd","study_id":"6197b3f67c2b5cd3b6d9596a","session_id":"619be320d0619739bd6b2e51","condition":"contingent","relevant_dimensions":["antennae","pattern"],"bee_group":{"antennae":"B","wings":"X","pattern":"S","legs":"X"},"bonus":1.1000000000000012},{"rt":3508.600000023842,"stimulus":"bees-with-color/bee-A2SF.svg","response":1,"trial_type":"image-button-response","trial_index":63,"time_elapsed":384562,"internal_node_id":"0.0-4.0-0.28","subject_id":"6171b1bc917dfe828a3130dd","study_id":"6197b3f67c2b5cd3b6d9596a","session_id":"619be320d0619739bd6b2e51","condition":"contingent","relevant_dimensions":["antennae","pattern"],"bee_group":{"antennae":"B","wings":"X","pattern":"S","legs":"X"},"action":"avoid","summary":"bad-avoid","bonus":1.1000000000000012},{"rt":704.3999999761581,"stimulus":"\n                    <p><b>Action: <em>avoid</em></b></p>\n                    <p>This is the bee that you just saw.</p>\n                    <img src=\"bees-with-color/bee-A2SF.svg\" width=\"200\">\n                    <p><br>Your bonus pay is unchanged, and remains at $0.54.</p>\n            ","response":0,"trial_type":"html-button-response","trial_index":64,"time_elapsed":385268,"internal_node_id":"0.0-4.0-1.28","subject_id":"6171b1bc917dfe828a3130dd","study_id":"6197b3f67c2b5cd3b6d9596a","session_id":"619be320d0619739bd6b2e51","condition":"contingent","relevant_dimensions":["antennae","pattern"],"bee_group":{"antennae":"B","wings":"X","pattern":"S","legs":"X"},"bonus":1.1000000000000012},{"rt":1202.1000000238419,"stimulus":"bees-with-color/bee-A1SF.svg","response":1,"trial_type":"image-button-response","trial_index":65,"time_elapsed":386472,"internal_node_id":"0.0-4.0-0.29","subject_id":"6171b1bc917dfe828a3130dd","study_id":"6197b3f67c2b5cd3b6d9596a","session_id":"619be320d0619739bd6b2e51","condition":"contingent","relevant_dimensions":["antennae","pattern"],"bee_group":{"antennae":"B","wings":"X","pattern":"S","legs":"X"},"action":"avoid","summary":"bad-avoid","bonus":1.1000000000000012},{"rt":606.3999999761581,"stimulus":"\n                    <p><b>Action: <em>avoid</em></b></p>\n                    <p>This is the bee that you just saw.</p>\n                    <img src=\"bees-with-color/bee-A1SF.svg\" width=\"200\">\n                    <p><br>Your bonus pay is unchanged, and remains at $0.54.</p>\n            ","response":0,"trial_type":"html-button-response","trial_index":66,"time_elapsed":387080,"internal_node_id":"0.0-4.0-1.29","subject_id":"6171b1bc917dfe828a3130dd","study_id":"6197b3f67c2b5cd3b6d9596a","session_id":"619be320d0619739bd6b2e51","condition":"contingent","relevant_dimensions":["antennae","pattern"],"bee_group":{"antennae":"B","wings":"X","pattern":"S","legs":"X"},"bonus":1.1000000000000012},{"rt":1132.5,"stimulus":"bees-with-color/bee-B1SM.svg","response":1,"trial_type":"image-button-response","trial_index":67,"time_elapsed":388214,"internal_node_id":"0.0-4.0-0.30","subject_id":"6171b1bc917dfe828a3130dd","study_id":"6197b3f67c2b5cd3b6d9596a","session_id":"619be320d0619739bd6b2e51","condition":"contingent","relevant_dimensions":["antennae","pattern"],"bee_group":{"antennae":"B","wings":"X","pattern":"S","legs":"X"},"action":"avoid","summary":"good-avoid","bonus":1.1000000000000012},{"rt":684.5,"stimulus":"\n                    <p><b>Action: <em>avoid</em></b></p>\n                    <p>This is the bee that you just saw.</p>\n                    <img src=\"bees-with-color/bee-B1SM.svg\" width=\"200\">\n                    <p><br>Your bonus pay is unchanged, and remains at $0.54.</p>\n            ","response":0,"trial_type":"html-button-response","trial_index":68,"time_elapsed":388900,"internal_node_id":"0.0-4.0-1.30","subject_id":"6171b1bc917dfe828a3130dd","study_id":"6197b3f67c2b5cd3b6d9596a","session_id":"619be320d0619739bd6b2e51","condition":"contingent","relevant_dimensions":["antennae","pattern"],"bee_group":{"antennae":"B","wings":"X","pattern":"S","legs":"X"},"bonus":1.1000000000000012},{"rt":1326.1999999284744,"stimulus":"bees-with-color/bee-B2SM.svg","response":1,"trial_type":"image-button-response","trial_index":69,"time_elapsed":390228,"internal_node_id":"0.0-4.0-0.31","subject_id":"6171b1bc917dfe828a3130dd","study_id":"6197b3f67c2b5cd3b6d9596a","session_id":"619be320d0619739bd6b2e51","condition":"contingent","relevant_dimensions":["antennae","pattern"],"bee_group":{"antennae":"B","wings":"X","pattern":"S","legs":"X"},"action":"avoid","summary":"good-avoid","bonus":1.1000000000000012},{"rt":1030.2000000476837,"stimulus":"\n                    <p><b>Action: <em>avoid</em></b></p>\n                    <p>This is the bee that you just saw.</p>\n                    <img src=\"bees-with-color/bee-B2SM.svg\" width=\"200\">\n                    <p><br>Your bonus pay is unchanged, and remains at $0.54.</p>\n            ","response":0,"trial_type":"html-button-response","trial_index":70,"time_elapsed":391260,"internal_node_id":"0.0-4.0-1.31","subject_id":"6171b1bc917dfe828a3130dd","study_id":"6197b3f67c2b5cd3b6d9596a","session_id":"619be320d0619739bd6b2e51","condition":"contingent","relevant_dimensions":["antennae","pattern"],"bee_group":{"antennae":"B","wings":"X","pattern":"S","legs":"X"},"bonus":1.1000000000000012},{"rt":1404.5,"stimulus":"bees-with-color/bee-A2SM.svg","response":0,"trial_type":"image-button-response","trial_index":71,"time_elapsed":392666,"internal_node_id":"0.0-4.0-0.32","subject_id":"6171b1bc917dfe828a3130dd","study_id":"6197b3f67c2b5cd3b6d9596a","session_id":"619be320d0619739bd6b2e51","condition":"contingent","relevant_dimensions":["antennae","pattern"],"bee_group":{"antennae":"B","wings":"X","pattern":"S","legs":"X"},"action":"harvest","summary":"good-harvest","bonus":1.1000000000000012},{"rt":874.3999999761581,"stimulus":"\n                    <p><b>Action: <em>harvest</em></b></p>\n                    <p>This is the bee that you just saw.</p>\n                    <img src=\"bees-with-color/bee-A2SM.svg\" width=\"200\">\n                    <p><span class=\"greenText\"><b>Successful harvest!</b></span><br>Your pay has increased by $0.02. Your bonus pay is now $0.56.</p>\n            ","response":0,"trial_type":"html-button-response","trial_index":72,"time_elapsed":393542,"internal_node_id":"0.0-4.0-1.32","subject_id":"6171b1bc917dfe828a3130dd","study_id":"6197b3f67c2b5cd3b6d9596a","session_id":"619be320d0619739bd6b2e51","condition":"contingent","relevant_dimensions":["antennae","pattern"],"bee_group":{"antennae":"B","wings":"X","pattern":"S","legs":"X"},"bonus":1.1000000000000012},{"rt":1710.2999999523163,"stimulus":"bees-with-color/bee-B1SF.svg","response":1,"trial_type":"image-button-response","trial_index":73,"time_elapsed":395254,"internal_node_id":"0.0-4.0-0.33","subject_id":"6171b1bc917dfe828a3130dd","study_id":"6197b3f67c2b5cd3b6d9596a","session_id":"619be320d0619739bd6b2e51","condition":"contingent","relevant_dimensions":["antennae","pattern"],"bee_group":{"antennae":"B","wings":"X","pattern":"S","legs":"X"},"action":"avoid","summary":"good-avoid","bonus":1.1000000000000012},{"rt":518.2000000476837,"stimulus":"\n                    <p><b>Action: <em>avoid</em></b></p>\n                    <p>This is the bee that you just saw.</p>\n                    <img src=\"bees-with-color/bee-B1SF.svg\" width=\"200\">\n                    <p><br>Your bonus pay is unchanged, and remains at $0.56.</p>\n            ","response":0,"trial_type":"html-button-response","trial_index":74,"time_elapsed":395774,"internal_node_id":"0.0-4.0-1.33","subject_id":"6171b1bc917dfe828a3130dd","study_id":"6197b3f67c2b5cd3b6d9596a","session_id":"619be320d0619739bd6b2e51","condition":"contingent","relevant_dimensions":["antennae","pattern"],"bee_group":{"antennae":"B","wings":"X","pattern":"S","legs":"X"},"bonus":1.1000000000000012},{"rt":964.1000000238419,"stimulus":"bees-with-color/bee-A2DM.svg","response":0,"trial_type":"image-button-response","trial_index":75,"time_elapsed":396740,"internal_node_id":"0.0-4.0-0.34","subject_id":"6171b1bc917dfe828a3130dd","study_id":"6197b3f67c2b5cd3b6d9596a","session_id":"619be320d0619739bd6b2e51","condition":"contingent","relevant_dimensions":["antennae","pattern"],"bee_group":{"antennae":"B","wings":"X","pattern":"S","legs":"X"},"action":"harvest","summary":"good-harvest","bonus":1.1000000000000012},{"rt":930.2000000476837,"stimulus":"\n                    <p><b>Action: <em>harvest</em></b></p>\n                    <p>This is the bee that you just saw.</p>\n                    <img src=\"bees-with-color/bee-A2DM.svg\" width=\"200\">\n                    <p><span class=\"greenText\"><b>Successful harvest!</b></span><br>Your pay has increased by $0.02. Your bonus pay is now $0.58.</p>\n            ","response":0,"trial_type":"html-button-response","trial_index":76,"time_elapsed":397672,"internal_node_id":"0.0-4.0-1.34","subject_id":"6171b1bc917dfe828a3130dd","study_id":"6197b3f67c2b5cd3b6d9596a","session_id":"619be320d0619739bd6b2e51","condition":"contingent","relevant_dimensions":["antennae","pattern"],"bee_group":{"antennae":"B","wings":"X","pattern":"S","legs":"X"},"bonus":1.1000000000000012},{"rt":1256.2999999523163,"stimulus":"bees-with-color/bee-A1DM.svg","response":0,"trial_type":"image-button-response","trial_index":77,"time_elapsed":398930,"internal_node_id":"0.0-4.0-0.35","subject_id":"6171b1bc917dfe828a3130dd","study_id":"6197b3f67c2b5cd3b6d9596a","session_id":"619be320d0619739bd6b2e51","condition":"contingent","relevant_dimensions":["antennae","pattern"],"bee_group":{"antennae":"B","wings":"X","pattern":"S","legs":"X"},"action":"harvest","summary":"good-harvest","bonus":1.1000000000000012},{"rt":704.1000000238419,"stimulus":"\n                    <p><b>Action: <em>harvest</em></b></p>\n                    <p>This is the bee that you just saw.</p>\n                    <img src=\"bees-with-color/bee-A1DM.svg\" width=\"200\">\n                    <p><span class=\"greenText\"><b>Successful harvest!</b></span><br>Your pay has increased by $0.02. Your bonus pay is now $0.60.</p>\n            ","response":0,"trial_type":"html-button-response","trial_index":78,"time_elapsed":399636,"internal_node_id":"0.0-4.0-1.35","subject_id":"6171b1bc917dfe828a3130dd","study_id":"6197b3f67c2b5cd3b6d9596a","session_id":"619be320d0619739bd6b2e51","condition":"contingent","relevant_dimensions":["antennae","pattern"],"bee_group":{"antennae":"B","wings":"X","pattern":"S","legs":"X"},"bonus":1.1000000000000012},{"rt":3502.5,"stimulus":"bees-with-color/bee-A1SF.svg","response":0,"trial_type":"image-button-response","trial_index":79,"time_elapsed":403140,"internal_node_id":"0.0-4.0-0.36","subject_id":"6171b1bc917dfe828a3130dd","study_id":"6197b3f67c2b5cd3b6d9596a","session_id":"619be320d0619739bd6b2e51","condition":"contingent","relevant_dimensions":["antennae","pattern"],"bee_group":{"antennae":"B","wings":"X","pattern":"S","legs":"X"},"action":"harvest","summary":"good-harvest","bonus":1.1000000000000012},{"rt":892.1000000238419,"stimulus":"\n                    <p><b>Action: <em>harvest</em></b></p>\n                    <p>This is the bee that you just saw.</p>\n                    <img src=\"bees-with-color/bee-A1SF.svg\" width=\"200\">\n                    <p><span class=\"greenText\"><b>Successful harvest!</b></span><br>Your pay has increased by $0.02. Your bonus pay is now $0.62.</p>\n            ","response":0,"trial_type":"html-button-response","trial_index":80,"time_elapsed":404034,"internal_node_id":"0.0-4.0-1.36","subject_id":"6171b1bc917dfe828a3130dd","study_id":"6197b3f67c2b5cd3b6d9596a","session_id":"619be320d0619739bd6b2e51","condition":"contingent","relevant_dimensions":["antennae","pattern"],"bee_group":{"antennae":"B","wings":"X","pattern":"S","legs":"X"},"bonus":1.1000000000000012},{"rt":3744,"stimulus":"bees-with-color/bee-B2SF.svg","response":1,"trial_type":"image-button-response","trial_index":81,"time_elapsed":407780,"internal_node_id":"0.0-4.0-0.37","subject_id":"6171b1bc917dfe828a3130dd","study_id":"6197b3f67c2b5cd3b6d9596a","session_id":"619be320d0619739bd6b2e51","condition":"contingent","relevant_dimensions":["antennae","pattern"],"bee_group":{"antennae":"B","wings":"X","pattern":"S","legs":"X"},"action":"avoid","summary":"good-avoid","bonus":1.1000000000000012},{"rt":956.3999999761581,"stimulus":"\n                    <p><b>Action: <em>avoid</em></b></p>\n                    <p>This is the bee that you just saw.</p>\n                    <img src=\"bees-with-color/bee-B2SF.svg\" width=\"200\">\n                    <p><br>Your bonus pay is unchanged, and remains at $0.62.</p>\n            ","response":0,"trial_type":"html-button-response","trial_index":82,"time_elapsed":408738,"internal_node_id":"0.0-4.0-1.37","subject_id":"6171b1bc917dfe828a3130dd","study_id":"6197b3f67c2b5cd3b6d9596a","session_id":"619be320d0619739bd6b2e51","condition":"contingent","relevant_dimensions":["antennae","pattern"],"bee_group":{"antennae":"B","wings":"X","pattern":"S","legs":"X"},"bonus":1.1000000000000012},{"rt":2680.600000023842,"stimulus":"bees-with-color/bee-A2DF.svg","response":0,"trial_type":"image-button-response","trial_index":83,"time_elapsed":411422,"internal_node_id":"0.0-4.0-0.38","subject_id":"6171b1bc917dfe828a3130dd","study_id":"6197b3f67c2b5cd3b6d9596a","session_id":"619be320d0619739bd6b2e51","condition":"contingent","relevant_dimensions":["antennae","pattern"],"bee_group":{"antennae":"B","wings":"X","pattern":"S","legs":"X"},"action":"harvest","summary":"good-harvest","bonus":1.1000000000000012},{"rt":984.6000000238419,"stimulus":"\n                    <p><b>Action: <em>harvest</em></b></p>\n                    <p>This is the bee that you just saw.</p>\n                    <img src=\"bees-with-color/bee-A2DF.svg\" width=\"200\">\n                    <p><span class=\"greenText\"><b>Successful harvest!</b></span><br>Your pay has increased by $0.02. Your bonus pay is now $0.64.</p>\n            ","response":0,"trial_type":"html-button-response","trial_index":84,"time_elapsed":412408,"internal_node_id":"0.0-4.0-1.38","subject_id":"6171b1bc917dfe828a3130dd","study_id":"6197b3f67c2b5cd3b6d9596a","session_id":"619be320d0619739bd6b2e51","condition":"contingent","relevant_dimensions":["antennae","pattern"],"bee_group":{"antennae":"B","wings":"X","pattern":"S","legs":"X"},"bonus":1.1000000000000012},{"rt":1672.5,"stimulus":"bees-with-color/bee-B2DM.svg","response":0,"trial_type":"image-button-response","trial_index":85,"time_elapsed":414082,"internal_node_id":"0.0-4.0-0.39","subject_id":"6171b1bc917dfe828a3130dd","study_id":"6197b3f67c2b5cd3b6d9596a","session_id":"619be320d0619739bd6b2e51","condition":"contingent","relevant_dimensions":["antennae","pattern"],"bee_group":{"antennae":"B","wings":"X","pattern":"S","legs":"X"},"action":"harvest","summary":"good-harvest","bonus":1.1000000000000012},{"rt":840,"stimulus":"\n                    <p><b>Action: <em>harvest</em></b></p>\n                    <p>This is the bee that you just saw.</p>\n                    <img src=\"bees-with-color/bee-B2DM.svg\" width=\"200\">\n                    <p><span class=\"greenText\"><b>Successful harvest!</b></span><br>Your pay has increased by $0.02. Your bonus pay is now $0.66.</p>\n            ","response":0,"trial_type":"html-button-response","trial_index":86,"time_elapsed":414924,"internal_node_id":"0.0-4.0-1.39","subject_id":"6171b1bc917dfe828a3130dd","study_id":"6197b3f67c2b5cd3b6d9596a","session_id":"619be320d0619739bd6b2e51","condition":"contingent","relevant_dimensions":["antennae","pattern"],"bee_group":{"antennae":"B","wings":"X","pattern":"S","legs":"X"},"bonus":1.1000000000000012},{"rt":1328.7000000476837,"stimulus":"bees-with-color/bee-A2SF.svg","response":0,"trial_type":"image-button-response","trial_index":87,"time_elapsed":416254,"internal_node_id":"0.0-4.0-0.40","subject_id":"6171b1bc917dfe828a3130dd","study_id":"6197b3f67c2b5cd3b6d9596a","session_id":"619be320d0619739bd6b2e51","condition":"contingent","relevant_dimensions":["antennae","pattern"],"bee_group":{"antennae":"B","wings":"X","pattern":"S","legs":"X"},"action":"harvest","summary":"good-harvest","bonus":1.1000000000000012},{"rt":798.5,"stimulus":"\n                    <p><b>Action: <em>harvest</em></b></p>\n                    <p>This is the bee that you just saw.</p>\n                    <img src=\"bees-with-color/bee-A2SF.svg\" width=\"200\">\n                    <p><span class=\"greenText\"><b>Successful harvest!</b></span><br>Your pay has increased by $0.02. Your bonus pay is now $0.68.</p>\n            ","response":0,"trial_type":"html-button-response","trial_index":88,"time_elapsed":417054,"internal_node_id":"0.0-4.0-1.40","subject_id":"6171b1bc917dfe828a3130dd","study_id":"6197b3f67c2b5cd3b6d9596a","session_id":"619be320d0619739bd6b2e51","condition":"contingent","relevant_dimensions":["antennae","pattern"],"bee_group":{"antennae":"B","wings":"X","pattern":"S","legs":"X"},"bonus":1.1000000000000012},{"rt":1722.8000000715256,"stimulus":"bees-with-color/bee-B2DF.svg","response":0,"trial_type":"image-button-response","trial_index":89,"time_elapsed":418778,"internal_node_id":"0.0-4.0-0.41","subject_id":"6171b1bc917dfe828a3130dd","study_id":"6197b3f67c2b5cd3b6d9596a","session_id":"619be320d0619739bd6b2e51","condition":"contingent","relevant_dimensions":["antennae","pattern"],"bee_group":{"antennae":"B","wings":"X","pattern":"S","legs":"X"},"action":"harvest","summary":"good-harvest","bonus":1.1000000000000012},{"rt":1108.5,"stimulus":"\n                    <p><b>Action: <em>harvest</em></b></p>\n                    <p>This is the bee that you just saw.</p>\n                    <img src=\"bees-with-color/bee-B2DF.svg\" width=\"200\">\n                    <p><span class=\"greenText\"><b>Successful harvest!</b></span><br>Your pay has increased by $0.02. Your bonus pay is now $0.70.</p>\n            ","response":0,"trial_type":"html-button-response","trial_index":90,"time_elapsed":419888,"internal_node_id":"0.0-4.0-1.41","subject_id":"6171b1bc917dfe828a3130dd","study_id":"6197b3f67c2b5cd3b6d9596a","session_id":"619be320d0619739bd6b2e51","condition":"contingent","relevant_dimensions":["antennae","pattern"],"bee_group":{"antennae":"B","wings":"X","pattern":"S","legs":"X"},"bonus":1.1000000000000012},{"rt":2330.399999976158,"stimulus":"bees-with-color/bee-B2SM.svg","response":1,"trial_type":"image-button-response","trial_index":91,"time_elapsed":422220,"internal_node_id":"0.0-4.0-0.42","subject_id":"6171b1bc917dfe828a3130dd","study_id":"6197b3f67c2b5cd3b6d9596a","session_id":"619be320d0619739bd6b2e51","condition":"contingent","relevant_dimensions":["antennae","pattern"],"bee_group":{"antennae":"B","wings":"X","pattern":"S","legs":"X"},"action":"avoid","summary":"good-avoid","bonus":1.1000000000000012},{"rt":2272.9000000953674,"stimulus":"\n                    <p><b>Action: <em>avoid</em></b></p>\n                    <p>This is the bee that you just saw.</p>\n                    <img src=\"bees-with-color/bee-B2SM.svg\" width=\"200\">\n                    <p><br>Your bonus pay is unchanged, and remains at $0.70.</p>\n            ","response":0,"trial_type":"html-button-response","trial_index":92,"time_elapsed":424494,"internal_node_id":"0.0-4.0-1.42","subject_id":"6171b1bc917dfe828a3130dd","study_id":"6197b3f67c2b5cd3b6d9596a","session_id":"619be320d0619739bd6b2e51","condition":"contingent","relevant_dimensions":["antennae","pattern"],"bee_group":{"antennae":"B","wings":"X","pattern":"S","legs":"X"},"bonus":1.1000000000000012},{"rt":1006.3000000715256,"stimulus":"bees-with-color/bee-B1DM.svg","response":0,"trial_type":"image-button-response","trial_index":93,"time_elapsed":425502,"internal_node_id":"0.0-4.0-0.43","subject_id":"6171b1bc917dfe828a3130dd","study_id":"6197b3f67c2b5cd3b6d9596a","session_id":"619be320d0619739bd6b2e51","condition":"contingent","relevant_dimensions":["antennae","pattern"],"bee_group":{"antennae":"B","wings":"X","pattern":"S","legs":"X"},"action":"harvest","summary":"good-harvest","bonus":1.1000000000000012},{"rt":794.3999999761581,"stimulus":"\n                    <p><b>Action: <em>harvest</em></b></p>\n                    <p>This is the bee that you just saw.</p>\n                    <img src=\"bees-with-color/bee-B1DM.svg\" width=\"200\">\n                    <p><span class=\"greenText\"><b>Successful harvest!</b></span><br>Your pay has increased by $0.02. Your bonus pay is now $0.72.</p>\n            ","response":0,"trial_type":"html-button-response","trial_index":94,"time_elapsed":426298,"internal_node_id":"0.0-4.0-1.43","subject_id":"6171b1bc917dfe828a3130dd","study_id":"6197b3f67c2b5cd3b6d9596a","session_id":"619be320d0619739bd6b2e51","condition":"contingent","relevant_dimensions":["antennae","pattern"],"bee_group":{"antennae":"B","wings":"X","pattern":"S","legs":"X"},"bonus":1.1000000000000012},{"rt":1454.6000000238419,"stimulus":"bees-with-color/bee-A1SM.svg","response":1,"trial_type":"image-button-response","trial_index":95,"time_elapsed":427754,"internal_node_id":"0.0-4.0-0.44","subject_id":"6171b1bc917dfe828a3130dd","study_id":"6197b3f67c2b5cd3b6d9596a","session_id":"619be320d0619739bd6b2e51","condition":"contingent","relevant_dimensions":["antennae","pattern"],"bee_group":{"antennae":"B","wings":"X","pattern":"S","legs":"X"},"action":"avoid","summary":"bad-avoid","bonus":1.1000000000000012},{"rt":952.6000000238419,"stimulus":"\n                    <p><b>Action: <em>avoid</em></b></p>\n                    <p>This is the bee that you just saw.</p>\n                    <img src=\"bees-with-color/bee-A1SM.svg\" width=\"200\">\n                    <p><br>Your bonus pay is unchanged, and remains at $0.72.</p>\n            ","response":0,"trial_type":"html-button-response","trial_index":96,"time_elapsed":428708,"internal_node_id":"0.0-4.0-1.44","subject_id":"6171b1bc917dfe828a3130dd","study_id":"6197b3f67c2b5cd3b6d9596a","session_id":"619be320d0619739bd6b2e51","condition":"contingent","relevant_dimensions":["antennae","pattern"],"bee_group":{"antennae":"B","wings":"X","pattern":"S","legs":"X"},"bonus":1.1000000000000012},{"rt":1116.5,"stimulus":"bees-with-color/bee-B1DF.svg","response":0,"trial_type":"image-button-response","trial_index":97,"time_elapsed":429826,"internal_node_id":"0.0-4.0-0.45","subject_id":"6171b1bc917dfe828a3130dd","study_id":"6197b3f67c2b5cd3b6d9596a","session_id":"619be320d0619739bd6b2e51","condition":"contingent","relevant_dimensions":["antennae","pattern"],"bee_group":{"antennae":"B","wings":"X","pattern":"S","legs":"X"},"action":"harvest","summary":"good-harvest","bonus":1.1000000000000012},{"rt":860.2999999523163,"stimulus":"\n                    <p><b>Action: <em>harvest</em></b></p>\n                    <p>This is the bee that you just saw.</p>\n                    <img src=\"bees-with-color/bee-B1DF.svg\" width=\"200\">\n                    <p><span class=\"greenText\"><b>Successful harvest!</b></span><br>Your pay has increased by $0.02. Your bonus pay is now $0.74.</p>\n            ","response":0,"trial_type":"html-button-response","trial_index":98,"time_elapsed":430688,"internal_node_id":"0.0-4.0-1.45","subject_id":"6171b1bc917dfe828a3130dd","study_id":"6197b3f67c2b5cd3b6d9596a","session_id":"619be320d0619739bd6b2e51","condition":"contingent","relevant_dimensions":["antennae","pattern"],"bee_group":{"antennae":"B","wings":"X","pattern":"S","legs":"X"},"bonus":1.1000000000000012},{"rt":910.8000000715256,"stimulus":"bees-with-color/bee-A1DF.svg","response":0,"trial_type":"image-button-response","trial_index":99,"time_elapsed":431600,"internal_node_id":"0.0-4.0-0.46","subject_id":"6171b1bc917dfe828a3130dd","study_id":"6197b3f67c2b5cd3b6d9596a","session_id":"619be320d0619739bd6b2e51","condition":"contingent","relevant_dimensions":["antennae","pattern"],"bee_group":{"antennae":"B","wings":"X","pattern":"S","legs":"X"},"action":"harvest","summary":"good-harvest","bonus":1.1000000000000012},{"rt":832.3999999761581,"stimulus":"\n                    <p><b>Action: <em>harvest</em></b></p>\n                    <p>This is the bee that you just saw.</p>\n                    <img src=\"bees-with-color/bee-A1DF.svg\" width=\"200\">\n                    <p><span class=\"greenText\"><b>Successful harvest!</b></span><br>Your pay has increased by $0.02. Your bonus pay is now $0.76.</p>\n            ","response":0,"trial_type":"html-button-response","trial_index":100,"time_elapsed":432434,"internal_node_id":"0.0-4.0-1.46","subject_id":"6171b1bc917dfe828a3130dd","study_id":"6197b3f67c2b5cd3b6d9596a","session_id":"619be320d0619739bd6b2e51","condition":"contingent","relevant_dimensions":["antennae","pattern"],"bee_group":{"antennae":"B","wings":"X","pattern":"S","legs":"X"},"bonus":1.1000000000000012},{"rt":1314.5,"stimulus":"bees-with-color/bee-B1SM.svg","response":0,"trial_type":"image-button-response","trial_index":101,"time_elapsed":433750,"internal_node_id":"0.0-4.0-0.47","subject_id":"6171b1bc917dfe828a3130dd","study_id":"6197b3f67c2b5cd3b6d9596a","session_id":"619be320d0619739bd6b2e51","condition":"contingent","relevant_dimensions":["antennae","pattern"],"bee_group":{"antennae":"B","wings":"X","pattern":"S","legs":"X"},"action":"harvest","summary":"bad-harvest","bonus":1.1000000000000012},{"rt":1266.3999999761581,"stimulus":"\n                    <p><b>Action: <em>harvest</em></b></p>\n                    <p>This is the bee that you just saw.</p>\n                    <img src=\"bees-with-color/bee-B1SM.svg\" width=\"200\">\n                    <p><span class=\"redText\">Bad choice, the bee was angry.</span><br><b>You have been stung!</b><br>Your pay has been decreased by $0.10. Your bonus pay is now $0.66.</p>\n            ","response":0,"trial_type":"html-button-response","trial_index":102,"time_elapsed":435018,"internal_node_id":"0.0-4.0-1.47","subject_id":"6171b1bc917dfe828a3130dd","study_id":"6197b3f67c2b5cd3b6d9596a","session_id":"619be320d0619739bd6b2e51","condition":"contingent","relevant_dimensions":["antennae","pattern"],"bee_group":{"antennae":"B","wings":"X","pattern":"S","legs":"X"},"bonus":1.1000000000000012},{"rt":1482.5,"stimulus":"bees-with-color/bee-A2DM.svg","response":0,"trial_type":"image-button-response","trial_index":103,"time_elapsed":436502,"internal_node_id":"0.0-4.0-0.48","subject_id":"6171b1bc917dfe828a3130dd","study_id":"6197b3f67c2b5cd3b6d9596a","session_id":"619be320d0619739bd6b2e51","condition":"contingent","relevant_dimensions":["antennae","pattern"],"bee_group":{"antennae":"B","wings":"X","pattern":"S","legs":"X"},"action":"harvest","summary":"good-harvest","bonus":1.1000000000000012},{"rt":866.3000000715256,"stimulus":"\n                    <p><b>Action: <em>harvest</em></b></p>\n                    <p>This is the bee that you just saw.</p>\n                    <img src=\"bees-with-color/bee-A2DM.svg\" width=\"200\">\n                    <p><span class=\"greenText\"><b>Successful harvest!</b></span><br>Your pay has increased by $0.02. Your bonus pay is now $0.68.</p>\n            ","response":0,"trial_type":"html-button-response","trial_index":104,"time_elapsed":437370,"internal_node_id":"0.0-4.0-1.48","subject_id":"6171b1bc917dfe828a3130dd","study_id":"6197b3f67c2b5cd3b6d9596a","session_id":"619be320d0619739bd6b2e51","condition":"contingent","relevant_dimensions":["antennae","pattern"],"bee_group":{"antennae":"B","wings":"X","pattern":"S","legs":"X"},"bonus":1.1000000000000012},{"rt":814.3999999761581,"stimulus":"bees-with-color/bee-B2DM.svg","response":0,"trial_type":"image-button-response","trial_index":105,"time_elapsed":438186,"internal_node_id":"0.0-4.0-0.49","subject_id":"6171b1bc917dfe828a3130dd","study_id":"6197b3f67c2b5cd3b6d9596a","session_id":"619be320d0619739bd6b2e51","condition":"contingent","relevant_dimensions":["antennae","pattern"],"bee_group":{"antennae":"B","wings":"X","pattern":"S","legs":"X"},"action":"harvest","summary":"good-harvest","bonus":1.1000000000000012},{"rt":692.2000000476837,"stimulus":"\n                    <p><b>Action: <em>harvest</em></b></p>\n                    <p>This is the bee that you just saw.</p>\n                    <img src=\"bees-with-color/bee-B2DM.svg\" width=\"200\">\n                    <p><span class=\"greenText\"><b>Successful harvest!</b></span><br>Your pay has increased by $0.02. Your bonus pay is now $0.70.</p>\n            ","response":0,"trial_type":"html-button-response","trial_index":106,"time_elapsed":438880,"internal_node_id":"0.0-4.0-1.49","subject_id":"6171b1bc917dfe828a3130dd","study_id":"6197b3f67c2b5cd3b6d9596a","session_id":"619be320d0619739bd6b2e51","condition":"contingent","relevant_dimensions":["antennae","pattern"],"bee_group":{"antennae":"B","wings":"X","pattern":"S","legs":"X"},"bonus":1.1000000000000012},{"rt":840.6000000238419,"stimulus":"bees-with-color/bee-A2DF.svg","response":0,"trial_type":"image-button-response","trial_index":107,"time_elapsed":439722,"internal_node_id":"0.0-4.0-0.50","subject_id":"6171b1bc917dfe828a3130dd","study_id":"6197b3f67c2b5cd3b6d9596a","session_id":"619be320d0619739bd6b2e51","condition":"contingent","relevant_dimensions":["antennae","pattern"],"bee_group":{"antennae":"B","wings":"X","pattern":"S","legs":"X"},"action":"harvest","summary":"good-harvest","bonus":1.1000000000000012},{"rt":723.8999999761581,"stimulus":"\n                    <p><b>Action: <em>harvest</em></b></p>\n                    <p>This is the bee that you just saw.</p>\n                    <img src=\"bees-with-color/bee-A2DF.svg\" width=\"200\">\n                    <p><span class=\"greenText\"><b>Successful harvest!</b></span><br>Your pay has increased by $0.02. Your bonus pay is now $0.72.</p>\n            ","response":0,"trial_type":"html-button-response","trial_index":108,"time_elapsed":440448,"internal_node_id":"0.0-4.0-1.50","subject_id":"6171b1bc917dfe828a3130dd","study_id":"6197b3f67c2b5cd3b6d9596a","session_id":"619be320d0619739bd6b2e51","condition":"contingent","relevant_dimensions":["antennae","pattern"],"bee_group":{"antennae":"B","wings":"X","pattern":"S","legs":"X"},"bonus":1.1000000000000012},{"rt":836.3999999761581,"stimulus":"bees-with-color/bee-B2DF.svg","response":0,"trial_type":"image-button-response","trial_index":109,"time_elapsed":441286,"internal_node_id":"0.0-4.0-0.51","subject_id":"6171b1bc917dfe828a3130dd","study_id":"6197b3f67c2b5cd3b6d9596a","session_id":"619be320d0619739bd6b2e51","condition":"contingent","relevant_dimensions":["antennae","pattern"],"bee_group":{"antennae":"B","wings":"X","pattern":"S","legs":"X"},"action":"harvest","summary":"good-harvest","bonus":1.1000000000000012},{"rt":751,"stimulus":"\n                    <p><b>Action: <em>harvest</em></b></p>\n                    <p>This is the bee that you just saw.</p>\n                    <img src=\"bees-with-color/bee-B2DF.svg\" width=\"200\">\n                    <p><span class=\"greenText\"><b>Successful harvest!</b></span><br>Your pay has increased by $0.02. Your bonus pay is now $0.74.</p>\n            ","response":0,"trial_type":"html-button-response","trial_index":110,"time_elapsed":442039,"internal_node_id":"0.0-4.0-1.51","subject_id":"6171b1bc917dfe828a3130dd","study_id":"6197b3f67c2b5cd3b6d9596a","session_id":"619be320d0619739bd6b2e51","condition":"contingent","relevant_dimensions":["antennae","pattern"],"bee_group":{"antennae":"B","wings":"X","pattern":"S","legs":"X"},"bonus":1.1000000000000012},{"rt":2147.7999999523163,"stimulus":"bees-with-color/bee-A1SM.svg","response":1,"trial_type":"image-button-response","trial_index":111,"time_elapsed":444188,"internal_node_id":"0.0-4.0-0.52","subject_id":"6171b1bc917dfe828a3130dd","study_id":"6197b3f67c2b5cd3b6d9596a","session_id":"619be320d0619739bd6b2e51","condition":"contingent","relevant_dimensions":["antennae","pattern"],"bee_group":{"antennae":"B","wings":"X","pattern":"S","legs":"X"},"action":"avoid","summary":"bad-avoid","bonus":1.1000000000000012},{"rt":814,"stimulus":"\n                    <p><b>Action: <em>avoid</em></b></p>\n                    <p>This is the bee that you just saw.</p>\n                    <img src=\"bees-with-color/bee-A1SM.svg\" width=\"200\">\n                    <p><br>Your bonus pay is unchanged, and remains at $0.74.</p>\n            ","response":0,"trial_type":"html-button-response","trial_index":112,"time_elapsed":445004,"internal_node_id":"0.0-4.0-1.52","subject_id":"6171b1bc917dfe828a3130dd","study_id":"6197b3f67c2b5cd3b6d9596a","session_id":"619be320d0619739bd6b2e51","condition":"contingent","relevant_dimensions":["antennae","pattern"],"bee_group":{"antennae":"B","wings":"X","pattern":"S","legs":"X"},"bonus":1.1000000000000012},{"rt":799.1999999284744,"stimulus":"bees-with-color/bee-A1DF.svg","response":0,"trial_type":"image-button-response","trial_index":113,"time_elapsed":445804,"internal_node_id":"0.0-4.0-0.53","subject_id":"6171b1bc917dfe828a3130dd","study_id":"6197b3f67c2b5cd3b6d9596a","session_id":"619be320d0619739bd6b2e51","condition":"contingent","relevant_dimensions":["antennae","pattern"],"bee_group":{"antennae":"B","wings":"X","pattern":"S","legs":"X"},"action":"harvest","summary":"good-harvest","bonus":1.1000000000000012},{"rt":741.3000000715256,"stimulus":"\n                    <p><b>Action: <em>harvest</em></b></p>\n                    <p>This is the bee that you just saw.</p>\n                    <img src=\"bees-with-color/bee-A1DF.svg\" width=\"200\">\n                    <p><span class=\"greenText\"><b>Successful harvest!</b></span><br>Your pay has increased by $0.02. Your bonus pay is now $0.76.</p>\n            ","response":0,"trial_type":"html-button-response","trial_index":114,"time_elapsed":446548,"internal_node_id":"0.0-4.0-1.53","subject_id":"6171b1bc917dfe828a3130dd","study_id":"6197b3f67c2b5cd3b6d9596a","session_id":"619be320d0619739bd6b2e51","condition":"contingent","relevant_dimensions":["antennae","pattern"],"bee_group":{"antennae":"B","wings":"X","pattern":"S","legs":"X"},"bonus":1.1000000000000012},{"rt":976.3999999761581,"stimulus":"bees-with-color/bee-B2SM.svg","response":1,"trial_type":"image-button-response","trial_index":115,"time_elapsed":447526,"internal_node_id":"0.0-4.0-0.54","subject_id":"6171b1bc917dfe828a3130dd","study_id":"6197b3f67c2b5cd3b6d9596a","session_id":"619be320d0619739bd6b2e51","condition":"contingent","relevant_dimensions":["antennae","pattern"],"bee_group":{"antennae":"B","wings":"X","pattern":"S","legs":"X"},"action":"avoid","summary":"good-avoid","bonus":1.1000000000000012},{"rt":1080.8999999761581,"stimulus":"\n                    <p><b>Action: <em>avoid</em></b></p>\n                    <p>This is the bee that you just saw.</p>\n                    <img src=\"bees-with-color/bee-B2SM.svg\" width=\"200\">\n                    <p><br>Your bonus pay is unchanged, and remains at $0.76.</p>\n            ","response":0,"trial_type":"html-button-response","trial_index":116,"time_elapsed":448608,"internal_node_id":"0.0-4.0-1.54","subject_id":"6171b1bc917dfe828a3130dd","study_id":"6197b3f67c2b5cd3b6d9596a","session_id":"619be320d0619739bd6b2e51","condition":"contingent","relevant_dimensions":["antennae","pattern"],"bee_group":{"antennae":"B","wings":"X","pattern":"S","legs":"X"},"bonus":1.1000000000000012},{"rt":1034.2000000476837,"stimulus":"bees-with-color/bee-B1SM.svg","response":1,"trial_type":"image-button-response","trial_index":117,"time_elapsed":449644,"internal_node_id":"0.0-4.0-0.55","subject_id":"6171b1bc917dfe828a3130dd","study_id":"6197b3f67c2b5cd3b6d9596a","session_id":"619be320d0619739bd6b2e51","condition":"contingent","relevant_dimensions":["antennae","pattern"],"bee_group":{"antennae":"B","wings":"X","pattern":"S","legs":"X"},"action":"avoid","summary":"good-avoid","bonus":1.1000000000000012},{"rt":568.7000000476837,"stimulus":"\n                    <p><b>Action: <em>avoid</em></b></p>\n                    <p>This is the bee that you just saw.</p>\n                    <img src=\"bees-with-color/bee-B1SM.svg\" width=\"200\">\n                    <p><br>Your bonus pay is unchanged, and remains at $0.76.</p>\n            ","response":0,"trial_type":"html-button-response","trial_index":118,"time_elapsed":450214,"internal_node_id":"0.0-4.0-1.55","subject_id":"6171b1bc917dfe828a3130dd","study_id":"6197b3f67c2b5cd3b6d9596a","session_id":"619be320d0619739bd6b2e51","condition":"contingent","relevant_dimensions":["antennae","pattern"],"bee_group":{"antennae":"B","wings":"X","pattern":"S","legs":"X"},"bonus":1.1000000000000012},{"rt":951.1000000238419,"stimulus":"bees-with-color/bee-A2SM.svg","response":0,"trial_type":"image-button-response","trial_index":119,"time_elapsed":451166,"internal_node_id":"0.0-4.0-0.56","subject_id":"6171b1bc917dfe828a3130dd","study_id":"6197b3f67c2b5cd3b6d9596a","session_id":"619be320d0619739bd6b2e51","condition":"contingent","relevant_dimensions":["antennae","pattern"],"bee_group":{"antennae":"B","wings":"X","pattern":"S","legs":"X"},"action":"harvest","summary":"good-harvest","bonus":1.1000000000000012},{"rt":952.5,"stimulus":"\n                    <p><b>Action: <em>harvest</em></b></p>\n                    <p>This is the bee that you just saw.</p>\n                    <img src=\"bees-with-color/bee-A2SM.svg\" width=\"200\">\n                    <p><span class=\"greenText\"><b>Successful harvest!</b></span><br>Your pay has increased by $0.02. Your bonus pay is now $0.78.</p>\n            ","response":0,"trial_type":"html-button-response","trial_index":120,"time_elapsed":452120,"internal_node_id":"0.0-4.0-1.56","subject_id":"6171b1bc917dfe828a3130dd","study_id":"6197b3f67c2b5cd3b6d9596a","session_id":"619be320d0619739bd6b2e51","condition":"contingent","relevant_dimensions":["antennae","pattern"],"bee_group":{"antennae":"B","wings":"X","pattern":"S","legs":"X"},"bonus":1.1000000000000012},{"rt":1038.7000000476837,"stimulus":"bees-with-color/bee-B1DM.svg","response":0,"trial_type":"image-button-response","trial_index":121,"time_elapsed":453160,"internal_node_id":"0.0-4.0-0.57","subject_id":"6171b1bc917dfe828a3130dd","study_id":"6197b3f67c2b5cd3b6d9596a","session_id":"619be320d0619739bd6b2e51","condition":"contingent","relevant_dimensions":["antennae","pattern"],"bee_group":{"antennae":"B","wings":"X","pattern":"S","legs":"X"},"action":"harvest","summary":"good-harvest","bonus":1.1000000000000012},{"rt":926,"stimulus":"\n                    <p><b>Action: <em>harvest</em></b></p>\n                    <p>This is the bee that you just saw.</p>\n                    <img src=\"bees-with-color/bee-B1DM.svg\" width=\"200\">\n                    <p><span class=\"greenText\"><b>Successful harvest!</b></span><br>Your pay has increased by $0.02. Your bonus pay is now $0.80.</p>\n            ","response":0,"trial_type":"html-button-response","trial_index":122,"time_elapsed":454088,"internal_node_id":"0.0-4.0-1.57","subject_id":"6171b1bc917dfe828a3130dd","study_id":"6197b3f67c2b5cd3b6d9596a","session_id":"619be320d0619739bd6b2e51","condition":"contingent","relevant_dimensions":["antennae","pattern"],"bee_group":{"antennae":"B","wings":"X","pattern":"S","legs":"X"},"bonus":1.1000000000000012},{"rt":1154.8000000715256,"stimulus":"bees-with-color/bee-B1DF.svg","response":0,"trial_type":"image-button-response","trial_index":123,"time_elapsed":455244,"internal_node_id":"0.0-4.0-0.58","subject_id":"6171b1bc917dfe828a3130dd","study_id":"6197b3f67c2b5cd3b6d9596a","session_id":"619be320d0619739bd6b2e51","condition":"contingent","relevant_dimensions":["antennae","pattern"],"bee_group":{"antennae":"B","wings":"X","pattern":"S","legs":"X"},"action":"harvest","summary":"good-harvest","bonus":1.1000000000000012},{"rt":786.5,"stimulus":"\n                    <p><b>Action: <em>harvest</em></b></p>\n                    <p>This is the bee that you just saw.</p>\n                    <img src=\"bees-with-color/bee-B1DF.svg\" width=\"200\">\n                    <p><span class=\"greenText\"><b>Successful harvest!</b></span><br>Your pay has increased by $0.02. Your bonus pay is now $0.82.</p>\n            ","response":0,"trial_type":"html-button-response","trial_index":124,"time_elapsed":456032,"internal_node_id":"0.0-4.0-1.58","subject_id":"6171b1bc917dfe828a3130dd","study_id":"6197b3f67c2b5cd3b6d9596a","session_id":"619be320d0619739bd6b2e51","condition":"contingent","relevant_dimensions":["antennae","pattern"],"bee_group":{"antennae":"B","wings":"X","pattern":"S","legs":"X"},"bonus":1.1000000000000012},{"rt":1640.6000000238419,"stimulus":"bees-with-color/bee-B1SF.svg","response":1,"trial_type":"image-button-response","trial_index":125,"time_elapsed":457674,"internal_node_id":"0.0-4.0-0.59","subject_id":"6171b1bc917dfe828a3130dd","study_id":"6197b3f67c2b5cd3b6d9596a","session_id":"619be320d0619739bd6b2e51","condition":"contingent","relevant_dimensions":["antennae","pattern"],"bee_group":{"antennae":"B","wings":"X","pattern":"S","legs":"X"},"action":"avoid","summary":"good-avoid","bonus":1.1000000000000012},{"rt":642.5,"stimulus":"\n                    <p><b>Action: <em>avoid</em></b></p>\n                    <p>This is the bee that you just saw.</p>\n                    <img src=\"bees-with-color/bee-B1SF.svg\" width=\"200\">\n                    <p><br>Your bonus pay is unchanged, and remains at $0.82.</p>\n            ","response":0,"trial_type":"html-button-response","trial_index":126,"time_elapsed":458318,"internal_node_id":"0.0-4.0-1.59","subject_id":"6171b1bc917dfe828a3130dd","study_id":"6197b3f67c2b5cd3b6d9596a","session_id":"619be320d0619739bd6b2e51","condition":"contingent","relevant_dimensions":["antennae","pattern"],"bee_group":{"antennae":"B","wings":"X","pattern":"S","legs":"X"},"bonus":1.1000000000000012},{"rt":1018.8000000715256,"stimulus":"bees-with-color/bee-B2SF.svg","response":0,"trial_type":"image-button-response","trial_index":127,"time_elapsed":459338,"internal_node_id":"0.0-4.0-0.60","subject_id":"6171b1bc917dfe828a3130dd","study_id":"6197b3f67c2b5cd3b6d9596a","session_id":"619be320d0619739bd6b2e51","condition":"contingent","relevant_dimensions":["antennae","pattern"],"bee_group":{"antennae":"B","wings":"X","pattern":"S","legs":"X"},"action":"harvest","summary":"bad-harvest","bonus":1.1000000000000012},{"rt":1082.3999999761581,"stimulus":"\n                    <p><b>Action: <em>harvest</em></b></p>\n                    <p>This is the bee that you just saw.</p>\n                    <img src=\"bees-with-color/bee-B2SF.svg\" width=\"200\">\n                    <p><span class=\"redText\">Bad choice, the bee was angry.</span><br><b>You have been stung!</b><br>Your pay has been decreased by $0.10. Your bonus pay is now $0.72.</p>\n            ","response":0,"trial_type":"html-button-response","trial_index":128,"time_elapsed":460422,"internal_node_id":"0.0-4.0-1.60","subject_id":"6171b1bc917dfe828a3130dd","study_id":"6197b3f67c2b5cd3b6d9596a","session_id":"619be320d0619739bd6b2e51","condition":"contingent","relevant_dimensions":["antennae","pattern"],"bee_group":{"antennae":"B","wings":"X","pattern":"S","legs":"X"},"bonus":1.1000000000000012},{"rt":1316.6000000238419,"stimulus":"bees-with-color/bee-A2SF.svg","response":0,"trial_type":"image-button-response","trial_index":129,"time_elapsed":461740,"internal_node_id":"0.0-4.0-0.61","subject_id":"6171b1bc917dfe828a3130dd","study_id":"6197b3f67c2b5cd3b6d9596a","session_id":"619be320d0619739bd6b2e51","condition":"contingent","relevant_dimensions":["antennae","pattern"],"bee_group":{"antennae":"B","wings":"X","pattern":"S","legs":"X"},"action":"harvest","summary":"good-harvest","bonus":1.1000000000000012},{"rt":790.3000000715256,"stimulus":"\n                    <p><b>Action: <em>harvest</em></b></p>\n                    <p>This is the bee that you just saw.</p>\n                    <img src=\"bees-with-color/bee-A2SF.svg\" width=\"200\">\n                    <p><span class=\"greenText\"><b>Successful harvest!</b></span><br>Your pay has increased by $0.02. Your bonus pay is now $0.74.</p>\n            ","response":0,"trial_type":"html-button-response","trial_index":130,"time_elapsed":462532,"internal_node_id":"0.0-4.0-1.61","subject_id":"6171b1bc917dfe828a3130dd","study_id":"6197b3f67c2b5cd3b6d9596a","session_id":"619be320d0619739bd6b2e51","condition":"contingent","relevant_dimensions":["antennae","pattern"],"bee_group":{"antennae":"B","wings":"X","pattern":"S","legs":"X"},"bonus":1.1000000000000012},{"rt":922.6000000238419,"stimulus":"bees-with-color/bee-A1DM.svg","response":0,"trial_type":"image-button-response","trial_index":131,"time_elapsed":463456,"internal_node_id":"0.0-4.0-0.62","subject_id":"6171b1bc917dfe828a3130dd","study_id":"6197b3f67c2b5cd3b6d9596a","session_id":"619be320d0619739bd6b2e51","condition":"contingent","relevant_dimensions":["antennae","pattern"],"bee_group":{"antennae":"B","wings":"X","pattern":"S","legs":"X"},"action":"harvest","summary":"good-harvest","bonus":1.1000000000000012},{"rt":876.2000000476837,"stimulus":"\n                    <p><b>Action: <em>harvest</em></b></p>\n                    <p>This is the bee that you just saw.</p>\n                    <img src=\"bees-with-color/bee-A1DM.svg\" width=\"200\">\n                    <p><span class=\"greenText\"><b>Successful harvest!</b></span><br>Your pay has increased by $0.02. Your bonus pay is now $0.76.</p>\n            ","response":0,"trial_type":"html-button-response","trial_index":132,"time_elapsed":464334,"internal_node_id":"0.0-4.0-1.62","subject_id":"6171b1bc917dfe828a3130dd","study_id":"6197b3f67c2b5cd3b6d9596a","session_id":"619be320d0619739bd6b2e51","condition":"contingent","relevant_dimensions":["antennae","pattern"],"bee_group":{"antennae":"B","wings":"X","pattern":"S","legs":"X"},"bonus":1.1000000000000012},{"rt":1072.8000000715256,"stimulus":"bees-with-color/bee-A1SF.svg","response":0,"trial_type":"image-button-response","trial_index":133,"time_elapsed":465408,"internal_node_id":"0.0-4.0-0.63","subject_id":"6171b1bc917dfe828a3130dd","study_id":"6197b3f67c2b5cd3b6d9596a","session_id":"619be320d0619739bd6b2e51","condition":"contingent","relevant_dimensions":["antennae","pattern"],"bee_group":{"antennae":"B","wings":"X","pattern":"S","legs":"X"},"action":"harvest","summary":"good-harvest","bonus":1.1000000000000012},{"rt":1038.5,"stimulus":"\n                    <p><b>Action: <em>harvest</em></b></p>\n                    <p>This is the bee that you just saw.</p>\n                    <img src=\"bees-with-color/bee-A1SF.svg\" width=\"200\">\n                    <p><span class=\"greenText\"><b>Successful harvest!</b></span><br>Your pay has increased by $0.02. Your bonus pay is now $0.78.</p>\n            ","response":0,"trial_type":"html-button-response","trial_index":134,"time_elapsed":466448,"internal_node_id":"0.0-4.0-1.63","subject_id":"6171b1bc917dfe828a3130dd","study_id":"6197b3f67c2b5cd3b6d9596a","session_id":"619be320d0619739bd6b2e51","condition":"contingent","relevant_dimensions":["antennae","pattern"],"bee_group":{"antennae":"B","wings":"X","pattern":"S","legs":"X"},"bonus":1.1000000000000012},{"rt":8980,"stimulus":"You have completed the first part of this experiment.<br><br>You will now begin a shorter second part, in which you will receive no feedback.<br>The same rules regarding bonus pay apply.<br><br>Press any key to begin.","response":" ","trial_type":"html-keyboard-response","trial_index":135,"time_elapsed":475430,"internal_node_id":"0.0-5.0","subject_id":"6171b1bc917dfe828a3130dd","study_id":"6197b3f67c2b5cd3b6d9596a","session_id":"619be320d0619739bd6b2e51","condition":"contingent","relevant_dimensions":["antennae","pattern"],"bee_group":{"antennae":"B","wings":"X","pattern":"S","legs":"X"},"bonus":1.1000000000000012},{"rt":2457.3000000715256,"stimulus":"bees-with-color/bee-B1DF.svg","response":0,"trial_type":"image-button-response","trial_index":136,"time_elapsed":477916,"internal_node_id":"0.0-6.0-0.0","subject_id":"6171b1bc917dfe828a3130dd","study_id":"6197b3f67c2b5cd3b6d9596a","session_id":"619be320d0619739bd6b2e51","condition":"contingent","relevant_dimensions":["antennae","pattern"],"bee_group":{"antennae":"B","wings":"X","pattern":"S","legs":"X"},"bonus":1.1000000000000012},{"rt":1591.4000000953674,"stimulus":"bees-with-color/bee-B1DM.svg","response":0,"trial_type":"image-button-response","trial_index":137,"time_elapsed":479510,"internal_node_id":"0.0-6.0-0.1","subject_id":"6171b1bc917dfe828a3130dd","study_id":"6197b3f67c2b5cd3b6d9596a","session_id":"619be320d0619739bd6b2e51","condition":"contingent","relevant_dimensions":["antennae","pattern"],"bee_group":{"antennae":"B","wings":"X","pattern":"S","legs":"X"},"bonus":1.1000000000000012},{"rt":2143.8000000715256,"stimulus":"bees-with-color/bee-A2DM.svg","response":0,"trial_type":"image-button-response","trial_index":138,"time_elapsed":481656,"internal_node_id":"0.0-6.0-0.2","subject_id":"6171b1bc917dfe828a3130dd","study_id":"6197b3f67c2b5cd3b6d9596a","session_id":"619be320d0619739bd6b2e51","condition":"contingent","relevant_dimensions":["antennae","pattern"],"bee_group":{"antennae":"B","wings":"X","pattern":"S","legs":"X"},"bonus":1.1000000000000012},{"rt":639.8000000715256,"stimulus":"bees-with-color/bee-A2DF.svg","response":0,"trial_type":"image-button-response","trial_index":139,"time_elapsed":482298,"internal_node_id":"0.0-6.0-0.3","subject_id":"6171b1bc917dfe828a3130dd","study_id":"6197b3f67c2b5cd3b6d9596a","session_id":"619be320d0619739bd6b2e51","condition":"contingent","relevant_dimensions":["antennae","pattern"],"bee_group":{"antennae":"B","wings":"X","pattern":"S","legs":"X"},"bonus":1.1000000000000012},{"rt":981.1000000238419,"stimulus":"bees-with-color/bee-A1SF.svg","response":1,"trial_type":"image-button-response","trial_index":140,"time_elapsed":483282,"internal_node_id":"0.0-6.0-0.4","subject_id":"6171b1bc917dfe828a3130dd","study_id":"6197b3f67c2b5cd3b6d9596a","session_id":"619be320d0619739bd6b2e51","condition":"contingent","relevant_dimensions":["antennae","pattern"],"bee_group":{"antennae":"B","wings":"X","pattern":"S","legs":"X"},"bonus":1.1000000000000012},{"rt":475.8000000715256,"stimulus":"bees-with-color/bee-B1SF.svg","response":1,"trial_type":"image-button-response","trial_index":141,"time_elapsed":483760,"internal_node_id":"0.0-6.0-0.5","subject_id":"6171b1bc917dfe828a3130dd","study_id":"6197b3f67c2b5cd3b6d9596a","session_id":"619be320d0619739bd6b2e51","condition":"contingent","relevant_dimensions":["antennae","pattern"],"bee_group":{"antennae":"B","wings":"X","pattern":"S","legs":"X"},"bonus":1.1000000000000012},{"rt":759.6000000238419,"stimulus":"bees-with-color/bee-B2SF.svg","response":1,"trial_type":"image-button-response","trial_index":142,"time_elapsed":484522,"internal_node_id":"0.0-6.0-0.6","subject_id":"6171b1bc917dfe828a3130dd","study_id":"6197b3f67c2b5cd3b6d9596a","session_id":"619be320d0619739bd6b2e51","condition":"contingent","relevant_dimensions":["antennae","pattern"],"bee_group":{"antennae":"B","wings":"X","pattern":"S","legs":"X"},"bonus":1.1000000000000012},{"rt":2185.8000000715256,"stimulus":"bees-with-color/bee-B2DM.svg","response":0,"trial_type":"image-button-response","trial_index":143,"time_elapsed":486710,"internal_node_id":"0.0-6.0-0.7","subject_id":"6171b1bc917dfe828a3130dd","study_id":"6197b3f67c2b5cd3b6d9596a","session_id":"619be320d0619739bd6b2e51","condition":"contingent","relevant_dimensions":["antennae","pattern"],"bee_group":{"antennae":"B","wings":"X","pattern":"S","legs":"X"},"bonus":1.1000000000000012},{"rt":1549.2000000476837,"stimulus":"bees-with-color/bee-A1SM.svg","response":1,"trial_type":"image-button-response","trial_index":144,"time_elapsed":488261,"internal_node_id":"0.0-6.0-0.8","subject_id":"6171b1bc917dfe828a3130dd","study_id":"6197b3f67c2b5cd3b6d9596a","session_id":"619be320d0619739bd6b2e51","condition":"contingent","relevant_dimensions":["antennae","pattern"],"bee_group":{"antennae":"B","wings":"X","pattern":"S","legs":"X"},"bonus":1.1000000000000012},{"rt":1512,"stimulus":"bees-with-color/bee-A1DM.svg","response":0,"trial_type":"image-button-response","trial_index":145,"time_elapsed":489775,"internal_node_id":"0.0-6.0-0.9","subject_id":"6171b1bc917dfe828a3130dd","study_id":"6197b3f67c2b5cd3b6d9596a","session_id":"619be320d0619739bd6b2e51","condition":"contingent","relevant_dimensions":["antennae","pattern"],"bee_group":{"antennae":"B","wings":"X","pattern":"S","legs":"X"},"bonus":1.1000000000000012},{"rt":1616,"stimulus":"bees-with-color/bee-A2SF.svg","response":1,"trial_type":"image-button-response","trial_index":146,"time_elapsed":491393,"internal_node_id":"0.0-6.0-0.10","subject_id":"6171b1bc917dfe828a3130dd","study_id":"6197b3f67c2b5cd3b6d9596a","session_id":"619be320d0619739bd6b2e51","condition":"contingent","relevant_dimensions":["antennae","pattern"],"bee_group":{"antennae":"B","wings":"X","pattern":"S","legs":"X"},"bonus":1.1000000000000012},{"rt":1033.4000000953674,"stimulus":"bees-with-color/bee-A1DF.svg","response":0,"trial_type":"image-button-response","trial_index":147,"time_elapsed":492429,"internal_node_id":"0.0-6.0-0.11","subject_id":"6171b1bc917dfe828a3130dd","study_id":"6197b3f67c2b5cd3b6d9596a","session_id":"619be320d0619739bd6b2e51","condition":"contingent","relevant_dimensions":["antennae","pattern"],"bee_group":{"antennae":"B","wings":"X","pattern":"S","legs":"X"},"bonus":1.1000000000000012},{"rt":1776.1000000238419,"stimulus":"bees-with-color/bee-B2DF.svg","response":0,"trial_type":"image-button-response","trial_index":148,"time_elapsed":494207,"internal_node_id":"0.0-6.0-0.12","subject_id":"6171b1bc917dfe828a3130dd","study_id":"6197b3f67c2b5cd3b6d9596a","session_id":"619be320d0619739bd6b2e51","condition":"contingent","relevant_dimensions":["antennae","pattern"],"bee_group":{"antennae":"B","wings":"X","pattern":"S","legs":"X"},"bonus":1.1000000000000012},{"rt":1009.8999999761581,"stimulus":"bees-with-color/bee-B2SM.svg","response":1,"trial_type":"image-button-response","trial_index":149,"time_elapsed":495219,"internal_node_id":"0.0-6.0-0.13","subject_id":"6171b1bc917dfe828a3130dd","study_id":"6197b3f67c2b5cd3b6d9596a","session_id":"619be320d0619739bd6b2e51","condition":"contingent","relevant_dimensions":["antennae","pattern"],"bee_group":{"antennae":"B","wings":"X","pattern":"S","legs":"X"},"bonus":1.1000000000000012},{"rt":774,"stimulus":"bees-with-color/bee-B1SM.svg","response":1,"trial_type":"image-button-response","trial_index":150,"time_elapsed":495995,"internal_node_id":"0.0-6.0-0.14","subject_id":"6171b1bc917dfe828a3130dd","study_id":"6197b3f67c2b5cd3b6d9596a","session_id":"619be320d0619739bd6b2e51","condition":"contingent","relevant_dimensions":["antennae","pattern"],"bee_group":{"antennae":"B","wings":"X","pattern":"S","legs":"X"},"bonus":1.1000000000000012},{"rt":956,"stimulus":"bees-with-color/bee-A2SM.svg","response":1,"trial_type":"image-button-response","trial_index":151,"time_elapsed":496954,"internal_node_id":"0.0-6.0-0.15","subject_id":"6171b1bc917dfe828a3130dd","study_id":"6197b3f67c2b5cd3b6d9596a","session_id":"619be320d0619739bd6b2e51","condition":"contingent","relevant_dimensions":["antennae","pattern"],"bee_group":{"antennae":"B","wings":"X","pattern":"S","legs":"X"},"bonus":1.1000000000000012},{"rt":958.1000000238419,"stimulus":"bees-with-color/bee-B1DM.svg","response":0,"trial_type":"image-button-response","trial_index":152,"time_elapsed":497913,"internal_node_id":"0.0-6.0-0.16","subject_id":"6171b1bc917dfe828a3130dd","study_id":"6197b3f67c2b5cd3b6d9596a","session_id":"619be320d0619739bd6b2e51","condition":"contingent","relevant_dimensions":["antennae","pattern"],"bee_group":{"antennae":"B","wings":"X","pattern":"S","legs":"X"},"bonus":1.1000000000000012},{"rt":968.3000000715256,"stimulus":"bees-with-color/bee-B2SF.svg","response":1,"trial_type":"image-button-response","trial_index":153,"time_elapsed":498884,"internal_node_id":"0.0-6.0-0.17","subject_id":"6171b1bc917dfe828a3130dd","study_id":"6197b3f67c2b5cd3b6d9596a","session_id":"619be320d0619739bd6b2e51","condition":"contingent","relevant_dimensions":["antennae","pattern"],"bee_group":{"antennae":"B","wings":"X","pattern":"S","legs":"X"},"bonus":1.1000000000000012},{"rt":712.5,"stimulus":"bees-with-color/bee-B2DM.svg","response":0,"trial_type":"image-button-response","trial_index":154,"time_elapsed":499598,"internal_node_id":"0.0-6.0-0.18","subject_id":"6171b1bc917dfe828a3130dd","study_id":"6197b3f67c2b5cd3b6d9596a","session_id":"619be320d0619739bd6b2e51","condition":"contingent","relevant_dimensions":["antennae","pattern"],"bee_group":{"antennae":"B","wings":"X","pattern":"S","legs":"X"},"bonus":1.1000000000000012},{"rt":885.9000000953674,"stimulus":"bees-with-color/bee-A1SM.svg","response":1,"trial_type":"image-button-response","trial_index":155,"time_elapsed":500486,"internal_node_id":"0.0-6.0-0.19","subject_id":"6171b1bc917dfe828a3130dd","study_id":"6197b3f67c2b5cd3b6d9596a","session_id":"619be320d0619739bd6b2e51","condition":"contingent","relevant_dimensions":["antennae","pattern"],"bee_group":{"antennae":"B","wings":"X","pattern":"S","legs":"X"},"bonus":1.1000000000000012},{"rt":930.1000000238419,"stimulus":"bees-with-color/bee-A1SF.svg","response":1,"trial_type":"image-button-response","trial_index":156,"time_elapsed":501417,"internal_node_id":"0.0-6.0-0.20","subject_id":"6171b1bc917dfe828a3130dd","study_id":"6197b3f67c2b5cd3b6d9596a","session_id":"619be320d0619739bd6b2e51","condition":"contingent","relevant_dimensions":["antennae","pattern"],"bee_group":{"antennae":"B","wings":"X","pattern":"S","legs":"X"},"bonus":1.1000000000000012},{"rt":600.3000000715256,"stimulus":"bees-with-color/bee-B1DF.svg","response":0,"trial_type":"image-button-response","trial_index":157,"time_elapsed":502019,"internal_node_id":"0.0-6.0-0.21","subject_id":"6171b1bc917dfe828a3130dd","study_id":"6197b3f67c2b5cd3b6d9596a","session_id":"619be320d0619739bd6b2e51","condition":"contingent","relevant_dimensions":["antennae","pattern"],"bee_group":{"antennae":"B","wings":"X","pattern":"S","legs":"X"},"bonus":1.1000000000000012},{"rt":560.2000000476837,"stimulus":"bees-with-color/bee-A2DF.svg","response":0,"trial_type":"image-button-response","trial_index":158,"time_elapsed":502581,"internal_node_id":"0.0-6.0-0.22","subject_id":"6171b1bc917dfe828a3130dd","study_id":"6197b3f67c2b5cd3b6d9596a","session_id":"619be320d0619739bd6b2e51","condition":"contingent","relevant_dimensions":["antennae","pattern"],"bee_group":{"antennae":"B","wings":"X","pattern":"S","legs":"X"},"bonus":1.1000000000000012},{"rt":810.3000000715256,"stimulus":"bees-with-color/bee-B1SF.svg","response":1,"trial_type":"image-button-response","trial_index":159,"time_elapsed":503394,"internal_node_id":"0.0-6.0-0.23","subject_id":"6171b1bc917dfe828a3130dd","study_id":"6197b3f67c2b5cd3b6d9596a","session_id":"619be320d0619739bd6b2e51","condition":"contingent","relevant_dimensions":["antennae","pattern"],"bee_group":{"antennae":"B","wings":"X","pattern":"S","legs":"X"},"bonus":1.1000000000000012},{"rt":745.5,"stimulus":"bees-with-color/bee-B2SM.svg","response":1,"trial_type":"image-button-response","trial_in