[{"success":true,"trial_type":"fullscreen","trial_index":0,"time_elapsed":4060,"internal_node_id":"0.0-0.0","subject_id":"5e0f722ee8f8d1000cea475b","study_id":"6197b3f67c2b5cd3b6d9596a","session_id":"619be31f4200fc8e84df2dd6","condition":"contingent","relevant_dimensions":["pattern","legs"],"bee_group":{"antennae":"X","wings":"X","pattern":"D","legs":"M"},"bonus":0.9200000000000013},{"success":true,"timeout":false,"failed_images":[],"failed_audio":[],"failed_video":[],"trial_type":"preload","trial_index":1,"time_elapsed":4975,"internal_node_id":"0.0-1.0","subject_id":"5e0f722ee8f8d1000cea475b","study_id":"6197b3f67c2b5cd3b6d9596a","session_id":"619be31f4200fc8e84df2dd6","condition":"contingent","relevant_dimensions":["pattern","legs"],"bee_group":{"antennae":"X","wings":"X","pattern":"D","legs":"M"},"bonus":0.9200000000000013},{"rt":2420.6000003814697,"stimulus":"Welcome! Press any key to begin.","response":" ","trial_type":"html-keyboard-response","trial_index":2,"time_elapsed":7396,"internal_node_id":"0.0-2.0","subject_id":"5e0f722ee8f8d1000cea475b","study_id":"6197b3f67c2b5cd3b6d9596a","session_id":"619be31f4200fc8e84df2dd6","condition":"contingent","relevant_dimensions":["pattern","legs"],"bee_group":{"antennae":"X","wings":"X","pattern":"D","legs":"M"},"bonus":0.9200000000000013},{"view_history":[{"page_index":0,"viewing_time":4212.800000190735},{"page_index":1,"viewing_time":6221.5},{"page_index":2,"viewing_time":4930.699999809265},{"page_index":3,"viewing_time":9190.699999809265},{"page_index":4,"viewing_time":10853.800000190735},{"page_index":5,"viewing_time":24778.39999961853},{"page_index":6,"viewing_time":5412.800000190735},{"page_index":7,"viewing_time":5106.800000190735},{"page_index":8,"viewing_time":2701.800000190735},{"page_index":9,"viewing_time":2868.0999994277954},{"page_index":10,"viewing_time":1531.4000005722046},{"page_index":11,"viewing_time":7518.199999809265},{"page_index":12,"viewing_time":12551.599999427795},{"page_index":13,"viewing_time":1296.3000001907349},{"page_index":14,"viewing_time":1537.1999998092651}],"rt":100712.19999980927,"trial_type":"instructions","trial_index":3,"time_elapsed":108114,"internal_node_id":"0.0-3.0-0.0","subject_id":"5e0f722ee8f8d1000cea475b","study_id":"6197b3f67c2b5cd3b6d9596a","session_id":"619be31f4200fc8e84df2dd6","condition":"contingent","relevant_dimensions":["pattern","legs"],"bee_group":{"antennae":"X","wings":"X","pattern":"D","legs":"M"},"bonus":0.9200000000000013},{"rt":11277,"response":{"Q0":["Two or six legs","Stripes or spots on body","Single or double wings","Antennae or no antennae"]},"question_order":[0],"trial_type":"survey-multi-select","trial_index":4,"time_elapsed":119394,"internal_node_id":"0.0-3.0-1.0","subject_id":"5e0f722ee8f8d1000cea475b","study_id":"6197b3f67c2b5cd3b6d9596a","session_id":"619be31f4200fc8e84df2dd6","condition":"contingent","relevant_dimensions":["pattern","legs"],"bee_group":{"antennae":"X","wings":"X","pattern":"D","legs":"M"},"correct":true,"bonus":0.9200000000000013},{"rt":24012.5,"response":{"Q1":"No.","Q2":"Based on the four features of the bee.","Q3":"You do not learn if it was friendly or dangerous, and do not alter your bonus."},"question_order":[0,1,2],"trial_type":"survey-multi-choice","trial_index":5,"time_elapsed":143408,"internal_node_id":"0.0-3.0-2.0","subject_id":"5e0f722ee8f8d1000cea475b","study_id":"6197b3f67c2b5cd3b6d9596a","session_id":"619be31f4200fc8e84df2dd6","condition":"contingent","relevant_dimensions":["pattern","legs"],"bee_group":{"antennae":"X","wings":"X","pattern":"D","legs":"M"},"correct":true,"bonus":0.9200000000000013},{"rt":2148.300000190735,"stimulus":"<p>Congrats, you got everything right<br>When you're ready, click the button below to continue to the experiment.</p>","response":0,"trial_type":"html-button-response","trial_index":6,"time_elapsed":145558,"internal_node_id":"0.0-3.0-3.0","subject_id":"5e0f722ee8f8d1000cea475b","study_id":"6197b3f67c2b5cd3b6d9596a","session_id":"619be31f4200fc8e84df2dd6","condition":"contingent","relevant_dimensions":["pattern","legs"],"bee_group":{"antennae":"X","wings":"X","pattern":"D","legs":"M"},"bonus":0.9200000000000013},{"rt":3463,"stimulus":"bees-with-color/bee-B1DM.svg","response":0,"trial_type":"image-button-response","trial_index":7,"time_elapsed":149023,"internal_node_id":"0.0-4.0-0.0","subject_id":"5e0f722ee8f8d1000cea475b","study_id":"6197b3f67c2b5cd3b6d9596a","session_id":"619be31f4200fc8e84df2dd6","condition":"contingent","relevant_dimensions":["pattern","legs"],"bee_group":{"antennae":"X","wings":"X","pattern":"D","legs":"M"},"action":"harvest","summary":"bad-harvest","bonus":0.9200000000000013},{"rt":12471.099999427795,"stimulus":"\n                    <p><b>Action: <em>harvest</em></b></p>\n                    <p>This is the bee that you just saw.</p>\n                    <img src=\"bees-with-color/bee-B1DM.svg\" width=\"200\">\n                    <p><span class=\"redText\">Bad choice, the bee was angry.</span><br><b>You have been stung!</b><br>Your pay has been decreased by $0.10. Your bonus pay is now $0.44.</p>\n            ","response":0,"trial_type":"html-button-response","trial_index":8,"time_elapsed":161497,"internal_node_id":"0.0-4.0-1.0","subject_id":"5e0f722ee8f8d1000cea475b","study_id":"6197b3f67c2b5cd3b6d9596a","session_id":"619be31f4200fc8e84df2dd6","condition":"contingent","relevant_dimensions":["pattern","legs"],"bee_group":{"antennae":"X","wings":"X","pattern":"D","legs":"M"},"bonus":0.9200000000000013},{"rt":3204.199999809265,"stimulus":"bees-with-color/bee-B1DF.svg","response":0,"trial_type":"image-button-response","trial_index":9,"time_elapsed":164703,"internal_node_id":"0.0-4.0-0.1","subject_id":"5e0f722ee8f8d1000cea475b","study_id":"6197b3f67c2b5cd3b6d9596a","session_id":"619be31f4200fc8e84df2dd6","condition":"contingent","relevant_dimensions":["pattern","legs"],"bee_group":{"antennae":"X","wings":"X","pattern":"D","legs":"M"},"action":"harvest","summary":"good-harvest","bonus":0.9200000000000013},{"rt":5252.5,"stimulus":"\n                    <p><b>Action: <em>harvest</em></b></p>\n                    <p>This is the bee that you just saw.</p>\n                    <img src=\"bees-with-color/bee-B1DF.svg\" width=\"200\">\n                    <p><span class=\"greenText\"><b>Successful harvest!</b></span><br>Your pay has increased by $0.02. Your bonus pay is now $0.46.</p>\n            ","response":0,"trial_type":"html-button-response","trial_index":10,"time_elapsed":169957,"internal_node_id":"0.0-4.0-1.1","subject_id":"5e0f722ee8f8d1000cea475b","study_id":"6197b3f67c2b5cd3b6d9596a","session_id":"619be31f4200fc8e84df2dd6","condition":"contingent","relevant_dimensions":["pattern","legs"],"bee_group":{"antennae":"X","wings":"X","pattern":"D","legs":"M"},"bonus":0.9200000000000013},{"rt":2340.3999996185303,"stimulus":"bees-with-color/bee-A1DF.svg","response":0,"trial_type":"image-button-response","trial_index":11,"time_elapsed":172299,"internal_node_id":"0.0-4.0-0.2","subject_id":"5e0f722ee8f8d1000cea475b","study_id":"6197b3f67c2b5cd3b6d9596a","session_id":"619be31f4200fc8e84df2dd6","condition":"contingent","relevant_dimensions":["pattern","legs"],"bee_group":{"antennae":"X","wings":"X","pattern":"D","legs":"M"},"action":"harvest","summary":"good-harvest","bonus":0.9200000000000013},{"rt":8147.39999961853,"stimulus":"\n                    <p><b>Action: <em>harvest</em></b></p>\n                    <p>This is the bee that you just saw.</p>\n                    <img src=\"bees-with-color/bee-A1DF.svg\" width=\"200\">\n                    <p><span class=\"greenText\"><b>Successful harvest!</b></span><br>Your pay has increased by $0.02. Your bonus pay is now $0.48.</p>\n            ","response":0,"trial_type":"html-button-response","trial_index":12,"time_elapsed":180448,"internal_node_id":"0.0-4.0-1.2","subject_id":"5e0f722ee8f8d1000cea475b","study_id":"6197b3f67c2b5cd3b6d9596a","session_id":"619be31f4200fc8e84df2dd6","condition":"contingent","relevant_dimensions":["pattern","legs"],"bee_group":{"antennae":"X","wings":"X","pattern":"D","legs":"M"},"bonus":0.9200000000000013},{"rt":3864.800000190735,"stimulus":"bees-with-color/bee-B1SF.svg","response":0,"trial_type":"image-button-response","trial_index":13,"time_elapsed":184315,"internal_node_id":"0.0-4.0-0.3","subject_id":"5e0f722ee8f8d1000cea475b","study_id":"6197b3f67c2b5cd3b6d9596a","session_id":"619be31f4200fc8e84df2dd6","condition":"contingent","relevant_dimensions":["pattern","legs"],"bee_group":{"antennae":"X","wings":"X","pattern":"D","legs":"M"},"action":"harvest","summary":"good-harvest","bonus":0.9200000000000013},{"rt":5021.10000038147,"stimulus":"\n                    <p><b>Action: <em>harvest</em></b></p>\n                    <p>This is the bee that you just saw.</p>\n                    <img src=\"bees-with-color/bee-B1SF.svg\" width=\"200\">\n                    <p><span class=\"greenText\"><b>Successful harvest!</b></span><br>Your pay has increased by $0.02. Your bonus pay is now $0.50.</p>\n            ","response":0,"trial_type":"html-button-response","trial_index":14,"time_elapsed":189337,"internal_node_id":"0.0-4.0-1.3","subject_id":"5e0f722ee8f8d1000cea475b","study_id":"6197b3f67c2b5cd3b6d9596a","session_id":"619be31f4200fc8e84df2dd6","condition":"contingent","relevant_dimensions":["pattern","legs"],"bee_group":{"antennae":"X","wings":"X","pattern":"D","legs":"M"},"bonus":0.9200000000000013},{"rt":2679.800000190735,"stimulus":"bees-with-color/bee-B2DM.svg","response":0,"trial_type":"image-button-response","trial_index":15,"time_elapsed":192018,"internal_node_id":"0.0-4.0-0.4","subject_id":"5e0f722ee8f8d1000cea475b","study_id":"6197b3f67c2b5cd3b6d9596a","session_id":"619be31f4200fc8e84df2dd6","condition":"contingent","relevant_dimensions":["pattern","legs"],"bee_group":{"antennae":"X","wings":"X","pattern":"D","legs":"M"},"action":"harvest","summary":"bad-harvest","bonus":0.9200000000000013},{"rt":2979,"stimulus":"\n                    <p><b>Action: <em>harvest</em></b></p>\n                    <p>This is the bee that you just saw.</p>\n                    <img src=\"bees-with-color/bee-B2DM.svg\" width=\"200\">\n                    <p><span class=\"redText\">Bad choice, the bee was angry.</span><br><b>You have been stung!</b><br>Your pay has been decreased by $0.10. Your bonus pay is now $0.40.</p>\n            ","response":0,"trial_type":"html-button-response","trial_index":16,"time_elapsed":194999,"internal_node_id":"0.0-4.0-1.4","subject_id":"5e0f722ee8f8d1000cea475b","study_id":"6197b3f67c2b5cd3b6d9596a","session_id":"619be31f4200fc8e84df2dd6","condition":"contingent","relevant_dimensions":["pattern","legs"],"bee_group":{"antennae":"X","wings":"X","pattern":"D","legs":"M"},"bonus":0.9200000000000013},{"rt":1243.3000001907349,"stimulus":"bees-with-color/bee-B2SF.svg","response":0,"trial_type":"image-button-response","trial_index":17,"time_elapsed":196244,"internal_node_id":"0.0-4.0-0.5","subject_id":"5e0f722ee8f8d1000cea475b","study_id":"6197b3f67c2b5cd3b6d9596a","session_id":"619be31f4200fc8e84df2dd6","condition":"contingent","relevant_dimensions":["pattern","legs"],"bee_group":{"antennae":"X","wings":"X","pattern":"D","legs":"M"},"action":"harvest","summary":"good-harvest","bonus":0.9200000000000013},{"rt":1105.1999998092651,"stimulus":"\n                    <p><b>Action: <em>harvest</em></b></p>\n                    <p>This is the bee that you just saw.</p>\n                    <img src=\"bees-with-color/bee-B2SF.svg\" width=\"200\">\n                    <p><span class=\"greenText\"><b>Successful harvest!</b></span><br>Your pay has increased by $0.02. Your bonus pay is now $0.42.</p>\n            ","response":0,"trial_type":"html-button-response","trial_index":18,"time_elapsed":197350,"internal_node_id":"0.0-4.0-1.5","subject_id":"5e0f722ee8f8d1000cea475b","study_id":"6197b3f67c2b5cd3b6d9596a","session_id":"619be31f4200fc8e84df2dd6","condition":"contingent","relevant_dimensions":["pattern","legs"],"bee_group":{"antennae":"X","wings":"X","pattern":"D","legs":"M"},"bonus":0.9200000000000013},{"rt":2145,"stimulus":"bees-with-color/bee-B2SM.svg","response":1,"trial_type":"image-button-response","trial_index":19,"time_elapsed":199497,"internal_node_id":"0.0-4.0-0.6","subject_id":"5e0f722ee8f8d1000cea475b","study_id":"6197b3f67c2b5cd3b6d9596a","session_id":"619be31f4200fc8e84df2dd6","condition":"contingent","relevant_dimensions":["pattern","legs"],"bee_group":{"antennae":"X","wings":"X","pattern":"D","legs":"M"},"action":"avoid","summary":"bad-avoid","bonus":0.9200000000000013},{"rt":4424.099999427795,"stimulus":"\n                    <p><b>Action: <em>avoid</em></b></p>\n                    <p>This is the bee that you just saw.</p>\n                    <img src=\"bees-with-color/bee-B2SM.svg\" width=\"200\">\n                    <p><br>Your bonus pay is unchanged, and remains at $0.42.</p>\n            ","response":0,"trial_type":"html-button-response","trial_index":20,"time_elapsed":203923,"internal_node_id":"0.0-4.0-1.6","subject_id":"5e0f722ee8f8d1000cea475b","study_id":"6197b3f67c2b5cd3b6d9596a","session_id":"619be31f4200fc8e84df2dd6","condition":"contingent","relevant_dimensions":["pattern","legs"],"bee_group":{"antennae":"X","wings":"X","pattern":"D","legs":"M"},"bonus":0.9200000000000013},{"rt":1940.8999996185303,"stimulus":"bees-with-color/bee-B1SM.svg","response":0,"trial_type":"image-button-response","trial_index":21,"time_elapsed":205866,"internal_node_id":"0.0-4.0-0.7","subject_id":"5e0f722ee8f8d1000cea475b","study_id":"6197b3f67c2b5cd3b6d9596a","session_id":"619be31f4200fc8e84df2dd6","condition":"contingent","relevant_dimensions":["pattern","legs"],"bee_group":{"antennae":"X","wings":"X","pattern":"D","legs":"M"},"action":"harvest","summary":"good-harvest","bonus":0.9200000000000013},{"rt":3618.9000005722046,"stimulus":"\n                    <p><b>Action: <em>harvest</em></b></p>\n                    <p>This is the bee that you just saw.</p>\n                    <img src=\"bees-with-color/bee-B1SM.svg\" width=\"200\">\n                    <p><span class=\"greenText\"><b>Successful harvest!</b></span><br>Your pay has increased by $0.02. Your bonus pay is now $0.44.</p>\n            ","response":0,"trial_type":"html-button-response","trial_index":22,"time_elapsed":209486,"internal_node_id":"0.0-4.0-1.7","subject_id":"5e0f722ee8f8d1000cea475b","study_id":"6197b3f67c2b5cd3b6d9596a","session_id":"619be31f4200fc8e84df2dd6","condition":"contingent","relevant_dimensions":["pattern","legs"],"bee_group":{"antennae":"X","wings":"X","pattern":"D","legs":"M"},"bonus":0.9200000000000013},{"rt":2502.2000007629395,"stimulus":"bees-with-color/bee-A1DM.svg","response":0,"trial_type":"image-button-response","trial_index":23,"time_elapsed":211991,"internal_node_id":"0.0-4.0-0.8","subject_id":"5e0f722ee8f8d1000cea475b","study_id":"6197b3f67c2b5cd3b6d9596a","session_id":"619be31f4200fc8e84df2dd6","condition":"contingent","relevant_dimensions":["pattern","legs"],"bee_group":{"antennae":"X","wings":"X","pattern":"D","legs":"M"},"action":"harvest","summary":"bad-harvest","bonus":0.9200000000000013},{"rt":4761.199999809265,"stimulus":"\n                    <p><b>Action: <em>harvest</em></b></p>\n                    <p>This is the bee that you just saw.</p>\n                    <img src=\"bees-with-color/bee-A1DM.svg\" width=\"200\">\n                    <p><span class=\"redText\">Bad choice, the bee was angry.</span><br><b>You have been stung!</b><br>Your pay has been decreased by $0.10. Your bonus pay is now $0.34.</p>\n            ","response":0,"trial_type":"html-button-response","trial_index":24,"time_elapsed":216754,"internal_node_id":"0.0-4.0-1.8","subject_id":"5e0f722ee8f8d1000cea475b","study_id":"6197b3f67c2b5cd3b6d9596a","session_id":"619be31f4200fc8e84df2dd6","condition":"contingent","relevant_dimensions":["pattern","legs"],"bee_group":{"antennae":"X","wings":"X","pattern":"D","legs":"M"},"bonus":0.9200000000000013},{"rt":3739.6000003814697,"stimulus":"bees-with-color/bee-B2DF.svg","response":0,"trial_type":"image-button-response","trial_index":25,"time_elapsed":220496,"internal_node_id":"0.0-4.0-0.9","subject_id":"5e0f722ee8f8d1000cea475b","study_id":"6197b3f67c2b5cd3b6d9596a","session_id":"619be31f4200fc8e84df2dd6","condition":"contingent","relevant_dimensions":["pattern","legs"],"bee_group":{"antennae":"X","wings":"X","pattern":"D","legs":"M"},"action":"harvest","summary":"good-harvest","bonus":0.9200000000000013},{"rt":4113.300000190735,"stimulus":"\n                    <p><b>Action: <em>harvest</em></b></p>\n                    <p>This is the bee that you just saw.</p>\n                    <img src=\"bees-with-color/bee-B2DF.svg\" width=\"200\">\n                    <p><span class=\"greenText\"><b>Successful harvest!</b></span><br>Your pay has increased by $0.02. Your bonus pay is now $0.36.</p>\n            ","response":0,"trial_type":"html-button-response","trial_index":26,"time_elapsed":224611,"internal_node_id":"0.0-4.0-1.9","subject_id":"5e0f722ee8f8d1000cea475b","study_id":"6197b3f67c2b5cd3b6d9596a","session_id":"619be31f4200fc8e84df2dd6","condition":"contingent","relevant_dimensions":["pattern","legs"],"bee_group":{"antennae":"X","wings":"X","pattern":"D","legs":"M"},"bonus":0.9200000000000013},{"rt":4113.200000762939,"stimulus":"bees-with-color/bee-A2DM.svg","response":0,"trial_type":"image-button-response","trial_index":27,"time_elapsed":228726,"internal_node_id":"0.0-4.0-0.10","subject_id":"5e0f722ee8f8d1000cea475b","study_id":"6197b3f67c2b5cd3b6d9596a","session_id":"619be31f4200fc8e84df2dd6","condition":"contingent","relevant_dimensions":["pattern","legs"],"bee_group":{"antennae":"X","wings":"X","pattern":"D","legs":"M"},"action":"harvest","summary":"bad-harvest","bonus":0.9200000000000013},{"rt":3599.5,"stimulus":"\n                    <p><b>Action: <em>harvest</em></b></p>\n                    <p>This is the bee that you just saw.</p>\n                    <img src=\"bees-with-color/bee-A2DM.svg\" width=\"200\">\n                    <p><span class=\"redText\">Bad choice, the bee was angry.</span><br><b>You have been stung!</b><br>Your pay has been decreased by $0.10. Your bonus pay is now $0.26.</p>\n            ","response":0,"trial_type":"html-button-response","trial_index":28,"time_elapsed":232327,"internal_node_id":"0.0-4.0-1.10","subject_id":"5e0f722ee8f8d1000cea475b","study_id":"6197b3f67c2b5cd3b6d9596a","session_id":"619be31f4200fc8e84df2dd6","condition":"contingent","relevant_dimensions":["pattern","legs"],"bee_group":{"antennae":"X","wings":"X","pattern":"D","legs":"M"},"bonus":0.9200000000000013},{"rt":2715.199999809265,"stimulus":"bees-with-color/bee-A2SF.svg","response":0,"trial_type":"image-button-response","trial_index":29,"time_elapsed":235043,"internal_node_id":"0.0-4.0-0.11","subject_id":"5e0f722ee8f8d1000cea475b","study_id":"6197b3f67c2b5cd3b6d9596a","session_id":"619be31f4200fc8e84df2dd6","condition":"contingent","relevant_dimensions":["pattern","legs"],"bee_group":{"antennae":"X","wings":"X","pattern":"D","legs":"M"},"action":"harvest","summary":"good-harvest","bonus":0.9200000000000013},{"rt":5076.400000572205,"stimulus":"\n                    <p><b>Action: <em>harvest</em></b></p>\n                    <p>This is the bee that you just saw.</p>\n                    <img src=\"bees-with-color/bee-A2SF.svg\" width=\"200\">\n                    <p><span class=\"greenText\"><b>Successful harvest!</b></span><br>Your pay has increased by $0.02. Your bonus pay is now $0.28.</p>\n            ","response":0,"trial_type":"html-button-response","trial_index":30,"time_elapsed":240121,"internal_node_id":"0.0-4.0-1.11","subject_id":"5e0f722ee8f8d1000cea475b","study_id":"6197b3f67c2b5cd3b6d9596a","session_id":"619be31f4200fc8e84df2dd6","condition":"contingent","relevant_dimensions":["pattern","legs"],"bee_group":{"antennae":"X","wings":"X","pattern":"D","legs":"M"},"bonus":0.9200000000000013},{"rt":4196.199999809265,"stimulus":"bees-with-color/bee-A1SF.svg","response":0,"trial_type":"image-button-response","trial_index":31,"time_elapsed":244319,"internal_node_id":"0.0-4.0-0.12","subject_id":"5e0f722ee8f8d1000cea475b","study_id":"6197b3f67c2b5cd3b6d9596a","session_id":"619be31f4200fc8e84df2dd6","condition":"contingent","relevant_dimensions":["pattern","legs"],"bee_group":{"antennae":"X","wings":"X","pattern":"D","legs":"M"},"action":"harvest","summary":"good-harvest","bonus":0.9200000000000013},{"rt":4227.799999237061,"stimulus":"\n                    <p><b>Action: <em>harvest</em></b></p>\n                    <p>This is the bee that you just saw.</p>\n                    <img src=\"bees-with-color/bee-A1SF.svg\" width=\"200\">\n                    <p><span class=\"greenText\"><b>Successful harvest!</b></span><br>Your pay has increased by $0.02. Your bonus pay is now $0.30.</p>\n            ","response":0,"trial_type":"html-button-response","trial_index":32,"time_elapsed":248548,"internal_node_id":"0.0-4.0-1.12","subject_id":"5e0f722ee8f8d1000cea475b","study_id":"6197b3f67c2b5cd3b6d9596a","session_id":"619be31f4200fc8e84df2dd6","condition":"contingent","relevant_dimensions":["pattern","legs"],"bee_group":{"antennae":"X","wings":"X","pattern":"D","legs":"M"},"bonus":0.9200000000000013},{"rt":1787.3999996185303,"stimulus":"bees-with-color/bee-A2DF.svg","response":0,"trial_type":"image-button-response","trial_index":33,"time_elapsed":250337,"internal_node_id":"0.0-4.0-0.13","subject_id":"5e0f722ee8f8d1000cea475b","study_id":"6197b3f67c2b5cd3b6d9596a","session_id":"619be31f4200fc8e84df2dd6","condition":"contingent","relevant_dimensions":["pattern","legs"],"bee_group":{"antennae":"X","wings":"X","pattern":"D","legs":"M"},"action":"harvest","summary":"good-harvest","bonus":0.9200000000000013},{"rt":3772,"stimulus":"\n                    <p><b>Action: <em>harvest</em></b></p>\n                    <p>This is the bee that you just saw.</p>\n                    <img src=\"bees-with-color/bee-A2DF.svg\" width=\"200\">\n                    <p><span class=\"greenText\"><b>Successful harvest!</b></span><br>Your pay has increased by $0.02. Your bonus pay is now $0.32.</p>\n            ","response":0,"trial_type":"html-button-response","trial_index":34,"time_elapsed":254109,"internal_node_id":"0.0-4.0-1.13","subject_id":"5e0f722ee8f8d1000cea475b","study_id":"6197b3f67c2b5cd3b6d9596a","session_id":"619be31f4200fc8e84df2dd6","condition":"contingent","relevant_dimensions":["pattern","legs"],"bee_group":{"antennae":"X","wings":"X","pattern":"D","legs":"M"},"bonus":0.9200000000000013},{"rt":2825.6000003814697,"stimulus":"bees-with-color/bee-A1SM.svg","response":1,"trial_type":"image-button-response","trial_index":35,"time_elapsed":256936,"internal_node_id":"0.0-4.0-0.14","subject_id":"5e0f722ee8f8d1000cea475b","study_id":"6197b3f67c2b5cd3b6d9596a","session_id":"619be31f4200fc8e84df2dd6","condition":"contingent","relevant_dimensions":["pattern","legs"],"bee_group":{"antennae":"X","wings":"X","pattern":"D","legs":"M"},"action":"avoid","summary":"bad-avoid","bonus":0.9200000000000013},{"rt":1328.2000007629395,"stimulus":"\n                    <p><b>Action: <em>avoid</em></b></p>\n                    <p>This is the bee that you just saw.</p>\n                    <img src=\"bees-with-color/bee-A1SM.svg\" width=\"200\">\n                    <p><br>Your bonus pay is unchanged, and remains at $0.32.</p>\n            ","response":0,"trial_type":"html-button-response","trial_index":36,"time_elapsed":258266,"internal_node_id":"0.0-4.0-1.14","subject_id":"5e0f722ee8f8d1000cea475b","study_id":"6197b3f67c2b5cd3b6d9596a","session_id":"619be31f4200fc8e84df2dd6","condition":"contingent","relevant_dimensions":["pattern","legs"],"bee_group":{"antennae":"X","wings":"X","pattern":"D","legs":"M"},"bonus":0.9200000000000013},{"rt":2548.300000190735,"stimulus":"bees-with-color/bee-A2SM.svg","response":0,"trial_type":"image-button-response","trial_index":37,"time_elapsed":260816,"internal_node_id":"0.0-4.0-0.15","subject_id":"5e0f722ee8f8d1000cea475b","study_id":"6197b3f67c2b5cd3b6d9596a","session_id":"619be31f4200fc8e84df2dd6","condition":"contingent","relevant_dimensions":["pattern","legs"],"bee_group":{"antennae":"X","wings":"X","pattern":"D","legs":"M"},"action":"harvest","summary":"good-harvest","bonus":0.9200000000000013},{"rt":988.9000005722046,"stimulus":"\n                    <p><b>Action: <em>harvest</em></b></p>\n                    <p>This is the bee that you just saw.</p>\n                    <img src=\"bees-with-color/bee-A2SM.svg\" width=\"200\">\n                    <p><span class=\"greenText\"><b>Successful harvest!</b></span><br>Your pay has increased by $0.02. Your bonus pay is now $0.34.</p>\n            ","response":0,"trial_type":"html-button-response","trial_index":38,"time_elapsed":261806,"internal_node_id":"0.0-4.0-1.15","subject_id":"5e0f722ee8f8d1000cea475b","study_id":"6197b3f67c2b5cd3b6d9596a","session_id":"619be31f4200fc8e84df2dd6","condition":"contingent","relevant_dimensions":["pattern","legs"],"bee_group":{"antennae":"X","wings":"X","pattern":"D","legs":"M"},"bonus":0.9200000000000013},{"rt":2475.199999809265,"stimulus":"bees-with-color/bee-B2SM.svg","response":0,"trial_type":"image-button-response","trial_index":39,"time_elapsed":264283,"internal_node_id":"0.0-4.0-0.16","subject_id":"5e0f722ee8f8d1000cea475b","study_id":"6197b3f67c2b5cd3b6d9596a","session_id":"619be31f4200fc8e84df2dd6","condition":"contingent","relevant_dimensions":["pattern","legs"],"bee_group":{"antennae":"X","wings":"X","pattern":"D","legs":"M"},"action":"harvest","summary":"good-harvest","bonus":0.9200000000000013},{"rt":2691,"stimulus":"\n                    <p><b>Action: <em>harvest</em></b></p>\n                    <p>This is the bee that you just saw.</p>\n                    <img src=\"bees-with-color/bee-B2SM.svg\" width=\"200\">\n                    <p><span class=\"greenText\"><b>Successful harvest!</b></span><br>Your pay has increased by $0.02. Your bonus pay is now $0.36.</p>\n            ","response":0,"trial_type":"html-button-response","trial_index":40,"time_elapsed":266975,"internal_node_id":"0.0-4.0-1.16","subject_id":"5e0f722ee8f8d1000cea475b","study_id":"6197b3f67c2b5cd3b6d9596a","session_id":"619be31f4200fc8e84df2dd6","condition":"contingent","relevant_dimensions":["pattern","legs"],"bee_group":{"antennae":"X","wings":"X","pattern":"D","legs":"M"},"bonus":0.9200000000000013},{"rt":1155.1999998092651,"stimulus":"bees-with-color/bee-A2SF.svg","response":0,"trial_type":"image-button-response","trial_index":41,"time_elapsed":268132,"internal_node_id":"0.0-4.0-0.17","subject_id":"5e0f722ee8f8d1000cea475b","study_id":"6197b3f67c2b5cd3b6d9596a","session_id":"619be31f4200fc8e84df2dd6","condition":"contingent","relevant_dimensions":["pattern","legs"],"bee_group":{"antennae":"X","wings":"X","pattern":"D","legs":"M"},"action":"harvest","summary":"good-harvest","bonus":0.9200000000000013},{"rt":1309.6000003814697,"stimulus":"\n                    <p><b>Action: <em>harvest</em></b></p>\n                    <p>This is the bee that you just saw.</p>\n                    <img src=\"bees-with-color/bee-A2SF.svg\" width=\"200\">\n                    <p><span class=\"greenText\"><b>Successful harvest!</b></span><br>Your pay has increased by $0.02. Your bonus pay is now $0.38.</p>\n            ","response":0,"trial_type":"html-button-response","trial_index":42,"time_elapsed":269444,"internal_node_id":"0.0-4.0-1.17","subject_id":"5e0f722ee8f8d1000cea475b","study_id":"6197b3f67c2b5cd3b6d9596a","session_id":"619be31f4200fc8e84df2dd6","condition":"contingent","relevant_dimensions":["pattern","legs"],"bee_group":{"antennae":"X","wings":"X","pattern":"D","legs":"M"},"bonus":0.9200000000000013},{"rt":661,"stimulus":"bees-with-color/bee-A2DM.svg","response":0,"trial_type":"image-button-response","trial_index":43,"time_elapsed":270106,"internal_node_id":"0.0-4.0-0.18","subject_id":"5e0f722ee8f8d1000cea475b","study_id":"6197b3f67c2b5cd3b6d9596a","session_id":"619be31f4200fc8e84df2dd6","condition":"contingent","relevant_dimensions":["pattern","legs"],"bee_group":{"antennae":"X","wings":"X","pattern":"D","legs":"M"},"action":"harvest","summary":"bad-harvest","bonus":0.9200000000000013},{"rt":6498.800000190735,"stimulus":"\n                    <p><b>Action: <em>harvest</em></b></p>\n                    <p>This is the bee that you just saw.</p>\n                    <img src=\"bees-with-color/bee-A2DM.svg\" width=\"200\">\n                    <p><span class=\"redText\">Bad choice, the bee was angry.</span><br><b>You have been stung!</b><br>Your pay has been decreased by $0.10. Your bonus pay is now $0.28.</p>\n            ","response":0,"trial_type":"html-button-response","trial_index":44,"time_elapsed":276606,"internal_node_id":"0.0-4.0-1.18","subject_id":"5e0f722ee8f8d1000cea475b","study_id":"6197b3f67c2b5cd3b6d9596a","session_id":"619be31f4200fc8e84df2dd6","condition":"contingent","relevant_dimensions":["pattern","legs"],"bee_group":{"antennae":"X","wings":"X","pattern":"D","legs":"M"},"bonus":0.9200000000000013},{"rt":1947.8000001907349,"stimulus":"bees-with-color/bee-A2DF.svg","response":0,"trial_type":"image-button-response","trial_index":45,"time_elapsed":278555,"internal_node_id":"0.0-4.0-0.19","subject_id":"5e0f722ee8f8d1000cea475b","study_id":"6197b3f67c2b5cd3b6d9596a","session_id":"619be31f4200fc8e84df2dd6","condition":"contingent","relevant_dimensions":["pattern","legs"],"bee_group":{"antennae":"X","wings":"X","pattern":"D","legs":"M"},"action":"harvest","summary":"good-harvest","bonus":0.9200000000000013},{"rt":921.5,"stimulus":"\n                    <p><b>Action: <em>harvest</em></b></p>\n                    <p>This is the bee that you just saw.</p>\n                    <img src=\"bees-with-color/bee-A2DF.svg\" width=\"200\">\n                    <p><span class=\"greenText\"><b>Successful harvest!</b></span><br>Your pay has increased by $0.02. Your bonus pay is now $0.30.</p>\n            ","response":0,"trial_type":"html-button-response","trial_index":46,"time_elapsed":279478,"internal_node_id":"0.0-4.0-1.19","subject_id":"5e0f722ee8f8d1000cea475b","study_id":"6197b3f67c2b5cd3b6d9596a","session_id":"619be31f4200fc8e84df2dd6","condition":"contingent","relevant_dimensions":["pattern","legs"],"bee_group":{"antennae":"X","wings":"X","pattern":"D","legs":"M"},"bonus":0.9200000000000013},{"rt":1651.2999992370605,"stimulus":"bees-with-color/bee-A1DF.svg","response":0,"trial_type":"image-button-response","trial_index":47,"time_elapsed":281131,"internal_node_id":"0.0-4.0-0.20","subject_id":"5e0f722ee8f8d1000cea475b","study_id":"6197b3f67c2b5cd3b6d9596a","session_id":"619be31f4200fc8e84df2dd6","condition":"contingent","relevant_dimensions":["pattern","legs"],"bee_group":{"antennae":"X","wings":"X","pattern":"D","legs":"M"},"action":"harvest","summary":"good-harvest","bonus":0.9200000000000013},{"rt":940.6999998092651,"stimulus":"\n                    <p><b>Action: <em>harvest</em></b></p>\n                    <p>This is the bee that you just saw.</p>\n                    <img src=\"bees-with-color/bee-A1DF.svg\" width=\"200\">\n                    <p><span class=\"greenText\"><b>Successful harvest!</b></span><br>Your pay has increased by $0.02. Your bonus pay is now $0.32.</p>\n            ","response":0,"trial_type":"html-button-response","trial_index":48,"time_elapsed":282073,"internal_node_id":"0.0-4.0-1.20","subject_id":"5e0f722ee8f8d1000cea475b","study_id":"6197b3f67c2b5cd3b6d9596a","session_id":"619be31f4200fc8e84df2dd6","condition":"contingent","relevant_dimensions":["pattern","legs"],"bee_group":{"antennae":"X","wings":"X","pattern":"D","legs":"M"},"bonus":0.9200000000000013},{"rt":1385,"stimulus":"bees-with-color/bee-B2DF.svg","response":0,"trial_type":"image-button-response","trial_index":49,"time_elapsed":283459,"internal_node_id":"0.0-4.0-0.21","subject_id":"5e0f722ee8f8d1000cea475b","study_id":"6197b3f67c2b5cd3b6d9596a","session_id":"619be31f4200fc8e84df2dd6","condition":"contingent","relevant_dimensions":["pattern","legs"],"bee_group":{"antennae":"X","wings":"X","pattern":"D","legs":"M"},"action":"harvest","summary":"good-harvest","bonus":0.9200000000000013},{"rt":688.8000001907349,"stimulus":"\n                    <p><b>Action: <em>harvest</em></b></p>\n                    <p>This is the bee that you just saw.</p>\n                    <img src=\"bees-with-color/bee-B2DF.svg\" width=\"200\">\n                    <p><span class=\"greenText\"><b>Successful harvest!</b></span><br>Your pay has increased by $0.02. Your bonus pay is now $0.34.</p>\n            ","response":0,"trial_type":"html-button-response","trial_index":50,"time_elapsed":284149,"internal_node_id":"0.0-4.0-1.21","subject_id":"5e0f722ee8f8d1000cea475b","study_id":"6197b3f67c2b5cd3b6d9596a","session_id":"619be31f4200fc8e84df2dd6","condition":"contingent","relevant_dimensions":["pattern","legs"],"bee_group":{"antennae":"X","wings":"X","pattern":"D","legs":"M"},"bonus":0.9200000000000013},{"rt":6875.599999427795,"stimulus":"bees-with-color/bee-A2SM.svg","response":0,"trial_type":"image-button-response","trial_index":51,"time_elapsed":291026,"internal_node_id":"0.0-4.0-0.22","subject_id":"5e0f722ee8f8d1000cea475b","study_id":"6197b3f67c2b5cd3b6d9596a","session_id":"619be31f4200fc8e84df2dd6","condition":"contingent","relevant_dimensions":["pattern","legs"],"bee_group":{"antennae":"X","wings":"X","pattern":"D","legs":"M"},"action":"harvest","summary":"good-harvest","bonus":0.9200000000000013},{"rt":3007.699999809265,"stimulus":"\n                    <p><b>Action: <em>harvest</em></b></p>\n                    <p>This is the bee that you just saw.</p>\n                    <img src=\"bees-with-color/bee-A2SM.svg\" width=\"200\">\n                    <p><span class=\"greenText\"><b>Successful harvest!</b></span><br>Your pay has increased by $0.02. Your bonus pay is now $0.36.</p>\n            ","response":0,"trial_type":"html-button-response","trial_index":52,"time_elapsed":294035,"internal_node_id":"0.0-4.0-1.22","subject_id":"5e0f722ee8f8d1000cea475b","study_id":"6197b3f67c2b5cd3b6d9596a","session_id":"619be31f4200fc8e84df2dd6","condition":"contingent","relevant_dimensions":["pattern","legs"],"bee_group":{"antennae":"X","wings":"X","pattern":"D","legs":"M"},"bonus":0.9200000000000013},{"rt":2294.5,"stimulus":"bees-with-color/bee-B2DM.svg","response":0,"trial_type":"image-button-response","trial_index":53,"time_elapsed":296331,"internal_node_id":"0.0-4.0-0.23","subject_id":"5e0f722ee8f8d1000cea475b","study_id":"6197b3f67c2b5cd3b6d9596a","session_id":"619be31f4200fc8e84df2dd6","condition":"contingent","relevant_dimensions":["pattern","legs"],"bee_group":{"antennae":"X","wings":"X","pattern":"D","legs":"M"},"action":"harvest","summary":"bad-harvest","bonus":0.9200000000000013},{"rt":4893,"stimulus":"\n                    <p><b>Action: <em>harvest</em></b></p>\n                    <p>This is the bee that you just saw.</p>\n                    <img src=\"bees-with-color/bee-B2DM.svg\" width=\"200\">\n                    <p><span class=\"redText\">Bad choice, the bee was angry.</span><br><b>You have been stung!</b><br>Your pay has been decreased by $0.10. Your bonus pay is now $0.26.</p>\n            ","response":0,"trial_type":"html-button-response","trial_index":54,"time_elapsed":301226,"internal_node_id":"0.0-4.0-1.23","subject_id":"5e0f722ee8f8d1000cea475b","study_id":"6197b3f67c2b5cd3b6d9596a","session_id":"619be31f4200fc8e84df2dd6","condition":"contingent","relevant_dimensions":["pattern","legs"],"bee_group":{"antennae":"X","wings":"X","pattern":"D","legs":"M"},"bonus":0.9200000000000013},{"rt":1841,"stimulus":"bees-with-color/bee-A1SF.svg","response":0,"trial_type":"image-button-response","trial_index":55,"time_elapsed":303068,"internal_node_id":"0.0-4.0-0.24","subject_id":"5e0f722ee8f8d1000cea475b","study_id":"6197b3f67c2b5cd3b6d9596a","session_id":"619be31f4200fc8e84df2dd6","condition":"contingent","relevant_dimensions":["pattern","legs"],"bee_group":{"antennae":"X","wings":"X","pattern":"D","legs":"M"},"action":"harvest","summary":"good-harvest","bonus":0.9200000000000013},{"rt":893.6000003814697,"stimulus":"\n                    <p><b>Action: <em>harvest</em></b></p>\n                    <p>This is the bee that you just saw.</p>\n                    <img src=\"bees-with-color/bee-A1SF.svg\" width=\"200\">\n                    <p><span class=\"greenText\"><b>Successful harvest!</b></span><br>Your pay has increased by $0.02. Your bonus pay is now $0.28.</p>\n            ","response":0,"trial_type":"html-button-response","trial_index":56,"time_elapsed":303963,"internal_node_id":"0.0-4.0-1.24","subject_id":"5e0f722ee8f8d1000cea475b","study_id":"6197b3f67c2b5cd3b6d9596a","session_id":"619be31f4200fc8e84df2dd6","condition":"contingent","relevant_dimensions":["pattern","legs"],"bee_group":{"antennae":"X","wings":"X","pattern":"D","legs":"M"},"bonus":0.9200000000000013},{"rt":1176,"stimulus":"bees-with-color/bee-B1DF.svg","response":0,"trial_type":"image-button-response","trial_index":57,"time_elapsed":305141,"internal_node_id":"0.0-4.0-0.25","subject_id":"5e0f722ee8f8d1000cea475b","study_id":"6197b3f67c2b5cd3b6d9596a","session_id":"619be31f4200fc8e84df2dd6","condition":"contingent","relevant_dimensions":["pattern","legs"],"bee_group":{"antennae":"X","wings":"X","pattern":"D","legs":"M"},"action":"harvest","summary":"good-harvest","bonus":0.9200000000000013},{"rt":660.5,"stimulus":"\n                    <p><b>Action: <em>harvest</em></b></p>\n                    <p>This is the bee that you just saw.</p>\n                    <img src=\"bees-with-color/bee-B1DF.svg\" width=\"200\">\n                    <p><span class=\"greenText\"><b>Successful harvest!</b></span><br>Your pay has increased by $0.02. Your bonus pay is now $0.30.</p>\n            ","response":0,"trial_type":"html-button-response","trial_index":58,"time_elapsed":305802,"internal_node_id":"0.0-4.0-1.25","subject_id":"5e0f722ee8f8d1000cea475b","study_id":"6197b3f67c2b5cd3b6d9596a","session_id":"619be31f4200fc8e84df2dd6","condition":"contingent","relevant_dimensions":["pattern","legs"],"bee_group":{"antennae":"X","wings":"X","pattern":"D","legs":"M"},"bonus":0.9200000000000013},{"rt":1734.8999996185303,"stimulus":"bees-with-color/bee-B1SM.svg","response":0,"trial_type":"image-button-response","trial_index":59,"time_elapsed":307538,"internal_node_id":"0.0-4.0-0.26","subject_id":"5e0f722ee8f8d1000cea475b","study_id":"6197b3f67c2b5cd3b6d9596a","session_id":"619be31f4200fc8e84df2dd6","condition":"contingent","relevant_dimensions":["pattern","legs"],"bee_group":{"antennae":"X","wings":"X","pattern":"D","legs":"M"},"action":"harvest","summary":"good-harvest","bonus":0.9200000000000013},{"rt":1255.6999998092651,"stimulus":"\n                    <p><b>Action: <em>harvest</em></b></p>\n                    <p>This is the bee that you just saw.</p>\n                    <img src=\"bees-with-color/bee-B1SM.svg\" width=\"200\">\n                    <p><span class=\"greenText\"><b>Successful harvest!</b></span><br>Your pay has increased by $0.02. Your bonus pay is now $0.32.</p>\n            ","response":0,"trial_type":"html-button-response","trial_index":60,"time_elapsed":308795,"internal_node_id":"0.0-4.0-1.26","subject_id":"5e0f722ee8f8d1000cea475b","study_id":"6197b3f67c2b5cd3b6d9596a","session_id":"619be31f4200fc8e84df2dd6","condition":"contingent","relevant_dimensions":["pattern","legs"],"bee_group":{"antennae":"X","wings":"X","pattern":"D","legs":"M"},"bonus":0.9200000000000013},{"rt":2780.800000190735,"stimulus":"bees-with-color/bee-A1DM.svg","response":0,"trial_type":"image-button-response","trial_index":61,"time_elapsed":311577,"internal_node_id":"0.0-4.0-0.27","subject_id":"5e0f722ee8f8d1000cea475b","study_id":"6197b3f67c2b5cd3b6d9596a","session_id":"619be31f4200fc8e84df2dd6","condition":"contingent","relevant_dimensions":["pattern","legs"],"bee_group":{"antennae":"X","wings":"X","pattern":"D","legs":"M"},"action":"harvest","summary":"bad-harvest","bonus":0.9200000000000013},{"rt":8317.5,"stimulus":"\n                    <p><b>Action: <em>harvest</em></b></p>\n                    <p>This is the bee that you just saw.</p>\n                    <img src=\"bees-with-color/bee-A1DM.svg\" width=\"200\">\n                    <p><span class=\"redText\">Bad choice, the bee was angry.</span><br><b>You have been stung!</b><br>Your pay has been decreased by $0.10. Your bonus pay is now $0.22.</p>\n            ","response":0,"trial_type":"html-button-response","trial_index":62,"time_elapsed":319896,"internal_node_id":"0.0-4.0-1.27","subject_id":"5e0f722ee8f8d1000cea475b","study_id":"6197b3f67c2b5cd3b6d9596a","session_id":"619be31f4200fc8e84df2dd6","condition":"contingent","relevant_dimensions":["pattern","legs"],"bee_group":{"antennae":"X","wings":"X","pattern":"D","legs":"M"},"bonus":0.9200000000000013},{"rt":1447.1999998092651,"stimulus":"bees-with-color/bee-B2SF.svg","response":0,"trial_type":"image-button-response","trial_index":63,"time_elapsed":321345,"internal_node_id":"0.0-4.0-0.28","subject_id":"5e0f722ee8f8d1000cea475b","study_id":"6197b3f67c2b5cd3b6d9596a","session_id":"619be31f4200fc8e84df2dd6","condition":"contingent","relevant_dimensions":["pattern","legs"],"bee_group":{"antennae":"X","wings":"X","pattern":"D","legs":"M"},"action":"harvest","summary":"good-harvest","bonus":0.9200000000000013},{"rt":1110.0999994277954,"stimulus":"\n                    <p><b>Action: <em>harvest</em></b></p>\n                    <p>This is the bee that you just saw.</p>\n                    <img src=\"bees-with-color/bee-B2SF.svg\" width=\"200\">\n                    <p><span class=\"greenText\"><b>Successful harvest!</b></span><br>Your pay has increased by $0.02. Your bonus pay is now $0.24.</p>\n            ","response":0,"trial_type":"html-button-response","trial_index":64,"time_elapsed":322456,"internal_node_id":"0.0-4.0-1.28","subject_id":"5e0f722ee8f8d1000cea475b","study_id":"6197b3f67c2b5cd3b6d9596a","session_id":"619be31f4200fc8e84df2dd6","condition":"contingent","relevant_dimensions":["pattern","legs"],"bee_group":{"antennae":"X","wings":"X","pattern":"D","legs":"M"},"bonus":0.9200000000000013},{"rt":1421.1000003814697,"stimulus":"bees-with-color/bee-B1SF.svg","response":0,"trial_type":"image-button-response","trial_index":65,"time_elapsed":323878,"internal_node_id":"0.0-4.0-0.29","subject_id":"5e0f722ee8f8d1000cea475b","study_id":"6197b3f67c2b5cd3b6d9596a","session_id":"619be31f4200fc8e84df2dd6","condition":"contingent","relevant_dimensions":["pattern","legs"],"bee_group":{"antennae":"X","wings":"X","pattern":"D","legs":"M"},"action":"harvest","summary":"good-harvest","bonus":0.9200000000000013},{"rt":906.9000005722046,"stimulus":"\n                    <p><b>Action: <em>harvest</em></b></p>\n                    <p>This is the bee that you just saw.</p>\n                    <img src=\"bees-with-color/bee-B1SF.svg\" width=\"200\">\n                    <p><span class=\"greenText\"><b>Successful harvest!</b></span><br>Your pay has increased by $0.02. Your bonus pay is now $0.26.</p>\n            ","response":0,"trial_type":"html-button-response","trial_index":66,"time_elapsed":324786,"internal_node_id":"0.0-4.0-1.29","subject_id":"5e0f722ee8f8d1000cea475b","study_id":"6197b3f67c2b5cd3b6d9596a","session_id":"619be31f4200fc8e84df2dd6","condition":"contingent","relevant_dimensions":["pattern","legs"],"bee_group":{"antennae":"X","wings":"X","pattern":"D","legs":"M"},"bonus":0.9200000000000013},{"rt":4267.60000038147,"stimulus":"bees-with-color/bee-A1SM.svg","response":0,"trial_type":"image-button-response","trial_index":67,"time_elapsed":329055,"internal_node_id":"0.0-4.0-0.30","subject_id":"5e0f722ee8f8d1000cea475b","study_id":"6197b3f67c2b5cd3b6d9596a","session_id":"619be31f4200fc8e84df2dd6","condition":"contingent","relevant_dimensions":["pattern","legs"],"bee_group":{"antennae":"X","wings":"X","pattern":"D","legs":"M"},"action":"harvest","summary":"good-harvest","bonus":0.9200000000000013},{"rt":822.3999996185303,"stimulus":"\n                    <p><b>Action: <em>harvest</em></b></p>\n                    <p>This is the bee that you just saw.</p>\n                    <img src=\"bees-with-color/bee-A1SM.svg\" width=\"200\">\n                    <p><span class=\"greenText\"><b>Successful harvest!</b></span><br>Your pay has increased by $0.02. Your bonus pay is now $0.28.</p>\n            ","response":0,"trial_type":"html-button-response","trial_index":68,"time_elapsed":329878,"internal_node_id":"0.0-4.0-1.30","subject_id":"5e0f722ee8f8d1000cea475b","study_id":"6197b3f67c2b5cd3b6d9596a","session_id":"619be31f4200fc8e84df2dd6","condition":"contingent","relevant_dimensions":["pattern","legs"],"bee_group":{"antennae":"X","wings":"X","pattern":"D","legs":"M"},"bonus":0.9200000000000013},{"rt":1431.1999998092651,"stimulus":"bees-with-color/bee-B1DM.svg","response":0,"trial_type":"image-button-response","trial_index":69,"time_elapsed":331311,"internal_node_id":"0.0-4.0-0.31","subject_id":"5e0f722ee8f8d1000cea475b","study_id":"6197b3f67c2b5cd3b6d9596a","session_id":"619be31f4200fc8e84df2dd6","condition":"contingent","relevant_dimensions":["pattern","legs"],"bee_group":{"antennae":"X","wings":"X","pattern":"D","legs":"M"},"action":"harvest","summary":"bad-harvest","bonus":0.9200000000000013},{"rt":896.6999998092651,"stimulus":"\n                    <p><b>Action: <em>harvest</em></b></p>\n                    <p>This is the bee that you just saw.</p>\n                    <img src=\"bees-with-color/bee-B1DM.svg\" width=\"200\">\n                    <p><span class=\"redText\">Bad choice, the bee was angry.</span><br><b>You have been stung!</b><br>Your pay has been decreased by $0.10. Your bonus pay is now $0.18.</p>\n            ","response":0,"trial_type":"html-button-response","trial_index":70,"time_elapsed":332209,"internal_node_id":"0.0-4.0-1.31","subject_id":"5e0f722ee8f8d1000cea475b","study_id":"6197b3f67c2b5cd3b6d9596a","session_id":"619be31f4200fc8e84df2dd6","condition":"contingent","relevant_dimensions":["pattern","legs"],"bee_group":{"antennae":"X","wings":"X","pattern":"D","legs":"M"},"bonus":0.9200000000000013},{"rt":2561.199999809265,"stimulus":"bees-with-color/bee-B1SM.svg","response":0,"trial_type":"image-button-response","trial_index":71,"time_elapsed":334772,"internal_node_id":"0.0-4.0-0.32","subject_id":"5e0f722ee8f8d1000cea475b","study_id":"6197b3f67c2b5cd3b6d9596a","session_id":"619be31f4200fc8e84df2dd6","condition":"contingent","relevant_dimensions":["pattern","legs"],"bee_group":{"antennae":"X","wings":"X","pattern":"D","legs":"M"},"action":"harvest","summary":"good-harvest","bonus":0.9200000000000013},{"rt":1728.3999996185303,"stimulus":"\n                    <p><b>Action: <em>harvest</em></b></p>\n                    <p>This is the bee that you just saw.</p>\n                    <img src=\"bees-with-color/bee-B1SM.svg\" width=\"200\">\n                    <p><span class=\"greenText\"><b>Successful harvest!</b></span><br>Your pay has increased by $0.02. Your bonus pay is now $0.20.</p>\n            ","response":0,"trial_type":"html-button-response","trial_index":72,"time_elapsed":336501,"internal_node_id":"0.0-4.0-1.32","subject_id":"5e0f722ee8f8d1000cea475b","study_id":"6197b3f67c2b5cd3b6d9596a","session_id":"619be31f4200fc8e84df2dd6","condition":"contingent","relevant_dimensions":["pattern","legs"],"bee_group":{"antennae":"X","wings":"X","pattern":"D","legs":"M"},"bonus":0.9200000000000013},{"rt":2347.699999809265,"stimulus":"bees-with-color/bee-A1DM.svg","response":1,"trial_type":"image-button-response","trial_index":73,"time_elapsed":338850,"internal_node_id":"0.0-4.0-0.33","subject_id":"5e0f722ee8f8d1000cea475b","study_id":"6197b3f67c2b5cd3b6d9596a","session_id":"619be31f4200fc8e84df2dd6","condition":"contingent","relevant_dimensions":["pattern","legs"],"bee_group":{"antennae":"X","wings":"X","pattern":"D","legs":"M"},"action":"avoid","summary":"good-avoid","bonus":0.9200000000000013},{"rt":2118.7999992370605,"stimulus":"\n                    <p><b>Action: <em>avoid</em></b></p>\n                    <p>This is the bee that you just saw.</p>\n                    <img src=\"bees-with-color/bee-A1DM.svg\" width=\"200\">\n                    <p><br>Your bonus pay is unchanged, and remains at $0.20.</p>\n            ","response":0,"trial_type":"html-button-response","trial_index":74,"time_elapsed":340970,"internal_node_id":"0.0-4.0-1.33","subject_id":"5e0f722ee8f8d1000cea475b","study_id":"6197b3f67c2b5cd3b6d9596a","session_id":"619be31f4200fc8e84df2dd6","condition":"contingent","relevant_dimensions":["pattern","legs"],"bee_group":{"antennae":"X","wings":"X","pattern":"D","legs":"M"},"bonus":0.9200000000000013},{"rt":1378.9000005722046,"stimulus":"bees-with-color/bee-B2DF.svg","response":0,"trial_type":"image-button-response","trial_index":75,"time_elapsed":342351,"internal_node_id":"0.0-4.0-0.34","subject_id":"5e0f722ee8f8d1000cea475b","study_id":"6197b3f67c2b5cd3b6d9596a","session_id":"619be31f4200fc8e84df2dd6","condition":"contingent","relevant_dimensions":["pattern","legs"],"bee_group":{"antennae":"X","wings":"X","pattern":"D","legs":"M"},"action":"harvest","summary":"good-harvest","bonus":0.9200000000000013},{"rt":623.8000001907349,"stimulus":"\n                    <p><b>Action: <em>harvest</em></b></p>\n                    <p>This is the bee that you just saw.</p>\n                    <img src=\"bees-with-color/bee-B2DF.svg\" width=\"200\">\n                    <p><span class=\"greenText\"><b>Successful harvest!</b></span><br>Your pay has increased by $0.02. Your bonus pay is now $0.22.</p>\n            ","response":0,"trial_type":"html-button-response","trial_index":76,"time_elapsed":342976,"internal_node_id":"0.0-4.0-1.34","subject_id":"5e0f722ee8f8d1000cea475b","study_id":"6197b3f67c2b5cd3b6d9596a","session_id":"619be31f4200fc8e84df2dd6","condition":"contingent","relevant_dimensions":["pattern","legs"],"bee_group":{"antennae":"X","wings":"X","pattern":"D","legs":"M"},"bonus":0.9200000000000013},{"rt":1094.3000001907349,"stimulus":"bees-with-color/bee-A2SF.svg","response":0,"trial_type":"image-button-response","trial_index":77,"time_elapsed":344071,"internal_node_id":"0.0-4.0-0.35","subject_id":"5e0f722ee8f8d1000cea475b","study_id":"6197b3f67c2b5cd3b6d9596a","session_id":"619be31f4200fc8e84df2dd6","condition":"contingent","relevant_dimensions":["pattern","legs"],"bee_group":{"antennae":"X","wings":"X","pattern":"D","legs":"M"},"action":"harvest","summary":"good-harvest","bonus":0.9200000000000013},{"rt":682,"stimulus":"\n                    <p><b>Action: <em>harvest</em></b></p>\n                    <p>This is the bee that you just saw.</p>\n                    <img src=\"bees-with-color/bee-A2SF.svg\" width=\"200\">\n                    <p><span class=\"greenText\"><b>Successful harvest!</b></span><br>Your pay has increased by $0.02. Your bonus pay is now $0.24.</p>\n            ","response":0,"trial_type":"html-button-response","trial_index":78,"time_elapsed":344754,"internal_node_id":"0.0-4.0-1.35","subject_id":"5e0f722ee8f8d1000cea475b","study_id":"6197b3f67c2b5cd3b6d9596a","session_id":"619be31f4200fc8e84df2dd6","condition":"contingent","relevant_dimensions":["pattern","legs"],"bee_group":{"antennae":"X","wings":"X","pattern":"D","legs":"M"},"bonus":0.9200000000000013},{"rt":1198.8000001907349,"stimulus":"bees-with-color/bee-A1SM.svg","response":0,"trial_type":"image-button-response","trial_index":79,"time_elapsed":345954,"internal_node_id":"0.0-4.0-0.36","subject_id":"5e0f722ee8f8d1000cea475b","study_id":"6197b3f67c2b5cd3b6d9596a","session_id":"619be31f4200fc8e84df2dd6","condition":"contingent","relevant_dimensions":["pattern","legs"],"bee_group":{"antennae":"X","wings":"X","pattern":"D","legs":"M"},"action":"harvest","summary":"good-harvest","bonus":0.9200000000000013},{"rt":612,"stimulus":"\n                    <p><b>Action: <em>harvest</em></b></p>\n                    <p>This is the bee that you just saw.</p>\n                    <img src=\"bees-with-color/bee-A1SM.svg\" width=\"200\">\n                    <p><span class=\"greenText\"><b>Successful harvest!</b></span><br>Your pay has increased by $0.02. Your bonus pay is now $0.26.</p>\n            ","response":0,"trial_type":"html-button-response","trial_index":80,"time_elapsed":346568,"internal_node_id":"0.0-4.0-1.36","subject_id":"5e0f722ee8f8d1000cea475b","study_id":"6197b3f67c2b5cd3b6d9596a","session_id":"619be31f4200fc8e84df2dd6","condition":"contingent","relevant_dimensions":["pattern","legs"],"bee_group":{"antennae":"X","wings":"X","pattern":"D","legs":"M"},"bonus":0.9200000000000013},{"rt":625.9000005722046,"stimulus":"bees-with-color/bee-A2SM.svg","response":0,"trial_type":"image-button-response","trial_index":81,"time_elapsed":347195,"internal_node_id":"0.0-4.0-0.37","subject_id":"5e0f722ee8f8d1000cea475b","study_id":"6197b3f67c2b5cd3b6d9596a","session_id":"619be31f4200fc8e84df2dd6","condition":"contingent","relevant_dimensions":["pattern","legs"],"bee_group":{"antennae":"X","wings":"X","pattern":"D","legs":"M"},"action":"harvest","summary":"good-harvest","bonus":0.9200000000000013},{"rt":841.6000003814697,"stimulus":"\n                    <p><b>Action: <em>harvest</em></b></p>\n                    <p>This is the bee that you just saw.</p>\n                    <img src=\"bees-with-color/bee-A2SM.svg\" width=\"200\">\n                    <p><span class=\"greenText\"><b>Successful harvest!</b></span><br>Your pay has increased by $0.02. Your bonus pay is now $0.28.</p>\n            ","response":0,"trial_type":"html-button-response","trial_index":82,"time_elapsed":348038,"internal_node_id":"0.0-4.0-1.37","subject_id":"5e0f722ee8f8d1000cea475b","study_id":"6197b3f67c2b5cd3b6d9596a","session_id":"619be31f4200fc8e84df2dd6","condition":"contingent","relevant_dimensions":["pattern","legs"],"bee_group":{"antennae":"X","wings":"X","pattern":"D","legs":"M"},"bonus":0.9200000000000013},{"rt":1958.3000001907349,"stimulus":"bees-with-color/bee-A2DM.svg","response":1,"trial_type":"image-button-response","trial_index":83,"time_elapsed":349997,"internal_node_id":"0.0-4.0-0.38","subject_id":"5e0f722ee8f8d1000cea475b","study_id":"6197b3f67c2b5cd3b6d9596a","session_id":"619be31f4200fc8e84df2dd6","condition":"contingent","relevant_dimensions":["pattern","legs"],"bee_group":{"antennae":"X","wings":"X","pattern":"D","legs":"M"},"action":"avoid","summary":"good-avoid","bonus":0.9200000000000013},{"rt":1351.3000001907349,"stimulus":"\n                    <p><b>Action: <em>avoid</em></b></p>\n                    <p>This is the bee that you just saw.</p>\n                    <img src=\"bees-with-color/bee-A2DM.svg\" width=\"200\">\n                    <p><br>Your bonus pay is unchanged, and remains at $0.28.</p>\n            ","response":0,"trial_type":"html-button-response","trial_index":84,"time_elapsed":351350,"internal_node_id":"0.0-4.0-1.38","subject_id":"5e0f722ee8f8d1000cea475b","study_id":"6197b3f67c2b5cd3b6d9596a","session_id":"619be31f4200fc8e84df2dd6","condition":"contingent","relevant_dimensions":["pattern","legs"],"bee_group":{"antennae":"X","wings":"X","pattern":"D","legs":"M"},"bonus":0.9200000000000013},{"rt":1128.3999996185303,"stimulus":"bees-with-color/bee-B1SF.svg","response":0,"trial_type":"image-button-response","trial_index":85,"time_elapsed":352480,"internal_node_id":"0.0-4.0-0.39","subject_id":"5e0f722ee8f8d1000cea475b","study_id":"6197b3f67c2b5cd3b6d9596a","session_id":"619be31f4200fc8e84df2dd6","condition":"contingent","relevant_dimensions":["pattern","legs"],"bee_group":{"antennae":"X","wings":"X","pattern":"D","legs":"M"},"action":"harvest","summary":"good-harvest","bonus":0.9200000000000013},{"rt":813.3000001907349,"stimulus":"\n                    <p><b>Action: <em>harvest</em></b></p>\n                    <p>This is the bee that you just saw.</p>\n                    <img src=\"bees-with-color/bee-B1SF.svg\" width=\"200\">\n                    <p><span class=\"greenText\"><b>Successful harvest!</b></span><br>Your pay has increased by $0.02. Your bonus pay is now $0.30.</p>\n            ","response":0,"trial_type":"html-button-response","trial_index":86,"time_elapsed":353295,"internal_node_id":"0.0-4.0-1.39","subject_id":"5e0f722ee8f8d1000cea475b","study_id":"6197b3f67c2b5cd3b6d9596a","session_id":"619be31f4200fc8e84df2dd6","condition":"contingent","relevant_dimensions":["pattern","legs"],"bee_group":{"antennae":"X","wings":"X","pattern":"D","legs":"M"},"bonus":0.9200000000000013},{"rt":605.8000001907349,"stimulus":"bees-with-color/bee-B2SM.svg","response":0,"trial_type":"image-button-response","trial_index":87,"time_elapsed":353902,"internal_node_id":"0.0-4.0-0.40","subject_id":"5e0f722ee8f8d1000cea475b","study_id":"6197b3f67c2b5cd3b6d9596a","session_id":"619be31f4200fc8e84df2dd6","condition":"contingent","relevant_dimensions":["pattern","legs"],"bee_group":{"antennae":"X","wings":"X","pattern":"D","legs":"M"},"action":"harvest","summary":"good-harvest","bonus":0.9200000000000013},{"rt":994.1999998092651,"stimulus":"\n                    <p><b>Action: <em>harvest</em></b></p>\n                    <p>This is the bee that you just saw.</p>\n                    <img src=\"bees-with-color/bee-B2SM.svg\" width=\"200\">\n                    <p><span class=\"greenText\"><b>Successful harvest!</b></span><br>Your pay has increased by $0.02. Your bonus pay is now $0.32.</p>\n            ","response":0,"trial_type":"html-button-response","trial_index":88,"time_elapsed":354898,"internal_node_id":"0.0-4.0-1.40","subject_id":"5e0f722ee8f8d1000cea475b","study_id":"6197b3f67c2b5cd3b6d9596a","session_id":"619be31f4200fc8e84df2dd6","condition":"contingent","relevant_dimensions":["pattern","legs"],"bee_group":{"antennae":"X","wings":"X","pattern":"D","legs":"M"},"bonus":0.9200000000000013},{"rt":1051,"stimulus":"bees-with-color/bee-A2DF.svg","response":0,"trial_type":"image-button-response","trial_index":89,"time_elapsed":355951,"internal_node_id":"0.0-4.0-0.41","subject_id":"5e0f722ee8f8d1000cea475b","study_id":"6197b3f67c2b5cd3b6d9596a","session_id":"619be31f4200fc8e84df2dd6","condition":"contingent","relevant_dimensions":["pattern","legs"],"bee_group":{"antennae":"X","wings":"X","pattern":"D","legs":"M"},"action":"harvest","summary":"good-harvest","bonus":0.9200000000000013},{"rt":905.3000001907349,"stimulus":"\n                    <p><b>Action: <em>harvest</em></b></p>\n                    <p>This is the bee that you just saw.</p>\n                    <img src=\"bees-with-color/bee-A2DF.svg\" width=\"200\">\n                    <p><span class=\"greenText\"><b>Successful harvest!</b></span><br>Your pay has increased by $0.02. Your bonus pay is now $0.34.</p>\n            ","response":0,"trial_type":"html-button-response","trial_index":90,"time_elapsed":356858,"internal_node_id":"0.0-4.0-1.41","subject_id":"5e0f722ee8f8d1000cea475b","study_id":"6197b3f67c2b5cd3b6d9596a","session_id":"619be31f4200fc8e84df2dd6","condition":"contingent","relevant_dimensions":["pattern","legs"],"bee_group":{"antennae":"X","wings":"X","pattern":"D","legs":"M"},"bonus":0.9200000000000013},{"rt":579.2000007629395,"stimulus":"bees-with-color/bee-A1SF.svg","response":0,"trial_type":"image-button-response","trial_index":91,"time_elapsed":357439,"internal_node_id":"0.0-4.0-0.42","subject_id":"5e0f722ee8f8d1000cea475b","study_id":"6197b3f67c2b5cd3b6d9596a","session_id":"619be31f4200fc8e84df2dd6","condition":"contingent","relevant_dimensions":["pattern","legs"],"bee_group":{"antennae":"X","wings":"X","pattern":"D","legs":"M"},"action":"harvest","summary":"good-harvest","bonus":0.9200000000000013},{"rt":845.2000007629395,"stimulus":"\n                    <p><b>Action: <em>harvest</em></b></p>\n                    <p>This is the bee that you just saw.</p>\n                    <img src=\"bees-with-color/bee-A1SF.svg\" width=\"200\">\n                    <p><span class=\"greenText\"><b>Successful harvest!</b></span><br>Your pay has increased by $0.02. Your bonus pay is now $0.36.</p>\n            ","response":0,"trial_type":"html-button-response","trial_index":92,"time_elapsed":358285,"internal_node_id":"0.0-4.0-1.42","subject_id":"5e0f722ee8f8d1000cea475b","study_id":"6197b3f67c2b5cd3b6d9596a","session_id":"619be31f4200fc8e84df2dd6","condition":"contingent","relevant_dimensions":["pattern","legs"],"bee_group":{"antennae":"X","wings":"X","pattern":"D","legs":"M"},"bonus":0.9200000000000013},{"rt":561.6000003814697,"stimulus":"bees-with-color/bee-B1DF.svg","response":0,"trial_type":"image-button-response","trial_index":93,"time_elapsed":358848,"internal_node_id":"0.0-4.0-0.43","subject_id":"5e0f722ee8f8d1000cea475b","study_id":"6197b3f67c2b5cd3b6d9596a","session_id":"619be31f4200fc8e84df2dd6","condition":"contingent","relevant_dimensions":["pattern","legs"],"bee_group":{"antennae":"X","wings":"X","pattern":"D","legs":"M"},"action":"harvest","summary":"good-harvest","bonus":0.9200000000000013},{"rt":668.1999998092651,"stimulus":"\n                    <p><b>Action: <em>harvest</em></b></p>\n                    <p>This is the bee that you just saw.</p>\n                    <img src=\"bees-with-color/bee-B1DF.svg\" width=\"200\">\n                    <p><span class=\"greenText\"><b>Successful harvest!</b></span><br>Your pay has increased by $0.02. Your bonus pay is now $0.38.</p>\n            ","response":0,"trial_type":"html-button-response","trial_index":94,"time_elapsed":359518,"internal_node_id":"0.0-4.0-1.43","subject_id":"5e0f722ee8f8d1000cea475b","study_id":"6197b3f67c2b5cd3b6d9596a","session_id":"619be31f4200fc8e84df2dd6","condition":"contingent","relevant_dimensions":["pattern","legs"],"bee_group":{"antennae":"X","wings":"X","pattern":"D","legs":"M"},"bonus":0.9200000000000013},{"rt":599.1000003814697,"stimulus":"bees-with-color/bee-B1DM.svg","response":0,"trial_type":"image-button-response","trial_index":95,"time_elapsed":360118,"internal_node_id":"0.0-4.0-0.44","subject_id":"5e0f722ee8f8d1000cea475b","study_id":"6197b3f67c2b5cd3b6d9596a","session_id":"619be31f4200fc8e84df2dd6","condition":"contingent","relevant_dimensions":["pattern","legs"],"bee_group":{"antennae":"X","wings":"X","pattern":"D","legs":"M"},"action":"harvest","summary":"bad-harvest","bonus":0.9200000000000013},{"rt":3279.3999996185303,"stimulus":"\n                    <p><b>Action: <em>harvest</em></b></p>\n                    <p>This is the bee that you just saw.</p>\n                    <img src=\"bees-with-color/bee-B1DM.svg\" width=\"200\">\n                    <p><span class=\"redText\">Bad choice, the bee was angry.</span><br><b>You have been stung!</b><br>Your pay has been decreased by $0.10. Your bonus pay is now $0.28.</p>\n            ","response":0,"trial_type":"html-button-response","trial_index":96,"time_elapsed":363398,"internal_node_id":"0.0-4.0-1.44","subject_id":"5e0f722ee8f8d1000cea475b","study_id":"6197b3f67c2b5cd3b6d9596a","session_id":"619be31f4200fc8e84df2dd6","condition":"contingent","relevant_dimensions":["pattern","legs"],"bee_group":{"antennae":"X","wings":"X","pattern":"D","legs":"M"},"bonus":0.9200000000000013},{"rt":1096,"stimulus":"bees-with-color/bee-B2SF.svg","response":0,"trial_type":"image-button-response","trial_index":97,"time_elapsed":364496,"internal_node_id":"0.0-4.0-0.45","subject_id":"5e0f722ee8f8d1000cea475b","study_id":"6197b3f67c2b5cd3b6d9596a","session_id":"619be31f4200fc8e84df2dd6","condition":"contingent","relevant_dimensions":["pattern","legs"],"bee_group":{"antennae":"X","wings":"X","pattern":"D","legs":"M"},"action":"harvest","summary":"good-harvest","bonus":0.9200000000000013},{"rt":615.8999996185303,"stimulus":"\n                    <p><b>Action: <em>harvest</em></b></p>\n                    <p>This is the bee that you just saw.</p>\n                    <img src=\"bees-with-color/bee-B2SF.svg\" width=\"200\">\n                    <p><span class=\"greenText\"><b>Successful harvest!</b></span><br>Your pay has increased by $0.02. Your bonus pay is now $0.30.</p>\n            ","response":0,"trial_type":"html-button-response","trial_index":98,"time_elapsed":365113,"internal_node_id":"0.0-4.0-1.45","subject_id":"5e0f722ee8f8d1000cea475b","study_id":"6197b3f67c2b5cd3b6d9596a","session_id":"619be31f4200fc8e84df2dd6","condition":"contingent","relevant_dimensions":["pattern","legs"],"bee_group":{"antennae":"X","wings":"X","pattern":"D","legs":"M"},"bonus":0.9200000000000013},{"rt":1742.4000005722046,"stimulus":"bees-with-color/bee-A1DF.svg","response":0,"trial_type":"image-button-response","trial_index":99,"time_elapsed":366856,"internal_node_id":"0.0-4.0-0.46","subject_id":"5e0f722ee8f8d1000cea475b","study_id":"6197b3f67c2b5cd3b6d9596a","session_id":"619be31f4200fc8e84df2dd6","condition":"contingent","relevant_dimensions":["pattern","legs"],"bee_group":{"antennae":"X","wings":"X","pattern":"D","legs":"M"},"action":"harvest","summary":"good-harvest","bonus":0.9200000000000013},{"rt":642,"stimulus":"\n                    <p><b>Action: <em>harvest</em></b></p>\n                    <p>This is the bee that you just saw.</p>\n                    <img src=\"bees-with-color/bee-A1DF.svg\" width=\"200\">\n                    <p><span class=\"greenText\"><b>Successful harvest!</b></span><br>Your pay has increased by $0.02. Your bonus pay is now $0.32.</p>\n            ","response":0,"trial_type":"html-button-response","trial_index":100,"time_elapsed":367500,"internal_node_id":"0.0-4.0-1.46","subject_id":"5e0f722ee8f8d1000cea475b","study_id":"6197b3f67c2b5cd3b6d9596a","session_id":"619be31f4200fc8e84df2dd6","condition":"contingent","relevant_dimensions":["pattern","legs"],"bee_group":{"antennae":"X","wings":"X","pattern":"D","legs":"M"},"bonus":0.9200000000000013},{"rt":1809.3000001907349,"stimulus":"bees-with-color/bee-B2DM.svg","response":1,"trial_type":"image-button-response","trial_index":101,"time_elapsed":369304,"internal_node_id":"0.0-4.0-0.47","subject_id":"5e0f722ee8f8d1000cea475b","study_id":"6197b3f67c2b5cd3b6d9596a","session_id":"619be31f4200fc8e84df2dd6","condition":"contingent","relevant_dimensions":["pattern","legs"],"bee_group":{"antennae":"X","wings":"X","pattern":"D","legs":"M"},"action":"avoid","summary":"good-avoid","bonus":0.9200000000000013},{"rt":1051.1999998092651,"stimulus":"\n                    <p><b>Action: <em>avoid</em></b></p>\n                    <p>This is the bee that you just saw.</p>\n                    <img src=\"bees-with-color/bee-B2DM.svg\" width=\"200\">\n                    <p><br>Your bonus pay is unchanged, and remains at $0.32.</p>\n            ","response":0,"trial_type":"html-button-response","trial_index":102,"time_elapsed":370356,"internal_node_id":"0.0-4.0-1.47","subject_id":"5e0f722ee8f8d1000cea475b","study_id":"6197b3f67c2b5cd3b6d9596a","session_id":"619be31f4200fc8e84df2dd6","condition":"contingent","relevant_dimensions":["pattern","legs"],"bee_group":{"antennae":"X","wings":"X","pattern":"D","legs":"M"},"bonus":0.9200000000000013},{"rt":1318.1999998092651,"stimulus":"bees-with-color/bee-A1DF.svg","response":0,"trial_type":"image-button-response","trial_index":103,"time_elapsed":371676,"internal_node_id":"0.0-4.0-0.48","subject_id":"5e0f722ee8f8d1000cea475b","study_id":"6197b3f67c2b5cd3b6d9596a","session_id":"619be31f4200fc8e84df2dd6","condition":"contingent","relevant_dimensions":["pattern","legs"],"bee_group":{"antennae":"X","wings":"X","pattern":"D","legs":"M"},"action":"harvest","summary":"good-harvest","bonus":0.9200000000000013},{"rt":867.7000007629395,"stimulus":"\n                    <p><b>Action: <em>harvest</em></b></p>\n                    <p>This is the bee that you just saw.</p>\n                    <img src=\"bees-with-color/bee-A1DF.svg\" width=\"200\">\n                    <p><span class=\"greenText\"><b>Successful harvest!</b></span><br>Your pay has increased by $0.02. Your bonus pay is now $0.34.</p>\n            ","response":0,"trial_type":"html-button-response","trial_index":104,"time_elapsed":372545,"internal_node_id":"0.0-4.0-1.48","subject_id":"5e0f722ee8f8d1000cea475b","study_id":"6197b3f67c2b5cd3b6d9596a","session_id":"619be31f4200fc8e84df2dd6","condition":"contingent","relevant_dimensions":["pattern","legs"],"bee_group":{"antennae":"X","wings":"X","pattern":"D","legs":"M"},"bonus":0.9200000000000013},{"rt":1682,"stimulus":"bees-with-color/bee-B2SM.svg","response":0,"trial_type":"image-button-response","trial_index":105,"time_elapsed":374228,"internal_node_id":"0.0-4.0-0.49","subject_id":"5e0f722ee8f8d1000cea475b","study_id":"6197b3f67c2b5cd3b6d9596a","session_id":"619be31f4200fc8e84df2dd6","condition":"contingent","relevant_dimensions":["pattern","legs"],"bee_group":{"antennae":"X","wings":"X","pattern":"D","legs":"M"},"action":"harvest","summary":"good-harvest","bonus":0.9200000000000013},{"rt":833.5,"stimulus":"\n                    <p><b>Action: <em>harvest</em></b></p>\n                    <p>This is the bee that you just saw.</p>\n                    <img src=\"bees-with-color/bee-B2SM.svg\" width=\"200\">\n                    <p><span class=\"greenText\"><b>Successful harvest!</b></span><br>Your pay has increased by $0.02. Your bonus pay is now $0.36.</p>\n            ","response":0,"trial_type":"html-button-response","trial_index":106,"time_elapsed":375063,"internal_node_id":"0.0-4.0-1.49","subject_id":"5e0f722ee8f8d1000cea475b","study_id":"6197b3f67c2b5cd3b6d9596a","session_id":"619be31f4200fc8e84df2dd6","condition":"contingent","relevant_dimensions":["pattern","legs"],"bee_group":{"antennae":"X","wings":"X","pattern":"D","legs":"M"},"bonus":0.9200000000000013},{"rt":1321.1999998092651,"stimulus":"bees-with-color/bee-A2SF.svg","response":0,"trial_type":"image-button-response","trial_index":107,"time_elapsed":376385,"internal_node_id":"0.0-4.0-0.50","subject_id":"5e0f722ee8f8d1000cea475b","study_id":"6197b3f67c2b5cd3b6d9596a","session_id":"619be31f4200fc8e84df2dd6","condition":"contingent","relevant_dimensions":["pattern","legs"],"bee_group":{"antennae":"X","wings":"X","pattern":"D","legs":"M"},"action":"harvest","summary":"good-harvest","bonus":0.9200000000000013},{"rt":661,"stimulus":"\n                    <p><b>Action: <em>harvest</em></b></p>\n                    <p>This is the bee that you just saw.</p>\n                    <img src=\"bees-with-color/bee-A2SF.svg\" width=\"200\">\n                    <p><span class=\"greenText\"><b>Successful harvest!</b></span><br>Your pay has increased by $0.02. Your bonus pay is now $0.38.</p>\n            ","response":0,"trial_type":"html-button-response","trial_index":108,"time_elapsed":377047,"internal_node_id":"0.0-4.0-1.50","subject_id":"5e0f722ee8f8d1000cea475b","study_id":"6197b3f67c2b5cd3b6d9596a","session_id":"619be31f4200fc8e84df2dd6","condition":"contingent","relevant_dimensions":["pattern","legs"],"bee_group":{"antennae":"X","wings":"X","pattern":"D","legs":"M"},"bonus":0.9200000000000013},{"rt":1928.8000001907349,"stimulus":"bees-with-color/bee-A1SM.svg","response":0,"trial_type":"image-button-response","trial_index":109,"time_elapsed":378977,"internal_node_id":"0.0-4.0-0.51","subject_id":"5e0f722ee8f8d1000cea475b","study_id":"6197b3f67c2b5cd3b6d9596a","session_id":"619be31f4200fc8e84df2dd6","condition":"contingent","relevant_dimensions":["pattern","legs"],"bee_group":{"antennae":"X","wings":"X","pattern":"D","legs":"M"},"action":"harvest","summary":"good-harvest","bonus":0.9200000000000013},{"rt":744.8999996185303,"stimulus":"\n                    <p><b>Action: <em>harvest</em></b></p>\n                    <p>This is the bee that you just saw.</p>\n                    <img src=\"bees-with-color/bee-A1SM.svg\" width=\"200\">\n                    <p><span class=\"greenText\"><b>Successful harvest!</b></span><br>Your pay has increased by $0.02. Your bonus pay is now $0.40.</p>\n            ","response":0,"trial_type":"html-button-response","trial_index":110,"time_elapsed":379723,"internal_node_id":"0.0-4.0-1.51","subject_id":"5e0f722ee8f8d1000cea475b","study_id":"6197b3f67c2b5cd3b6d9596a","session_id":"619be31f4200fc8e84df2dd6","condition":"contingent","relevant_dimensions":["pattern","legs"],"bee_group":{"antennae":"X","wings":"X","pattern":"D","legs":"M"},"bonus":0.9200000000000013},{"rt":904.1000003814697,"stimulus":"bees-with-color/bee-B1SM.svg","response":0,"trial_type":"image-button-response","trial_index":111,"time_elapsed":380628,"internal_node_id":"0.0-4.0-0.52","subject_id":"5e0f722ee8f8d1000cea475b","study_id":"6197b3f67c2b5cd3b6d9596a","session_id":"619be31f4200fc8e84df2dd6","condition":"contingent","relevant_dimensions":["pattern","legs"],"bee_group":{"antennae":"X","wings":"X","pattern":"D","legs":"M"},"action":"harvest","summary":"good-harvest","bonus":0.9200000000000013},{"rt":807.6000003814697,"stimulus":"\n                    <p><b>Action: <em>harvest</em></b></p>\n                    <p>This is the bee that you just saw.</p>\n                    <img src=\"bees-with-color/bee-B1SM.svg\" width=\"200\">\n                    <p><span class=\"greenText\"><b>Successful harvest!</b></span><br>Your pay has increased by $0.02. Your bonus pay is now $0.42.</p>\n            ","response":0,"trial_type":"html-button-response","trial_index":112,"time_elapsed":381437,"internal_node_id":"0.0-4.0-1.52","subject_id":"5e0f722ee8f8d1000cea475b","study_id":"6197b3f67c2b5cd3b6d9596a","session_id":"619be31f4200fc8e84df2dd6","condition":"contingent","relevant_dimensions":["pattern","legs"],"bee_group":{"antennae":"X","wings":"X","pattern":"D","legs":"M"},"bonus":0.9200000000000013},{"rt":2321.300000190735,"stimulus":"bees-with-color/bee-A2DM.svg","response":1,"trial_type":"image-button-response","trial_index":113,"time_elapsed":383760,"internal_node_id":"0.0-4.0-0.53","subject_id":"5e0f722ee8f8d1000cea475b","study_id":"6197b3f67c2b5cd3b6d9596a","session_id":"619be31f4200fc8e84df2dd6","condition":"contingent","relevant_dimensions":["pattern","legs"],"bee_group":{"antennae":"X","wings":"X","pattern":"D","legs":"M"},"action":"avoid","summary":"good-avoid","bonus":0.9200000000000013},{"rt":816.3000001907349,"stimulus":"\n                    <p><b>Action: <em>avoid</em></b></p>\n                    <p>This is the bee that you just saw.</p>\n                    <img src=\"bees-with-color/bee-A2DM.svg\" width=\"200\">\n                    <p><br>Your bonus pay is unchanged, and remains at $0.42.</p>\n            ","response":0,"trial_type":"html-button-response","trial_index":114,"time_elapsed":384577,"internal_node_id":"0.0-4.0-1.53","subject_id":"5e0f722ee8f8d1000cea475b","study_id":"6197b3f67c2b5cd3b6d9596a","session_id":"619be31f4200fc8e84df2dd6","condition":"contingent","relevant_dimensions":["pattern","legs"],"bee_group":{"antennae":"X","wings":"X","pattern":"D","legs":"M"},"bonus":0.9200000000000013},{"rt":904.1000003814697,"stimulus":"bees-with-color/bee-B2SF.svg","response":0,"trial_type":"image-button-response","trial_index":115,"time_elapsed":385483,"internal_node_id":"0.0-4.0-0.54","subject_id":"5e0f722ee8f8d1000cea475b","study_id":"6197b3f67c2b5cd3b6d9596a","session_id":"619be31f4200fc8e84df2dd6","condition":"contingent","relevant_dimensions":["pattern","legs"],"bee_group":{"antennae":"X","wings":"X","pattern":"D","legs":"M"},"action":"harvest","summary":"good-harvest","bonus":0.9200000000000013},{"rt":831.6999998092651,"stimulus":"\n                    <p><b>Action: <em>harvest</em></b></p>\n                    <p>This is the bee that you just saw.</p>\n                    <img src=\"bees-with-color/bee-B2SF.svg\" width=\"200\">\n                    <p><span class=\"greenText\"><b>Successful harvest!</b></span><br>Your pay has increased by $0.02. Your bonus pay is now $0.44.</p>\n            ","response":0,"trial_type":"html-button-response","trial_index":116,"time_elapsed":386316,"internal_node_id":"0.0-4.0-1.54","subject_id":"5e0f722ee8f8d1000cea475b","study_id":"6197b3f67c2b5cd3b6d9596a","session_id":"619be31f4200fc8e84df2dd6","condition":"contingent","relevant_dimensions":["pattern","legs"],"bee_group":{"antennae":"X","wings":"X","pattern":"D","legs":"M"},"bonus":0.9200000000000013},{"rt":2753.300000190735,"stimulus":"bees-with-color/bee-B1DM.svg","response":0,"trial_type":"image-button-response","trial_index":117,"time_elapsed":389070,"internal_node_id":"0.0-4.0-0.55","subject_id":"5e0f722ee8f8d1000cea475b","study_id":"6197b3f67c2b5cd3b6d9596a","session_id":"619be31f4200fc8e84df2dd6","condition":"contingent","relevant_dimensions":["pattern","legs"],"bee_group":{"antennae":"X","wings":"X","pattern":"D","legs":"M"},"action":"harvest","summary":"bad-harvest","bonus":0.9200000000000013},{"rt":2530.199999809265,"stimulus":"\n                    <p><b>Action: <em>harvest</em></b></p>\n                    <p>This is the bee that you just saw.</p>\n                    <img src=\"bees-with-color/bee-B1DM.svg\" width=\"200\">\n                    <p><span class=\"redText\">Bad choice, the bee was angry.</span><br><b>You have been stung!</b><br>Your pay has been decreased by $0.10. Your bonus pay is now $0.34.</p>\n            ","response":0,"trial_type":"html-button-response","trial_index":118,"time_elapsed":391602,"internal_node_id":"0.0-4.0-1.55","subject_id":"5e0f722ee8f8d1000cea475b","study_id":"6197b3f67c2b5cd3b6d9596a","session_id":"619be31f4200fc8e84df2dd6","condition":"contingent","relevant_dimensions":["pattern","legs"],"bee_group":{"antennae":"X","wings":"X","pattern":"D","legs":"M"},"bonus":0.9200000000000013},{"rt":1568.1999998092651,"stimulus":"bees-with-color/bee-A1SF.svg","response":0,"trial_type":"image-button-response","trial_index":119,"time_elapsed":393172,"internal_node_id":"0.0-4.0-0.56","subject_id":"5e0f722ee8f8d1000cea475b","study_id":"6197b3f67c2b5cd3b6d9596a","session_id":"619be31f4200fc8e84df2dd6","condition":"contingent","relevant_dimensions":["pattern","legs"],"bee_group":{"antennae":"X","wings":"X","pattern":"D","legs":"M"},"action":"harvest","summary":"good-harvest","bonus":0.9200000000000013},{"rt":748.1999998092651,"stimulus":"\n                    <p><b>Action: <em>harvest</em></b></p>\n                    <p>This is the bee that you just saw.</p>\n                    <img src=\"bees-with-color/bee-A1SF.svg\" width=\"200\">\n                    <p><span class=\"greenText\"><b>Successful harvest!</b></span><br>Your pay has increased by $0.02. Your bonus pay is now $0.36.</p>\n            ","response":0,"trial_type":"html-button-response","trial_index":120,"time_elapsed":393921,"internal_node_id":"0.0-4.0-1.56","subject_id":"5e0f722ee8f8d1000cea475b","study_id":"6197b3f67c2b5cd3b6d9596a","session_id":"619be31f4200fc8e84df2dd6","condition":"contingent","relevant_dimensions":["pattern","legs"],"bee_group":{"antennae":"X","wings":"X","pattern":"D","legs":"M"},"bonus":0.9200000000000013},{"rt":2241.3999996185303,"stimulus":"bees-with-color/bee-A2DF.svg","response":0,"trial_type":"image-button-response","trial_index":121,"time_elapsed":396164,"internal_node_id":"0.0-4.0-0.57","subject_id":"5e0f722ee8f8d1000cea475b","study_id":"6197b3f67c2b5cd3b6d9596a","session_id":"619be31f4200fc8e84df2dd6","condition":"contingent","relevant_dimensions":["pattern","legs"],"bee_group":{"antennae":"X","wings":"X","pattern":"D","legs":"M"},"action":"harvest","summary":"good-harvest","bonus":0.9200000000000013},{"rt":787.4000005722046,"stimulus":"\n                    <p><b>Action: <em>harvest</em></b></p>\n                    <p>This is the bee that you just saw.</p>\n                    <img src=\"bees-with-color/bee-A2DF.svg\" width=\"200\">\n                    <p><span class=\"greenText\"><b>Successful harvest!</b></span><br>Your pay has increased by $0.02. Your bonus pay is now $0.38.</p>\n            ","response":0,"trial_type":"html-button-response","trial_index":122,"time_elapsed":396953,"internal_node_id":"0.0-4.0-1.57","subject_id":"5e0f722ee8f8d1000cea475b","study_id":"6197b3f67c2b5cd3b6d9596a","session_id":"619be31f4200fc8e84df2dd6","condition":"contingent","relevant_dimensions":["pattern","legs"],"bee_group":{"antennae":"X","wings":"X","pattern":"D","legs":"M"},"bonus":0.9200000000000013},{"rt":1093.7000007629395,"stimulus":"bees-with-color/bee-B1SF.svg","response":0,"trial_type":"image-button-response","trial_index":123,"time_elapsed":398048,"internal_node_id":"0.0-4.0-0.58","subject_id":"5e0f722ee8f8d1000cea475b","study_id":"6197b3f67c2b5cd3b6d9596a","session_id":"619be31f4200fc8e84df2dd6","condition":"contingent","relevant_dimensions":["pattern","legs"],"bee_group":{"antennae":"X","wings":"X","pattern":"D","legs":"M"},"action":"harvest","summary":"good-harvest","bonus":0.9200000000000013},{"rt":622.6999998092651,"stimulus":"\n                    <p><b>Action: <em>harvest</em></b></p>\n                    <p>This is the bee that you just saw.</p>\n                    <img src=\"bees-with-color/bee-B1SF.svg\" width=\"200\">\n                    <p><span class=\"greenText\"><b>Successful harvest!</b></span><br>Your pay has increased by $0.02. Your bonus pay is now $0.40.</p>\n            ","response":0,"trial_type":"html-button-response","trial_index":124,"time_elapsed":398673,"internal_node_id":"0.0-4.0-1.58","subject_id":"5e0f722ee8f8d1000cea475b","study_id":"6197b3f67c2b5cd3b6d9596a","session_id":"619be31f4200fc8e84df2dd6","condition":"contingent","relevant_dimensions":["pattern","legs"],"bee_group":{"antennae":"X","wings":"X","pattern":"D","legs":"M"},"bonus":0.9200000000000013},{"rt":1292.5999994277954,"stimulus":"bees-with-color/bee-B1DF.svg","response":0,"trial_type":"image-button-response","trial_index":125,"time_elapsed":399967,"internal_node_id":"0.0-4.0-0.59","subject_id":"5e0f722ee8f8d1000cea475b","study_id":"6197b3f67c2b5cd3b6d9596a","session_id":"619be31f4200fc8e84df2dd6","condition":"contingent","relevant_dimensions":["pattern","legs"],"bee_group":{"antennae":"X","wings":"X","pattern":"D","legs":"M"},"action":"harvest","summary":"good-harvest","bonus":0.9200000000000013},{"rt":814.5,"stimulus":"\n                    <p><b>Action: <em>harvest</em></b></p>\n                    <p>This is the bee that you just saw.</p>\n                    <img src=\"bees-with-color/bee-B1DF.svg\" width=\"200\">\n                    <p><span class=\"greenText\"><b>Successful harvest!</b></span><br>Your pay has increased by $0.02. Your bonus pay is now $0.42.</p>\n            ","response":0,"trial_type":"html-button-response","trial_index":126,"time_elapsed":400782,"internal_node_id":"0.0-4.0-1.59","subject_id":"5e0f722ee8f8d1000cea475b","study_id":"6197b3f67c2b5cd3b6d9596a","session_id":"619be31f4200fc8e84df2dd6","condition":"contingent","relevant_dimensions":["pattern","legs"],"bee_group":{"antennae":"X","wings":"X","pattern":"D","legs":"M"},"bonus":0.9200000000000013},{"rt":2145.5999994277954,"stimulus":"bees-with-color/bee-B2DM.svg","response":1,"trial_type":"image-button-response","trial_index":127,"time_elapsed":402929,"internal_node_id":"0.0-4.0-0.60","subject_id":"5e0f722ee8f8d1000cea475b","study_id":"6197b3f67c2b5cd3b6d9596a","session_id":"619be31f4200fc8e84df2dd6","condition":"contingent","relevant_dimensions":["pattern","legs"],"bee_group":{"antennae":"X","wings":"X","pattern":"D","legs":"M"},"action":"avoid","summary":"good-avoid","bonus":0.9200000000000013},{"rt":911.8000001907349,"stimulus":"\n                    <p><b>Action: <em>avoid</em></b></p>\n                    <p>This is the bee that you just saw.</p>\n                    <img src=\"bees-with-color/bee-B2DM.svg\" width=\"200\">\n                    <p><br>Your bonus pay is unchanged, and remains at $0.42.</p>\n            ","response":0,"trial_type":"html-button-response","trial_index":128,"time_elapsed":403842,"internal_node_id":"0.0-4.0-1.60","subject_id":"5e0f722ee8f8d1000cea475b","study_id":"6197b3f67c2b5cd3b6d9596a","session_id":"619be31f4200fc8e84df2dd6","condition":"contingent","relevant_dimensions":["pattern","legs"],"bee_group":{"antennae":"X","wings":"X","pattern":"D","legs":"M"},"bonus":0.9200000000000013},{"rt":2401.199999809265,"stimulus":"bees-with-color/bee-A2SM.svg","response":0,"trial_type":"image-button-response","trial_index":129,"time_elapsed":406244,"internal_node_id":"0.0-4.0-0.61","subject_id":"5e0f722ee8f8d1000cea475b","study_id":"6197b3f67c2b5cd3b6d9596a","session_id":"619be31f4200fc8e84df2dd6","condition":"contingent","relevant_dimensions":["pattern","legs"],"bee_group":{"antennae":"X","wings":"X","pattern":"D","legs":"M"},"action":"harvest","summary":"good-harvest","bonus":0.9200000000000013},{"rt":835.8000001907349,"stimulus":"\n                    <p><b>Action: <em>harvest</em></b></p>\n                    <p>This is the bee that you just saw.</p>\n                    <img src=\"bees-with-color/bee-A2SM.svg\" width=\"200\">\n                    <p><span class=\"greenText\"><b>Successful harvest!</b></span><br>Your pay has increased by $0.02. Your bonus pay is now $0.44.</p>\n            ","response":0,"trial_type":"html-button-response","trial_index":130,"time_elapsed":407081,"internal_node_id":"0.0-4.0-1.61","subject_id":"5e0f722ee8f8d1000cea475b","study_id":"6197b3f67c2b5cd3b6d9596a","session_id":"619be31f4200fc8e84df2dd6","condition":"contingent","relevant_dimensions":["pattern","legs"],"bee_group":{"antennae":"X","wings":"X","pattern":"D","legs":"M"},"bonus":0.9200000000000013},{"rt":2364.1000003814697,"stimulus":"bees-with-color/bee-A1DM.svg","response":1,"trial_type":"image-button-response","trial_index":131,"time_elapsed":409447,"internal_node_id":"0.0-4.0-0.62","subject_id":"5e0f722ee8f8d1000cea475b","study_id":"6197b3f67c2b5cd3b6d9596a","session_id":"619be31f4200fc8e84df2dd6","condition":"contingent","relevant_dimensions":["pattern","legs"],"bee_group":{"antennae":"X","wings":"X","pattern":"D","legs":"M"},"action":"avoid","summary":"good-avoid","bonus":0.9200000000000013},{"rt":821.8000001907349,"stimulus":"\n                    <p><b>Action: <em>avoid</em></b></p>\n                    <p>This is the bee that you just saw.</p>\n                    <img src=\"bees-with-color/bee-A1DM.svg\" width=\"200\">\n                    <p><br>Your bonus pay is unchanged, and remains at $0.44.</p>\n            ","response":0,"trial_type":"html-button-response","trial_index":132,"time_elapsed":410269,"internal_node_id":"0.0-4.0-1.62","subject_id":"5e0f722ee8f8d1000cea475b","study_id":"6197b3f67c2b5cd3b6d9596a","session_id":"619be31f4200fc8e84df2dd6","condition":"contingent","relevant_dimensions":["pattern","legs"],"bee_group":{"antennae":"X","wings":"X","pattern":"D","legs":"M"},"bonus":0.9200000000000013},{"rt":1403,"stimulus":"bees-with-color/bee-B2DF.svg","response":0,"trial_type":"image-button-response","trial_index":133,"time_elapsed":411674,"internal_node_id":"0.0-4.0-0.63","subject_id":"5e0f722ee8f8d1000cea475b","study_id":"6197b3f67c2b5cd3b6d9596a","session_id":"619be31f4200fc8e84df2dd6","condition":"contingent","relevant_dimensions":["pattern","legs"],"bee_group":{"antennae":"X","wings":"X","pattern":"D","legs":"M"},"action":"harvest","summary":"good-harvest","bonus":0.9200000000000013},{"rt":729.5999994277954,"stimulus":"\n                    <p><b>Action: <em>harvest</em></b></p>\n                    <p>This is the bee that you just saw.</p>\n                    <img src=\"bees-with-color/bee-B2DF.svg\" width=\"200\">\n                    <p><span class=\"greenText\"><b>Successful harvest!</b></span><br>Your pay has increased by $0.02. Your bonus pay is now $0.46.</p>\n            ","response":0,"trial_type":"html-button-response","trial_index":134,"time_elapsed":412405,"internal_node_id":"0.0-4.0-1.63","subject_id":"5e0f722ee8f8d1000cea475b","study_id":"6197b3f67c2b5cd3b6d9596a","session_id":"619be31f4200fc8e84df2dd6","condition":"contingent","relevant_dimensions":["pattern","legs"],"bee_group":{"antennae":"X","wings":"X","pattern":"D","legs":"M"},"bonus":0.9200000000000013},{"rt":5516.400000572205,"stimulus":"You have completed the first part of this experiment.<br><br>You will now begin a shorter second part, in which you will receive no feedback.<br>The same rules regarding bonus pay apply.<br><br>Press any key to begin.","response":" ","trial_type":"html-keyboard-response","trial_index":135,"time_elapsed":417922,"internal_node_id":"0.0-5.0","subject_id":"5e0f722ee8f8d1000cea475b","study_id":"6197b3f67c2b5cd3b6d9596a","session_id":"619be31f4200fc8e84df2dd6","condition":"contingent","relevant_dimensions":["pattern","legs"],"bee_group":{"antennae":"X","wings":"X","pattern":"D","legs":"M"},"bonus":0.9200000000000013},{"rt":3155.1000003814697,"stimulus":"bees-with-color/bee-B2SM.svg","response":1,"trial_type":"image-button-response","trial_index":136,"time_elapsed":421086,"internal_node_id":"0.0-6.0-0.0","subject_id":"5e0f722ee8f8d1000cea475b","study_id":"6197b3f67c2b5cd3b6d9596a","session_id":"619be31f4200fc8e84df2dd6","condition":"contingent","relevant_dimensions":["pattern","legs"],"bee_group":{"antennae":"X","wings":"X","pattern":"D","legs":"M"},"bonus":0.9200000000000013},{"rt":1262.0999994277954,"stimulus":"bees-with-color/bee-A1DF.svg","response":0,"trial_type":"image-button-response","trial_index":137,"time_elapsed":422350,"internal_node_id":"0.0-6.0-0.1","subject_id":"5e0f722ee8f8d1000cea475b","study_id":"6197b3f67c2b5cd3b6d9596a","session_id":"619be31f4200fc8e84df2dd6","condition":"contingent","relevant_dimensions":["pattern","legs"],"bee_group":{"antennae":"X","wings":"X","pattern":"D","legs":"M"},"bonus":0.9200000000000013},{"rt":2452,"stimulus":"bees-with-color/bee-A1DM.svg","response":1,"trial_type":"image-button-response","trial_index":138,"time_elapsed":424804,"internal_node_id":"0.0-6.0-0.2","subject_id":"5e0f722ee8f8d1000cea475b","study_id":"6197b3f67c2b5cd3b6d9596a","session_id":"619be31f4200fc8e84df2dd6","condition":"contingent","relevant_dimensions":["pattern","legs"],"bee_group":{"antennae":"X","wings":"X","pattern":"D","legs":"M"},"bonus":0.9200000000000013},{"rt":882,"stimulus":"bees-with-color/bee-A1SF.svg","response":0,"trial_type":"image-button-response","trial_index":139,"time_elapsed":425688,"internal_node_id":"0.0-6.0-0.3","subject_id":"5e0f722ee8f8d1000cea475b","study_id":"6197b3f67c2b5cd3b6d9596a","session_id":"619be31f4200fc8e84df2dd6","condition":"contingent","relevant_dimensions":["pattern","legs"],"bee_group":{"antennae":"X","wings":"X","pattern":"D","legs":"M"},"bonus":0.9200000000000013},{"rt":1327.6999998092651,"stimulus":"bees-with-color/bee-A2DM.svg","response":1,"trial_type":"image-button-response","trial_index":140,"time_elapsed":427018,"internal_node_id":"0.0-6.0-0.4","subject_id":"5e0f722ee8f8d1000cea475b","study_id":"6197b3f67c2b5cd3b6d9596a","session_id":"619be31f4200fc8e84df2dd6","condition":"contingent","relevant_dimensions":["pattern","legs"],"bee_group":{"antennae":"X","wings":"X","pattern":"D","legs":"M"},"bonus":0.9200000000000013},{"rt":834.1000003814697,"stimulus":"bees-with-color/bee-A2DF.svg","response":0,"trial_type":"image-button-response","trial_index":141,"time_elapsed":427855,"internal_node_id":"0.0-6.0-0.5","subject_id":"5e0f722ee8f8d1000cea475b","study_id":"6197b3f67c2b5cd3b6d9596a","session_id":"619be31f4200fc8e84df2dd6","condition":"contingent","relevant_dimensions":["pattern","legs"],"bee_group":{"antennae":"X","wings":"X","pattern":"D","legs":"M"},"bonus":0.9200000000000013},{"rt":643.2999992370605,"stimulus":"bees-with-color/bee-B2SF.svg","response":0,"trial_type":"image-button-response","trial_index":142,"time_elapsed":428506,"internal_node_id":"0.0-6.0-0.6","subject_id":"5e0f722ee8f8d1000cea475b","study_id":"6197b3f67c2b5cd3b6d9596a","session_id":"619be31f4200fc8e84df2dd6","condition":"contingent","relevant_dimensions":["pattern","legs"],"bee_group":{"antennae":"X","wings":"X","pattern":"D","legs":"M"},"bonus":0.9200000000000013},{"rt":755.4000005722046,"stimulus":"bees-with-color/bee-B2DF.svg","response":0,"trial_type":"image-button-response","trial_index":143,"time_elapsed":429263,"internal_node_id":"0.0-6.0-0.7","subject_id":"5e0f722ee8f8d1000cea475b","study_id":"6197b3f67c2b5cd3b6d9596a","session_id":"619be31f4200fc8e84df2dd6","condition":"contingent","relevant_dimensions":["pattern","legs"],"bee_group":{"antennae":"X","wings":"X","pattern":"D","legs":"M"},"bonus":0.9200000000000013},{"rt":763.2999992370605,"stimulus":"bees-with-color/bee-A2SF.svg","response":0,"trial_type":"image-button-response","trial_index":144,"time_elapsed":430028,"internal_node_id":"0.0-6.0-0.8","subject_id":"5e0f722ee8f8d1000cea475b","study_id":"6197b3f67c2b5cd3b6d9596a","session_id":"619be31f4200fc8e84df2dd6","condition":"contingent","relevant_dimensions":["pattern","legs"],"bee_group":{"antennae":"X","wings":"X","pattern":"D","legs":"M"},"bonus":0.9200000000000013},{"rt":1798.8999996185303,"stimulus":"bees-with-color/bee-A2SM.svg","response":0,"trial_type":"image-button-response","trial_index":145,"time_elapsed":431828,"internal_node_id":"0.0-6.0-0.9","subject_id":"5e0f722ee8f8d1000cea475b","study_id":"6197b3f67c2b5cd3b6d9596a","session_id":"619be31f4200fc8e84df2dd6","condition":"contingent","relevant_dimensions":["pattern","legs"],"bee_group":{"antennae":"X","wings":"X","pattern":"D","legs":"M"},"bonus":0.9200000000000013},{"rt":1392.6999998092651,"stimulus":"bees-with-color/bee-B1SF.svg","response":0,"trial_type":"image-button-response","trial_index":146,"time_elapsed":433223,"internal_node_id":"0.0-6.0-0.10","subject_id":"5e0f722ee8f8d1000cea475b","study_id":"6197b3f67c2b5cd3b6d9596a","session_id":"619be31f4200fc8e84df2dd6","condition":"contingent","relevant_dimensions":["pattern","legs"],"bee_group":{"antennae":"X","wings":"X","pattern":"D","legs":"M"},"bonus":0.9200000000000013},{"rt":1733.6999998092651,"stimulus":"bees-with-color/bee-B1DM.svg","response":1,"trial_type":"image-button-response","trial_index":147,"time_elapsed":434959,"internal_node_id":"0.0-6.0-0.11","subject_id":"5e0f722ee8f8d1000cea475b","study_id":"6197b3f67c2b5cd3b6d9596a","session_id":"619be31f4200fc8e84df2dd6","condition":"contingent","relevant_dimensions":["pattern","legs"],"bee_group":{"antennae":"X","wings":"X","pattern":"D","legs":"M"},"bonus":0.9200000000000013},{"rt":1847,"stimulus":"bees-with-color/bee-A1SM.svg","response":0,"trial_type":"image-button-response","trial_index":148,"time_elapsed":436807,"internal_node_id":"0.0-6.0-0.12","subject_id":"5e0f722ee8f8d1000cea475b","study_id":"6197b3f67c2b5cd3b6d9596a","session_id":"619be31f4200fc8e84df2dd6","condition":"contingent","relevant_dimensions":["pattern","legs"],"bee_group":{"antennae":"X","wings":"X","pattern":"D","legs":"M"},"bonus":0.9200000000000013},{"rt":1359.8000001907349,"stimulus":"bees-with-color/bee-B2DM.svg","response":1,"trial_type":"image-button-response","trial_index":149,"time_elapsed":438169,"internal_node_id":"0.0-6.0-0.13","subject_id":"5e0f722ee8f8d1000cea475b","study_id":"6197b3f67c2b5cd3b6d9596a","session_id":"619be31f4200fc8e84df2dd6","condition":"contingent","relevant_dimensions":["pattern","legs"],"bee_group":{"antennae":"X","wings":"X","pattern":"D","legs":"M"},"bonus":0.9200000000000013},{"rt":1338.1000003814697,"stimulus":"bees-with-color/bee-B1DF.svg","response":0,"trial_type":"image-button-response","trial_index":150,"time_elapsed":439508,"internal_node_id":"0.0-6.0-0.14","subject_id":"5e0f722ee8f8d1000cea475b","study_id":"6197b3f67c2b5cd3b6d9596a","session_id":"619be31f4200fc8e84df2dd6","condition":"contingent","relevant_dimensions":["pattern","legs"],"bee_group":{"antennae":"X","wings":"X","pattern":"D","legs":"M"},"bonus":0.9200000000000013},{"rt":994.6999998092651,"stimulus":"bees-with-color/bee-B1SM.svg","response":0,"trial_type":"image-button-response","trial_index":151,"time_elapsed":440504,"internal_node_id":"0.0-6.0-0.15","subject_id":"5e0f722ee8f8d1000cea475b","study_id":"6197b3f67c2b5cd3b6d9596a","session_id":"619be31f4200fc8e84df2dd6","condition":"contingent","relevant_dimensions":["pattern","legs"],"bee_group":{"antennae":"X","wings":"X","pattern":"D","legs":"M"},"bonus":0.9200000000000013},{"rt":1247.7000007629395,"stimulus":"bees-with-color/bee-B2DM.svg","response":1,"trial_type":"image-button-response","trial_index":152,"time_elapsed":441753,"internal_node_id":"0.0-6.0-0.16","subject_id":"5e0f722ee8f8d1000cea475b","study_id":"6197b3f67c2b5cd3b6d9596a","session_id":"619be31f4200fc8e84df2dd6","condition":"contingent","relevant_dimensions":["pattern","legs"],"bee_group":{"antennae":"X","wings":"X","pattern":"D","legs":"M"},"bonus":0.9200000000000013},{"rt":1772.8999996185303,"stimulus":"bees-with-color/bee-A2DM.svg","response":1,"trial_type":"image-button-response","trial_index":153,"time_elapsed":443527,"internal_node_id":"0.0-6.0-0.17","subject_id":"5e0f722ee8f8d1000cea475b","study_id":"6197b3f67c2b5cd3b6d9596a","session_id":"619be31f4200fc8e84df2dd6","condition":"contingent","relevant_dimensions":["pattern","legs"],"bee_group":{"antennae":"X","wings":"X","pattern":"D","legs":"M"},"bonus":0.9200000000000013},{"rt":1130.8000001907349,"stimulus":"bees-with-color/bee-B2DF.svg","response":0,"trial_type":"image-button-response","trial_index":154,"time_elapsed":444660,"internal_node_id":"0.0-6.0-0.18","subject_id":"5e0f722ee8f8d1000cea475b","study_id":"6197b3f67c2b5cd3b6d9596a","session_id":"619be31f4200fc8e84df2dd6","condition":"contingent","relevant_dimensions":["pattern","legs"],"bee_group":{"antennae":"X","wings":"X","pattern":"D","legs":"M"},"bonus":0.9200000000000013},{"rt":826.8999996185303,"stimulus":"bees-with-color/bee-A2SF.svg","response":0,"trial_type":"image-button-response","trial_index":155,"time_elapsed":445488,"internal_node_id":"0.0-6.0-0.19","subject_id":"5e0f722ee8f8d1000cea475b","study_id":"6197b3f67c2b5cd3b6d9596a","session_id":"619be31f4200fc8e84df2dd6","condition":"contingent","relevant_dimensions":["pattern","legs"],"bee_group":{"antennae":"X","wings":"X","pattern":"D","legs":"M"},"bonus":0.9200000000000013},{"rt":604.1000003814697,"stimulus":"bees-with-color/bee-A1DF.svg","response":0,"trial_type":"image-button-response","trial_index":156,"time_elapsed":446093,"internal_node_id":"0.0-6.0-0.20","subject_id":"5e0f722ee8f8d1000cea475b","study_id":"6197b3f67c2b5cd3b6d9596a","session_id":"619be31f4200fc8e84df2dd6","condition":"contingent","relevant_dimensions":["pattern","legs"],"bee_group":{"antennae":"X","wings":"X","pattern":"D","legs":"M"},"bonus":0.9200000000000013},{"rt":1416.6000003814697,"stimulus":"bees-with-color/bee-B1SM.svg","response":0,"trial_type":"image-button-response","trial_index":157,"time_elapsed":447511,"internal_node_id":"0.0-6.0-0.21","subject_id":"5e0f722ee8f8d1000cea475b","study_id":"6197b3f67c2b5cd3b6d9596a","session_id":"619be31f4200fc8e84df2dd6","condition":"contingent","relevant_dimensions":["pattern","legs"],"bee_group":{"antennae":"X","wings":"X","pattern":"D","legs":"M"},"bonus":0.9200000000000013},{"rt":795.0999994277954,"stimulus":"bees-with-color/bee-A1SM.svg","response":0,"trial_type":"image-button-response","trial_index":158,"time_elapsed":448308,"internal_node_id":"0.0-6.0-0.22","subject_id":"5e0f722ee8f8d1000cea475b","study_id":"6197b3f67c2b5cd3b6d9596a","session_id":"619be31f4200fc8e84df2dd6","condition":"contingent","relevant_dimensions":["pattern","legs"],"bee_group":{"antennae":"X","wings":"X","pattern":"D","legs":"M"},"bonus":0.9200000000000013},{"rt":801.4000005722046,"stimulus":"bees-with-color/bee-B2SF.svg","response":0,"trial_type":"image-button-response","trial_index":159,"time_elapsed":449111,"internal_node_id":"0.0-6.0-0.23","subject_id":"5e0f722ee8f8d1000cea475b","study_id":"6197b3f67c2b5cd3b6d9596a","session_id":"619be31f4200fc8e84df2dd6","condition":"contingent","relevant_dimensions":["pattern","legs"],"bee_group":{"antennae":"X","wings":"X","pattern":"D","legs":"M"},"bonus":0.9200000000000013},{"rt":771.2999992370605,"stimulus":"bees-with-color/bee-B1SF.svg","response":0,"trial_type":"image-button-response","trial_index":160,"time_elapsed":449883,"internal_node_id":"0.0-6.0-0.24","subject_id":"5e0f722ee