[{"success":true,"trial_type":"fullscreen","trial_index":0,"time_elapsed":10674,"internal_node_id":"0.0-0.0","subject_id":"5ec93f6818e0240668b8daaf","study_id":"60edd13110225f80f9f3709b","session_id":"6196c7042e2ad1368624c860","condition":"full-information","relevant_dimensions":["antennae","wings"],"bee_group":{"antennae":"B","wings":"1","pattern":"X","legs":"X"},"bonus":1.500000000000001},{"success":true,"timeout":false,"failed_images":[],"failed_audio":[],"failed_video":[],"trial_type":"preload","trial_index":1,"time_elapsed":12494,"internal_node_id":"0.0-1.0","subject_id":"5ec93f6818e0240668b8daaf","study_id":"60edd13110225f80f9f3709b","session_id":"6196c7042e2ad1368624c860","condition":"full-information","relevant_dimensions":["antennae","wings"],"bee_group":{"antennae":"B","wings":"1","pattern":"X","legs":"X"},"bonus":1.500000000000001},{"rt":2505.4000000953674,"stimulus":"Welcome! Press any key to begin.","response":" ","trial_type":"html-keyboard-response","trial_index":2,"time_elapsed":15000,"internal_node_id":"0.0-2.0","subject_id":"5ec93f6818e0240668b8daaf","study_id":"60edd13110225f80f9f3709b","session_id":"6196c7042e2ad1368624c860","condition":"full-information","relevant_dimensions":["antennae","wings"],"bee_group":{"antennae":"B","wings":"1","pattern":"X","legs":"X"},"bonus":1.500000000000001},{"view_history":[{"page_index":0,"viewing_time":6035.400000095367},{"page_index":1,"viewing_time":10272.099999904633},{"page_index":2,"viewing_time":10414},{"page_index":3,"viewing_time":11860.599999904633},{"page_index":4,"viewing_time":4726.400000095367},{"page_index":5,"viewing_time":3919},{"page_index":6,"viewing_time":6584},{"page_index":7,"viewing_time":4356.900000095367},{"page_index":8,"viewing_time":2829.0999999046326},{"page_index":9,"viewing_time":2850.9000000953674},{"page_index":10,"viewing_time":3166.899999856949},{"page_index":11,"viewing_time":10436.100000143051},{"page_index":12,"viewing_time":16580.89999985695},{"page_index":13,"viewing_time":1270.1000001430511},{"page_index":14,"viewing_time":2618}],"rt":97920.70000004768,"trial_type":"instructions","trial_index":3,"time_elapsed":112922,"internal_node_id":"0.0-3.0-0.0","subject_id":"5ec93f6818e0240668b8daaf","study_id":"60edd13110225f80f9f3709b","session_id":"6196c7042e2ad1368624c860","condition":"full-information","relevant_dimensions":["antennae","wings"],"bee_group":{"antennae":"B","wings":"1","pattern":"X","legs":"X"},"bonus":1.500000000000001},{"rt":11845.5,"response":{"Q0":["Two or six legs","Stripes or spots on body","Single or double wings","Antennae or no antennae"]},"question_order":[0],"trial_type":"survey-multi-select","trial_index":4,"time_elapsed":124773,"internal_node_id":"0.0-3.0-1.0","subject_id":"5ec93f6818e0240668b8daaf","study_id":"60edd13110225f80f9f3709b","session_id":"6196c7042e2ad1368624c860","condition":"full-information","relevant_dimensions":["antennae","wings"],"bee_group":{"antennae":"B","wings":"1","pattern":"X","legs":"X"},"correct":true,"bonus":1.500000000000001},{"rt":12483.299999952316,"response":{"Q1":"No.","Q2":"Based on the four features of the bee.","Q3":"You learn if it was friendly or dangerous, but do not alter your bonus."},"question_order":[0,1,2],"trial_type":"survey-multi-choice","trial_index":5,"time_elapsed":137263,"internal_node_id":"0.0-3.0-2.0","subject_id":"5ec93f6818e0240668b8daaf","study_id":"60edd13110225f80f9f3709b","session_id":"6196c7042e2ad1368624c860","condition":"full-information","relevant_dimensions":["antennae","wings"],"bee_group":{"antennae":"B","wings":"1","pattern":"X","legs":"X"},"correct":true,"bonus":1.500000000000001},{"rt":2346,"stimulus":"<p>Congrats, you got everything right<br>When you're ready, click the button below to continue to the experiment.</p>","response":0,"trial_type":"html-button-response","trial_index":6,"time_elapsed":139615,"internal_node_id":"0.0-3.0-3.0","subject_id":"5ec93f6818e0240668b8daaf","study_id":"60edd13110225f80f9f3709b","session_id":"6196c7042e2ad1368624c860","condition":"full-information","relevant_dimensions":["antennae","wings"],"bee_group":{"antennae":"B","wings":"1","pattern":"X","legs":"X"},"bonus":1.500000000000001},{"rt":20685.39999985695,"stimulus":"bees-with-color/bee-B1SF.svg","response":0,"trial_type":"image-button-response","trial_index":7,"time_elapsed":160303,"internal_node_id":"0.0-4.0-0.0","subject_id":"5ec93f6818e0240668b8daaf","study_id":"60edd13110225f80f9f3709b","session_id":"6196c7042e2ad1368624c860","condition":"full-information","relevant_dimensions":["antennae","wings"],"bee_group":{"antennae":"B","wings":"1","pattern":"X","legs":"X"},"action":"harvest","summary":"bad-harvest","bonus":1.500000000000001},{"rt":18093.700000047684,"stimulus":"\n                    <p><b>Action: <em>harvest</em></b></p>\n                    <p>This is the bee that you just saw.</p>\n                    <img src=\"bees-with-color/bee-B1SF.svg\" width=\"200\">\n                    <p><span class=\"redText\">Bad choice, the bee was angry.</span><br><b>You have been stung!</b><br>Your pay has been decreased by $0.10. Your bonus pay is now $0.44.</p>\n            ","response":0,"trial_type":"html-button-response","trial_index":8,"time_elapsed":178400,"internal_node_id":"0.0-4.0-1.0","subject_id":"5ec93f6818e0240668b8daaf","study_id":"60edd13110225f80f9f3709b","session_id":"6196c7042e2ad1368624c860","condition":"full-information","relevant_dimensions":["antennae","wings"],"bee_group":{"antennae":"B","wings":"1","pattern":"X","legs":"X"},"bonus":1.500000000000001},{"rt":2678.4000000953674,"stimulus":"bees-with-color/bee-A1DM.svg","response":0,"trial_type":"image-button-response","trial_index":9,"time_elapsed":181081,"internal_node_id":"0.0-4.0-0.1","subject_id":"5ec93f6818e0240668b8daaf","study_id":"60edd13110225f80f9f3709b","session_id":"6196c7042e2ad1368624c860","condition":"full-information","relevant_dimensions":["antennae","wings"],"bee_group":{"antennae":"B","wings":"1","pattern":"X","legs":"X"},"action":"harvest","summary":"good-harvest","bonus":1.500000000000001},{"rt":19564.099999904633,"stimulus":"\n                    <p><b>Action: <em>harvest</em></b></p>\n                    <p>This is the bee that you just saw.</p>\n                    <img src=\"bees-with-color/bee-A1DM.svg\" width=\"200\">\n                    <p><span class=\"greenText\"><b>Successful harvest!</b></span><br>Your pay has increased by $0.02. Your bonus pay is now $0.46.</p>\n            ","response":0,"trial_type":"html-button-response","trial_index":10,"time_elapsed":200647,"internal_node_id":"0.0-4.0-1.1","subject_id":"5ec93f6818e0240668b8daaf","study_id":"60edd13110225f80f9f3709b","session_id":"6196c7042e2ad1368624c860","condition":"full-information","relevant_dimensions":["antennae","wings"],"bee_group":{"antennae":"B","wings":"1","pattern":"X","legs":"X"},"bonus":1.500000000000001},{"rt":6082.199999809265,"stimulus":"bees-with-color/bee-A1SF.svg","response":0,"trial_type":"image-button-response","trial_index":11,"time_elapsed":206732,"internal_node_id":"0.0-4.0-0.2","subject_id":"5ec93f6818e0240668b8daaf","study_id":"60edd13110225f80f9f3709b","session_id":"6196c7042e2ad1368624c860","condition":"full-information","relevant_dimensions":["antennae","wings"],"bee_group":{"antennae":"B","wings":"1","pattern":"X","legs":"X"},"action":"harvest","summary":"good-harvest","bonus":1.500000000000001},{"rt":16411,"stimulus":"\n                    <p><b>Action: <em>harvest</em></b></p>\n                    <p>This is the bee that you just saw.</p>\n                    <img src=\"bees-with-color/bee-A1SF.svg\" width=\"200\">\n                    <p><span class=\"greenText\"><b>Successful harvest!</b></span><br>Your pay has increased by $0.02. Your bonus pay is now $0.48.</p>\n            ","response":0,"trial_type":"html-button-response","trial_index":12,"time_elapsed":223145,"internal_node_id":"0.0-4.0-1.2","subject_id":"5ec93f6818e0240668b8daaf","study_id":"60edd13110225f80f9f3709b","session_id":"6196c7042e2ad1368624c860","condition":"full-information","relevant_dimensions":["antennae","wings"],"bee_group":{"antennae":"B","wings":"1","pattern":"X","legs":"X"},"bonus":1.500000000000001},{"rt":2749.899999856949,"stimulus":"bees-with-color/bee-B1SM.svg","response":0,"trial_type":"image-button-response","trial_index":13,"time_elapsed":225898,"internal_node_id":"0.0-4.0-0.3","subject_id":"5ec93f6818e0240668b8daaf","study_id":"60edd13110225f80f9f3709b","session_id":"6196c7042e2ad1368624c860","condition":"full-information","relevant_dimensions":["antennae","wings"],"bee_group":{"antennae":"B","wings":"1","pattern":"X","legs":"X"},"action":"harvest","summary":"bad-harvest","bonus":1.500000000000001},{"rt":15048.299999952316,"stimulus":"\n                    <p><b>Action: <em>harvest</em></b></p>\n                    <p>This is the bee that you just saw.</p>\n                    <img src=\"bees-with-color/bee-B1SM.svg\" width=\"200\">\n                    <p><span class=\"redText\">Bad choice, the bee was angry.</span><br><b>You have been stung!</b><br>Your pay has been decreased by $0.10. Your bonus pay is now $0.38.</p>\n            ","response":0,"trial_type":"html-button-response","trial_index":14,"time_elapsed":240948,"internal_node_id":"0.0-4.0-1.3","subject_id":"5ec93f6818e0240668b8daaf","study_id":"60edd13110225f80f9f3709b","session_id":"6196c7042e2ad1368624c860","condition":"full-information","relevant_dimensions":["antennae","wings"],"bee_group":{"antennae":"B","wings":"1","pattern":"X","legs":"X"},"bonus":1.500000000000001},{"rt":1576.7000000476837,"stimulus":"bees-with-color/bee-B2DM.svg","response":1,"trial_type":"image-button-response","trial_index":15,"time_elapsed":242527,"internal_node_id":"0.0-4.0-0.4","subject_id":"5ec93f6818e0240668b8daaf","study_id":"60edd13110225f80f9f3709b","session_id":"6196c7042e2ad1368624c860","condition":"full-information","relevant_dimensions":["antennae","wings"],"bee_group":{"antennae":"B","wings":"1","pattern":"X","legs":"X"},"action":"avoid","summary":"bad-avoid","bonus":1.500000000000001},{"rt":15090.200000047684,"stimulus":"\n                    <p><b>Action: <em>avoid</em></b></p>\n                    <p>This is the bee that you just saw.</p>\n                    <img src=\"bees-with-color/bee-B2DM.svg\" width=\"200\">\n                    <p><span class=\"redText\">Bad choice,</span> the bee was friendly.<br>Your bonus pay is unchanged, and remains at $0.38.</p>\n            ","response":0,"trial_type":"html-button-response","trial_index":16,"time_elapsed":257620,"internal_node_id":"0.0-4.0-1.4","subject_id":"5ec93f6818e0240668b8daaf","study_id":"60edd13110225f80f9f3709b","session_id":"6196c7042e2ad1368624c860","condition":"full-information","relevant_dimensions":["antennae","wings"],"bee_group":{"antennae":"B","wings":"1","pattern":"X","legs":"X"},"bonus":1.500000000000001},{"rt":1809.6000001430511,"stimulus":"bees-with-color/bee-A2DF.svg","response":0,"trial_type":"image-button-response","trial_index":17,"time_elapsed":259431,"internal_node_id":"0.0-4.0-0.5","subject_id":"5ec93f6818e0240668b8daaf","study_id":"60edd13110225f80f9f3709b","session_id":"6196c7042e2ad1368624c860","condition":"full-information","relevant_dimensions":["antennae","wings"],"bee_group":{"antennae":"B","wings":"1","pattern":"X","legs":"X"},"action":"harvest","summary":"good-harvest","bonus":1.500000000000001},{"rt":13879.299999952316,"stimulus":"\n                    <p><b>Action: <em>harvest</em></b></p>\n                    <p>This is the bee that you just saw.</p>\n                    <img src=\"bees-with-color/bee-A2DF.svg\" width=\"200\">\n                    <p><span class=\"greenText\"><b>Successful harvest!</b></span><br>Your pay has increased by $0.02. Your bonus pay is now $0.40.</p>\n            ","response":0,"trial_type":"html-button-response","trial_index":18,"time_elapsed":273313,"internal_node_id":"0.0-4.0-1.5","subject_id":"5ec93f6818e0240668b8daaf","study_id":"60edd13110225f80f9f3709b","session_id":"6196c7042e2ad1368624c860","condition":"full-information","relevant_dimensions":["antennae","wings"],"bee_group":{"antennae":"B","wings":"1","pattern":"X","legs":"X"},"bonus":1.500000000000001},{"rt":5997.100000143051,"stimulus":"bees-with-color/bee-B2SM.svg","response":0,"trial_type":"image-button-response","trial_index":19,"time_elapsed":279312,"internal_node_id":"0.0-4.0-0.6","subject_id":"5ec93f6818e0240668b8daaf","study_id":"60edd13110225f80f9f3709b","session_id":"6196c7042e2ad1368624c860","condition":"full-information","relevant_dimensions":["antennae","wings"],"bee_group":{"antennae":"B","wings":"1","pattern":"X","legs":"X"},"action":"harvest","summary":"good-harvest","bonus":1.500000000000001},{"rt":13570.600000143051,"stimulus":"\n                    <p><b>Action: <em>harvest</em></b></p>\n                    <p>This is the bee that you just saw.</p>\n                    <img src=\"bees-with-color/bee-B2SM.svg\" width=\"200\">\n                    <p><span class=\"greenText\"><b>Successful harvest!</b></span><br>Your pay has increased by $0.02. Your bonus pay is now $0.42.</p>\n            ","response":0,"trial_type":"html-button-response","trial_index":20,"time_elapsed":292885,"internal_node_id":"0.0-4.0-1.6","subject_id":"5ec93f6818e0240668b8daaf","study_id":"60edd13110225f80f9f3709b","session_id":"6196c7042e2ad1368624c860","condition":"full-information","relevant_dimensions":["antennae","wings"],"bee_group":{"antennae":"B","wings":"1","pattern":"X","legs":"X"},"bonus":1.500000000000001},{"rt":16346.300000190735,"stimulus":"bees-with-color/bee-A2DM.svg","response":0,"trial_type":"image-button-response","trial_index":21,"time_elapsed":309234,"internal_node_id":"0.0-4.0-0.7","subject_id":"5ec93f6818e0240668b8daaf","study_id":"60edd13110225f80f9f3709b","session_id":"6196c7042e2ad1368624c860","condition":"full-information","relevant_dimensions":["antennae","wings"],"bee_group":{"antennae":"B","wings":"1","pattern":"X","legs":"X"},"action":"harvest","summary":"good-harvest","bonus":1.500000000000001},{"rt":11886.200000047684,"stimulus":"\n                    <p><b>Action: <em>harvest</em></b></p>\n                    <p>This is the bee that you just saw.</p>\n                    <img src=\"bees-with-color/bee-A2DM.svg\" width=\"200\">\n                    <p><span class=\"greenText\"><b>Successful harvest!</b></span><br>Your pay has increased by $0.02. Your bonus pay is now $0.44.</p>\n            ","response":0,"trial_type":"html-button-response","trial_index":22,"time_elapsed":321122,"internal_node_id":"0.0-4.0-1.7","subject_id":"5ec93f6818e0240668b8daaf","study_id":"60edd13110225f80f9f3709b","session_id":"6196c7042e2ad1368624c860","condition":"full-information","relevant_dimensions":["antennae","wings"],"bee_group":{"antennae":"B","wings":"1","pattern":"X","legs":"X"},"bonus":1.500000000000001},{"rt":1582.4000000953674,"stimulus":"bees-with-color/bee-A2SF.svg","response":1,"trial_type":"image-button-response","trial_index":23,"time_elapsed":322707,"internal_node_id":"0.0-4.0-0.8","subject_id":"5ec93f6818e0240668b8daaf","study_id":"60edd13110225f80f9f3709b","session_id":"6196c7042e2ad1368624c860","condition":"full-information","relevant_dimensions":["antennae","wings"],"bee_group":{"antennae":"B","wings":"1","pattern":"X","legs":"X"},"action":"avoid","summary":"bad-avoid","bonus":1.500000000000001},{"rt":12997.900000095367,"stimulus":"\n                    <p><b>Action: <em>avoid</em></b></p>\n                    <p>This is the bee that you just saw.</p>\n                    <img src=\"bees-with-color/bee-A2SF.svg\" width=\"200\">\n                    <p><span class=\"redText\">Bad choice,</span> the bee was friendly.<br>Your bonus pay is unchanged, and remains at $0.44.</p>\n            ","response":0,"trial_type":"html-button-response","trial_index":24,"time_elapsed":335707,"internal_node_id":"0.0-4.0-1.8","subject_id":"5ec93f6818e0240668b8daaf","study_id":"60edd13110225f80f9f3709b","session_id":"6196c7042e2ad1368624c860","condition":"full-information","relevant_dimensions":["antennae","wings"],"bee_group":{"antennae":"B","wings":"1","pattern":"X","legs":"X"},"bonus":1.500000000000001},{"rt":22874.800000190735,"stimulus":"bees-with-color/bee-A1SM.svg","response":0,"trial_type":"image-button-response","trial_index":25,"time_elapsed":358584,"internal_node_id":"0.0-4.0-0.9","subject_id":"5ec93f6818e0240668b8daaf","study_id":"60edd13110225f80f9f3709b","session_id":"6196c7042e2ad1368624c860","condition":"full-information","relevant_dimensions":["antennae","wings"],"bee_group":{"antennae":"B","wings":"1","pattern":"X","legs":"X"},"action":"harvest","summary":"good-harvest","bonus":1.500000000000001},{"rt":12287.200000047684,"stimulus":"\n                    <p><b>Action: <em>harvest</em></b></p>\n                    <p>This is the bee that you just saw.</p>\n                    <img src=\"bees-with-color/bee-A1SM.svg\" width=\"200\">\n                    <p><span class=\"greenText\"><b>Successful harvest!</b></span><br>Your pay has increased by $0.02. Your bonus pay is now $0.46.</p>\n            ","response":0,"trial_type":"html-button-response","trial_index":26,"time_elapsed":370873,"internal_node_id":"0.0-4.0-1.9","subject_id":"5ec93f6818e0240668b8daaf","study_id":"60edd13110225f80f9f3709b","session_id":"6196c7042e2ad1368624c860","condition":"full-information","relevant_dimensions":["antennae","wings"],"bee_group":{"antennae":"B","wings":"1","pattern":"X","legs":"X"},"bonus":1.500000000000001},{"rt":1488.9000000953674,"stimulus":"bees-with-color/bee-B1DF.svg","response":1,"trial_type":"image-button-response","trial_index":27,"time_elapsed":372364,"internal_node_id":"0.0-4.0-0.10","subject_id":"5ec93f6818e0240668b8daaf","study_id":"60edd13110225f80f9f3709b","session_id":"6196c7042e2ad1368624c860","condition":"full-information","relevant_dimensions":["antennae","wings"],"bee_group":{"antennae":"B","wings":"1","pattern":"X","legs":"X"},"action":"avoid","summary":"good-avoid","bonus":1.500000000000001},{"rt":11857.100000143051,"stimulus":"\n                    <p><b>Action: <em>avoid</em></b></p>\n                    <p>This is the bee that you just saw.</p>\n                    <img src=\"bees-with-color/bee-B1DF.svg\" width=\"200\">\n                    <p><span class=\"greenText\">Good choice!</span>  This bee would have stung you.<br>Your bonus pay is unchanged, and remains at $0.46.</p>\n            ","response":0,"trial_type":"html-button-response","trial_index":28,"time_elapsed":384223,"internal_node_id":"0.0-4.0-1.10","subject_id":"5ec93f6818e0240668b8daaf","study_id":"60edd13110225f80f9f3709b","session_id":"6196c7042e2ad1368624c860","condition":"full-information","relevant_dimensions":["antennae","wings"],"bee_group":{"antennae":"B","wings":"1","pattern":"X","legs":"X"},"bonus":1.500000000000001},{"rt":1243.7999999523163,"stimulus":"bees-with-color/bee-B2DF.svg","response":1,"trial_type":"image-button-response","trial_index":29,"time_elapsed":385469,"internal_node_id":"0.0-4.0-0.11","subject_id":"5ec93f6818e0240668b8daaf","study_id":"60edd13110225f80f9f3709b","session_id":"6196c7042e2ad1368624c860","condition":"full-information","relevant_dimensions":["antennae","wings"],"bee_group":{"antennae":"B","wings":"1","pattern":"X","legs":"X"},"action":"avoid","summary":"bad-avoid","bonus":1.500000000000001},{"rt":20195.200000047684,"stimulus":"\n                    <p><b>Action: <em>avoid</em></b></p>\n                    <p>This is the bee that you just saw.</p>\n                    <img src=\"bees-with-color/bee-B2DF.svg\" width=\"200\">\n                    <p><span class=\"redText\">Bad choice,</span> the bee was friendly.<br>Your bonus pay is unchanged, and remains at $0.46.</p>\n            ","response":0,"trial_type":"html-button-response","trial_index":30,"time_elapsed":405666,"internal_node_id":"0.0-4.0-1.11","subject_id":"5ec93f6818e0240668b8daaf","study_id":"60edd13110225f80f9f3709b","session_id":"6196c7042e2ad1368624c860","condition":"full-information","relevant_dimensions":["antennae","wings"],"bee_group":{"antennae":"B","wings":"1","pattern":"X","legs":"X"},"bonus":1.500000000000001},{"rt":2584.699999809265,"stimulus":"bees-with-color/bee-B2SF.svg","response":0,"trial_type":"image-button-response","trial_index":31,"time_elapsed":408253,"internal_node_id":"0.0-4.0-0.12","subject_id":"5ec93f6818e0240668b8daaf","study_id":"60edd13110225f80f9f3709b","session_id":"6196c7042e2ad1368624c860","condition":"full-information","relevant_dimensions":["antennae","wings"],"bee_group":{"antennae":"B","wings":"1","pattern":"X","legs":"X"},"action":"harvest","summary":"good-harvest","bonus":1.500000000000001},{"rt":7585,"stimulus":"\n                    <p><b>Action: <em>harvest</em></b></p>\n                    <p>This is the bee that you just saw.</p>\n                    <img src=\"bees-with-color/bee-B2SF.svg\" width=\"200\">\n                    <p><span class=\"greenText\"><b>Successful harvest!</b></span><br>Your pay has increased by $0.02. Your bonus pay is now $0.48.</p>\n            ","response":0,"trial_type":"html-button-response","trial_index":32,"time_elapsed":415839,"internal_node_id":"0.0-4.0-1.12","subject_id":"5ec93f6818e0240668b8daaf","study_id":"60edd13110225f80f9f3709b","session_id":"6196c7042e2ad1368624c860","condition":"full-information","relevant_dimensions":["antennae","wings"],"bee_group":{"antennae":"B","wings":"1","pattern":"X","legs":"X"},"bonus":1.500000000000001},{"rt":7724.700000047684,"stimulus":"bees-with-color/bee-A1DF.svg","response":0,"trial_type":"image-button-response","trial_index":33,"time_elapsed":423567,"internal_node_id":"0.0-4.0-0.13","subject_id":"5ec93f6818e0240668b8daaf","study_id":"60edd13110225f80f9f3709b","session_id":"6196c7042e2ad1368624c860","condition":"full-information","relevant_dimensions":["antennae","wings"],"bee_group":{"antennae":"B","wings":"1","pattern":"X","legs":"X"},"action":"harvest","summary":"good-harvest","bonus":1.500000000000001},{"rt":1217,"stimulus":"\n                    <p><b>Action: <em>harvest</em></b></p>\n                    <p>This is the bee that you just saw.</p>\n                    <img src=\"bees-with-color/bee-A1DF.svg\" width=\"200\">\n                    <p><span class=\"greenText\"><b>Successful harvest!</b></span><br>Your pay has increased by $0.02. Your bonus pay is now $0.50.</p>\n            ","response":0,"trial_type":"html-button-response","trial_index":34,"time_elapsed":424786,"internal_node_id":"0.0-4.0-1.13","subject_id":"5ec93f6818e0240668b8daaf","study_id":"60edd13110225f80f9f3709b","session_id":"6196c7042e2ad1368624c860","condition":"full-information","relevant_dimensions":["antennae","wings"],"bee_group":{"antennae":"B","wings":"1","pattern":"X","legs":"X"},"bonus":1.500000000000001},{"rt":8688,"stimulus":"bees-with-color/bee-A2SM.svg","response":0,"trial_type":"image-button-response","trial_index":35,"time_elapsed":433476,"internal_node_id":"0.0-4.0-0.14","subject_id":"5ec93f6818e0240668b8daaf","study_id":"60edd13110225f80f9f3709b","session_id":"6196c7042e2ad1368624c860","condition":"full-information","relevant_dimensions":["antennae","wings"],"bee_group":{"antennae":"B","wings":"1","pattern":"X","legs":"X"},"action":"harvest","summary":"good-harvest","bonus":1.500000000000001},{"rt":1040.3000001907349,"stimulus":"\n                    <p><b>Action: <em>harvest</em></b></p>\n                    <p>This is the bee that you just saw.</p>\n                    <img src=\"bees-with-color/bee-A2SM.svg\" width=\"200\">\n                    <p><span class=\"greenText\"><b>Successful harvest!</b></span><br>Your pay has increased by $0.02. Your bonus pay is now $0.52.</p>\n            ","response":0,"trial_type":"html-button-response","trial_index":36,"time_elapsed":434519,"internal_node_id":"0.0-4.0-1.14","subject_id":"5ec93f6818e0240668b8daaf","study_id":"60edd13110225f80f9f3709b","session_id":"6196c7042e2ad1368624c860","condition":"full-information","relevant_dimensions":["antennae","wings"],"bee_group":{"antennae":"B","wings":"1","pattern":"X","legs":"X"},"bonus":1.500000000000001},{"rt":3538.2000000476837,"stimulus":"bees-with-color/bee-B1DM.svg","response":0,"trial_type":"image-button-response","trial_index":37,"time_elapsed":438060,"internal_node_id":"0.0-4.0-0.15","subject_id":"5ec93f6818e0240668b8daaf","study_id":"60edd13110225f80f9f3709b","session_id":"6196c7042e2ad1368624c860","condition":"full-information","relevant_dimensions":["antennae","wings"],"bee_group":{"antennae":"B","wings":"1","pattern":"X","legs":"X"},"action":"harvest","summary":"bad-harvest","bonus":1.500000000000001},{"rt":1552,"stimulus":"\n                    <p><b>Action: <em>harvest</em></b></p>\n                    <p>This is the bee that you just saw.</p>\n                    <img src=\"bees-with-color/bee-B1DM.svg\" width=\"200\">\n                    <p><span class=\"redText\">Bad choice, the bee was angry.</span><br><b>You have been stung!</b><br>Your pay has been decreased by $0.10. Your bonus pay is now $0.42.</p>\n            ","response":0,"trial_type":"html-button-response","trial_index":38,"time_elapsed":439614,"internal_node_id":"0.0-4.0-1.15","subject_id":"5ec93f6818e0240668b8daaf","study_id":"60edd13110225f80f9f3709b","session_id":"6196c7042e2ad1368624c860","condition":"full-information","relevant_dimensions":["antennae","wings"],"bee_group":{"antennae":"B","wings":"1","pattern":"X","legs":"X"},"bonus":1.500000000000001},{"rt":8744.299999952316,"stimulus":"bees-with-color/bee-B2DF.svg","response":0,"trial_type":"image-button-response","trial_index":39,"time_elapsed":448360,"internal_node_id":"0.0-4.0-0.16","subject_id":"5ec93f6818e0240668b8daaf","study_id":"60edd13110225f80f9f3709b","session_id":"6196c7042e2ad1368624c860","condition":"full-information","relevant_dimensions":["antennae","wings"],"bee_group":{"antennae":"B","wings":"1","pattern":"X","legs":"X"},"action":"harvest","summary":"good-harvest","bonus":1.500000000000001},{"rt":1330.0999999046326,"stimulus":"\n                    <p><b>Action: <em>harvest</em></b></p>\n                    <p>This is the bee that you just saw.</p>\n                    <img src=\"bees-with-color/bee-B2DF.svg\" width=\"200\">\n                    <p><span class=\"greenText\"><b>Successful harvest!</b></span><br>Your pay has increased by $0.02. Your bonus pay is now $0.44.</p>\n            ","response":0,"trial_type":"html-button-response","trial_index":40,"time_elapsed":449692,"internal_node_id":"0.0-4.0-1.16","subject_id":"5ec93f6818e0240668b8daaf","study_id":"60edd13110225f80f9f3709b","session_id":"6196c7042e2ad1368624c860","condition":"full-information","relevant_dimensions":["antennae","wings"],"bee_group":{"antennae":"B","wings":"1","pattern":"X","legs":"X"},"bonus":1.500000000000001},{"rt":10862.100000143051,"stimulus":"bees-with-color/bee-A1DF.svg","response":1,"trial_type":"image-button-response","trial_index":41,"time_elapsed":460557,"internal_node_id":"0.0-4.0-0.17","subject_id":"5ec93f6818e0240668b8daaf","study_id":"60edd13110225f80f9f3709b","session_id":"6196c7042e2ad1368624c860","condition":"full-information","relevant_dimensions":["antennae","wings"],"bee_group":{"antennae":"B","wings":"1","pattern":"X","legs":"X"},"action":"avoid","summary":"bad-avoid","bonus":1.500000000000001},{"rt":11293.299999952316,"stimulus":"\n                    <p><b>Action: <em>avoid</em></b></p>\n                    <p>This is the bee that you just saw.</p>\n                    <img src=\"bees-with-color/bee-A1DF.svg\" width=\"200\">\n                    <p><span class=\"redText\">Bad choice,</span> the bee was friendly.<br>Your bonus pay is unchanged, and remains at $0.44.</p>\n            ","response":0,"trial_type":"html-button-response","trial_index":42,"time_elapsed":471852,"internal_node_id":"0.0-4.0-1.17","subject_id":"5ec93f6818e0240668b8daaf","study_id":"60edd13110225f80f9f3709b","session_id":"6196c7042e2ad1368624c860","condition":"full-information","relevant_dimensions":["antennae","wings"],"bee_group":{"antennae":"B","wings":"1","pattern":"X","legs":"X"},"bonus":1.500000000000001},{"rt":9369.899999856949,"stimulus":"bees-with-color/bee-B2SM.svg","response":1,"trial_type":"image-button-response","trial_index":43,"time_elapsed":481225,"internal_node_id":"0.0-4.0-0.18","subject_id":"5ec93f6818e0240668b8daaf","study_id":"60edd13110225f80f9f3709b","session_id":"6196c7042e2ad1368624c860","condition":"full-information","relevant_dimensions":["antennae","wings"],"bee_group":{"antennae":"B","wings":"1","pattern":"X","legs":"X"},"action":"avoid","summary":"bad-avoid","bonus":1.500000000000001},{"rt":15738.599999904633,"stimulus":"\n                    <p><b>Action: <em>avoid</em></b></p>\n                    <p>This is the bee that you just saw.</p>\n                    <img src=\"bees-with-color/bee-B2SM.svg\" width=\"200\">\n                    <p><span class=\"redText\">Bad choice,</span> the bee was friendly.<br>Your bonus pay is unchanged, and remains at $0.44.</p>\n            ","response":0,"trial_type":"html-button-response","trial_index":44,"time_elapsed":496967,"internal_node_id":"0.0-4.0-1.18","subject_id":"5ec93f6818e0240668b8daaf","study_id":"60edd13110225f80f9f3709b","session_id":"6196c7042e2ad1368624c860","condition":"full-information","relevant_dimensions":["antennae","wings"],"bee_group":{"antennae":"B","wings":"1","pattern":"X","legs":"X"},"bonus":1.500000000000001},{"rt":11581.299999952316,"stimulus":"bees-with-color/bee-A2SM.svg","response":0,"trial_type":"image-button-response","trial_index":45,"time_elapsed":508550,"internal_node_id":"0.0-4.0-0.19","subject_id":"5ec93f6818e0240668b8daaf","study_id":"60edd13110225f80f9f3709b","session_id":"6196c7042e2ad1368624c860","condition":"full-information","relevant_dimensions":["antennae","wings"],"bee_group":{"antennae":"B","wings":"1","pattern":"X","legs":"X"},"action":"harvest","summary":"good-harvest","bonus":1.500000000000001},{"rt":11384.100000143051,"stimulus":"\n                    <p><b>Action: <em>harvest</em></b></p>\n                    <p>This is the bee that you just saw.</p>\n                    <img src=\"bees-with-color/bee-A2SM.svg\" width=\"200\">\n                    <p><span class=\"greenText\"><b>Successful harvest!</b></span><br>Your pay has increased by $0.02. Your bonus pay is now $0.46.</p>\n            ","response":0,"trial_type":"html-button-response","trial_index":46,"time_elapsed":519936,"internal_node_id":"0.0-4.0-1.19","subject_id":"5ec93f6818e0240668b8daaf","study_id":"60edd13110225f80f9f3709b","session_id":"6196c7042e2ad1368624c860","condition":"full-information","relevant_dimensions":["antennae","wings"],"bee_group":{"antennae":"B","wings":"1","pattern":"X","legs":"X"},"bonus":1.500000000000001},{"rt":9704,"stimulus":"bees-with-color/bee-A2DM.svg","response":0,"trial_type":"image-button-response","trial_index":47,"time_elapsed":529642,"internal_node_id":"0.0-4.0-0.20","subject_id":"5ec93f6818e0240668b8daaf","study_id":"60edd13110225f80f9f3709b","session_id":"6196c7042e2ad1368624c860","condition":"full-information","relevant_dimensions":["antennae","wings"],"bee_group":{"antennae":"B","wings":"1","pattern":"X","legs":"X"},"action":"harvest","summary":"good-harvest","bonus":1.500000000000001},{"rt":922,"stimulus":"\n                    <p><b>Action: <em>harvest</em></b></p>\n                    <p>This is the bee that you just saw.</p>\n                    <img src=\"bees-with-color/bee-A2DM.svg\" width=\"200\">\n                    <p><span class=\"greenText\"><b>Successful harvest!</b></span><br>Your pay has increased by $0.02. Your bonus pay is now $0.48.</p>\n            ","response":0,"trial_type":"html-button-response","trial_index":48,"time_elapsed":530566,"internal_node_id":"0.0-4.0-1.20","subject_id":"5ec93f6818e0240668b8daaf","study_id":"60edd13110225f80f9f3709b","session_id":"6196c7042e2ad1368624c860","condition":"full-information","relevant_dimensions":["antennae","wings"],"bee_group":{"antennae":"B","wings":"1","pattern":"X","legs":"X"},"bonus":1.500000000000001},{"rt":17922,"stimulus":"bees-with-color/bee-B1DF.svg","response":1,"trial_type":"image-button-response","trial_index":49,"time_elapsed":548490,"internal_node_id":"0.0-4.0-0.21","subject_id":"5ec93f6818e0240668b8daaf","study_id":"60edd13110225f80f9f3709b","session_id":"6196c7042e2ad1368624c860","condition":"full-information","relevant_dimensions":["antennae","wings"],"bee_group":{"antennae":"B","wings":"1","pattern":"X","legs":"X"},"action":"avoid","summary":"good-avoid","bonus":1.500000000000001},{"rt":12376.600000143051,"stimulus":"\n                    <p><b>Action: <em>avoid</em></b></p>\n                    <p>This is the bee that you just saw.</p>\n                    <img src=\"bees-with-color/bee-B1DF.svg\" width=\"200\">\n                    <p><span class=\"greenText\">Good choice!</span>  This bee would have stung you.<br>Your bonus pay is unchanged, and remains at $0.48.</p>\n            ","response":0,"trial_type":"html-button-response","trial_index":50,"time_elapsed":560869,"internal_node_id":"0.0-4.0-1.21","subject_id":"5ec93f6818e0240668b8daaf","study_id":"60edd13110225f80f9f3709b","session_id":"6196c7042e2ad1368624c860","condition":"full-information","relevant_dimensions":["antennae","wings"],"bee_group":{"antennae":"B","wings":"1","pattern":"X","legs":"X"},"bonus":1.500000000000001},{"rt":22162,"stimulus":"bees-with-color/bee-B1DM.svg","response":1,"trial_type":"image-button-response","trial_index":51,"time_elapsed":583033,"internal_node_id":"0.0-4.0-0.22","subject_id":"5ec93f6818e0240668b8daaf","study_id":"60edd13110225f80f9f3709b","session_id":"6196c7042e2ad1368624c860","condition":"full-information","relevant_dimensions":["antennae","wings"],"bee_group":{"antennae":"B","wings":"1","pattern":"X","legs":"X"},"action":"avoid","summary":"good-avoid","bonus":1.500000000000001},{"rt":13853.299999952316,"stimulus":"\n                    <p><b>Action: <em>avoid</em></b></p>\n                    <p>This is the bee that you just saw.</p>\n                    <img src=\"bees-with-color/bee-B1DM.svg\" width=\"200\">\n                    <p><span class=\"greenText\">Good choice!</span>  This bee would have stung you.<br>Your bonus pay is unchanged, and remains at $0.48.</p>\n            ","response":0,"trial_type":"html-button-response","trial_index":52,"time_elapsed":596888,"internal_node_id":"0.0-4.0-1.22","subject_id":"5ec93f6818e0240668b8daaf","study_id":"60edd13110225f80f9f3709b","session_id":"6196c7042e2ad1368624c860","condition":"full-information","relevant_dimensions":["antennae","wings"],"bee_group":{"antennae":"B","wings":"1","pattern":"X","legs":"X"},"bonus":1.500000000000001},{"rt":16616.5,"stimulus":"bees-with-color/bee-A1DM.svg","response":0,"trial_type":"image-button-response","trial_index":53,"time_elapsed":613508,"internal_node_id":"0.0-4.0-0.23","subject_id":"5ec93f6818e0240668b8daaf","study_id":"60edd13110225f80f9f3709b","session_id":"6196c7042e2ad1368624c860","condition":"full-information","relevant_dimensions":["antennae","wings"],"bee_group":{"antennae":"B","wings":"1","pattern":"X","legs":"X"},"action":"harvest","summary":"good-harvest","bonus":1.500000000000001},{"rt":925.2999999523163,"stimulus":"\n                    <p><b>Action: <em>harvest</em></b></p>\n                    <p>This is the bee that you just saw.</p>\n                    <img src=\"bees-with-color/bee-A1DM.svg\" width=\"200\">\n                    <p><span class=\"greenText\"><b>Successful harvest!</b></span><br>Your pay has increased by $0.02. Your bonus pay is now $0.50.</p>\n            ","response":0,"trial_type":"html-button-response","trial_index":54,"time_elapsed":614435,"internal_node_id":"0.0-4.0-1.23","subject_id":"5ec93f6818e0240668b8daaf","study_id":"60edd13110225f80f9f3709b","session_id":"6196c7042e2ad1368624c860","condition":"full-information","relevant_dimensions":["antennae","wings"],"bee_group":{"antennae":"B","wings":"1","pattern":"X","legs":"X"},"bonus":1.500000000000001},{"rt":20808.5,"stimulus":"bees-with-color/bee-A1SF.svg","response":0,"trial_type":"image-button-response","trial_index":55,"time_elapsed":635246,"internal_node_id":"0.0-4.0-0.24","subject_id":"5ec93f6818e0240668b8daaf","study_id":"60edd13110225f80f9f3709b","session_id":"6196c7042e2ad1368624c860","condition":"full-information","relevant_dimensions":["antennae","wings"],"bee_group":{"antennae":"B","wings":"1","pattern":"X","legs":"X"},"action":"harvest","summary":"good-harvest","bonus":1.500000000000001},{"rt":1573,"stimulus":"\n                    <p><b>Action: <em>harvest</em></b></p>\n                    <p>This is the bee that you just saw.</p>\n                    <img src=\"bees-with-color/bee-A1SF.svg\" width=\"200\">\n                    <p><span class=\"greenText\"><b>Successful harvest!</b></span><br>Your pay has increased by $0.02. Your bonus pay is now $0.52.</p>\n            ","response":0,"trial_type":"html-button-response","trial_index":56,"time_elapsed":636821,"internal_node_id":"0.0-4.0-1.24","subject_id":"5ec93f6818e0240668b8daaf","study_id":"60edd13110225f80f9f3709b","session_id":"6196c7042e2ad1368624c860","condition":"full-information","relevant_dimensions":["antennae","wings"],"bee_group":{"antennae":"B","wings":"1","pattern":"X","legs":"X"},"bonus":1.500000000000001},{"rt":15023.5,"stimulus":"bees-with-color/bee-B2SF.svg","response":1,"trial_type":"image-button-response","trial_index":57,"time_elapsed":651848,"internal_node_id":"0.0-4.0-0.25","subject_id":"5ec93f6818e0240668b8daaf","study_id":"60edd13110225f80f9f3709b","session_id":"6196c7042e2ad1368624c860","condition":"full-information","relevant_dimensions":["antennae","wings"],"bee_group":{"antennae":"B","wings":"1","pattern":"X","legs":"X"},"action":"avoid","summary":"bad-avoid","bonus":1.500000000000001},{"rt":12596.200000047684,"stimulus":"\n                    <p><b>Action: <em>avoid</em></b></p>\n                    <p>This is the bee that you just saw.</p>\n                    <img src=\"bees-with-color/bee-B2SF.svg\" width=\"200\">\n                    <p><span class=\"redText\">Bad choice,</span> the bee was friendly.<br>Your bonus pay is unchanged, and remains at $0.52.</p>\n            ","response":0,"trial_type":"html-button-response","trial_index":58,"time_elapsed":664445,"internal_node_id":"0.0-4.0-1.25","subject_id":"5ec93f6818e0240668b8daaf","study_id":"60edd13110225f80f9f3709b","session_id":"6196c7042e2ad1368624c860","condition":"full-information","relevant_dimensions":["antennae","wings"],"bee_group":{"antennae":"B","wings":"1","pattern":"X","legs":"X"},"bonus":1.500000000000001},{"rt":7430.399999856949,"stimulus":"bees-with-color/bee-A2SF.svg","response":0,"trial_type":"image-button-response","trial_index":59,"time_elapsed":671878,"internal_node_id":"0.0-4.0-0.26","subject_id":"5ec93f6818e0240668b8daaf","study_id":"60edd13110225f80f9f3709b","session_id":"6196c7042e2ad1368624c860","condition":"full-information","relevant_dimensions":["antennae","wings"],"bee_group":{"antennae":"B","wings":"1","pattern":"X","legs":"X"},"action":"harvest","summary":"good-harvest","bonus":1.500000000000001},{"rt":676.2000000476837,"stimulus":"\n                    <p><b>Action: <em>harvest</em></b></p>\n                    <p>This is the bee that you just saw.</p>\n                    <img src=\"bees-with-color/bee-A2SF.svg\" width=\"200\">\n                    <p><span class=\"greenText\"><b>Successful harvest!</b></span><br>Your pay has increased by $0.02. Your bonus pay is now $0.54.</p>\n            ","response":0,"trial_type":"html-button-response","trial_index":60,"time_elapsed":672556,"internal_node_id":"0.0-4.0-1.26","subject_id":"5ec93f6818e0240668b8daaf","study_id":"60edd13110225f80f9f3709b","session_id":"6196c7042e2ad1368624c860","condition":"full-information","relevant_dimensions":["antennae","wings"],"bee_group":{"antennae":"B","wings":"1","pattern":"X","legs":"X"},"bonus":1.500000000000001},{"rt":15847.800000190735,"stimulus":"bees-with-color/bee-A2DF.svg","response":0,"trial_type":"image-button-response","trial_index":61,"time_elapsed":688406,"internal_node_id":"0.0-4.0-0.27","subject_id":"5ec93f6818e0240668b8daaf","study_id":"60edd13110225f80f9f3709b","session_id":"6196c7042e2ad1368624c860","condition":"full-information","relevant_dimensions":["antennae","wings"],"bee_group":{"antennae":"B","wings":"1","pattern":"X","legs":"X"},"action":"harvest","summary":"good-harvest","bonus":1.500000000000001},{"rt":1277.7000000476837,"stimulus":"\n                    <p><b>Action: <em>harvest</em></b></p>\n                    <p>This is the bee that you just saw.</p>\n                    <img src=\"bees-with-color/bee-A2DF.svg\" width=\"200\">\n                    <p><span class=\"greenText\"><b>Successful harvest!</b></span><br>Your pay has increased by $0.02. Your bonus pay is now $0.56.</p>\n            ","response":0,"trial_type":"html-button-response","trial_index":62,"time_elapsed":689686,"internal_node_id":"0.0-4.0-1.27","subject_id":"5ec93f6818e0240668b8daaf","study_id":"60edd13110225f80f9f3709b","session_id":"6196c7042e2ad1368624c860","condition":"full-information","relevant_dimensions":["antennae","wings"],"bee_group":{"antennae":"B","wings":"1","pattern":"X","legs":"X"},"bonus":1.500000000000001},{"rt":23161.200000047684,"stimulus":"bees-with-color/bee-B2DM.svg","response":0,"trial_type":"image-button-response","trial_index":63,"time_elapsed":712850,"internal_node_id":"0.0-4.0-0.28","subject_id":"5ec93f6818e0240668b8daaf","study_id":"60edd13110225f80f9f3709b","session_id":"6196c7042e2ad1368624c860","condition":"full-information","relevant_dimensions":["antennae","wings"],"bee_group":{"antennae":"B","wings":"1","pattern":"X","legs":"X"},"action":"harvest","summary":"good-harvest","bonus":1.500000000000001},{"rt":751.2000000476837,"stimulus":"\n                    <p><b>Action: <em>harvest</em></b></p>\n                    <p>This is the bee that you just saw.</p>\n                    <img src=\"bees-with-color/bee-B2DM.svg\" width=\"200\">\n                    <p><span class=\"greenText\"><b>Successful harvest!</b></span><br>Your pay has increased by $0.02. Your bonus pay is now $0.58.</p>\n            ","response":0,"trial_type":"html-button-response","trial_index":64,"time_elapsed":713603,"internal_node_id":"0.0-4.0-1.28","subject_id":"5ec93f6818e0240668b8daaf","study_id":"60edd13110225f80f9f3709b","session_id":"6196c7042e2ad1368624c860","condition":"full-information","relevant_dimensions":["antennae","wings"],"bee_group":{"antennae":"B","wings":"1","pattern":"X","legs":"X"},"bonus":1.500000000000001},{"rt":16325.100000143051,"stimulus":"bees-with-color/bee-B1SM.svg","response":1,"trial_type":"image-button-response","trial_index":65,"time_elapsed":729931,"internal_node_id":"0.0-4.0-0.29","subject_id":"5ec93f6818e0240668b8daaf","study_id":"60edd13110225f80f9f3709b","session_id":"6196c7042e2ad1368624c860","condition":"full-information","relevant_dimensions":["antennae","wings"],"bee_group":{"antennae":"B","wings":"1","pattern":"X","legs":"X"},"action":"avoid","summary":"good-avoid","bonus":1.500000000000001},{"rt":1546.1000001430511,"stimulus":"\n                    <p><b>Action: <em>avoid</em></b></p>\n                    <p>This is the bee that you just saw.</p>\n                    <img src=\"bees-with-color/bee-B1SM.svg\" width=\"200\">\n                    <p><span class=\"greenText\">Good choice!</span>  This bee would have stung you.<br>Your bonus pay is unchanged, and remains at $0.58.</p>\n            ","response":0,"trial_type":"html-button-response","trial_index":66,"time_elapsed":731479,"internal_node_id":"0.0-4.0-1.29","subject_id":"5ec93f6818e0240668b8daaf","study_id":"60edd13110225f80f9f3709b","session_id":"6196c7042e2ad1368624c860","condition":"full-information","relevant_dimensions":["antennae","wings"],"bee_group":{"antennae":"B","wings":"1","pattern":"X","legs":"X"},"bonus":1.500000000000001},{"rt":18771.900000095367,"stimulus":"bees-with-color/bee-A1SM.svg","response":0,"trial_type":"image-button-response","trial_index":67,"time_elapsed":750253,"internal_node_id":"0.0-4.0-0.30","subject_id":"5ec93f6818e0240668b8daaf","study_id":"60edd13110225f80f9f3709b","session_id":"6196c7042e2ad1368624c860","condition":"full-information","relevant_dimensions":["antennae","wings"],"bee_group":{"antennae":"B","wings":"1","pattern":"X","legs":"X"},"action":"harvest","summary":"good-harvest","bonus":1.500000000000001},{"rt":862.0999999046326,"stimulus":"\n                    <p><b>Action: <em>harvest</em></b></p>\n                    <p>This is the bee that you just saw.</p>\n                    <img src=\"bees-with-color/bee-A1SM.svg\" width=\"200\">\n                    <p><span class=\"greenText\"><b>Successful harvest!</b></span><br>Your pay has increased by $0.02. Your bonus pay is now $0.60.</p>\n            ","response":0,"trial_type":"html-button-response","trial_index":68,"time_elapsed":751118,"internal_node_id":"0.0-4.0-1.30","subject_id":"5ec93f6818e0240668b8daaf","study_id":"60edd13110225f80f9f3709b","session_id":"6196c7042e2ad1368624c860","condition":"full-information","relevant_dimensions":["antennae","wings"],"bee_group":{"antennae":"B","wings":"1","pattern":"X","legs":"X"},"bonus":1.500000000000001},{"rt":12410.5,"stimulus":"bees-with-color/bee-B1SF.svg","response":1,"trial_type":"image-button-response","trial_index":69,"time_elapsed":763531,"internal_node_id":"0.0-4.0-0.31","subject_id":"5ec93f6818e0240668b8daaf","study_id":"60edd13110225f80f9f3709b","session_id":"6196c7042e2ad1368624c860","condition":"full-information","relevant_dimensions":["antennae","wings"],"bee_group":{"antennae":"B","wings":"1","pattern":"X","legs":"X"},"action":"avoid","summary":"good-avoid","bonus":1.500000000000001},{"rt":2013.0999999046326,"stimulus":"\n                    <p><b>Action: <em>avoid</em></b></p>\n                    <p>This is the bee that you just saw.</p>\n                    <img src=\"bees-with-color/bee-B1SF.svg\" width=\"200\">\n                    <p><span class=\"greenText\">Good choice!</span>  This bee would have stung you.<br>Your bonus pay is unchanged, and remains at $0.60.</p>\n            ","response":0,"trial_type":"html-button-response","trial_index":70,"time_elapsed":765546,"internal_node_id":"0.0-4.0-1.31","subject_id":"5ec93f6818e0240668b8daaf","study_id":"60edd13110225f80f9f3709b","session_id":"6196c7042e2ad1368624c860","condition":"full-information","relevant_dimensions":["antennae","wings"],"bee_group":{"antennae":"B","wings":"1","pattern":"X","legs":"X"},"bonus":1.500000000000001},{"rt":10829.899999856949,"stimulus":"bees-with-color/bee-A2SF.svg","response":0,"trial_type":"image-button-response","trial_index":71,"time_elapsed":776378,"internal_node_id":"0.0-4.0-0.32","subject_id":"5ec93f6818e0240668b8daaf","study_id":"60edd13110225f80f9f3709b","session_id":"6196c7042e2ad1368624c860","condition":"full-information","relevant_dimensions":["antennae","wings"],"bee_group":{"antennae":"B","wings":"1","pattern":"X","legs":"X"},"action":"harvest","summary":"good-harvest","bonus":1.500000000000001},{"rt":668.5,"stimulus":"\n                    <p><b>Action: <em>harvest</em></b></p>\n                    <p>This is the bee that you just saw.</p>\n                    <img src=\"bees-with-color/bee-A2SF.svg\" width=\"200\">\n                    <p><span class=\"greenText\"><b>Successful harvest!</b></span><br>Your pay has increased by $0.02. Your bonus pay is now $0.62.</p>\n            ","response":0,"trial_type":"html-button-response","trial_index":72,"time_elapsed":777048,"internal_node_id":"0.0-4.0-1.32","subject_id":"5ec93f6818e0240668b8daaf","study_id":"60edd13110225f80f9f3709b","session_id":"6196c7042e2ad1368624c860","condition":"full-information","relevant_dimensions":["antennae","wings"],"bee_group":{"antennae":"B","wings":"1","pattern":"X","legs":"X"},"bonus":1.500000000000001},{"rt":20743.900000095367,"stimulus":"bees-with-color/bee-B2SF.svg","response":1,"trial_type":"image-button-response","trial_index":73,"time_elapsed":797794,"internal_node_id":"0.0-4.0-0.33","subject_id":"5ec93f6818e0240668b8daaf","study_id":"60edd13110225f80f9f3709b","session_id":"6196c7042e2ad1368624c860","condition":"full-information","relevant_dimensions":["antennae","wings"],"bee_group":{"antennae":"B","wings":"1","pattern":"X","legs":"X"},"action":"avoid","summary":"bad-avoid","bonus":1.500000000000001},{"rt":8757.400000095367,"stimulus":"\n                    <p><b>Action: <em>avoid</em></b></p>\n                    <p>This is the bee that you just saw.</p>\n                    <img src=\"bees-with-color/bee-B2SF.svg\" width=\"200\">\n                    <p><span class=\"redText\">Bad choice,</span> the bee was friendly.<br>Your bonus pay is unchanged, and remains at $0.62.</p>\n            ","response":0,"trial_type":"html-button-response","trial_index":74,"time_elapsed":806553,"internal_node_id":"0.0-4.0-1.33","subject_id":"5ec93f6818e0240668b8daaf","study_id":"60edd13110225f80f9f3709b","session_id":"6196c7042e2ad1368624c860","condition":"full-information","relevant_dimensions":["antennae","wings"],"bee_group":{"antennae":"B","wings":"1","pattern":"X","legs":"X"},"bonus":1.500000000000001},{"rt":14946.100000143051,"stimulus":"bees-with-color/bee-A1DM.svg","response":0,"trial_type":"image-button-response","trial_index":75,"time_elapsed":821502,"internal_node_id":"0.0-4.0-0.34","subject_id":"5ec93f6818e0240668b8daaf","study_id":"60edd13110225f80f9f3709b","session_id":"6196c7042e2ad1368624c860","condition":"full-information","relevant_dimensions":["antennae","wings"],"bee_group":{"antennae":"B","wings":"1","pattern":"X","legs":"X"},"action":"harvest","summary":"good-harvest","bonus":1.500000000000001},{"rt":901.7000000476837,"stimulus":"\n                    <p><b>Action: <em>harvest</em></b></p>\n                    <p>This is the bee that you just saw.</p>\n                    <img src=\"bees-with-color/bee-A1DM.svg\" width=\"200\">\n                    <p><span class=\"greenText\"><b>Successful harvest!</b></span><br>Your pay has increased by $0.02. Your bonus pay is now $0.64.</p>\n            ","response":0,"trial_type":"html-button-response","trial_index":76,"time_elapsed":822406,"internal_node_id":"0.0-4.0-1.34","subject_id":"5ec93f6818e0240668b8daaf","study_id":"60edd13110225f80f9f3709b","session_id":"6196c7042e2ad1368624c860","condition":"full-information","relevant_dimensions":["antennae","wings"],"bee_group":{"antennae":"B","wings":"1","pattern":"X","legs":"X"},"bonus":1.500000000000001},{"rt":8021.799999952316,"stimulus":"bees-with-color/bee-A1DF.svg","response":0,"trial_type":"image-button-response","trial_index":77,"time_elapsed":830430,"internal_node_id":"0.0-4.0-0.35","subject_id":"5ec93f6818e0240668b8daaf","study_id":"60edd13110225f80f9f3709b","session_id":"6196c7042e2ad1368624c860","condition":"full-information","relevant_dimensions":["antennae","wings"],"bee_group":{"antennae":"B","wings":"1","pattern":"X","legs":"X"},"action":"harvest","summary":"good-harvest","bonus":1.500000000000001},{"rt":614.4000000953674,"stimulus":"\n                    <p><b>Action: <em>harvest</em></b></p>\n                    <p>This is the bee that you just saw.</p>\n                    <img src=\"bees-with-color/bee-A1DF.svg\" width=\"200\">\n                    <p><span class=\"greenText\"><b>Successful harvest!</b></span><br>Your pay has increased by $0.02. Your bonus pay is now $0.66.</p>\n            ","response":0,"trial_type":"html-button-response","trial_index":78,"time_elapsed":831046,"internal_node_id":"0.0-4.0-1.35","subject_id":"5ec93f6818e0240668b8daaf","study_id":"60edd13110225f80f9f3709b","session_id":"6196c7042e2ad1368624c860","condition":"full-information","relevant_dimensions":["antennae","wings"],"bee_group":{"antennae":"B","wings":"1","pattern":"X","legs":"X"},"bonus":1.500000000000001},{"rt":15726.599999904633,"stimulus":"bees-with-color/bee-B1SM.svg","response":1,"trial_type":"image-button-response","trial_index":79,"time_elapsed":846775,"internal_node_id":"0.0-4.0-0.36","subject_id":"5ec93f6818e0240668b8daaf","study_id":"60edd13110225f80f9f3709b","session_id":"6196c7042e2ad1368624c860","condition":"full-information","relevant_dimensions":["antennae","wings"],"bee_group":{"antennae":"B","wings":"1","pattern":"X","legs":"X"},"action":"avoid","summary":"good-avoid","bonus":1.500000000000001},{"rt":797.2999999523163,"stimulus":"\n                    <p><b>Action: <em>avoid</em></b></p>\n                    <p>This is the bee that you just saw.</p>\n                    <img src=\"bees-with-color/bee-B1SM.svg\" width=\"200\">\n                    <p><span class=\"greenText\">Good choice!</span>  This bee would have stung you.<br>Your bonus pay is unchanged, and remains at $0.66.</p>\n            ","response":0,"trial_type":"html-button-response","trial_index":80,"time_elapsed":847574,"internal_node_id":"0.0-4.0-1.36","subject_id":"5ec93f6818e0240668b8daaf","study_id":"60edd13110225f80f9f3709b","session_id":"6196c7042e2ad1368624c860","condition":"full-information","relevant_dimensions":["antennae","wings"],"bee_group":{"antennae":"B","wings":"1","pattern":"X","legs":"X"},"bonus":1.500000000000001},{"rt":9998.799999952316,"stimulus":"bees-with-color/bee-B2DF.svg","response":0,"trial_type":"image-button-response","trial_index":81,"time_elapsed":857575,"internal_node_id":"0.0-4.0-0.37","subject_id":"5ec93f6818e0240668b8daaf","study_id":"60edd13110225f80f9f3709b","session_id":"6196c7042e2ad1368624c860","condition":"full-information","relevant_dimensions":["antennae","wings"],"bee_group":{"antennae":"B","wings":"1","pattern":"X","legs":"X"},"action":"harvest","summary":"good-harvest","bonus":1.500000000000001},{"rt":676.5,"stimulus":"\n                    <p><b>Action: <em>harvest</em></b></p>\n                    <p>This is the bee that you just saw.</p>\n                    <img src=\"bees-with-color/bee-B2DF.svg\" width=\"200\">\n                    <p><span class=\"greenText\"><b>Successful harvest!</b></span><br>Your pay has increased by $0.02. Your bonus pay is now $0.68.</p>\n            ","response":0,"trial_type":"html-button-response","trial_index":82,"time_elapsed":858253,"internal_node_id":"0.0-4.0-1.37","subject_id":"5ec93f6818e0240668b8daaf","study_id":"60edd13110225f80f9f3709b","session_id":"6196c7042e2ad1368624c860","condition":"full-information","relevant_dimensions":["antennae","wings"],"bee_group":{"antennae":"B","wings":"1","pattern":"X","legs":"X"},"bonus":1.500000000000001},{"rt":11881.200000047684,"stimulus":"bees-with-color/bee-A2DF.svg","response":0,"trial_type":"image-button-response","trial_index":83,"time_elapsed":870137,"internal_node_id":"0.0-4.0-0.38","subject_id":"5ec93f6818e0240668b8daaf","study_id":"60edd13110225f80f9f3709b","session_id":"6196c7042e2ad1368624c860","condition":"full-information","relevant_dimensions":["antennae","wings"],"bee_group":{"antennae":"B","wings":"1","pattern":"X","legs":"X"},"action":"harvest","summary":"good-harvest","bonus":1.500000000000001},{"rt":803,"stimulus":"\n                    <p><b>Action: <em>harvest</em></b></p>\n                    <p>This is the bee that you just saw.</p>\n                    <img src=\"bees-with-color/bee-A2DF.svg\" width=\"200\">\n                    <p><span class=\"greenText\"><b>Successful harvest!</b></span><br>Your pay has increased by $0.02. Your bonus pay is now $0.70.</p>\n            ","response":0,"trial_type":"html-button-response","trial_index":84,"time_elapsed":870942,"internal_node_id":"0.0-4.0-1.38","subject_id":"5ec93f6818e0240668b8daaf","study_id":"60edd13110225f80f9f3709b","session_id":"6196c7042e2ad1368624c860","condition":"full-information","relevant_dimensions":["antennae","wings"],"bee_group":{"antennae":"B","wings":"1","pattern":"X","legs":"X"},"bonus":1.500000000000001},{"rt":20012.599999904633,"stimulus":"bees-with-color/bee-B1DF.svg","response":1,"trial_type":"image-button-response","trial_index":85,"time_elapsed":890957,"internal_node_id":"0.0-4.0-0.39","subject_id":"5ec93f6818e0240668b8daaf","study_id":"60edd13110225f80f9f3709b","session_id":"6196c7042e2ad1368624c860","condition":"full-information","relevant_dimensions":["antennae","wings"],"bee_group":{"antennae":"B","wings":"1","pattern":"X","legs":"X"},"action":"avoid","summary":"good-avoid","bonus":1.500000000000001},{"rt":1154.3999998569489,"stimulus":"\n                    <p><b>Action: <em>avoid</em></b></p>\n                    <p>This is the bee that you just saw.</p>\n                    <img src=\"bees-with-color/bee-B1DF.svg\" width=\"200\">\n                    <p><span class=\"greenText\">Good choice!</span>  This bee would have stung you.<br>Your bonus pay is unchanged, and remains at $0.70.</p>\n            ","response":0,"trial_type":"html-button-response","trial_index":86,"time_elapsed":892114,"internal_node_id":"0.0-4.0-1.39","subject_id":"5ec93f6818e0240668b8daaf","study_id":"60edd13110225f80f9f3709b","session_id":"6196c7042e2ad1368624c860","condition":"full-information","relevant_dimensions":["antennae","wings"],"bee_group":{"antennae":"B","wings":"1","pattern":"X","legs":"X"},"bonus":1.500000000000001},{"rt":31603.700000047684,"stimulus":"bees-with-color/bee-B2DM.svg","response":0,"trial_type":"image-button-response","trial_index":87,"time_elapsed":923719,"internal_node_id":"0.0-4.0-0.40","subject_id":"5ec93f6818e0240668b8daaf","study_id":"60edd13110225f80f9f3709b","session_id":"6196c7042e2ad1368624c860","condition":"full-information","relevant_dimensions":["antennae","wings"],"bee_group":{"antennae":"B","wings":"1","pattern":"X","legs":"X"},"action":"harvest","summary":"good-harvest","bonus":1.500000000000001},{"rt":955,"stimulus":"\n                    <p><b>Action: <em>harvest</em></b></p>\n                    <p>This is the bee that you just saw.</p>\n                    <img src=\"bees-with-color/bee-B2DM.svg\" width=\"200\">\n                    <p><span class=\"greenText\"><b>Successful harvest!</b></span><br>Your pay has increased by $0.02. Your bonus pay is now $0.72.</p>\n            ","response":0,"trial_type":"html-button-response","trial_index":88,"time_elapsed":924676,"internal_node_id":"0.0-4.0-1.40","subject_id":"5ec93f6818e0240668b8daaf","study_id":"60edd13110225f80f9f3709b","session_id":"6196c7042e2ad1368624c860","condition":"full-information","relevant_dimensions":["antennae","wings"],"bee_group":{"antennae":"B","wings":"1","pattern":"X","legs":"X"},"bonus":1.500000000000001},{"rt":14346.799999952316,"stimulus":"bees-with-color/bee-A1SM.svg","response":0,"trial_type":"image-button-response","trial_index":89,"time_elapsed":939025,"internal_node_id":"0.0-4.0-0.41","subject_id":"5ec93f6818e0240668b8daaf","study_id":"60edd13110225f80f9f3709b","session_id":"6196c7042e2ad1368624c860","condition":"full-information","relevant_dimensions":["antennae","wings"],"bee_group":{"antennae":"B","wings":"1","pattern":"X","legs":"X"},"action":"harvest","summary":"good-harvest","bonus":1.500000000000001},{"rt":1374.3999998569489,"stimulus":"\n                    <p><b>Action: <em>harvest</em></b></p>\n                    <p>This is the bee that you just saw.</p>\n                    <img src=\"bees-with-color/bee-A1SM.svg\" width=\"200\">\n                    <p><span class=\"greenText\"><b>Successful harvest!</b></span><br>Your pay has increased by $0.02. Your bonus pay is now $0.74.</p>\n            ","response":0,"trial_type":"html-button-response","trial_index":90,"time_elapsed":940401,"internal_node_id":"0.0-4.0-1.41","subject_id":"5ec93f6818e0240668b8daaf","study_id":"60edd13110225f80f9f3709b","session_id":"6196c7042e2ad1368624c860","condition":"full-information","relevant_dimensions":["antennae","wings"],"bee_group":{"antennae":"B","wings":"1","pattern":"X","legs":"X"},"bonus":1.500000000000001},{"rt":12793.900000095367,"stimulus":"bees-with-color/bee-B2SM.svg","response":0,"trial_type":"image-button-response","trial_index":91,"time_elapsed":953197,"internal_node_id":"0.0-4.0-0.42","subject_id":"5ec93f6818e0240668b8daaf","study_id":"60edd13110225f80f9f3709b","session_id":"6196c7042e2ad1368624c860","condition":"full-information","relevant_dimensions":["antennae","wings"],"bee_group":{"antennae":"B","wings":"1","pattern":"X","legs":"X"},"action":"harvest","summary":"good-harvest","bonus":1.500000000000001},{"rt":879,"stimulus":"\n                    <p><b>Action: <em>harvest</em></b></p>\n                    <p>This is the bee that you just saw.</p>\n                    <img src=\"bees-with-color/bee-B2SM.svg\" width=\"200\">\n                    <p><span class=\"greenText\"><b>Successful harvest!</b></span><br>Your pay has increased by $0.02. Your bonus pay is now $0.76.</p>\n            ","response":0,"trial_type":"html-button-response","trial_index":92,"time_elapsed":954078,"internal_node_id":"0.0-4.0-1.42","subject_id":"5ec93f6818e0240668b8daaf","study_id":"60edd13110225f80f9f3709b","session_id":"6196c7042e2ad1368624c860","condition":"full-information","relevant_dimensions":["antennae","wings"],"bee_group":{"antennae":"B","wings":"1","pattern":"X","legs":"X"},"bonus":1.500000000000001},{"rt":9306.900000095367,"stimulus":"bees-with-color/bee-B1SF.svg","response":1,"trial_type":"image-button-response","trial_index":93,"time_elapsed":963387,"internal_node_id":"0.0-4.0-0.43","subject_id":"5ec93f6818e0240668b8daaf","study_id":"60edd13110225f80f9f3709b","session_id":"6196c7042e2ad1368624c860","condition":"full-information","relevant_dimensions":["antennae","wings"],"bee_group":{"antennae":"B","wings":"1","pattern":"X","legs":"X"},"action":"avoid","summary":"good-avoid","bonus":1.500000000000001},{"rt":782.2999999523163,"stimulus":"\n                    <p><b>Action: <em>avoid</em></b></p>\n                    <p>This is the bee that you just saw.</p>\n                    <img src=\"bees-with-color/bee-B1SF.svg\" width=\"200\">\n                    <p><span class=\"greenText\">Good choice!</span>  This bee would have stung you.<br>Your bonus pay is unchanged, and remains at $0.76.</p>\n            ","response":0,"trial_type":"html-button-response","trial_index":94,"time_elapsed":964171,"internal_node_id":"0.0-4.0-1.43","subject_id":"5ec93f6818e0240668b8daaf","study_id":"60edd13110225f80f9f3709b","session_id":"6196c7042e2ad1368624c860","condition":"full-information","relevant_dimensions":["antennae","wings"],"bee_group":{"antennae":"B","wings":"1","pattern":"X","legs":"X"},"bonus":1.500000000000001},{"rt":7326,"stimulus":"bees-with-color/bee-A2SM.svg","response":0,"trial_type":"image-button-response","trial_index":95,"time_elapsed":971499,"internal_node_id":"0.0-4.0-0.44","subject_id":"5ec93f6818e0240668b8daaf","study_id":"60edd13110225f80f9f3709b","session_id":"6196c7042e2ad1368624c860","condition":"full-information","relevant_dimensions":["antennae","wings"],"bee_group":{"antennae":"B","wings":"1","pattern":"X","legs":"X"},"action":"harvest","summary":"good-harvest","bonus":1.500000000000001},{"rt":744.5,"stimulus":"\n                    <p><b>Action: <em>harvest</em></b></p>\n                    <p>This is the bee that you just saw.</p>\n                    <img src=\"bees-with-color/bee-A2SM.svg\" width=\"200\">\n                    <p><span class=\"greenText\"><b>Successful harvest!</b></span><br>Your pay has increased by $0.02. Your bonus pay is now $0.78.</p>\n            ","response":0,"trial_type":"html-button-response","trial_index":96,"time_elapsed":972246,"internal_node_id":"0.0-4.0-1.44","subject_id":"5ec93f6818e0240668b8daaf","study_id":"60edd13110225f80f9f3709b","session_id":"6196c7042e2ad1368624c860","condition":"full-information","relevant_dimensions":["antennae","wings"],"bee_group":{"antennae":"B","wings":"1","pattern":"X","legs":"X"},"bonus":1.500000000000001},{"rt":11343.700000047684,"stimulus":"bees-with-color/bee-B1DM.svg","response":1,"trial_type":"image-button-response","trial_index":97,"time_elapsed":983592,"internal_node_id":"0.0-4.0-0.45","subject_id":"5ec93f6818e0240668b8daaf","study_id":"60edd13110225f80f9f3709b","session_id":"6196c7042e2ad1368624c860","condition":"full-information","relevant_dimensions":["antennae","wings"],"bee_group":{"antennae":"B","wings":"1","pattern":"X","legs":"X"},"action":"avoid","summary":"good-avoid","bonus":1.500000000000001},{"rt":802.2999999523163,"stimulus":"\n                    <p><b>Action: <em>avoid</em></b></p>\n                    <p>This is the bee that you just saw.</p>\n                    <img src=\"bees-with-color/bee-B1DM.svg\" width=\"200\">\n                    <p><span class=\"greenText\">Good choice!</span>  This bee would have stung you.<br>Your bonus pay is unchanged, and remains at $0.78.</p>\n            ","response":0,"trial_type":"html-button-response","trial_index":98,"time_elapsed":984396,"internal_node_id":"0.0-4.0-1.45","subject_id":"5ec93f6818e0240668b8daaf","study_id":"60edd13110225f80f9f3709b","session_id":"6196c7042e2ad1368624c860","condition":"full-information","relevant_dimensions":["antennae","wings"],"bee_group":{"antennae":"B","wings":"1","pattern":"X","legs":"X"},"bonus":1.500000000000001},{"rt":9742.700000047684,"stimulus":"bees-with-color/bee-A2DM.svg","response":0,"trial_type":"image-button-response","trial_index":99,"time_elapsed":994141,"internal_node_id":"0.0-4.0-0.46","subject_id":"5ec93f6818e0240668b8daaf","study_id":"60edd13110225f80f9f3709b","session_id":"6196c7042e2ad1368624c860","condition":"full-information","relevant_dimensions":["antennae","wings"],"bee_group":{"antennae":"B","wings":"1","pattern":"X","legs":"X"},"action":"harvest","summary":"good-harvest","bonus":1.500000000000001},{"rt":616.2000000476837,"stimulus":"\n                    <p><b>Action: <em>harvest</em></b></p>\n                    <p>This is the bee that you just saw.</p>\n                    <img src=\"bees-with-color/bee-A2DM.svg\" width=\"200\">\n                    <p><span class=\"greenText\"><b>Successful harvest!</b></span><br>Your pay has increased by $0.02. Your bonus pay is now $0.80.</p>\n            ","response":0,"trial_type":"html-button-response","trial_index":100,"time_elapsed":994759,"internal_node_id":"0.0-4.0-1.46","subject_id":"5ec93f6818e0240668b8daaf","study_id":"60edd13110225f80f9f3709b","session_id":"6196c7042e2ad1368624c860","condition":"full-information","relevant_dimensions":["antennae","wings"],"bee_group":{"antennae":"B","wings":"1","pattern":"X","legs":"X"},"bonus":1.500000000000001},{"rt":13327.900000095367,"stimulus":"bees-with-color/bee-A1SF.svg","response":0,"trial_type":"image-button-response","trial_index":101,"time_elapsed":1008089,"internal_node_id":"0.0-4.0-0.47","subject_id":"5ec93f6818e0240668b8daaf","study_id":"60edd13110225f80f9f3709b","session_id":"6196c7042e2ad1368624c860","condition":"full-information","relevant_dimensions":["antennae","wings"],"bee_group":{"antennae":"B","wings":"1","pattern":"X","legs":"X"},"action":"harvest","summary":"good-harvest","bonus":1.500000000000001},{"rt":675.5,"stimulus":"\n                    <p><b>Action: <em>harvest</em></b></p>\n                    <p>This is the bee that you just saw.</p>\n                    <img src=\"bees-with-color/bee-A1SF.svg\" width=\"200\">\n                    <p><span class=\"greenText\"><b>Successful harvest!</b></span><br>Your pay has increased by $0.02. Your bonus pay is now $0.82.</p>\n            ","response":0,"trial_type":"html-button-response","trial_index":102,"time_elapsed":1008766,"internal_node_id":"0.0-4.0-1.47","subject_id":"5ec93f6818e0240668b8daaf","study_id":"60edd13110225f80f9f3709b","session_id":"6196c7042e2ad1368624c860","condition":"full-information","relevant_dimensions":["antennae","wings"],"bee_group":{"antennae":"B","wings":"1","pattern":"X","legs":"X"},"bonus":1.500000000000001},{"rt":10010.5,"stimulus":"bees-with-color/bee-A2DM.svg","response":0,"trial_type":"image-button-response","trial_index":103,"time_elapsed":1018779,"internal_node_id":"0.0-4.0-0.48","subject_id":"5ec93f6818e0240668b8daaf","study_id":"60edd13110225f80f9f3709b","session_id":"6196c7042e2ad1368624c860","condition":"full-information","relevant_dimensions":["antennae","wings"],"bee_group":{"antennae":"B","wings":"1","pattern":"X","legs":"X"},"action":"harvest","summary":"good-harvest","bonus":1.500000000000001},{"rt":682.2000000476837,"stimulus":"\n                    <p><b>Action: <em>harvest</em></b></p>\n                    <p>This is the bee that you just saw.</p>\n                    <img src=\"bees-with-color/bee-A2DM.svg\" width=\"200\">\n                    <p><span class=\"greenText\"><b>Successful harvest!</b></span><br>Your pay has increased by $0.02. Your bonus pay is now $0.84.</p>\n            ","response":0,"trial_type":"html-button-response","trial_index":104,"time_elapsed":1019463,"internal_node_id":"0.0-4.0-1.48","subject_id":"5ec93f6818e0240668b8daaf","study_id":"60edd13110225f80f9f3709b","session_id":"6196c7042e2ad1368624c860","condition":"full-information","relevant_dimensions":["antennae","wings"],"bee_group":{"antennae":"B","wings":"1","pattern":"X","legs":"X"},"bonus":1.500000000000001},{"rt":12797.799999952316,"stimulus":"bees-with-color/bee-A2SF.svg","response":0,"trial_type":"image-button-response","trial_index":105,"time_elapsed":1032263,"internal_node_id":"0.0-4.0-0.49","subject_id":"5ec93f6818e0240668b8daaf","study_id":"60edd13110225f80f9f3709b","session_id":"6196c7042e2ad1368624c860","condition":"full-information","relevant_dimensions":["antennae","wings"],"bee_group":{"antennae":"B","wings":"1","pattern":"X","legs":"X"},"action":"harvest","summary":"good-harvest","bonus":1.500000000000001},{"rt":789.3999998569489,"stimulus":"\n                    <p><b>Action: <em>harvest</em></b></p>\n                    <p>This is the bee that you just saw.</p>\n                    <img src=\"bees-with-color/bee-A2SF.svg\" width=\"200\">\n                    <p><span class=\"greenText\"><b>Successful harvest!</b></span><br>Your pay has increased by $0.02. Your bonus pay is now $0.86.</p>\n            ","response":0,"trial_type":"html-button-response","trial_index":106,"time_elapsed":1033054,"internal_node_id":"0.0-4.0-1.49","subject_id":"5ec93f6818e0240668b8daaf","study_id":"60edd13110225f80f9f3709b","session_id":"6196c7042e2ad1368624c860","condition":"full-information","relevant_dimensions":["antennae","wings"],"bee_group":{"antennae":"B","wings":"1","pattern":"X","legs":"X"},"bonus":1.500000000000001},{"rt":24830.5,"stimulus":"bees-with-color/bee-B2SM.svg","response":0,"trial_type":"image-button-response","trial_index":107,"time_elapsed":1057887,"internal_node_id":"0.0-4.0-0.50","subject_id":"5ec93f6818e0240668b8daaf","study_id":"60edd13110225f80f9f3709b","session_id":"6196c7042e2ad1368624c860","condition":"full-information","relevant_dimensions":["antennae","wings"],"bee_group":{"antennae":"B","wings":"1","pattern":"X","legs":"X"},"action":"harvest","summary":"good-harvest","bonus":1.500000000000001},{"rt":1068.2999999523163,"stimulus":"\n                    <p><b>Action: <em>harvest</em></b></p>\n                    <p>This is the bee that you just saw.</p>\n                    <img src=\"bees-with-color/bee-B2SM.svg\" width=\"200\">\n                    <p><span class=\"greenText\"><b>Successful harvest!</b></span><br>Your pay has increased by $0.02. Your bonus pay is now $0.88.</p>\n            ","response":0,"trial_type":"html-button-response","trial_index":108,"time_elapsed":1058957,"internal_node_id":"0.0-4.0-1.50","subject_id":"5ec93f6818e0240668b8daaf","study_id":"60edd13110225f80f9f3709b","session_id":"6196c7042e2ad1368624c860","condition":"full-information","relevant_dimensions":["antennae","wings"],"bee_group":{"antennae":"B","wings":"1","pattern":"X","legs":"X"},"bonus":1.500000000000001},{"rt":17479.39999985695,"stimulus":"bees-with-color/bee-A1SM.svg","response":0,"trial_type":"image-button-response","trial_index":109,"time_elapsed":1076438,"internal_node_id":"0.0-4.0-0.51","subject_id":"5ec93f6818e0240668b8daaf","study_id":"60edd13110225f80f9f3709b","session_id":"6196c7042e2ad1368624c860","condition":"full-information","relevant_dimensions":["antennae","wings"],"bee_group":{"antennae":"B","wings":"1","pattern":"X","legs":"X"},"action":"harvest","summary":"good-harvest","bonus":1.500000000000001},{"rt":788.2999999523163,"stimulus":"\n                    <p><b>Action: <em>harvest</em></b></p>\n                    <p>This is the bee that you just saw.</p>\n                    <img src=\"bees-with-color/bee-A1SM.svg\" width=\"200\">\n                    <p><span class=\"greenText\"><b>Successful harvest!</b></span><br>Your pay has increased by $0.02. Your bonus pay is now $0.90.</p>\n            ","response":0,"trial_type":"html-button-response","trial_index":110,"time_elapsed":1077228,"internal_node_id":"0.0-4.0-1.51","subject_id":"5ec93f6818e0240668b8daaf","study_id":"60edd13110225f80f9f3709b","session_id":"6196c7042e2ad1368624c860","condition":"full-information","relevant_dimensions":["antennae","wings"],"bee_group":{"antennae":"B","wings":"1","pattern":"X","legs":"X"},"bonus":1.500000000000001},{"rt":19968.5,"stimulus":"bees-with-color/bee-B1SM.svg","response":1,"trial_type":"image-button-response","trial_index":111,"time_elapsed":1097199,"internal_node_id":"0.0-4.0-0.52","subject_id":"5ec93f6818e0240668b8daaf","study_id":"60edd13110225f80f9f3709b","session_id":"6196c7042e2ad1368624c860","condition":"full-information","relevant_dimensions":["antennae","wings"],"bee_group":{"antennae":"B","wings":"1","pattern":"X","legs":"X"},"action":"avoid","summary":"good-avoid","bonus":1.500000000000001},{"rt":11916.600000143051,"stimulus":"\n                    <p><b>Action: <em>avoid</em></b></p>\n                    <p>This is the bee that you just saw.</p>\n                    <img src=\"bees-with-color/bee-B1SM.svg\" width=\"200\">\n                    <p><span class=\"greenText\">Good choice!</span>  This bee would have stung you.<br>Your bonus pay is unchanged, and remains at $0.90.</p>\n            ","response":0,"trial_type":"html-button-response","trial_index":112,"time_elapsed":1109118,"internal_node_id":"0.0-4.0-1.52","subject_id":"5ec93f6818e0240668b8daaf","study_id":"60edd13110225f80f9f3709b","session_id":"6196c7042e2ad1368624c860","condition":"full-information","relevant_dimensions":["antennae","wings"],"bee_group":{"antennae":"B","wings":"1","pattern":"X","legs":"X"},"bonus":1.500000000000001},{"rt":14824.699999809265,"stimulus":"bees-with-color/bee-B2SF.svg","response":1,"trial_type":"image-button-response","trial_index":113,"time_elapsed":1123945,"internal_node_id":"0.0-4.0-0.53","subject_id":"5ec93f6818e0240668b8daaf","study_id":"60edd13110225f80f9f3709b","session_id":"6196c7042e2ad1368624c860","condition":"full-information","relevant_dimensions":["antennae","wings"],"bee_group":{"antennae":"B","wings":"1","pattern":"X","legs":"X"},"action":"avoid","summary":"bad-avoid","bonus":1.500000000000001},{"rt":9874,"stimulus":"\n                    <p><b>Action: <em>avoid</em></b></p>\n                    <p>This is the bee that you just saw.</p>\n                    <img src=\"bees-with-color/bee-B2SF.svg\" width=\"200\">\n                    <p><span class=\"redText\">Bad choice,</span> the bee was friendly.<br>Your bonus pay is unchanged, and remains at $0.90.</p>\n            ","response":0,"trial_type":"html-button-response","trial_index":114,"time_elapsed":1133821,"internal_node_id":"0.0-4.0-1.53","subject_id":"5ec93f6818e0240668b8daaf","study_id":"60edd13110225f80f9f3709b","session_id":"6196c7042e2ad1368624c860","condition":"full-information","relevant_dimensions":["antennae","wings"],"bee_group":{"antennae":"B","wings":"1","pattern":"X","legs":"X"},"bonus":1.500000000000001},{"rt":8491.799999952316,"stimulus":"bees-with-color/bee-B2DF.svg","response":0,"trial_type":"image-button-response","trial_index":115,"time_elapsed":1142315,"internal_node_id":"0.0-4.0-0.54","subject_id":"5ec93f6818e0240668b8daaf","study_id":"60edd13110225f80f9f3709b","session_id":"6196c7042e2ad1368624c860","condition":"full-information","relevant_dimensions":["antennae","wings"],"bee_group":{"antennae":"B","wings":"1","pattern":"X","legs":"X"},"action":"harvest","summary":"good-harvest","bonus":1.500000000000001},{"rt":644.7999999523163,"stimulus":"\n                    <p><b>Action: <em>harvest</em></b></p>\n                    <p>This is the bee that you just saw.</p>\n                    <img src=\"bees-with-color/bee-B2DF.svg\" width=\"200\">\n                    <p><span class=\"greenText\"><b>Successful harvest!</b></span><br>Your pay has increased by $0.02. Your bonus pay is now $0.92.</p>\n            ","response":0,"trial_type":"html-button-response","trial_index":116,"time_elapsed":1142962,"internal_node_id":"0.0-4.0-1.54","subject_id":"5ec93f6818e0240668b8daaf","study_id":"60edd13110225f80f9f3709b","session_id":"6196c7042e2ad1368624c860","condition":"full-information","relevant_dimensions":["antennae","wings"],"bee_group":{"antennae":"B","wings":"1","pattern":"X","legs":"X"},"bonus":1.500000000000001},{"rt":10647,"stimulus":"bees-with-color/bee-B1SF.svg","response":1,"trial_type":"image-button-response","trial_index":117,"time_elapsed":1153611,"internal_node_id":"0.0-4.0-0.55","subject_id":"5ec93f6818e0240668b8daaf","study_id":"60edd13110225f80f9f3709b","session_id":"6196c7042e2ad1368624c860","condition":"full-information","relevant_dimensions":["antennae","wings"],"bee_group":{"antennae":"B","wings":"1","pattern":"X","legs":"X"},"action":"avoid","summary":"good-avoid","bonus":1.500000000000001},{"rt":709.9000000953674,"stimulus":"\n                    <p><b>Action: <em>avoid</em></b></p>\n                    <p>This is the bee that you just saw.</p>\n                    <img src=\"bees-with-color/bee-B1SF.svg\" width=\"200\">\n                    <p><span class=\"greenText\">Good choice!</span>  This bee would have stung you.<br>Your bonus pay is unchanged, and remains at $0.92.</p>\n            ","response":0,"trial_type":"html-button-response","trial_index":118,"time_elapsed":1154323,"internal_node_id":"0.0-4.0-1.55","subject_id":"5ec93f6818e0240668b8daaf","study_id":"60edd13110225f80f9f3709b","session_id":"6196c7042e2ad1368624c860","condition":"full-information","relevant_dimensions":["antennae","wings"],"bee_group":{"antennae":"B","wings":"1","pattern":"X","legs":"X"},"bonus":1.500000000000001},{"rt":16609.900000095367,"stimulus":"bees-with-color/bee-B1DM.svg","response":1,"trial_type":"image-button-response","trial_index":119,"time_elapsed":1170935,"internal_node_id":"0.0-4.0-0.56","subject_id":"5ec93f6818e0240668b8daaf","study_id":"60edd13110225f80f9f3709b","session_id":"6196c7042e2ad1368624c860","condition":"full-information","relevant_dimensions":["antennae","wings"],"bee_group":{"antennae":"B","wings":"1","pattern":"X","legs":"X"},"action":"avoid","summary":"good-avoid","bonus":1.500000000000001},{"rt":9485.200000047684,"stimulus":"\n                    <p><b>Action: <em>avoid</em></b></p>\n                    <p>This is the bee that you just saw.</p>\n                    <img src=\"bees-with-color/bee-B1DM.svg\" width=\"200\">\n                    <p><span class=\"greenText\">Good choice!</span>  This bee would have stung you.<br>Your bonus pay is unchanged, and remains at $0.92.</p>\n            ","response":0,"trial_type":"html-button-response","trial_index":120,"time_elapsed":1180422,"internal_node_id":"0.0-4.0-1.56","subject_id":"5ec93f6818e0240668b8daaf","study_id":"60edd13110225f80f9f3709b","session_id":"6196c7042e2ad1368624c860","condition":"full-information","relevant_dimensions":["antennae","wings"],"bee_group":{"antennae":"B","wings":"1","pattern":"X","legs":"X"},"bonus":1.500000000000001},{"rt":7417.899999856949,"stimulus":"bees-with-color/bee-A1SF.svg","response":0,"trial_type":"image-button-response","trial_index":121,"time_elapsed":1187842,"internal_node_id":"0.0-4.0-0.57","subject_id":"5ec93f6818e0240668b8daaf","study_id":"60edd13110225f80f9f3709b","session_id":"6196c7042e2ad1368624c860","condition":"full-information","relevant_dimensions":["antennae","wings"],"bee_group":{"antennae":"B","wings":"1","pattern":"X","legs":"X"},"action":"harvest","summary":"good-harvest","bonus":1.500000000000001},{"rt":685.2999999523163,"stimulus":"\n                    <p><b>Action: <em>harvest</em></b></p>\n                    <p>This is the bee that you just saw.</p>\n                    <img src=\"bees-with-color/bee-A1SF.svg\" width=\"200\">\n                    <p><span class=\"greenText\"><b>Successful harvest!</b></span><br>Your pay has increased by $0.02. Your bonus pay is now $0.94.</p>\n            ","response":0,"trial_type":"html-button-response","trial_index":122,"time_elapsed":1188529,"internal_node_id":"0.0-4.0-1.57","subject_id":"5ec93f6818e0240668b8daaf","study_id":"60edd13110225f80f9f3709b","session_id":"6196c7042e2ad1368624c860","condition":"full-information","relevant_dimensions":["antennae","wings"],"bee_group":{"antennae":"B","wings":"1","pattern":"X","legs":"X"},"bonus":1.500000000000001},{"rt":6802.5,"stimulus":"bees-with-color/bee-A2SM.svg","response":0,"trial_type":"image-button-response","trial_index":123,"time_elapsed":1195334,"internal_node_id":"0.0-4.0-0.58","subject_id":"5ec93f6818e0240668b8daaf","study_id":"60edd13110225f80f9f3709b","session_id":"6196c7042e2ad1368624c860","condition":"full-information","relevant_dimensions":["antennae","wings"],"bee_group":{"antennae":"B","wings":"1","pattern":"X","legs":"X"},"action":"harvest","summary":"good-harvest","bonus":1.500000000000001},{"rt":576.9000000953674,"stimulus":"\n                    <p><b>Action: <em>harvest</em></b></p>\n                    <p>This is the bee that you just saw.</p>\n                    <img src=\"bees-with-color/bee-A2SM.svg\" width=\"200\">\n                    <p><span class=\"greenText\"><b>Successful harvest!</b></span><br>Your pay has increased by $0.02. Your bonus pay is now $0.96.</p>\n            ","response":0,"trial_type":"html-button-response","trial_index":124,"time_elapsed":1195913,"internal_node_id":"0.0-4.0-1.58","subject_id":"5ec93f6818e0240668b8daaf","study_id":"60edd13110225f80f9f3709b","session_id":"6196c7042e2ad1368624c860","condition":"full-information","relevant_dimensions":["antennae","wings"],"bee_group":{"antennae":"B","wings":"1","pattern":"X","legs":"X"},"bonus":1.500000000000001},{"rt":16457.400000095367,"stimulus":"bees-with-color/bee-B2DM.svg","response":0,"trial_type":"image-button-response","trial_index":125,"time_elapsed":1212373,"internal_node_id":"0.0-4.0-0.59","subject_id":"5ec93f6818e0240668b8daaf","study_id":"60edd13110225f80f9f3709b","session_id":"6196c7042e2ad1368624c860","condition":"full-information","relevant_dimensions":["antennae","wings"],"bee_group":{"antennae":"B","wings":"1","pattern":"X","legs":"X"},"action":"harvest","summary":"good-harvest","bonus":1.500000000000001},{"rt":641.2999999523163,"stimulus":"\n                    <p><b>Action: <em>harvest</em></b></p>\n                    <p>This is the bee that you just saw.</p>\n                    <img src=\"bees-with-color/bee-B2DM.svg\" width=\"200\">\n                    <p><span class=\"greenText\"><b>Successful harvest!</b></span><br>Your pay has increased by $0.02. Your bonus pay is now $0.98.</p>\n            ","response":0,"trial_type":"html-button-response","trial_index":126,"time_elapsed":1213016,"internal_node_id":"0.0-4.0-1.59","subject_id":"5ec93f6818e0240668b8daaf","study_id":"60edd13110225f80f9f3709b","session_id":"6196c7042e2ad1368624c860","condition":"full-information","relevant_dimensions":["antennae","wings"],"bee_group":{"antennae":"B","wings":"1","pattern":"X","legs":"X"},"bonus":1.500000000000001},{"rt":20784.099999904633,"stimulus":"bees-with-color/bee-A1DF.svg","response":0,"trial_type":"image-button-response","trial_index":127,"time_elapsed":1233802,"internal_node_id":"0.0-4.0-0.60","subject_id":"5ec93f6818e0240668b8daaf","study_id":"60edd13110225f80f9f3709b","session_id":"6196c7042e2ad1368624c860","condition":"full-information","relevant_dimensions":["antennae","wings"],"bee_group":{"antennae":"B","wings":"1","pattern":"X","legs":"X"},"action":"harvest","summary":"good-harvest","bonus":1.500000000000001},{"rt":654,"stimulus":"\n                    <p><b>Action: <em>harvest</em></b></p>\n                    <p>This is the bee that you just saw.</p>\n                    <img src=\"bees-with-color/bee-A1DF.svg\" width=\"200\">\n                    <p><span class=\"greenText\"><b>Successful harvest!</b></span><br>Your pay has increased by $0.02. Your bonus pay is now $1.00.</p>\n            ","response":0,"trial_type":"html-button-response","trial_index":128,"time_elapsed":1234459,"internal_node_id":"0.0-4.0-1.60","subject_id":"5ec93f6818e0240668b8daaf","study_id":"60edd13110225f80f9f3709b","session_id":"6196c7042e2ad1368624c860","condition":"full-information","relevant_dimensions":["antennae","wings"],"bee_group":{"antennae":"B","wings":"1","pattern":"X","legs":"X"},"bonus":1.500000000000001},{"rt":10055.899999856949,"stimulus":"bees-with-color/bee-B1DF.svg","response":1,"trial_type":"image-button-response","trial_index":129,"time_elapsed":1244517,"internal_node_id":"0.0-4.0-0.61","subject_id":"5ec93f6818e0240668b8daaf","study_id":"60edd13110225f80f9f3709b","session_id":"6196c7042e2ad1368624c860","condition":"full-information","relevant_dimensions":["antennae","wings"],"bee_group":{"antennae":"B","wings":"1","pattern":"X","legs":"X"},"action":"avoid","summary":"good-avoid","bonus":1.500000000000001},{"rt":735.3999998569489,"stimulus":"\n                    <p><b>Action: <em>avoid</em></b></p>\n                    <p>This is the bee that you just saw.</p>\n                    <img src=\"bees-with-color/bee-B1DF.svg\" width=\"200\">\n                    <p><span class=\"greenText\">Good choice!</span>  This bee would have stung you.<br>Your bonus pay is unchanged, and remains at $1.00.</p>\n            ","response":0,"trial_type":"html-button-response","trial_index":130,"time_elapsed":1245254,"internal_node_id":"0.0-4.0-1.61","subject_id":"5ec93f6818e0240668b8daaf","study_id":"60edd13110225f80f9f3709b","session_id":"6196c7042e2ad1368624c860","condition":"full-information","relevant_dimensions":["antennae","wings"],"bee_group":{"antennae":"B","wings":"1","pattern":"X","legs":"X"},"bonus":1.500000000000001},{"rt":24119.599999904633,"stimulus":"bees-with-color/bee-A2DF.svg","response":1,"trial_type":"image-button-response","trial_index":131,"time_elapsed":1269375,"internal_node_id":"0.0-4.0-0.62","subject_id":"5ec93f6818e0240668b8daaf","study_id":"60edd13110225f80f9f3709b","session_id":"6196c7042e2ad1368624c860","condition":"full-information","relevant_dimensions":["antennae","wings"],"bee_group":{"antennae":"B","wings":"1","pattern":"X","legs":"X"},"action":"avoid","summary":"bad-avoid","bonus":1.500000000000001},{"rt":912.3999998569489,"stimulus":"\n                    <p><b>Action: <em>avoid</em></b></p>\n                    <p>This is the bee that you just saw.</p>\n                    <img src=\"bees-with-color/bee-A2DF.svg\" width=\"200\">\n                    <p><span class=\"redText\">Bad choice,</span> the bee was friendly.<br>Your bonus pay is unchanged, and remains at $1.00.</p>\n            ","response":0,"trial_type":"html-button-response","trial_index":132,"time_elapsed":1270290,"internal_node_id":"0.0-4.0-1.62","subject_id":"5ec93f6818e0240668b8daaf","study_id":"60edd13110225f80f9f3709b","session_id":"6196c7042e2ad1368624c860","condition":"full-information","relevant_dimensions":["antennae","wings"],"bee_group":{"antennae":"B","wings":"1","pattern":"X","legs":"X"},"bonus":1.500000000000001},{"rt":16648.400000095367,"stimulus":"bees-with-color/bee-A1DM.svg","response":0,"trial_type":"image-button-response","trial_index":133,"time_elapsed":1286940,"internal_node_id":"0.0-4.0-0.63","subject_id":"5ec93f6818e0240668b8daaf","study_id":"60edd13110225f80f9f3709b","session_id":"6196c7042e2ad1368624c860","condition":"full-information","relevant_dimensions":["antennae","wings"],"bee_group":{"antennae":"B","wings":"1","pattern":"X","legs":"X"},"action":"harvest","summary":"good-harvest","bonus":1.500000000000001},{"rt":933.0999999046326,"stimulus":"\n                    <p><b>Action: <em>harvest</em></b></p>\n                    <p>This is the bee that you just saw.</p>\n                    <img src=\"bees-with-color/bee-A1DM.svg\" width=\"200\">\n                    <p><span class=\"greenText\"><b>Successful harvest!</b></span><br>Your pay has increased by $0.02. Your bonus pay is now $1.02.</p>\n            ","response":0,"trial_type":"html-button-response","trial_index":134,"time_elapsed":1287875,"internal_node_id":"0.0-4.0-1.63","subject_id":"5ec93f6818e0240668b8daaf","study_id":"60edd13110225f80f9f3709b","session_id":"6196c7042e2ad1368624c860","condition":"full-information","relevant_dimensions":["antennae","wings"],"bee_group":{"antennae":"B","wings":"1","pattern":"X","legs":"X"},"bonus":1.500000000000001},{"rt":5802.5,"stimulus":"You have completed the first part of this experiment.<br><br>You will now begin a shorter second part, in which you will receive no feedback.<br>The same rules regarding bonus pay apply.<br><br>Press any key to begin.","response":" ","trial_type":"html-keyboard-response","trial_index":135,"time_elapsed":1293680,"internal_node_id":"0.0-5.0","subject_id":"5ec93f6818e0240668b8daaf","study_id":"60edd13110225f80f9f3709b","session_id":"6196c7042e2ad1368624c860","condition":"full-information","relevant_dimensions":["antennae","wings"],"bee_group":{"antennae":"B","wings":"1","pattern":"X","legs":"X"},"bonus":1.500000000000001},{"rt":60708,"stimulus":"bees-with-color/bee-B1DM.svg","response":1,"trial_type":"image-button-response","trial_index":136,"time_elapsed":1354400,"internal_node_id":"0.0-6.0-0.0","subject_id":"5ec93f6818e0240668b8daaf","study_id":"60edd13110225f80f9f3709b","session_id":"6196c7042e2ad1368624c860","condition":"full-information","relevant_dimensions":["antennae","wings"],"bee_group":{"antennae":"B","wings":"1","pattern":"X","legs":"X"},"bonus":1.500000000000001},{"rt":18850,"stimulus":"bees-with-color/bee-B2DF.svg","response":0,"trial_type":"image-button-response","trial_index":137,"time_elapsed":1373253,"internal_node_id":"0.0-6.0-0.1","subject_id":"5ec93f6818e0240668b8daaf","study_id":"60edd13110225f80f9f3709b","session_id":"6196c7042e2ad1368624c860","condition":"full-information","relevant_dimensions":["antennae","wings"],"bee_group":{"antennae":"B","wings":"1","pattern":"X","legs":"X"},"bonus":1.500000000000001},{"rt":7974,"stimulus":"bees-with-color/bee-B1DF.svg","response":1,"trial_type":"image-button-response","trial_index":138,"time_elapsed":1381230,"internal_node_id":"0.0-6.0-0.2","subject_id":"5ec93f6818e0240668b8daaf","study_id":"60edd13110225f80f9f3709b","session_id":"6196c7042e2ad1368624c860","condition":"full-information","relevant_dimensions":["antennae","wings"],"bee_group":{"antennae":"B","wings":"1","pattern":"X","legs":"X"},"bonus":1.500000000000001},{"rt":6781.700000047684,"stimulus":"bees-with-color/bee-A1DF.svg","response":0,"trial_type":"image-button-response","trial_index":139,"time_elapsed":1388015,"internal_node_id":"0.0-6.0-0.3","subject_id":"5ec93f6818e0240668b8daaf","study_id":"60edd13110225f80f9f3709b","session_id":"6196c7042e2ad1368624c860","condition":"full-information","relevant_dimensions":["antennae","wings"],"bee_group":{"antennae":"B","wings":"1","pattern":"X","legs":"X"},"bonus":1.500000000000001},{"rt":7912.900000095367,"stimulus":"bees-with-color/bee-A2SF.svg","response":0,"trial_type":"image-button-response","trial_index":140,"time_elapsed":1395931,"internal_node_id":"0.0-6.0-0.4","subject_id":"5ec93f6818e0240668b8daaf","study_id":"60edd13110225f80f9f3709b","session_id":"6196c7042e2ad1368624c860","condition":"full-information","relevant_dimensions":["antennae","wings"],"bee_group":{"antennae":"B","wings":"1","pattern":"X","legs":"X"},"bonus":1.500000000000001},{"rt":5501.599999904633,"stimulus":"bees-with-color/bee-A2SM.svg","response":0,"trial_type":"image-button-response","trial_index":141,"time_elapsed":1401436,"internal_node_id":"0.0-6.0-0.5","subject_id":"5ec93f6818e0240668b8daaf","study_id":"60edd13110225f80f9f3709b","session_id":"6196c7042e2ad1368624c860","condition":"full-information","relevant_dimensions":["antennae","wings"],"bee_group":{"antennae":"B","wings":"1","pattern":"X","legs":"X"},"bonus":1.500000000000001},{"rt":12123.100000143051,"stimulus":"bees-with-color/bee-A1SF.svg","response":0,"trial_type":"image-button-response","trial_index":142,"time_elapsed":1413563,"internal_node_id":"0.0-6.0-0.6","subject_id":"5ec93f6818e0240668b8daaf","study_id":"60edd13110225f80f9f3709b","session_id":"6196c7042e2ad1368624c860","condition":"full-information","relevant_dimensions":["antennae","wings"],"bee_group":{"antennae":"B","wings":"1","pattern":"X","legs":"X"},"bonus":1.500000000000001},{"rt":10968.700000047684,"stimulus":"bees-with-color/bee-B2SF.svg","response":0,"trial_type":"image-button-response","trial_index":143,"time_elapsed":1424534,"internal_node_id":"0.0-6.0-0.7","subject_id":"5ec93f6818e0240668b8daaf","study_id":"60edd13110225f80f9f3709b","session_id":"6196c7042e2ad1368624c860","condition":"full-information","relevant_dimensions":["antennae","wings"],"bee_group":{"antennae":"B","wings":"1","pattern":"X","legs":"X"},"bonus":1.500000000000001},{"rt":29431.700000047684,"stimulus":"bees-with-color/bee-A2DF.svg","response":0,"trial_type":"image-button-response","trial_index":144,"time_elapsed":1453969,"internal_node_id":"0.0-6.0-0.8","subject_id":"5ec93f6818e0240668b8daaf","study_id":"60edd13110225f80f9f3709b","session_id":"6196c7042e2ad1368624c860","condition":"full-information","relevant_dimensions":["antennae","wings"],"bee_group":{"antennae":"B","wings":"1","pattern":"X","legs":"X"},"bonus":1.500000000000001},{"rt":8891.600000143051,"stimulus":"bees-with-color/bee-B2SM.svg","response":0,"trial_type":"image-button-response","trial_index":145,"time_elapsed":1462864,"internal_node_id":"0.0-6.0-0.9","subject_id":"5ec93f6818e0240668b8daaf","study_id":"60edd13110225f80f9f3709b","session_id":"6196c7042e2ad1368624c860","condition":"full-information","relevant_dimensions":["antennae","wings"],"bee_group":{"antennae":"B","wings":"1","pattern":"X","legs":"X"},"bonus":1.500000000000001},{"rt":10678.299999952316,"stimulus":"bees-with-color/bee-B1SF.svg","response":1,"trial_type":"image-button-response","trial_index":146,"time_elapsed":1473545,"internal_node_id":"0.0-6.0-0.10","subject_id":"5ec93f6818e0240668b8daaf","study_id":"60edd13110225f80f9f3709b","session_id":"6196c7042e2ad1368624c860","condition":"full-information","relevant_dimensions":["antennae","wings"],"bee_group":{"antennae":"B","wings":"1","pattern":"X","legs":"X"},"bonus":1.500000000000001},{"rt":7639.700000047684,"stimulus":"bees-with-color/bee-B1SM.svg","response":1,"trial_type":"image-button-response","trial_index":147,"time_elapsed":1481188,"internal_node_id":"0.0-6.0-0.11","subject_id":"5ec93f6818e0240668b8daaf","study_id":"60edd13110225f80f9f3709b","session_id":"6196c7042e2ad1368624c860","condition":"full-information","relevant_dimensions":["antennae","wings"],"bee_group":{"antennae":"B","wings":"1","pattern":"X","legs":"X"},"bonus":1.500000000000001},{"rt":4481.5,"stimulus":"bees-with-color/bee-A2DM.svg","response":0,"trial_type":"image-button-response","trial_index":148,"time_elapsed":1485673,"internal_node_id":"0.0-6.0-0.12","subject_id":"5ec93f6818e0240668b8daaf","study_id":"60edd13110225f80f9f3709b","session_id":"6196c7042e2ad1368624c860","condition":"full-information","relevant_dimensions":["antennae","wings"],"bee_group":{"antennae":"B","wings":"1","pattern":"X","legs":"X"},"bonus":1.500000000000001},{"rt":758.2000000476837,"stimulus":"bees-with-color/bee-B2DM.svg","response":0,"trial_type":"image-button-response","trial_index":149,"time_elapsed":1486434,"internal_node_id":"0.0-6.0-0.13","subject_id":"5ec93f6818e0240668b8daaf","study_id":"60edd13110225f80f9f3709b","session_id":"6196c7042e2ad1368624c860","condition":"full-information","relevant_dimensions":["antennae","wings"],"bee_group":{"antennae":"B","wings":"1","pattern":"X","legs":"X"},"bonus":1.500000000000001},{"rt":25097.299999952316,"stimulus":"bees-with-color/bee-A1SM.svg","response":0,"trial_type":"image-button-response","trial_index":150,"time_elapsed":1511534,"internal_node_id":"0.0-6.0-0.14","subject_id":"5ec93f6818e0240668b8daaf","study_id":"60edd13110225f80f9f3709b","session_id":"6196c7042e2ad1368624c860","condition":"full-information","relevant_dimensions":["antennae","wings"],"bee_group":{"antennae":"B","wings":"1","pattern":"X","legs":"X"},"bonus":1.500000000000001},{"rt":7448,"stimulus":"bees-with-color/bee-A1DM.svg","response":0,"trial_type":"image-button-response","trial_index":151,"time_elapsed":1518986,"internal_node_id":"0.0-6.0-0.15","subject_id":"5ec93f6818e0240668b8daaf","study_id":"60edd13110225f80f9f3709b","session_id":"6196c7042e2ad1368624c860","condition":"full-information","relevant_dimensions":["antennae","wings"],"bee_group":{"antennae":"B","wings":"1","pattern":"X","legs":"X"},"bonus":1.500000000000001},{"rt":1670.4000000953674,"stimulus":"bees-with-color/bee-A2DM.svg","response":0,"trial_type":"image-button-response","trial_index":152,"time_elapsed":1520659,"internal_node_id":"0.0-6.0-0.16","subject_id":"5ec93f6818e0240668b8daaf","study_id":"60edd13110225f80f9f3709b","session_id":"6196c7042e2ad1368624c860","condition":"full-information","relevant_dimensions":["antennae","wings"],"bee_group":{"antennae":"B","wings":"1","pattern":"X","legs":"X"},"bonus":1.500000000000001},{"rt":724.5,"stimulus":"bees-with-color/bee-B2SF.svg","response":0,"trial_type":"image-button-response","trial_index":153,"time_elapsed":1521387,"internal_node_id":"0.0-6.0-0.17","subject_id":"5ec93f6818e0240668b8daaf","study_id":"60edd13110225f80f9f3709b","session_id":"6196c7042e2ad1368624c860","condition":"full-information","relevant_dimensions":["antennae","wings"],"bee_group":{"antennae":"B","wings":"1","pattern":"X","legs":"X"},"bonus":1.500000000000001},{"rt":2143,"stimulus":"bees-with-color/bee-B1SF.svg","response":1,"trial_type":"image-button-response","trial_index":154,"time_elapsed":1523536,"internal_node_id":"0.0-6.0-0.18","subject_id":"5ec93f6818e0240668b8daaf","study_id":"60edd13110225f80f9f3709b","session_id":"6196c7042e2ad1368624c860","condition":"full-information","relevant_dimensions":["antennae","wings"],"bee_group":{"antennae":"B","wings":"1","pattern":"X","legs":"X"},"bonus":1.500000000000001},{"rt":3594.600000143051,"stimulus":"bees-with-color/bee-A1SM.svg","response":0,"trial_type":"image-button-response","trial_index":155,"time_elapsed":1527133,"internal_node_id":"0.0-6.0-0.19","subject_id":"5ec93f6818e0240668b8daaf","study_id":"60edd13110225f80f9f3709b","session_id":"6196c7042e2ad1368624c860","condition":"full-information","relevant_dimensions":["antennae","wings"],"bee_group":{"antennae":"B","wings":"1","pattern":"X","legs":"X"},"bonus":1.500000000000001},{"rt":3701.2000000476837,"stimulus":"bees-with-color/bee-A1DM.svg","response":0,"trial_type":"image-button-response","trial_index":156,"time_elapsed":1530836,"internal_node_id":"0.0-6.0-0.20","subject_id":"5ec93f6818e0240668b8daaf","study_id":"60edd13110225f80f9f3709b","session_id":"6196c7042e2ad1368624c860","condition":"full-information","relevant_dimensions":["antennae","wings"],"bee_group":{"antennae":"B","wings":"1","pattern":"X","legs":"X"},"bonus":1.500000000000001},{"rt":3135.2999999523163,"stimulus":"bees-with-color/bee-A1SF.svg","response":0,"trial_type":"image-button-response","trial_index":157,"time_elapsed":1533975,"internal_node_id":"0.0-6.0-0.21","subject_id":"5ec93f6818e0240668b8daaf","study_id":"60edd13110225f80f9f3709b","session_id":"6196c7042e2ad1368624c860","condition"