[{"success":true,"trial_type":"fullscreen","trial_index":0,"time_elapsed":7311,"internal_node_id":"0.0-0.0","subject_id":"5f7b40dfe5a7dd0b4c02d611","study_id":"60edd13110225f80f9f3709b","session_id":"6196c708b633ae8b44261b91","condition":"full-information","relevant_dimensions":["pattern","legs"],"bee_group":{"antennae":"X","wings":"X","pattern":"D","legs":"F"},"bonus":0.8600000000000005},{"success":true,"timeout":false,"failed_images":[],"failed_audio":[],"failed_video":[],"trial_type":"preload","trial_index":1,"time_elapsed":8933,"internal_node_id":"0.0-1.0","subject_id":"5f7b40dfe5a7dd0b4c02d611","study_id":"60edd13110225f80f9f3709b","session_id":"6196c708b633ae8b44261b91","condition":"full-information","relevant_dimensions":["pattern","legs"],"bee_group":{"antennae":"X","wings":"X","pattern":"D","legs":"F"},"bonus":0.8600000000000005},{"rt":2380,"stimulus":"Welcome! Press any key to begin.","response":" ","trial_type":"html-keyboard-response","trial_index":2,"time_elapsed":11313,"internal_node_id":"0.0-2.0","subject_id":"5f7b40dfe5a7dd0b4c02d611","study_id":"60edd13110225f80f9f3709b","session_id":"6196c708b633ae8b44261b91","condition":"full-information","relevant_dimensions":["pattern","legs"],"bee_group":{"antennae":"X","wings":"X","pattern":"D","legs":"F"},"bonus":0.8600000000000005},{"view_history":[{"page_index":0,"viewing_time":10204.199999999255},{"page_index":1,"viewing_time":13307.900000000373},{"page_index":2,"viewing_time":12909.900000000373},{"page_index":3,"viewing_time":18255.099999999627},{"page_index":4,"viewing_time":7700.0999999996275},{"page_index":5,"viewing_time":5247},{"page_index":6,"viewing_time":11625},{"page_index":7,"viewing_time":5367.5},{"page_index":8,"viewing_time":3146.699999999255},{"page_index":9,"viewing_time":2781.7000000011176},{"page_index":10,"viewing_time":2443.9000000003725},{"page_index":11,"viewing_time":14445.099999999627},{"page_index":12,"viewing_time":4690},{"page_index":13,"viewing_time":1327.7999999988824},{"page_index":14,"viewing_time":2606.300000000745}],"rt":116058.5,"trial_type":"instructions","trial_index":3,"time_elapsed":127371,"internal_node_id":"0.0-3.0-0.0","subject_id":"5f7b40dfe5a7dd0b4c02d611","study_id":"60edd13110225f80f9f3709b","session_id":"6196c708b633ae8b44261b91","condition":"full-information","relevant_dimensions":["pattern","legs"],"bee_group":{"antennae":"X","wings":"X","pattern":"D","legs":"F"},"bonus":0.8600000000000005},{"rt":12882.60000000149,"response":{"Q0":["Two or six legs","Stripes or spots on body","Single or double wings","Antennae or no antennae"]},"question_order":[0],"trial_type":"survey-multi-select","trial_index":4,"time_elapsed":140258,"internal_node_id":"0.0-3.0-1.0","subject_id":"5f7b40dfe5a7dd0b4c02d611","study_id":"60edd13110225f80f9f3709b","session_id":"6196c708b633ae8b44261b91","condition":"full-information","relevant_dimensions":["pattern","legs"],"bee_group":{"antennae":"X","wings":"X","pattern":"D","legs":"F"},"correct":true,"bonus":0.8600000000000005},{"rt":25399.599999999627,"response":{"Q1":"No.","Q2":"Based on the four features of the bee.","Q3":"You learn if it was friendly or dangerous, but do not alter your bonus."},"question_order":[0,1,2],"trial_type":"survey-multi-choice","trial_index":5,"time_elapsed":165659,"internal_node_id":"0.0-3.0-2.0","subject_id":"5f7b40dfe5a7dd0b4c02d611","study_id":"60edd13110225f80f9f3709b","session_id":"6196c708b633ae8b44261b91","condition":"full-information","relevant_dimensions":["pattern","legs"],"bee_group":{"antennae":"X","wings":"X","pattern":"D","legs":"F"},"correct":true,"bonus":0.8600000000000005},{"rt":3052.2999999988824,"stimulus":"<p>Congrats, you got everything right<br>When you're ready, click the button below to continue to the experiment.</p>","response":0,"trial_type":"html-button-response","trial_index":6,"time_elapsed":168712,"internal_node_id":"0.0-3.0-3.0","subject_id":"5f7b40dfe5a7dd0b4c02d611","study_id":"60edd13110225f80f9f3709b","session_id":"6196c708b633ae8b44261b91","condition":"full-information","relevant_dimensions":["pattern","legs"],"bee_group":{"antennae":"X","wings":"X","pattern":"D","legs":"F"},"bonus":0.8600000000000005},{"rt":20026.900000000373,"stimulus":"bees-with-color/bee-B2SM.svg","response":1,"trial_type":"image-button-response","trial_index":7,"time_elapsed":188742,"internal_node_id":"0.0-4.0-0.0","subject_id":"5f7b40dfe5a7dd0b4c02d611","study_id":"60edd13110225f80f9f3709b","session_id":"6196c708b633ae8b44261b91","condition":"full-information","relevant_dimensions":["pattern","legs"],"bee_group":{"antennae":"X","wings":"X","pattern":"D","legs":"F"},"action":"avoid","summary":"bad-avoid","bonus":0.8600000000000005},{"rt":3329.5999999996275,"stimulus":"\n                    <p><b>Action: <em>avoid</em></b></p>\n                    <p>This is the bee that you just saw.</p>\n                    <img src=\"bees-with-color/bee-B2SM.svg\" width=\"200\">\n                    <p><span class=\"redText\">Bad choice,</span> the bee was friendly.<br>Your bonus pay is unchanged, and remains at $0.54.</p>\n            ","response":0,"trial_type":"html-button-response","trial_index":8,"time_elapsed":192073,"internal_node_id":"0.0-4.0-1.0","subject_id":"5f7b40dfe5a7dd0b4c02d611","study_id":"60edd13110225f80f9f3709b","session_id":"6196c708b633ae8b44261b91","condition":"full-information","relevant_dimensions":["pattern","legs"],"bee_group":{"antennae":"X","wings":"X","pattern":"D","legs":"F"},"bonus":0.8600000000000005},{"rt":2883.800000000745,"stimulus":"bees-with-color/bee-B2DF.svg","response":1,"trial_type":"image-button-response","trial_index":9,"time_elapsed":194958,"internal_node_id":"0.0-4.0-0.1","subject_id":"5f7b40dfe5a7dd0b4c02d611","study_id":"60edd13110225f80f9f3709b","session_id":"6196c708b633ae8b44261b91","condition":"full-information","relevant_dimensions":["pattern","legs"],"bee_group":{"antennae":"X","wings":"X","pattern":"D","legs":"F"},"action":"avoid","summary":"good-avoid","bonus":0.8600000000000005},{"rt":2001.5,"stimulus":"\n                    <p><b>Action: <em>avoid</em></b></p>\n                    <p>This is the bee that you just saw.</p>\n                    <img src=\"bees-with-color/bee-B2DF.svg\" width=\"200\">\n                    <p><span class=\"greenText\">Good choice!</span>  This bee would have stung you.<br>Your bonus pay is unchanged, and remains at $0.54.</p>\n            ","response":0,"trial_type":"html-button-response","trial_index":10,"time_elapsed":196961,"internal_node_id":"0.0-4.0-1.1","subject_id":"5f7b40dfe5a7dd0b4c02d611","study_id":"60edd13110225f80f9f3709b","session_id":"6196c708b633ae8b44261b91","condition":"full-information","relevant_dimensions":["pattern","legs"],"bee_group":{"antennae":"X","wings":"X","pattern":"D","legs":"F"},"bonus":0.8600000000000005},{"rt":1968.5,"stimulus":"bees-with-color/bee-A1DM.svg","response":1,"trial_type":"image-button-response","trial_index":11,"time_elapsed":198931,"internal_node_id":"0.0-4.0-0.2","subject_id":"5f7b40dfe5a7dd0b4c02d611","study_id":"60edd13110225f80f9f3709b","session_id":"6196c708b633ae8b44261b91","condition":"full-information","relevant_dimensions":["pattern","legs"],"bee_group":{"antennae":"X","wings":"X","pattern":"D","legs":"F"},"action":"avoid","summary":"bad-avoid","bonus":0.8600000000000005},{"rt":1721.9000000003725,"stimulus":"\n                    <p><b>Action: <em>avoid</em></b></p>\n                    <p>This is the bee that you just saw.</p>\n                    <img src=\"bees-with-color/bee-A1DM.svg\" width=\"200\">\n                    <p><span class=\"redText\">Bad choice,</span> the bee was friendly.<br>Your bonus pay is unchanged, and remains at $0.54.</p>\n            ","response":0,"trial_type":"html-button-response","trial_index":12,"time_elapsed":200654,"internal_node_id":"0.0-4.0-1.2","subject_id":"5f7b40dfe5a7dd0b4c02d611","study_id":"60edd13110225f80f9f3709b","session_id":"6196c708b633ae8b44261b91","condition":"full-information","relevant_dimensions":["pattern","legs"],"bee_group":{"antennae":"X","wings":"X","pattern":"D","legs":"F"},"bonus":0.8600000000000005},{"rt":1691.3999999985099,"stimulus":"bees-with-color/bee-A2SM.svg","response":0,"trial_type":"image-button-response","trial_index":13,"time_elapsed":202347,"internal_node_id":"0.0-4.0-0.3","subject_id":"5f7b40dfe5a7dd0b4c02d611","study_id":"60edd13110225f80f9f3709b","session_id":"6196c708b633ae8b44261b91","condition":"full-information","relevant_dimensions":["pattern","legs"],"bee_group":{"antennae":"X","wings":"X","pattern":"D","legs":"F"},"action":"harvest","summary":"good-harvest","bonus":0.8600000000000005},{"rt":1799.4000000003725,"stimulus":"\n                    <p><b>Action: <em>harvest</em></b></p>\n                    <p>This is the bee that you just saw.</p>\n                    <img src=\"bees-with-color/bee-A2SM.svg\" width=\"200\">\n                    <p><span class=\"greenText\"><b>Successful harvest!</b></span><br>Your pay has increased by $0.02. Your bonus pay is now $0.56.</p>\n            ","response":0,"trial_type":"html-button-response","trial_index":14,"time_elapsed":204147,"internal_node_id":"0.0-4.0-1.3","subject_id":"5f7b40dfe5a7dd0b4c02d611","study_id":"60edd13110225f80f9f3709b","session_id":"6196c708b633ae8b44261b91","condition":"full-information","relevant_dimensions":["pattern","legs"],"bee_group":{"antennae":"X","wings":"X","pattern":"D","legs":"F"},"bonus":0.8600000000000005},{"rt":3991.7000000011176,"stimulus":"bees-with-color/bee-B1SM.svg","response":1,"trial_type":"image-button-response","trial_index":15,"time_elapsed":208140,"internal_node_id":"0.0-4.0-0.4","subject_id":"5f7b40dfe5a7dd0b4c02d611","study_id":"60edd13110225f80f9f3709b","session_id":"6196c708b633ae8b44261b91","condition":"full-information","relevant_dimensions":["pattern","legs"],"bee_group":{"antennae":"X","wings":"X","pattern":"D","legs":"F"},"action":"avoid","summary":"bad-avoid","bonus":0.8600000000000005},{"rt":868.7000000011176,"stimulus":"\n                    <p><b>Action: <em>avoid</em></b></p>\n                    <p>This is the bee that you just saw.</p>\n                    <img src=\"bees-with-color/bee-B1SM.svg\" width=\"200\">\n                    <p><span class=\"redText\">Bad choice,</span> the bee was friendly.<br>Your bonus pay is unchanged, and remains at $0.56.</p>\n            ","response":0,"trial_type":"html-button-response","trial_index":16,"time_elapsed":209010,"internal_node_id":"0.0-4.0-1.4","subject_id":"5f7b40dfe5a7dd0b4c02d611","study_id":"60edd13110225f80f9f3709b","session_id":"6196c708b633ae8b44261b91","condition":"full-information","relevant_dimensions":["pattern","legs"],"bee_group":{"antennae":"X","wings":"X","pattern":"D","legs":"F"},"bonus":0.8600000000000005},{"rt":1234.199999999255,"stimulus":"bees-with-color/bee-A1SM.svg","response":0,"trial_type":"image-button-response","trial_index":17,"time_elapsed":210247,"internal_node_id":"0.0-4.0-0.5","subject_id":"5f7b40dfe5a7dd0b4c02d611","study_id":"60edd13110225f80f9f3709b","session_id":"6196c708b633ae8b44261b91","condition":"full-information","relevant_dimensions":["pattern","legs"],"bee_group":{"antennae":"X","wings":"X","pattern":"D","legs":"F"},"action":"harvest","summary":"good-harvest","bonus":0.8600000000000005},{"rt":683.2000000011176,"stimulus":"\n                    <p><b>Action: <em>harvest</em></b></p>\n                    <p>This is the bee that you just saw.</p>\n                    <img src=\"bees-with-color/bee-A1SM.svg\" width=\"200\">\n                    <p><span class=\"greenText\"><b>Successful harvest!</b></span><br>Your pay has increased by $0.02. Your bonus pay is now $0.58.</p>\n            ","response":0,"trial_type":"html-button-response","trial_index":18,"time_elapsed":210931,"internal_node_id":"0.0-4.0-1.5","subject_id":"5f7b40dfe5a7dd0b4c02d611","study_id":"60edd13110225f80f9f3709b","session_id":"6196c708b633ae8b44261b91","condition":"full-information","relevant_dimensions":["pattern","legs"],"bee_group":{"antennae":"X","wings":"X","pattern":"D","legs":"F"},"bonus":0.8600000000000005},{"rt":1662,"stimulus":"bees-with-color/bee-A1DF.svg","response":1,"trial_type":"image-button-response","trial_index":19,"time_elapsed":212594,"internal_node_id":"0.0-4.0-0.6","subject_id":"5f7b40dfe5a7dd0b4c02d611","study_id":"60edd13110225f80f9f3709b","session_id":"6196c708b633ae8b44261b91","condition":"full-information","relevant_dimensions":["pattern","legs"],"bee_group":{"antennae":"X","wings":"X","pattern":"D","legs":"F"},"action":"avoid","summary":"good-avoid","bonus":0.8600000000000005},{"rt":942.7000000011176,"stimulus":"\n                    <p><b>Action: <em>avoid</em></b></p>\n                    <p>This is the bee that you just saw.</p>\n                    <img src=\"bees-with-color/bee-A1DF.svg\" width=\"200\">\n                    <p><span class=\"greenText\">Good choice!</span>  This bee would have stung you.<br>Your bonus pay is unchanged, and remains at $0.58.</p>\n            ","response":0,"trial_type":"html-button-response","trial_index":20,"time_elapsed":213538,"internal_node_id":"0.0-4.0-1.6","subject_id":"5f7b40dfe5a7dd0b4c02d611","study_id":"60edd13110225f80f9f3709b","session_id":"6196c708b633ae8b44261b91","condition":"full-information","relevant_dimensions":["pattern","legs"],"bee_group":{"antennae":"X","wings":"X","pattern":"D","legs":"F"},"bonus":0.8600000000000005},{"rt":1994.1000000014901,"stimulus":"bees-with-color/bee-A1SF.svg","response":1,"trial_type":"image-button-response","trial_index":21,"time_elapsed":215533,"internal_node_id":"0.0-4.0-0.7","subject_id":"5f7b40dfe5a7dd0b4c02d611","study_id":"60edd13110225f80f9f3709b","session_id":"6196c708b633ae8b44261b91","condition":"full-information","relevant_dimensions":["pattern","legs"],"bee_group":{"antennae":"X","wings":"X","pattern":"D","legs":"F"},"action":"avoid","summary":"bad-avoid","bonus":0.8600000000000005},{"rt":943.2000000011176,"stimulus":"\n                    <p><b>Action: <em>avoid</em></b></p>\n                    <p>This is the bee that you just saw.</p>\n                    <img src=\"bees-with-color/bee-A1SF.svg\" width=\"200\">\n                    <p><span class=\"redText\">Bad choice,</span> the bee was friendly.<br>Your bonus pay is unchanged, and remains at $0.58.</p>\n            ","response":0,"trial_type":"html-button-response","trial_index":22,"time_elapsed":216477,"internal_node_id":"0.0-4.0-1.7","subject_id":"5f7b40dfe5a7dd0b4c02d611","study_id":"60edd13110225f80f9f3709b","session_id":"6196c708b633ae8b44261b91","condition":"full-information","relevant_dimensions":["pattern","legs"],"bee_group":{"antennae":"X","wings":"X","pattern":"D","legs":"F"},"bonus":0.8600000000000005},{"rt":2584.5999999996275,"stimulus":"bees-with-color/bee-A2DM.svg","response":0,"trial_type":"image-button-response","trial_index":23,"time_elapsed":219063,"internal_node_id":"0.0-4.0-0.8","subject_id":"5f7b40dfe5a7dd0b4c02d611","study_id":"60edd13110225f80f9f3709b","session_id":"6196c708b633ae8b44261b91","condition":"full-information","relevant_dimensions":["pattern","legs"],"bee_group":{"antennae":"X","wings":"X","pattern":"D","legs":"F"},"action":"harvest","summary":"good-harvest","bonus":0.8600000000000005},{"rt":1264.800000000745,"stimulus":"\n                    <p><b>Action: <em>harvest</em></b></p>\n                    <p>This is the bee that you just saw.</p>\n                    <img src=\"bees-with-color/bee-A2DM.svg\" width=\"200\">\n                    <p><span class=\"greenText\"><b>Successful harvest!</b></span><br>Your pay has increased by $0.02. Your bonus pay is now $0.60.</p>\n            ","response":0,"trial_type":"html-button-response","trial_index":24,"time_elapsed":220329,"internal_node_id":"0.0-4.0-1.8","subject_id":"5f7b40dfe5a7dd0b4c02d611","study_id":"60edd13110225f80f9f3709b","session_id":"6196c708b633ae8b44261b91","condition":"full-information","relevant_dimensions":["pattern","legs"],"bee_group":{"antennae":"X","wings":"X","pattern":"D","legs":"F"},"bonus":0.8600000000000005},{"rt":2062.800000000745,"stimulus":"bees-with-color/bee-B1SF.svg","response":0,"trial_type":"image-button-response","trial_index":25,"time_elapsed":222393,"internal_node_id":"0.0-4.0-0.9","subject_id":"5f7b40dfe5a7dd0b4c02d611","study_id":"60edd13110225f80f9f3709b","session_id":"6196c708b633ae8b44261b91","condition":"full-information","relevant_dimensions":["pattern","legs"],"bee_group":{"antennae":"X","wings":"X","pattern":"D","legs":"F"},"action":"harvest","summary":"good-harvest","bonus":0.8600000000000005},{"rt":785.5,"stimulus":"\n                    <p><b>Action: <em>harvest</em></b></p>\n                    <p>This is the bee that you just saw.</p>\n                    <img src=\"bees-with-color/bee-B1SF.svg\" width=\"200\">\n                    <p><span class=\"greenText\"><b>Successful harvest!</b></span><br>Your pay has increased by $0.02. Your bonus pay is now $0.62.</p>\n            ","response":0,"trial_type":"html-button-response","trial_index":26,"time_elapsed":223180,"internal_node_id":"0.0-4.0-1.9","subject_id":"5f7b40dfe5a7dd0b4c02d611","study_id":"60edd13110225f80f9f3709b","session_id":"6196c708b633ae8b44261b91","condition":"full-information","relevant_dimensions":["pattern","legs"],"bee_group":{"antennae":"X","wings":"X","pattern":"D","legs":"F"},"bonus":0.8600000000000005},{"rt":1786.9000000003725,"stimulus":"bees-with-color/bee-B2DM.svg","response":1,"trial_type":"image-button-response","trial_index":27,"time_elapsed":224968,"internal_node_id":"0.0-4.0-0.10","subject_id":"5f7b40dfe5a7dd0b4c02d611","study_id":"60edd13110225f80f9f3709b","session_id":"6196c708b633ae8b44261b91","condition":"full-information","relevant_dimensions":["pattern","legs"],"bee_group":{"antennae":"X","wings":"X","pattern":"D","legs":"F"},"action":"avoid","summary":"bad-avoid","bonus":0.8600000000000005},{"rt":653.9000000003725,"stimulus":"\n                    <p><b>Action: <em>avoid</em></b></p>\n                    <p>This is the bee that you just saw.</p>\n                    <img src=\"bees-with-color/bee-B2DM.svg\" width=\"200\">\n                    <p><span class=\"redText\">Bad choice,</span> the bee was friendly.<br>Your bonus pay is unchanged, and remains at $0.62.</p>\n            ","response":0,"trial_type":"html-button-response","trial_index":28,"time_elapsed":225623,"internal_node_id":"0.0-4.0-1.10","subject_id":"5f7b40dfe5a7dd0b4c02d611","study_id":"60edd13110225f80f9f3709b","session_id":"6196c708b633ae8b44261b91","condition":"full-information","relevant_dimensions":["pattern","legs"],"bee_group":{"antennae":"X","wings":"X","pattern":"D","legs":"F"},"bonus":0.8600000000000005},{"rt":2180.2999999988824,"stimulus":"bees-with-color/bee-A2SF.svg","response":1,"trial_type":"image-button-response","trial_index":29,"time_elapsed":227805,"internal_node_id":"0.0-4.0-0.11","subject_id":"5f7b40dfe5a7dd0b4c02d611","study_id":"60edd13110225f80f9f3709b","session_id":"6196c708b633ae8b44261b91","condition":"full-information","relevant_dimensions":["pattern","legs"],"bee_group":{"antennae":"X","wings":"X","pattern":"D","legs":"F"},"action":"avoid","summary":"bad-avoid","bonus":0.8600000000000005},{"rt":982.5,"stimulus":"\n                    <p><b>Action: <em>avoid</em></b></p>\n                    <p>This is the bee that you just saw.</p>\n                    <img src=\"bees-with-color/bee-A2SF.svg\" width=\"200\">\n                    <p><span class=\"redText\">Bad choice,</span> the bee was friendly.<br>Your bonus pay is unchanged, and remains at $0.62.</p>\n            ","response":0,"trial_type":"html-button-response","trial_index":30,"time_elapsed":228788,"internal_node_id":"0.0-4.0-1.11","subject_id":"5f7b40dfe5a7dd0b4c02d611","study_id":"60edd13110225f80f9f3709b","session_id":"6196c708b633ae8b44261b91","condition":"full-information","relevant_dimensions":["pattern","legs"],"bee_group":{"antennae":"X","wings":"X","pattern":"D","legs":"F"},"bonus":0.8600000000000005},{"rt":1413.800000000745,"stimulus":"bees-with-color/bee-A2DF.svg","response":1,"trial_type":"image-button-response","trial_index":31,"time_elapsed":230203,"internal_node_id":"0.0-4.0-0.12","subject_id":"5f7b40dfe5a7dd0b4c02d611","study_id":"60edd13110225f80f9f3709b","session_id":"6196c708b633ae8b44261b91","condition":"full-information","relevant_dimensions":["pattern","legs"],"bee_group":{"antennae":"X","wings":"X","pattern":"D","legs":"F"},"action":"avoid","summary":"good-avoid","bonus":0.8600000000000005},{"rt":732.8000000007451,"stimulus":"\n                    <p><b>Action: <em>avoid</em></b></p>\n                    <p>This is the bee that you just saw.</p>\n                    <img src=\"bees-with-color/bee-A2DF.svg\" width=\"200\">\n                    <p><span class=\"greenText\">Good choice!</span>  This bee would have stung you.<br>Your bonus pay is unchanged, and remains at $0.62.</p>\n            ","response":0,"trial_type":"html-button-response","trial_index":32,"time_elapsed":230937,"internal_node_id":"0.0-4.0-1.12","subject_id":"5f7b40dfe5a7dd0b4c02d611","study_id":"60edd13110225f80f9f3709b","session_id":"6196c708b633ae8b44261b91","condition":"full-information","relevant_dimensions":["pattern","legs"],"bee_group":{"antennae":"X","wings":"X","pattern":"D","legs":"F"},"bonus":0.8600000000000005},{"rt":1177.0999999996275,"stimulus":"bees-with-color/bee-B2SF.svg","response":1,"trial_type":"image-button-response","trial_index":33,"time_elapsed":232115,"internal_node_id":"0.0-4.0-0.13","subject_id":"5f7b40dfe5a7dd0b4c02d611","study_id":"60edd13110225f80f9f3709b","session_id":"6196c708b633ae8b44261b91","condition":"full-information","relevant_dimensions":["pattern","legs"],"bee_group":{"antennae":"X","wings":"X","pattern":"D","legs":"F"},"action":"avoid","summary":"bad-avoid","bonus":0.8600000000000005},{"rt":789,"stimulus":"\n                    <p><b>Action: <em>avoid</em></b></p>\n                    <p>This is the bee that you just saw.</p>\n                    <img src=\"bees-with-color/bee-B2SF.svg\" width=\"200\">\n                    <p><span class=\"redText\">Bad choice,</span> the bee was friendly.<br>Your bonus pay is unchanged, and remains at $0.62.</p>\n            ","response":0,"trial_type":"html-button-response","trial_index":34,"time_elapsed":232905,"internal_node_id":"0.0-4.0-1.13","subject_id":"5f7b40dfe5a7dd0b4c02d611","study_id":"60edd13110225f80f9f3709b","session_id":"6196c708b633ae8b44261b91","condition":"full-information","relevant_dimensions":["pattern","legs"],"bee_group":{"antennae":"X","wings":"X","pattern":"D","legs":"F"},"bonus":0.8600000000000005},{"rt":2788.9000000003725,"stimulus":"bees-with-color/bee-B1DM.svg","response":0,"trial_type":"image-button-response","trial_index":35,"time_elapsed":235696,"internal_node_id":"0.0-4.0-0.14","subject_id":"5f7b40dfe5a7dd0b4c02d611","study_id":"60edd13110225f80f9f3709b","session_id":"6196c708b633ae8b44261b91","condition":"full-information","relevant_dimensions":["pattern","legs"],"bee_group":{"antennae":"X","wings":"X","pattern":"D","legs":"F"},"action":"harvest","summary":"good-harvest","bonus":0.8600000000000005},{"rt":863.4000000003725,"stimulus":"\n                    <p><b>Action: <em>harvest</em></b></p>\n                    <p>This is the bee that you just saw.</p>\n                    <img src=\"bees-with-color/bee-B1DM.svg\" width=\"200\">\n                    <p><span class=\"greenText\"><b>Successful harvest!</b></span><br>Your pay has increased by $0.02. Your bonus pay is now $0.64.</p>\n            ","response":0,"trial_type":"html-button-response","trial_index":36,"time_elapsed":236560,"internal_node_id":"0.0-4.0-1.14","subject_id":"5f7b40dfe5a7dd0b4c02d611","study_id":"60edd13110225f80f9f3709b","session_id":"6196c708b633ae8b44261b91","condition":"full-information","relevant_dimensions":["pattern","legs"],"bee_group":{"antennae":"X","wings":"X","pattern":"D","legs":"F"},"bonus":0.8600000000000005},{"rt":2189.7000000011176,"stimulus":"bees-with-color/bee-B1DF.svg","response":1,"trial_type":"image-button-response","trial_index":37,"time_elapsed":238751,"internal_node_id":"0.0-4.0-0.15","subject_id":"5f7b40dfe5a7dd0b4c02d611","study_id":"60edd13110225f80f9f3709b","session_id":"6196c708b633ae8b44261b91","condition":"full-information","relevant_dimensions":["pattern","legs"],"bee_group":{"antennae":"X","wings":"X","pattern":"D","legs":"F"},"action":"avoid","summary":"good-avoid","bonus":0.8600000000000005},{"rt":671.3000000007451,"stimulus":"\n                    <p><b>Action: <em>avoid</em></b></p>\n                    <p>This is the bee that you just saw.</p>\n                    <img src=\"bees-with-color/bee-B1DF.svg\" width=\"200\">\n                    <p><span class=\"greenText\">Good choice!</span>  This bee would have stung you.<br>Your bonus pay is unchanged, and remains at $0.64.</p>\n            ","response":0,"trial_type":"html-button-response","trial_index":38,"time_elapsed":239423,"internal_node_id":"0.0-4.0-1.15","subject_id":"5f7b40dfe5a7dd0b4c02d611","study_id":"60edd13110225f80f9f3709b","session_id":"6196c708b633ae8b44261b91","condition":"full-information","relevant_dimensions":["pattern","legs"],"bee_group":{"antennae":"X","wings":"X","pattern":"D","legs":"F"},"bonus":0.8600000000000005},{"rt":1598.5999999996275,"stimulus":"bees-with-color/bee-B2SM.svg","response":0,"trial_type":"image-button-response","trial_index":39,"time_elapsed":241023,"internal_node_id":"0.0-4.0-0.16","subject_id":"5f7b40dfe5a7dd0b4c02d611","study_id":"60edd13110225f80f9f3709b","session_id":"6196c708b633ae8b44261b91","condition":"full-information","relevant_dimensions":["pattern","legs"],"bee_group":{"antennae":"X","wings":"X","pattern":"D","legs":"F"},"action":"harvest","summary":"good-harvest","bonus":0.8600000000000005},{"rt":572.5999999996275,"stimulus":"\n                    <p><b>Action: <em>harvest</em></b></p>\n                    <p>This is the bee that you just saw.</p>\n                    <img src=\"bees-with-color/bee-B2SM.svg\" width=\"200\">\n                    <p><span class=\"greenText\"><b>Successful harvest!</b></span><br>Your pay has increased by $0.02. Your bonus pay is now $0.66.</p>\n            ","response":0,"trial_type":"html-button-response","trial_index":40,"time_elapsed":241597,"internal_node_id":"0.0-4.0-1.16","subject_id":"5f7b40dfe5a7dd0b4c02d611","study_id":"60edd13110225f80f9f3709b","session_id":"6196c708b633ae8b44261b91","condition":"full-information","relevant_dimensions":["pattern","legs"],"bee_group":{"antennae":"X","wings":"X","pattern":"D","legs":"F"},"bonus":0.8600000000000005},{"rt":1517.300000000745,"stimulus":"bees-with-color/bee-A2DM.svg","response":1,"trial_type":"image-button-response","trial_index":41,"time_elapsed":243116,"internal_node_id":"0.0-4.0-0.17","subject_id":"5f7b40dfe5a7dd0b4c02d611","study_id":"60edd13110225f80f9f3709b","session_id":"6196c708b633ae8b44261b91","condition":"full-information","relevant_dimensions":["pattern","legs"],"bee_group":{"antennae":"X","wings":"X","pattern":"D","legs":"F"},"action":"avoid","summary":"bad-avoid","bonus":0.8600000000000005},{"rt":632.5999999996275,"stimulus":"\n                    <p><b>Action: <em>avoid</em></b></p>\n                    <p>This is the bee that you just saw.</p>\n                    <img src=\"bees-with-color/bee-A2DM.svg\" width=\"200\">\n                    <p><span class=\"redText\">Bad choice,</span> the bee was friendly.<br>Your bonus pay is unchanged, and remains at $0.66.</p>\n            ","response":0,"trial_type":"html-button-response","trial_index":42,"time_elapsed":243750,"internal_node_id":"0.0-4.0-1.17","subject_id":"5f7b40dfe5a7dd0b4c02d611","study_id":"60edd13110225f80f9f3709b","session_id":"6196c708b633ae8b44261b91","condition":"full-information","relevant_dimensions":["pattern","legs"],"bee_group":{"antennae":"X","wings":"X","pattern":"D","legs":"F"},"bonus":0.8600000000000005},{"rt":1500.2000000011176,"stimulus":"bees-with-color/bee-A1SM.svg","response":1,"trial_type":"image-button-response","trial_index":43,"time_elapsed":245251,"internal_node_id":"0.0-4.0-0.18","subject_id":"5f7b40dfe5a7dd0b4c02d611","study_id":"60edd13110225f80f9f3709b","session_id":"6196c708b633ae8b44261b91","condition":"full-information","relevant_dimensions":["pattern","legs"],"bee_group":{"antennae":"X","wings":"X","pattern":"D","legs":"F"},"action":"avoid","summary":"bad-avoid","bonus":0.8600000000000005},{"rt":670.9000000003725,"stimulus":"\n                    <p><b>Action: <em>avoid</em></b></p>\n                    <p>This is the bee that you just saw.</p>\n                    <img src=\"bees-with-color/bee-A1SM.svg\" width=\"200\">\n                    <p><span class=\"redText\">Bad choice,</span> the bee was friendly.<br>Your bonus pay is unchanged, and remains at $0.66.</p>\n            ","response":0,"trial_type":"html-button-response","trial_index":44,"time_elapsed":245923,"internal_node_id":"0.0-4.0-1.18","subject_id":"5f7b40dfe5a7dd0b4c02d611","study_id":"60edd13110225f80f9f3709b","session_id":"6196c708b633ae8b44261b91","condition":"full-information","relevant_dimensions":["pattern","legs"],"bee_group":{"antennae":"X","wings":"X","pattern":"D","legs":"F"},"bonus":0.8600000000000005},{"rt":1358.1000000014901,"stimulus":"bees-with-color/bee-B1DF.svg","response":1,"trial_type":"image-button-response","trial_index":45,"time_elapsed":247282,"internal_node_id":"0.0-4.0-0.19","subject_id":"5f7b40dfe5a7dd0b4c02d611","study_id":"60edd13110225f80f9f3709b","session_id":"6196c708b633ae8b44261b91","condition":"full-information","relevant_dimensions":["pattern","legs"],"bee_group":{"antennae":"X","wings":"X","pattern":"D","legs":"F"},"action":"avoid","summary":"good-avoid","bonus":0.8600000000000005},{"rt":551,"stimulus":"\n                    <p><b>Action: <em>avoid</em></b></p>\n                    <p>This is the bee that you just saw.</p>\n                    <img src=\"bees-with-color/bee-B1DF.svg\" width=\"200\">\n                    <p><span class=\"greenText\">Good choice!</span>  This bee would have stung you.<br>Your bonus pay is unchanged, and remains at $0.66.</p>\n            ","response":0,"trial_type":"html-button-response","trial_index":46,"time_elapsed":247834,"internal_node_id":"0.0-4.0-1.19","subject_id":"5f7b40dfe5a7dd0b4c02d611","study_id":"60edd13110225f80f9f3709b","session_id":"6196c708b633ae8b44261b91","condition":"full-information","relevant_dimensions":["pattern","legs"],"bee_group":{"antennae":"X","wings":"X","pattern":"D","legs":"F"},"bonus":0.8600000000000005},{"rt":2941.2000000011176,"stimulus":"bees-with-color/bee-A2SF.svg","response":1,"trial_type":"image-button-response","trial_index":47,"time_elapsed":250776,"internal_node_id":"0.0-4.0-0.20","subject_id":"5f7b40dfe5a7dd0b4c02d611","study_id":"60edd13110225f80f9f3709b","session_id":"6196c708b633ae8b44261b91","condition":"full-information","relevant_dimensions":["pattern","legs"],"bee_group":{"antennae":"X","wings":"X","pattern":"D","legs":"F"},"action":"avoid","summary":"bad-avoid","bonus":0.8600000000000005},{"rt":617,"stimulus":"\n                    <p><b>Action: <em>avoid</em></b></p>\n                    <p>This is the bee that you just saw.</p>\n                    <img src=\"bees-with-color/bee-A2SF.svg\" width=\"200\">\n                    <p><span class=\"redText\">Bad choice,</span> the bee was friendly.<br>Your bonus pay is unchanged, and remains at $0.66.</p>\n            ","response":0,"trial_type":"html-button-response","trial_index":48,"time_elapsed":251394,"internal_node_id":"0.0-4.0-1.20","subject_id":"5f7b40dfe5a7dd0b4c02d611","study_id":"60edd13110225f80f9f3709b","session_id":"6196c708b633ae8b44261b91","condition":"full-information","relevant_dimensions":["pattern","legs"],"bee_group":{"antennae":"X","wings":"X","pattern":"D","legs":"F"},"bonus":0.8600000000000005},{"rt":2333,"stimulus":"bees-with-color/bee-B1DM.svg","response":1,"trial_type":"image-button-response","trial_index":49,"time_elapsed":253728,"internal_node_id":"0.0-4.0-0.21","subject_id":"5f7b40dfe5a7dd0b4c02d611","study_id":"60edd13110225f80f9f3709b","session_id":"6196c708b633ae8b44261b91","condition":"full-information","relevant_dimensions":["pattern","legs"],"bee_group":{"antennae":"X","wings":"X","pattern":"D","legs":"F"},"action":"avoid","summary":"bad-avoid","bonus":0.8600000000000005},{"rt":625.5999999996275,"stimulus":"\n                    <p><b>Action: <em>avoid</em></b></p>\n                    <p>This is the bee that you just saw.</p>\n                    <img src=\"bees-with-color/bee-B1DM.svg\" width=\"200\">\n                    <p><span class=\"redText\">Bad choice,</span> the bee was friendly.<br>Your bonus pay is unchanged, and remains at $0.66.</p>\n            ","response":0,"trial_type":"html-button-response","trial_index":50,"time_elapsed":254355,"internal_node_id":"0.0-4.0-1.21","subject_id":"5f7b40dfe5a7dd0b4c02d611","study_id":"60edd13110225f80f9f3709b","session_id":"6196c708b633ae8b44261b91","condition":"full-information","relevant_dimensions":["pattern","legs"],"bee_group":{"antennae":"X","wings":"X","pattern":"D","legs":"F"},"bonus":0.8600000000000005},{"rt":1586.7999999988824,"stimulus":"bees-with-color/bee-A2SM.svg","response":0,"trial_type":"image-button-response","trial_index":51,"time_elapsed":255943,"internal_node_id":"0.0-4.0-0.22","subject_id":"5f7b40dfe5a7dd0b4c02d611","study_id":"60edd13110225f80f9f3709b","session_id":"6196c708b633ae8b44261b91","condition":"full-information","relevant_dimensions":["pattern","legs"],"bee_group":{"antennae":"X","wings":"X","pattern":"D","legs":"F"},"action":"harvest","summary":"good-harvest","bonus":0.8600000000000005},{"rt":693,"stimulus":"\n                    <p><b>Action: <em>harvest</em></b></p>\n                    <p>This is the bee that you just saw.</p>\n                    <img src=\"bees-with-color/bee-A2SM.svg\" width=\"200\">\n                    <p><span class=\"greenText\"><b>Successful harvest!</b></span><br>Your pay has increased by $0.02. Your bonus pay is now $0.68.</p>\n            ","response":0,"trial_type":"html-button-response","trial_index":52,"time_elapsed":256637,"internal_node_id":"0.0-4.0-1.22","subject_id":"5f7b40dfe5a7dd0b4c02d611","study_id":"60edd13110225f80f9f3709b","session_id":"6196c708b633ae8b44261b91","condition":"full-information","relevant_dimensions":["pattern","legs"],"bee_group":{"antennae":"X","wings":"X","pattern":"D","legs":"F"},"bonus":0.8600000000000005},{"rt":1113.199999999255,"stimulus":"bees-with-color/bee-A2DF.svg","response":1,"trial_type":"image-button-response","trial_index":53,"time_elapsed":257751,"internal_node_id":"0.0-4.0-0.23","subject_id":"5f7b40dfe5a7dd0b4c02d611","study_id":"60edd13110225f80f9f3709b","session_id":"6196c708b633ae8b44261b91","condition":"full-information","relevant_dimensions":["pattern","legs"],"bee_group":{"antennae":"X","wings":"X","pattern":"D","legs":"F"},"action":"avoid","summary":"good-avoid","bonus":0.8600000000000005},{"rt":705.3000000007451,"stimulus":"\n                    <p><b>Action: <em>avoid</em></b></p>\n                    <p>This is the bee that you just saw.</p>\n                    <img src=\"bees-with-color/bee-A2DF.svg\" width=\"200\">\n                    <p><span class=\"greenText\">Good choice!</span>  This bee would have stung you.<br>Your bonus pay is unchanged, and remains at $0.68.</p>\n            ","response":0,"trial_type":"html-button-response","trial_index":54,"time_elapsed":258458,"internal_node_id":"0.0-4.0-1.23","subject_id":"5f7b40dfe5a7dd0b4c02d611","study_id":"60edd13110225f80f9f3709b","session_id":"6196c708b633ae8b44261b91","condition":"full-information","relevant_dimensions":["pattern","legs"],"bee_group":{"antennae":"X","wings":"X","pattern":"D","legs":"F"},"bonus":0.8600000000000005},{"rt":2343.199999999255,"stimulus":"bees-with-color/bee-A1DM.svg","response":0,"trial_type":"image-button-response","trial_index":55,"time_elapsed":260802,"internal_node_id":"0.0-4.0-0.24","subject_id":"5f7b40dfe5a7dd0b4c02d611","study_id":"60edd13110225f80f9f3709b","session_id":"6196c708b633ae8b44261b91","condition":"full-information","relevant_dimensions":["pattern","legs"],"bee_group":{"antennae":"X","wings":"X","pattern":"D","legs":"F"},"action":"harvest","summary":"good-harvest","bonus":0.8600000000000005},{"rt":706.5999999996275,"stimulus":"\n                    <p><b>Action: <em>harvest</em></b></p>\n                    <p>This is the bee that you just saw.</p>\n                    <img src=\"bees-with-color/bee-A1DM.svg\" width=\"200\">\n                    <p><span class=\"greenText\"><b>Successful harvest!</b></span><br>Your pay has increased by $0.02. Your bonus pay is now $0.70.</p>\n            ","response":0,"trial_type":"html-button-response","trial_index":56,"time_elapsed":261510,"internal_node_id":"0.0-4.0-1.24","subject_id":"5f7b40dfe5a7dd0b4c02d611","study_id":"60edd13110225f80f9f3709b","session_id":"6196c708b633ae8b44261b91","condition":"full-information","relevant_dimensions":["pattern","legs"],"bee_group":{"antennae":"X","wings":"X","pattern":"D","legs":"F"},"bonus":0.8600000000000005},{"rt":1950.300000000745,"stimulus":"bees-with-color/bee-B2DM.svg","response":1,"trial_type":"image-button-response","trial_index":57,"time_elapsed":263462,"internal_node_id":"0.0-4.0-0.25","subject_id":"5f7b40dfe5a7dd0b4c02d611","study_id":"60edd13110225f80f9f3709b","session_id":"6196c708b633ae8b44261b91","condition":"full-information","relevant_dimensions":["pattern","legs"],"bee_group":{"antennae":"X","wings":"X","pattern":"D","legs":"F"},"action":"avoid","summary":"bad-avoid","bonus":0.8600000000000005},{"rt":679.9000000003725,"stimulus":"\n                    <p><b>Action: <em>avoid</em></b></p>\n                    <p>This is the bee that you just saw.</p>\n                    <img src=\"bees-with-color/bee-B2DM.svg\" width=\"200\">\n                    <p><span class=\"redText\">Bad choice,</span> the bee was friendly.<br>Your bonus pay is unchanged, and remains at $0.70.</p>\n            ","response":0,"trial_type":"html-button-response","trial_index":58,"time_elapsed":264143,"internal_node_id":"0.0-4.0-1.25","subject_id":"5f7b40dfe5a7dd0b4c02d611","study_id":"60edd13110225f80f9f3709b","session_id":"6196c708b633ae8b44261b91","condition":"full-information","relevant_dimensions":["pattern","legs"],"bee_group":{"antennae":"X","wings":"X","pattern":"D","legs":"F"},"bonus":0.8600000000000005},{"rt":1338.300000000745,"stimulus":"bees-with-color/bee-A1DF.svg","response":1,"trial_type":"image-button-response","trial_index":59,"time_elapsed":265483,"internal_node_id":"0.0-4.0-0.26","subject_id":"5f7b40dfe5a7dd0b4c02d611","study_id":"60edd13110225f80f9f3709b","session_id":"6196c708b633ae8b44261b91","condition":"full-information","relevant_dimensions":["pattern","legs"],"bee_group":{"antennae":"X","wings":"X","pattern":"D","legs":"F"},"action":"avoid","summary":"good-avoid","bonus":0.8600000000000005},{"rt":651.6000000014901,"stimulus":"\n                    <p><b>Action: <em>avoid</em></b></p>\n                    <p>This is the bee that you just saw.</p>\n                    <img src=\"bees-with-color/bee-A1DF.svg\" width=\"200\">\n                    <p><span class=\"greenText\">Good choice!</span>  This bee would have stung you.<br>Your bonus pay is unchanged, and remains at $0.70.</p>\n            ","response":0,"trial_type":"html-button-response","trial_index":60,"time_elapsed":266136,"internal_node_id":"0.0-4.0-1.26","subject_id":"5f7b40dfe5a7dd0b4c02d611","study_id":"60edd13110225f80f9f3709b","session_id":"6196c708b633ae8b44261b91","condition":"full-information","relevant_dimensions":["pattern","legs"],"bee_group":{"antennae":"X","wings":"X","pattern":"D","legs":"F"},"bonus":0.8600000000000005},{"rt":1139.9000000003725,"stimulus":"bees-with-color/bee-B1SF.svg","response":0,"trial_type":"image-button-response","trial_index":61,"time_elapsed":267277,"internal_node_id":"0.0-4.0-0.27","subject_id":"5f7b40dfe5a7dd0b4c02d611","study_id":"60edd13110225f80f9f3709b","session_id":"6196c708b633ae8b44261b91","condition":"full-information","relevant_dimensions":["pattern","legs"],"bee_group":{"antennae":"X","wings":"X","pattern":"D","legs":"F"},"action":"harvest","summary":"good-harvest","bonus":0.8600000000000005},{"rt":586.5,"stimulus":"\n                    <p><b>Action: <em>harvest</em></b></p>\n                    <p>This is the bee that you just saw.</p>\n                    <img src=\"bees-with-color/bee-B1SF.svg\" width=\"200\">\n                    <p><span class=\"greenText\"><b>Successful harvest!</b></span><br>Your pay has increased by $0.02. Your bonus pay is now $0.72.</p>\n            ","response":0,"trial_type":"html-button-response","trial_index":62,"time_elapsed":267865,"internal_node_id":"0.0-4.0-1.27","subject_id":"5f7b40dfe5a7dd0b4c02d611","study_id":"60edd13110225f80f9f3709b","session_id":"6196c708b633ae8b44261b91","condition":"full-information","relevant_dimensions":["pattern","legs"],"bee_group":{"antennae":"X","wings":"X","pattern":"D","legs":"F"},"bonus":0.8600000000000005},{"rt":940,"stimulus":"bees-with-color/bee-A1SF.svg","response":0,"trial_type":"image-button-response","trial_index":63,"time_elapsed":268806,"internal_node_id":"0.0-4.0-0.28","subject_id":"5f7b40dfe5a7dd0b4c02d611","study_id":"60edd13110225f80f9f3709b","session_id":"6196c708b633ae8b44261b91","condition":"full-information","relevant_dimensions":["pattern","legs"],"bee_group":{"antennae":"X","wings":"X","pattern":"D","legs":"F"},"action":"harvest","summary":"good-harvest","bonus":0.8600000000000005},{"rt":548.7000000011176,"stimulus":"\n                    <p><b>Action: <em>harvest</em></b></p>\n                    <p>This is the bee that you just saw.</p>\n                    <img src=\"bees-with-color/bee-A1SF.svg\" width=\"200\">\n                    <p><span class=\"greenText\"><b>Successful harvest!</b></span><br>Your pay has increased by $0.02. Your bonus pay is now $0.74.</p>\n            ","response":0,"trial_type":"html-button-response","trial_index":64,"time_elapsed":269356,"internal_node_id":"0.0-4.0-1.28","subject_id":"5f7b40dfe5a7dd0b4c02d611","study_id":"60edd13110225f80f9f3709b","session_id":"6196c708b633ae8b44261b91","condition":"full-information","relevant_dimensions":["pattern","legs"],"bee_group":{"antennae":"X","wings":"X","pattern":"D","legs":"F"},"bonus":0.8600000000000005},{"rt":3205.10000000149,"stimulus":"bees-with-color/bee-B2DF.svg","response":1,"trial_type":"image-button-response","trial_index":65,"time_elapsed":272562,"internal_node_id":"0.0-4.0-0.29","subject_id":"5f7b40dfe5a7dd0b4c02d611","study_id":"60edd13110225f80f9f3709b","session_id":"6196c708b633ae8b44261b91","condition":"full-information","relevant_dimensions":["pattern","legs"],"bee_group":{"antennae":"X","wings":"X","pattern":"D","legs":"F"},"action":"avoid","summary":"good-avoid","bonus":0.8600000000000005},{"rt":964.8000000007451,"stimulus":"\n                    <p><b>Action: <em>avoid</em></b></p>\n                    <p>This is the bee that you just saw.</p>\n                    <img src=\"bees-with-color/bee-B2DF.svg\" width=\"200\">\n                    <p><span class=\"greenText\">Good choice!</span>  This bee would have stung you.<br>Your bonus pay is unchanged, and remains at $0.74.</p>\n            ","response":0,"trial_type":"html-button-response","trial_index":66,"time_elapsed":273528,"internal_node_id":"0.0-4.0-1.29","subject_id":"5f7b40dfe5a7dd0b4c02d611","study_id":"60edd13110225f80f9f3709b","session_id":"6196c708b633ae8b44261b91","condition":"full-information","relevant_dimensions":["pattern","legs"],"bee_group":{"antennae":"X","wings":"X","pattern":"D","legs":"F"},"bonus":0.8600000000000005},{"rt":4377.5,"stimulus":"bees-with-color/bee-B1SM.svg","response":0,"trial_type":"image-button-response","trial_index":67,"time_elapsed":277907,"internal_node_id":"0.0-4.0-0.30","subject_id":"5f7b40dfe5a7dd0b4c02d611","study_id":"60edd13110225f80f9f3709b","session_id":"6196c708b633ae8b44261b91","condition":"full-information","relevant_dimensions":["pattern","legs"],"bee_group":{"antennae":"X","wings":"X","pattern":"D","legs":"F"},"action":"harvest","summary":"good-harvest","bonus":0.8600000000000005},{"rt":822.2000000011176,"stimulus":"\n                    <p><b>Action: <em>harvest</em></b></p>\n                    <p>This is the bee that you just saw.</p>\n                    <img src=\"bees-with-color/bee-B1SM.svg\" width=\"200\">\n                    <p><span class=\"greenText\"><b>Successful harvest!</b></span><br>Your pay has increased by $0.02. Your bonus pay is now $0.76.</p>\n            ","response":0,"trial_type":"html-button-response","trial_index":68,"time_elapsed":278730,"internal_node_id":"0.0-4.0-1.30","subject_id":"5f7b40dfe5a7dd0b4c02d611","study_id":"60edd13110225f80f9f3709b","session_id":"6196c708b633ae8b44261b91","condition":"full-information","relevant_dimensions":["pattern","legs"],"bee_group":{"antennae":"X","wings":"X","pattern":"D","legs":"F"},"bonus":0.8600000000000005},{"rt":1095,"stimulus":"bees-with-color/bee-B2SF.svg","response":1,"trial_type":"image-button-response","trial_index":69,"time_elapsed":279826,"internal_node_id":"0.0-4.0-0.31","subject_id":"5f7b40dfe5a7dd0b4c02d611","study_id":"60edd13110225f80f9f3709b","session_id":"6196c708b633ae8b44261b91","condition":"full-information","relevant_dimensions":["pattern","legs"],"bee_group":{"antennae":"X","wings":"X","pattern":"D","legs":"F"},"action":"avoid","summary":"bad-avoid","bonus":0.8600000000000005},{"rt":742,"stimulus":"\n                    <p><b>Action: <em>avoid</em></b></p>\n                    <p>This is the bee that you just saw.</p>\n                    <img src=\"bees-with-color/bee-B2SF.svg\" width=\"200\">\n                    <p><span class=\"redText\">Bad choice,</span> the bee was friendly.<br>Your bonus pay is unchanged, and remains at $0.76.</p>\n            ","response":0,"trial_type":"html-button-response","trial_index":70,"time_elapsed":280570,"internal_node_id":"0.0-4.0-1.31","subject_id":"5f7b40dfe5a7dd0b4c02d611","study_id":"60edd13110225f80f9f3709b","session_id":"6196c708b633ae8b44261b91","condition":"full-information","relevant_dimensions":["pattern","legs"],"bee_group":{"antennae":"X","wings":"X","pattern":"D","legs":"F"},"bonus":0.8600000000000005},{"rt":1599.9000000003725,"stimulus":"bees-with-color/bee-A2SF.svg","response":0,"trial_type":"image-button-response","trial_index":71,"time_elapsed":282171,"internal_node_id":"0.0-4.0-0.32","subject_id":"5f7b40dfe5a7dd0b4c02d611","study_id":"60edd13110225f80f9f3709b","session_id":"6196c708b633ae8b44261b91","condition":"full-information","relevant_dimensions":["pattern","legs"],"bee_group":{"antennae":"X","wings":"X","pattern":"D","legs":"F"},"action":"harvest","summary":"good-harvest","bonus":0.8600000000000005},{"rt":822.8999999985099,"stimulus":"\n                    <p><b>Action: <em>harvest</em></b></p>\n                    <p>This is the bee that you just saw.</p>\n                    <img src=\"bees-with-color/bee-A2SF.svg\" width=\"200\">\n                    <p><span class=\"greenText\"><b>Successful harvest!</b></span><br>Your pay has increased by $0.02. Your bonus pay is now $0.78.</p>\n            ","response":0,"trial_type":"html-button-response","trial_index":72,"time_elapsed":282994,"internal_node_id":"0.0-4.0-1.32","subject_id":"5f7b40dfe5a7dd0b4c02d611","study_id":"60edd13110225f80f9f3709b","session_id":"6196c708b633ae8b44261b91","condition":"full-information","relevant_dimensions":["pattern","legs"],"bee_group":{"antennae":"X","wings":"X","pattern":"D","legs":"F"},"bonus":0.8600000000000005},{"rt":1396,"stimulus":"bees-with-color/bee-A1DF.svg","response":1,"trial_type":"image-button-response","trial_index":73,"time_elapsed":284392,"internal_node_id":"0.0-4.0-0.33","subject_id":"5f7b40dfe5a7dd0b4c02d611","study_id":"60edd13110225f80f9f3709b","session_id":"6196c708b633ae8b44261b91","condition":"full-information","relevant_dimensions":["pattern","legs"],"bee_group":{"antennae":"X","wings":"X","pattern":"D","legs":"F"},"action":"avoid","summary":"good-avoid","bonus":0.8600000000000005},{"rt":650.9000000003725,"stimulus":"\n                    <p><b>Action: <em>avoid</em></b></p>\n                    <p>This is the bee that you just saw.</p>\n                    <img src=\"bees-with-color/bee-A1DF.svg\" width=\"200\">\n                    <p><span class=\"greenText\">Good choice!</span>  This bee would have stung you.<br>Your bonus pay is unchanged, and remains at $0.78.</p>\n            ","response":0,"trial_type":"html-button-response","trial_index":74,"time_elapsed":285044,"internal_node_id":"0.0-4.0-1.33","subject_id":"5f7b40dfe5a7dd0b4c02d611","study_id":"60edd13110225f80f9f3709b","session_id":"6196c708b633ae8b44261b91","condition":"full-information","relevant_dimensions":["pattern","legs"],"bee_group":{"antennae":"X","wings":"X","pattern":"D","legs":"F"},"bonus":0.8600000000000005},{"rt":1258.199999999255,"stimulus":"bees-with-color/bee-A1SF.svg","response":0,"trial_type":"image-button-response","trial_index":75,"time_elapsed":286303,"internal_node_id":"0.0-4.0-0.34","subject_id":"5f7b40dfe5a7dd0b4c02d611","study_id":"60edd13110225f80f9f3709b","session_id":"6196c708b633ae8b44261b91","condition":"full-information","relevant_dimensions":["pattern","legs"],"bee_group":{"antennae":"X","wings":"X","pattern":"D","legs":"F"},"action":"harvest","summary":"good-harvest","bonus":0.8600000000000005},{"rt":946.5,"stimulus":"\n                    <p><b>Action: <em>harvest</em></b></p>\n                    <p>This is the bee that you just saw.</p>\n                    <img src=\"bees-with-color/bee-A1SF.svg\" width=\"200\">\n                    <p><span class=\"greenText\"><b>Successful harvest!</b></span><br>Your pay has increased by $0.02. Your bonus pay is now $0.80.</p>\n            ","response":0,"trial_type":"html-button-response","trial_index":76,"time_elapsed":287251,"internal_node_id":"0.0-4.0-1.34","subject_id":"5f7b40dfe5a7dd0b4c02d611","study_id":"60edd13110225f80f9f3709b","session_id":"6196c708b633ae8b44261b91","condition":"full-information","relevant_dimensions":["pattern","legs"],"bee_group":{"antennae":"X","wings":"X","pattern":"D","legs":"F"},"bonus":0.8600000000000005},{"rt":911.1000000014901,"stimulus":"bees-with-color/bee-A2DF.svg","response":1,"trial_type":"image-button-response","trial_index":77,"time_elapsed":288163,"internal_node_id":"0.0-4.0-0.35","subject_id":"5f7b40dfe5a7dd0b4c02d611","study_id":"60edd13110225f80f9f3709b","session_id":"6196c708b633ae8b44261b91","condition":"full-information","relevant_dimensions":["pattern","legs"],"bee_group":{"antennae":"X","wings":"X","pattern":"D","legs":"F"},"action":"avoid","summary":"good-avoid","bonus":0.8600000000000005},{"rt":1227.7999999988824,"stimulus":"\n                    <p><b>Action: <em>avoid</em></b></p>\n                    <p>This is the bee that you just saw.</p>\n                    <img src=\"bees-with-color/bee-A2DF.svg\" width=\"200\">\n                    <p><span class=\"greenText\">Good choice!</span>  This bee would have stung you.<br>Your bonus pay is unchanged, and remains at $0.80.</p>\n            ","response":0,"trial_type":"html-button-response","trial_index":78,"time_elapsed":289392,"internal_node_id":"0.0-4.0-1.35","subject_id":"5f7b40dfe5a7dd0b4c02d611","study_id":"60edd13110225f80f9f3709b","session_id":"6196c708b633ae8b44261b91","condition":"full-information","relevant_dimensions":["pattern","legs"],"bee_group":{"antennae":"X","wings":"X","pattern":"D","legs":"F"},"bonus":0.8600000000000005},{"rt":2177.2000000011176,"stimulus":"bees-with-color/bee-B1DM.svg","response":1,"trial_type":"image-button-response","trial_index":79,"time_elapsed":291570,"internal_node_id":"0.0-4.0-0.36","subject_id":"5f7b40dfe5a7dd0b4c02d611","study_id":"60edd13110225f80f9f3709b","session_id":"6196c708b633ae8b44261b91","condition":"full-information","relevant_dimensions":["pattern","legs"],"bee_group":{"antennae":"X","wings":"X","pattern":"D","legs":"F"},"action":"avoid","summary":"bad-avoid","bonus":0.8600000000000005},{"rt":664.7000000011176,"stimulus":"\n                    <p><b>Action: <em>avoid</em></b></p>\n                    <p>This is the bee that you just saw.</p>\n                    <img src=\"bees-with-color/bee-B1DM.svg\" width=\"200\">\n                    <p><span class=\"redText\">Bad choice,</span> the bee was friendly.<br>Your bonus pay is unchanged, and remains at $0.80.</p>\n            ","response":0,"trial_type":"html-button-response","trial_index":80,"time_elapsed":292236,"internal_node_id":"0.0-4.0-1.36","subject_id":"5f7b40dfe5a7dd0b4c02d611","study_id":"60edd13110225f80f9f3709b","session_id":"6196c708b633ae8b44261b91","condition":"full-information","relevant_dimensions":["pattern","legs"],"bee_group":{"antennae":"X","wings":"X","pattern":"D","legs":"F"},"bonus":0.8600000000000005},{"rt":1444,"stimulus":"bees-with-color/bee-B1SM.svg","response":1,"trial_type":"image-button-response","trial_index":81,"time_elapsed":293681,"internal_node_id":"0.0-4.0-0.37","subject_id":"5f7b40dfe5a7dd0b4c02d611","study_id":"60edd13110225f80f9f3709b","session_id":"6196c708b633ae8b44261b91","condition":"full-information","relevant_dimensions":["pattern","legs"],"bee_group":{"antennae":"X","wings":"X","pattern":"D","legs":"F"},"action":"avoid","summary":"bad-avoid","bonus":0.8600000000000005},{"rt":888,"stimulus":"\n                    <p><b>Action: <em>avoid</em></b></p>\n                    <p>This is the bee that you just saw.</p>\n                    <img src=\"bees-with-color/bee-B1SM.svg\" width=\"200\">\n                    <p><span class=\"redText\">Bad choice,</span> the bee was friendly.<br>Your bonus pay is unchanged, and remains at $0.80.</p>\n            ","response":0,"trial_type":"html-button-response","trial_index":82,"time_elapsed":294570,"internal_node_id":"0.0-4.0-1.37","subject_id":"5f7b40dfe5a7dd0b4c02d611","study_id":"60edd13110225f80f9f3709b","session_id":"6196c708b633ae8b44261b91","condition":"full-information","relevant_dimensions":["pattern","legs"],"bee_group":{"antennae":"X","wings":"X","pattern":"D","legs":"F"},"bonus":0.8600000000000005},{"rt":1707.800000000745,"stimulus":"bees-with-color/bee-B2SM.svg","response":1,"trial_type":"image-button-response","trial_index":83,"time_elapsed":296279,"internal_node_id":"0.0-4.0-0.38","subject_id":"5f7b40dfe5a7dd0b4c02d611","study_id":"60edd13110225f80f9f3709b","session_id":"6196c708b633ae8b44261b91","condition":"full-information","relevant_dimensions":["pattern","legs"],"bee_group":{"antennae":"X","wings":"X","pattern":"D","legs":"F"},"action":"avoid","summary":"bad-avoid","bonus":0.8600000000000005},{"rt":986.9000000003725,"stimulus":"\n                    <p><b>Action: <em>avoid</em></b></p>\n                    <p>This is the bee that you just saw.</p>\n                    <img src=\"bees-with-color/bee-B2SM.svg\" width=\"200\">\n                    <p><span class=\"redText\">Bad choice,</span> the bee was friendly.<br>Your bonus pay is unchanged, and remains at $0.80.</p>\n            ","response":0,"trial_type":"html-button-response","trial_index":84,"time_elapsed":297267,"internal_node_id":"0.0-4.0-1.38","subject_id":"5f7b40dfe5a7dd0b4c02d611","study_id":"60edd13110225f80f9f3709b","session_id":"6196c708b633ae8b44261b91","condition":"full-information","relevant_dimensions":["pattern","legs"],"bee_group":{"antennae":"X","wings":"X","pattern":"D","legs":"F"},"bonus":0.8600000000000005},{"rt":2322.800000000745,"stimulus":"bees-with-color/bee-B2DM.svg","response":1,"trial_type":"image-button-response","trial_index":85,"time_elapsed":299591,"internal_node_id":"0.0-4.0-0.39","subject_id":"5f7b40dfe5a7dd0b4c02d611","study_id":"60edd13110225f80f9f3709b","session_id":"6196c708b633ae8b44261b91","condition":"full-information","relevant_dimensions":["pattern","legs"],"bee_group":{"antennae":"X","wings":"X","pattern":"D","legs":"F"},"action":"avoid","summary":"bad-avoid","bonus":0.8600000000000005},{"rt":719.8000000007451,"stimulus":"\n                    <p><b>Action: <em>avoid</em></b></p>\n                    <p>This is the bee that you just saw.</p>\n                    <img src=\"bees-with-color/bee-B2DM.svg\" width=\"200\">\n                    <p><span class=\"redText\">Bad choice,</span> the bee was friendly.<br>Your bonus pay is unchanged, and remains at $0.80.</p>\n            ","response":0,"trial_type":"html-button-response","trial_index":86,"time_elapsed":300312,"internal_node_id":"0.0-4.0-1.39","subject_id":"5f7b40dfe5a7dd0b4c02d611","study_id":"60edd13110225f80f9f3709b","session_id":"6196c708b633ae8b44261b91","condition":"full-information","relevant_dimensions":["pattern","legs"],"bee_group":{"antennae":"X","wings":"X","pattern":"D","legs":"F"},"bonus":0.8600000000000005},{"rt":1314.9000000003725,"stimulus":"bees-with-color/bee-B2DF.svg","response":1,"trial_type":"image-button-response","trial_index":87,"time_elapsed":301628,"internal_node_id":"0.0-4.0-0.40","subject_id":"5f7b40dfe5a7dd0b4c02d611","study_id":"60edd13110225f80f9f3709b","session_id":"6196c708b633ae8b44261b91","condition":"full-information","relevant_dimensions":["pattern","legs"],"bee_group":{"antennae":"X","wings":"X","pattern":"D","legs":"F"},"action":"avoid","summary":"good-avoid","bonus":0.8600000000000005},{"rt":718.7000000011176,"stimulus":"\n                    <p><b>Action: <em>avoid</em></b></p>\n                    <p>This is the bee that you just saw.</p>\n                    <img src=\"bees-with-color/bee-B2DF.svg\" width=\"200\">\n                    <p><span class=\"greenText\">Good choice!</span>  This bee would have stung you.<br>Your bonus pay is unchanged, and remains at $0.80.</p>\n            ","response":0,"trial_type":"html-button-response","trial_index":88,"time_elapsed":302348,"internal_node_id":"0.0-4.0-1.40","subject_id":"5f7b40dfe5a7dd0b4c02d611","study_id":"60edd13110225f80f9f3709b","session_id":"6196c708b633ae8b44261b91","condition":"full-information","relevant_dimensions":["pattern","legs"],"bee_group":{"antennae":"X","wings":"X","pattern":"D","legs":"F"},"bonus":0.8600000000000005},{"rt":2071.5999999996275,"stimulus":"bees-with-color/bee-A2SM.svg","response":1,"trial_type":"image-button-response","trial_index":89,"time_elapsed":304420,"internal_node_id":"0.0-4.0-0.41","subject_id":"5f7b40dfe5a7dd0b4c02d611","study_id":"60edd13110225f80f9f3709b","session_id":"6196c708b633ae8b44261b91","condition":"full-information","relevant_dimensions":["pattern","legs"],"bee_group":{"antennae":"X","wings":"X","pattern":"D","legs":"F"},"action":"avoid","summary":"bad-avoid","bonus":0.8600000000000005},{"rt":1037.300000000745,"stimulus":"\n                    <p><b>Action: <em>avoid</em></b></p>\n                    <p>This is the bee that you just saw.</p>\n                    <img src=\"bees-with-color/bee-A2SM.svg\" width=\"200\">\n                    <p><span class=\"redText\">Bad choice,</span> the bee was friendly.<br>Your bonus pay is unchanged, and remains at $0.80.</p>\n            ","response":0,"trial_type":"html-button-response","trial_index":90,"time_elapsed":305460,"internal_node_id":"0.0-4.0-1.41","subject_id":"5f7b40dfe5a7dd0b4c02d611","study_id":"60edd13110225f80f9f3709b","session_id":"6196c708b633ae8b44261b91","condition":"full-information","relevant_dimensions":["pattern","legs"],"bee_group":{"antennae":"X","wings":"X","pattern":"D","legs":"F"},"bonus":0.8600000000000005},{"rt":2649.300000000745,"stimulus":"bees-with-color/bee-A1SM.svg","response":0,"trial_type":"image-button-response","trial_index":91,"time_elapsed":308110,"internal_node_id":"0.0-4.0-0.42","subject_id":"5f7b40dfe5a7dd0b4c02d611","study_id":"60edd13110225f80f9f3709b","session_id":"6196c708b633ae8b44261b91","condition":"full-information","relevant_dimensions":["pattern","legs"],"bee_group":{"antennae":"X","wings":"X","pattern":"D","legs":"F"},"action":"harvest","summary":"good-harvest","bonus":0.8600000000000005},{"rt":842.0999999996275,"stimulus":"\n                    <p><b>Action: <em>harvest</em></b></p>\n                    <p>This is the bee that you just saw.</p>\n                    <img src=\"bees-with-color/bee-A1SM.svg\" width=\"200\">\n                    <p><span class=\"greenText\"><b>Successful harvest!</b></span><br>Your pay has increased by $0.02. Your bonus pay is now $0.82.</p>\n            ","response":0,"trial_type":"html-button-response","trial_index":92,"time_elapsed":308953,"internal_node_id":"0.0-4.0-1.42","subject_id":"5f7b40dfe5a7dd0b4c02d611","study_id":"60edd13110225f80f9f3709b","session_id":"6196c708b633ae8b44261b91","condition":"full-information","relevant_dimensions":["pattern","legs"],"bee_group":{"antennae":"X","wings":"X","pattern":"D","legs":"F"},"bonus":0.8600000000000005},{"rt":1091.7999999988824,"stimulus":"bees-with-color/bee-B1DF.svg","response":1,"trial_type":"image-button-response","trial_index":93,"time_elapsed":310046,"internal_node_id":"0.0-4.0-0.43","subject_id":"5f7b40dfe5a7dd0b4c02d611","study_id":"60edd13110225f80f9f3709b","session_id":"6196c708b633ae8b44261b91","condition":"full-information","relevant_dimensions":["pattern","legs"],"bee_group":{"antennae":"X","wings":"X","pattern":"D","legs":"F"},"action":"avoid","summary":"good-avoid","bonus":0.8600000000000005},{"rt":636.9000000003725,"stimulus":"\n                    <p><b>Action: <em>avoid</em></b></p>\n                    <p>This is the bee that you just saw.</p>\n                    <img src=\"bees-with-color/bee-B1DF.svg\" width=\"200\">\n                    <p><span class=\"greenText\">Good choice!</span>  This bee would have stung you.<br>Your bonus pay is unchanged, and remains at $0.82.</p>\n            ","response":0,"trial_type":"html-button-response","trial_index":94,"time_elapsed":310684,"internal_node_id":"0.0-4.0-1.43","subject_id":"5f7b40dfe5a7dd0b4c02d611","study_id":"60edd13110225f80f9f3709b","session_id":"6196c708b633ae8b44261b91","condition":"full-information","relevant_dimensions":["pattern","legs"],"bee_group":{"antennae":"X","wings":"X","pattern":"D","legs":"F"},"bonus":0.8600000000000005},{"rt":2608.10000000149,"stimulus":"bees-with-color/bee-B1SF.svg","response":0,"trial_type":"image-button-response","trial_index":95,"time_elapsed":313293,"internal_node_id":"0.0-4.0-0.44","subject_id":"5f7b40dfe5a7dd0b4c02d611","study_id":"60edd13110225f80f9f3709b","session_id":"6196c708b633ae8b44261b91","condition":"full-information","relevant_dimensions":["pattern","legs"],"bee_group":{"antennae":"X","wings":"X","pattern":"D","legs":"F"},"action":"harvest","summary":"good-harvest","bonus":0.8600000000000005},{"rt":827,"stimulus":"\n                    <p><b>Action: <em>harvest</em></b></p>\n                    <p>This is the bee that you just saw.</p>\n                    <img src=\"bees-with-color/bee-B1SF.svg\" width=\"200\">\n                    <p><span class=\"greenText\"><b>Successful harvest!</b></span><br>Your pay has increased by $0.02. Your bonus pay is now $0.84.</p>\n            ","response":0,"trial_type":"html-button-response","trial_index":96,"time_elapsed":314121,"internal_node_id":"0.0-4.0-1.44","subject_id":"5f7b40dfe5a7dd0b4c02d611","study_id":"60edd13110225f80f9f3709b","session_id":"6196c708b633ae8b44261b91","condition":"full-information","relevant_dimensions":["pattern","legs"],"bee_group":{"antennae":"X","wings":"X","pattern":"D","legs":"F"},"bonus":0.8600000000000005},{"rt":1163.199999999255,"stimulus":"bees-with-color/bee-B2SF.svg","response":1,"trial_type":"image-button-response","trial_index":97,"time_elapsed":315286,"internal_node_id":"0.0-4.0-0.45","subject_id":"5f7b40dfe5a7dd0b4c02d611","study_id":"60edd13110225f80f9f3709b","session_id":"6196c708b633ae8b44261b91","condition":"full-information","relevant_dimensions":["pattern","legs"],"bee_group":{"antennae":"X","wings":"X","pattern":"D","legs":"F"},"action":"avoid","summary":"bad-avoid","bonus":0.8600000000000005},{"rt":599.7000000011176,"stimulus":"\n                    <p><b>Action: <em>avoid</em></b></p>\n                    <p>This is the bee that you just saw.</p>\n                    <img src=\"bees-with-color/bee-B2SF.svg\" width=\"200\">\n                    <p><span class=\"redText\">Bad choice,</span> the bee was friendly.<br>Your bonus pay is unchanged, and remains at $0.84.</p>\n            ","response":0,"trial_type":"html-button-response","trial_index":98,"time_elapsed":315886,"internal_node_id":"0.0-4.0-1.45","subject_id":"5f7b40dfe5a7dd0b4c02d611","study_id":"60edd13110225f80f9f3709b","session_id":"6196c708b633ae8b44261b91","condition":"full-information","relevant_dimensions":["pattern","legs"],"bee_group":{"antennae":"X","wings":"X","pattern":"D","legs":"F"},"bonus":0.8600000000000005},{"rt":2429,"stimulus":"bees-with-color/bee-A1DM.svg","response":1,"trial_type":"image-button-response","trial_index":99,"time_elapsed":318316,"internal_node_id":"0.0-4.0-0.46","subject_id":"5f7b40dfe5a7dd0b4c02d611","study_id":"60edd13110225f80f9f3709b","session_id":"6196c708b633ae8b44261b91","condition":"full-information","relevant_dimensions":["pattern","legs"],"bee_group":{"antennae":"X","wings":"X","pattern":"D","legs":"F"},"action":"avoid","summary":"bad-avoid","bonus":0.8600000000000005},{"rt":605.8999999985099,"stimulus":"\n                    <p><b>Action: <em>avoid</em></b></p>\n                    <p>This is the bee that you just saw.</p>\n                    <img src=\"bees-with-color/bee-A1DM.svg\" width=\"200\">\n                    <p><span class=\"redText\">Bad choice,</span> the bee was friendly.<br>Your bonus pay is unchanged, and remains at $0.84.</p>\n            ","response":0,"trial_type":"html-button-response","trial_index":100,"time_elapsed":318923,"internal_node_id":"0.0-4.0-1.46","subject_id":"5f7b40dfe5a7dd0b4c02d611","study_id":"60edd13110225f80f9f3709b","session_id":"6196c708b633ae8b44261b91","condition":"full-information","relevant_dimensions":["pattern","legs"],"bee_group":{"antennae":"X","wings":"X","pattern":"D","legs":"F"},"bonus":0.8600000000000005},{"rt":1168.300000000745,"stimulus":"bees-with-color/bee-A2DM.svg","response":1,"trial_type":"image-button-response","trial_index":101,"time_elapsed":320093,"internal_node_id":"0.0-4.0-0.47","subject_id":"5f7b40dfe5a7dd0b4c02d611","study_id":"60edd13110225f80f9f3709b","session_id":"6196c708b633ae8b44261b91","condition":"full-information","relevant_dimensions":["pattern","legs"],"bee_group":{"antennae":"X","wings":"X","pattern":"D","legs":"F"},"action":"avoid","summary":"bad-avoid","bonus":0.8600000000000005},{"rt":520.4000000003725,"stimulus":"\n                    <p><b>Action: <em>avoid</em></b></p>\n                    <p>This is the bee that you just saw.</p>\n                    <img src=\"bees-with-color/bee-A2DM.svg\" width=\"200\">\n                    <p><span class=\"redText\">Bad choice,</span> the bee was friendly.<br>Your bonus pay is unchanged, and remains at $0.84.</p>\n            ","response":0,"trial_type":"html-button-response","trial_index":102,"time_elapsed":320614,"internal_node_id":"0.0-4.0-1.47","subject_id":"5f7b40dfe5a7dd0b4c02d611","study_id":"60edd13110225f80f9f3709b","session_id":"6196c708b633ae8b44261b91","condition":"full-information","relevant_dimensions":["pattern","legs"],"bee_group":{"antennae":"X","wings":"X","pattern":"D","legs":"F"},"bonus":0.8600000000000005},{"rt":2455.800000000745,"stimulus":"bees-with-color/bee-A1SM.svg","response":1,"trial_type":"image-button-response","trial_index":103,"time_elapsed":323071,"internal_node_id":"0.0-4.0-0.48","subject_id":"5f7b40dfe5a7dd0b4c02d611","study_id":"60edd13110225f80f9f3709b","session_id":"6196c708b633ae8b44261b91","condition":"full-information","relevant_dimensions":["pattern","legs"],"bee_group":{"antennae":"X","wings":"X","pattern":"D","legs":"F"},"action":"avoid","summary":"bad-avoid","bonus":0.8600000000000005},{"rt":565.9000000003725,"stimulus":"\n                    <p><b>Action: <em>avoid</em></b></p>\n                    <p>This is the bee that you just saw.</p>\n                    <img src=\"bees-with-color/bee-A1SM.svg\" width=\"200\">\n                    <p><span class=\"redText\">Bad choice,</span> the bee was friendly.<br>Your bonus pay is unchanged, and remains at $0.84.</p>\n            ","response":0,"trial_type":"html-button-response","trial_index":104,"time_elapsed":323638,"internal_node_id":"0.0-4.0-1.48","subject_id":"5f7b40dfe5a7dd0b4c02d611","study_id":"60edd13110225f80f9f3709b","session_id":"6196c708b633ae8b44261b91","condition":"full-information","relevant_dimensions":["pattern","legs"],"bee_group":{"antennae":"X","wings":"X","pattern":"D","legs":"F"},"bonus":0.8600000000000005},{"rt":1246,"stimulus":"bees-with-color/bee-A1DF.svg","response":1,"trial_type":"image-button-response","trial_index":105,"time_elapsed":324885,"internal_node_id":"0.0-4.0-0.49","subject_id":"5f7b40dfe5a7dd0b4c02d611","study_id":"60edd13110225f80f9f3709b","session_id":"6196c708b633ae8b44261b91","condition":"full-information","relevant_dimensions":["pattern","legs"],"bee_group":{"antennae":"X","wings":"X","pattern":"D","legs":"F"},"action":"avoid","summary":"good-avoid","bonus":0.8600000000000005},{"rt":632.5,"stimulus":"\n                    <p><b>Action: <em>avoid</em></b></p>\n                    <p>This is the bee that you just saw.</p>\n                    <img src=\"bees-with-color/bee-A1DF.svg\" width=\"200\">\n                    <p><span class=\"greenText\">Good choice!</span>  This bee would have stung you.<br>Your bonus pay is unchanged, and remains at $0.84.</p>\n            ","response":0,"trial_type":"html-button-response","trial_index":106,"time_elapsed":325519,"internal_node_id":"0.0-4.0-1.49","subject_id":"5f7b40dfe5a7dd0b4c02d611","study_id":"60edd13110225f80f9f3709b","session_id":"6196c708b633ae8b44261b91","condition":"full-information","relevant_dimensions":["pattern","legs"],"bee_group":{"antennae":"X","wings":"X","pattern":"D","legs":"F"},"bonus":0.8600000000000005},{"rt":2413.300000000745,"stimulus":"bees-with-color/bee-A1SF.svg","response":0,"trial_type":"image-button-response","trial_index":107,"time_elapsed":327933,"internal_node_id":"0.0-4.0-0.50","subject_id":"5f7b40dfe5a7dd0b4c02d611","study_id":"60edd13110225f80f9f3709b","session_id":"6196c708b633ae8b44261b91","condition":"full-information","relevant_dimensions":["pattern","legs"],"bee_group":{"antennae":"X","wings":"X","pattern":"D","legs":"F"},"action":"harvest","summary":"good-harvest","bonus":0.8600000000000005},{"rt":507.80000000074506,"stimulus":"\n                    <p><b>Action: <em>harvest</em></b></p>\n                    <p>This is the bee that you just saw.</p>\n                    <img src=\"bees-with-color/bee-A1SF.svg\" width=\"200\">\n                    <p><span class=\"greenText\"><b>Successful harvest!</b></span><br>Your pay has increased by $0.02. Your bonus pay is now $0.86.</p>\n            ","response":0,"trial_type":"html-button-response","trial_index":108,"time_elapsed":328442,"internal_node_id":"0.0-4.0-1.50","subject_id":"5f7b40dfe5a7dd0b4c02d611","study_id":"60edd13110225f80f9f3709b","session_id":"6196c708b633ae8b44261b91","condition":"full-information","relevant_dimensions":["pattern","legs"],"bee_group":{"antennae":"X","wings":"X","pattern":"D","legs":"F"},"bonus":0.8600000000000005},{"rt":997.8000000007451,"stimulus":"bees-with-color/bee-B2SF.svg","response":1,"trial_type":"image-button-response","trial_index":109,"time_elapsed":329441,"internal_node_id":"0.0-4.0-0.51","subject_id":"5f7b40dfe5a7dd0b4c02d611","study_id":"60edd13110225f80f9f3709b","session_id":"6196c708b633ae8b44261b91","condition":"full-information","relevant_dimensions":["pattern","legs"],"bee_group":{"antennae":"X","wings":"X","pattern":"D","legs":"F"},"action":"avoid","summary":"bad-avoid","bonus":0.8600000000000005},{"rt":501.6000000014901,"stimulus":"\n                    <p><b>Action: <em>avoid</em></b></p>\n                    <p>This is the bee that you just saw.</p>\n                    <img src=\"bees-with-color/bee-B2SF.svg\" width=\"200\">\n                    <p><span class=\"redText\">Bad choice,</span> the bee was friendly.<br>Your bonus pay is unchanged, and remains at $0.86.</p>\n            ","response":0,"trial_type":"html-button-response","trial_index":110,"time_elapsed":329944,"internal_node_id":"0.0-4.0-1.51","subject_id":"5f7b40dfe5a7dd0b4c02d611","study_id":"60edd13110225f80f9f3709b","session_id":"6196c708b633ae8b44261b91","condition":"full-information","relevant_dimensions":["pattern","legs"],"bee_group":{"antennae":"X","wings":"X","pattern":"D","legs":"F"},"bonus":0.8600000000000005},{"rt":2412,"stimulus":"bees-with-color/bee-B1DM.svg","response":1,"trial_type":"image-button-response","trial_index":111,"time_elapsed":332357,"internal_node_id":"0.0-4.0-0.52","subject_id":"5f7b40dfe5a7dd0b4c02d611","study_id":"60edd13110225f80f9f3709b","session_id":"6196c708b633ae8b44261b91","condition":"full-information","relevant_dimensions":["pattern","legs"],"bee_group":{"antennae":"X","wings":"X","pattern":"D","legs":"F"},"action":"avoid","summary":"bad-avoid","bonus":0.8600000000000005},{"rt":502.80000000074506,"stimulus":"\n                    <p><b>Action: <em>avoid</em></b></p>\n                    <p>This is the bee that you just saw.</p>\n                    <img src=\"bees-with-color/bee-B1DM.svg\" width=\"200\">\n                    <p><span class=\"redText\">Bad choice,</span> the bee was friendly.<br>Your bonus pay is unchanged, and remains at $0.86.</p>\n            ","response":0,"trial_type":"html-button-response","trial_index":112,"time_elapsed":332861,"internal_node_id":"0.0-4.0-1.52","subject_id":"5f7b40dfe5a7dd0b4c02d611","study_id":"60edd13110225f80f9f3709b","session_id":"6196c708b633ae8b44261b91","condition":"full-information","relevant_dimensions":["pattern","legs"],"bee_group":{"antennae":"X","wings":"X","pattern":"D","legs":"F"},"bonus":0.8600000000000005},{"rt":2295.9000000003725,"stimulus":"bees-with-color/bee-A2SM.svg","response":1,"trial_type":"image-button-response","trial_index":113,"time_elapsed":335158,"internal_node_id":"0.0-4.0-0.53","subject_id":"5f7b40dfe5a7dd0b4c02d611","study_id":"60edd13110225f80f9f3709b","session_id":"6196c708b633ae8b44261b91","condition":"full-information","relevant_dimensions":["pattern","legs"],"bee_group":{"antennae":"X","wings":"X","pattern":"D","legs":"F"},"action":"avoid","summary":"bad-avoid","bonus":0.8600000000000005},{"rt":558.8000000007451,"stimulus":"\n                    <p><b>Action: <em>avoid</em></b></p>\n                    <p>This is the bee that you just saw.</p>\n                    <img src=\"bees-with-color/bee-A2SM.svg\" width=\"200\">\n                    <p><span class=\"redText\">Bad choice,</span> the bee was friendly.<br>Your bonus pay is unchanged, and remains at $0.86.</p>\n            ","response":0,"trial_type":"html-button-response","trial_index":114,"time_elapsed":335719,"internal_node_id":"0.0-4.0-1.53","subject_id":"5f7b40dfe5a7dd0b4c02d611","study_id":"60edd13110225f80f9f3709b","session_id":"6196c708b633ae8b44261b91","condition":"full-information","relevant_dimensions":["pattern","legs"],"bee_group":{"antennae":"X","wings":"X","pattern":"D","legs":"F"},"bonus":0.8600000000000005},{"rt":1766.9000000003725,"stimulus":"bees-with-color/bee-B2SM.svg","response":1,"trial_type":"image-button-response","trial_index":115,"time_elapsed":337487,"internal_node_id":"0.0-4.0-0.54","subject_id":"5f7b40dfe5a7dd0b4c02d611","study_id":"60edd13110225f80f9f3709b","session_id":"6196c708b633ae8b44261b91","condition":"full-information","relevant_dimensions":["pattern","legs"],"bee_group":{"antennae":"X","wings":"X","pattern":"D","legs":"F"},"action":"avoid","summary":"bad-avoid","bonus":0.8600000000000005},{"rt":552,"stimulus":"\n                    <p><b>Action: <em>avoid</em></b></p>\n                    <p>This is the bee that you just saw.</p>\n                    <img src=\"bees-with-color/bee-B2SM.svg\" width=\"200\">\n                    <p><span class=\"redText\">Bad choice,</span> the bee was friendly.<br>Your bonus pay is unchanged, and remains at $0.86.</p>\n            ","response":0,"trial_type":"html-button-response","trial_index":116,"time_elapsed":338040,"internal_node_id":"0.0-4.0-1.54","subject_id":"5f7b40dfe5a7dd0b4c02d611","study_id":"60edd13110225f80f9f3709b","session_id":"6196c708b633ae8b44261b91","condition":"full-information","relevant_dimensions":["pattern","legs"],"bee_group":{"antennae":"X","wings":"X","pattern":"D","legs":"F"},"bonus":0.8600000000000005},{"rt":1111,"stimulus":"bees-with-color/bee-B2DF.svg","response":1,"trial_type":"image-button-response","trial_index":117,"time_elapsed":339152,"internal_node_id":"0.0-4.0-0.55","subject_id":"5f7b40dfe5a7dd0b4c02d611","study_id":"60edd13110225f80f9f3709b","session_id":"6196c708b633ae8b44261b91","condition":"full-information","relevant_dimensions":["pattern","legs"],"bee_group":{"antennae":"X","wings":"X","pattern":"D","legs":"F"},"action":"avoid","summary":"good-avoid","bonus":0.8600000000000005},{"rt":442.40000000037253,"stimulus":"\n                    <p><b>Action: <em>avoid</em></b></p>\n                    <p>This is the bee that you just saw.</p>\n                    <img src=\"bees-with-color/bee-B2DF.svg\" width=\"200\">\n                    <p><span class=\"greenText\">Good choice!</span>  This bee would have stung you.<br>Your bonus pay is unchanged, and remains at $0.86.</p>\n            ","response":0,"trial_type":"html-button-response","trial_index":118,"time_elapsed":339595,"internal_node_id":"0.0-4.0-1.55","subject_id":"5f7b40dfe5a7dd0b4c02d611","study_id":"60edd13110225f80f9f3709b","session_id":"6196c708b633ae8b44261b91","condition":"full-information","relevant_dimensions":["pattern","legs"],"bee_group":{"antennae":"X","wings":"X","pattern":"D","legs":"F"},"bonus":0.8600000000000005},{"rt":2252.800000000745,"stimulus":"bees-with-color/bee-B2DM.svg","response":1,"trial_type":"image-button-response","trial_index":119,"time_elapsed":341849,"internal_node_id":"0.0-4.0-0.56","subject_id":"5f7b40dfe5a7dd0b4c02d611","study_id":"60edd13110225f80f9f3709b","session_id":"6196c708b633ae8b44261b91","condition":"full-information","relevant_dimensions":["pattern","legs"],"bee_group":{"antennae":"X","wings":"X","pattern":"D","legs":"F"},"action":"avoid","summary":"bad-avoid","bonus":0.8600000000000005},{"rt":647,"stimulus":"\n                    <p><b>Action: <em>avoid</em></b></p>\n                    <p>This is the bee that you just saw.</p>\n                    <img src=\"bees-with-color/bee-B2DM.svg\" width=\"200\">\n                    <p><span class=\"redText\">Bad choice,</span> the bee was friendly.<br>Your bonus pay is unchanged, and remains at $0.86.</p>\n            ","response":0,"trial_type":"html-button-response","trial_index":120,"time_elapsed":342497,"internal_node_id":"0.0-4.0-1.56","subject_id":"5f7b40dfe5a7dd0b4c02d611","study_id":"60edd13110225f80f9f3709b","session_id":"6196c708b633ae8b44261b91","condition":"full-information","relevant_dimensions":["pattern","legs"],"bee_group":{"antennae":"X","wings":"X","pattern":"D","legs":"F"},"bonus":0.8600000000000005},{"rt":2655,"stimulus":"bees-with-color/bee-B1DF.svg","response":0,"trial_type":"image-button-response","trial_index":121,"time_elapsed":345153,"internal_node_id":"0.0-4.0-0.57","subject_id":"5f7b40dfe5a7dd0b4c02d611","study_id":"60edd13110225f80f9f3709b","session_id":"6196c708b633ae8b44261b91","condition":"full-information","relevant_dimensions":["pattern","legs"],"bee_group":{"antennae":"X","wings":"X","pattern":"D","legs":"F"},"action":"harvest","summary":"bad-harvest","bonus":0.8600000000000005},{"rt":2361.9000000003725,"stimulus":"\n                    <p><b>Action: <em>harvest</em></b></p>\n                    <p>This is the bee that you just saw.</p>\n                    <img src=\"bees-with-color/bee-B1DF.svg\" width=\"200\">\n                    <p><span class=\"redText\">Bad choice, the bee was angry.</span><br><b>You have been stung!</b><br>Your pay has been decreased by $0.10. Your bonus pay is now $0.76.</p>\n            ","response":0,"trial_type":"html-button-response","trial_index":122,"time_elapsed":347516,"internal_node_id":"0.0-4.0-1.57","subject_id":"5f7b40dfe5a7dd0b4c02d611","study_id":"60edd13110225f80f9f3709b","session_id":"6196c708b633ae8b44261b91","condition":"full-information","relevant_dimensions":["pattern","legs"],"bee_group":{"antennae":"X","wings":"X","pattern":"D","legs":"F"},"bonus":0.8600000000000005},{"rt":2125.800000000745,"stimulus":"bees-with-color/bee-B1SF.svg","response":1,"trial_type":"image-button-response","trial_index":123,"time_elapsed":349643,"internal_node_id":"0.0-4.0-0.58","subject_id":"5f7b40dfe5a7dd0b4c02d611","study_id":"60edd13110225f80f9f3709b","session_id":"6196c708b633ae8b44261b91","condition":"full-information","relevant_dimensions":["pattern","legs"],"bee_group":{"antennae":"X","wings":"X","pattern":"D","legs":"F"},"action":"avoid","summary":"bad-avoid","bonus":0.8600000000000005},{"rt":636,"stimulus":"\n                    <p><b>Action: <em>avoid</em></b></p>\n                    <p>This is the bee that you just saw.</p>\n                    <img src=\"bees-with-color/bee-B1SF.svg\" width=\"200\">\n                    <p><span class=\"redText\">Bad choice,</span> the bee was friendly.<br>Your bonus pay is unchanged, and remains at $0.76.</p>\n            ","response":0,"trial_type":"html-button-response","trial_index":124,"time_elapsed":350280,"internal_node_id":"0.0-4.0-1.58","subject_id":"5f7b40dfe5a7dd0b4c02d611","study_id":"60edd13110225f80f9f3709b","session_id":"6196c708b633ae8b44261b91","condition":"full-information","relevant_dimensions":["pattern","legs"],"bee_group":{"antennae":"X","wings":"X","pattern":"D","legs":"F"},"bonus":0.8600000000000005},{"rt":1670.9000000003725,"stimulus":"bees-with-color/bee-A2SF.svg","response":0,"trial_type":"image-button-response","trial_index":125,"time_elapsed":351952,"internal_node_id":"0.0-4.0-0.59","subject_id":"5f7b40dfe5a7dd0b4c02d611","study_id":"60edd13110225f80f9f3709b","session_id":"6196c708b633ae8b44261b91","condition":"full-information","relevant_dimensions":["pattern","legs"],"bee_group":{"antennae":"X","wings":"X","pattern":"D","legs":"F"},"action":"harvest","summary":"good-harvest","bonus":0.8600000000000005},{"rt":505.09999999962747,"stimulus":"\n                    <p><b>Action: <em>harvest</em></b></p>\n                    <p>This is the bee that you just saw.</p>\n                    <img src=\"bees-with-color/bee-A2SF.svg\" width=\"200\">\n                    <p><span class=\"greenText\"><b>Successful harvest!</b></span><br>Your pay has increased by $0.02. Your bonus pay is now $0.78.</p>\n            ","response":0,"trial_type":"html-button-response","trial_index":126,"time_elapsed":352458,"internal_node_id":"0.0-4.0-1.59","subject_id":"5f7b40dfe5a7dd0b4c02d611","study_id":"60edd13110225f80f9f3709b","session_id":"6196c708b633ae8b44261b91","condition":"full-information","relevant_dimensions":["pattern","legs"],"bee_group":{"antennae":"X","wings":"X","pattern":"D","legs":"F"},"bonus":0.8600000000000005},{"rt":1096.0999999996275,"stimulus":"bees-with-color/bee-A2DM.svg","response":1,"trial_type":"image-button-response","trial_index":127,"time_elapsed":353556,"internal_node_id":"0.0-4.0-0.60","subject_id":"5f7b40dfe5a7dd0b4c02d611","study_id":"60edd13110225f80f9f3709b","session_id":"6196c708b633ae8b44261b91","condition":"full-information","relevant_dimensions":["pattern","legs"],"bee_group":{"antennae":"X","wings":"X","pattern":"D","legs":"F"},"action":"avoid","summary":"bad-avoid","bonus":0.8600000000000005},{"rt":443.2999999988824,"stimulus":"\n                    <p><b>Action: <em>avoid</em></b></p>\n                    <p>This is the bee that you just saw.</p>\n                    <img src=\"bees-with-color/bee-A2DM.svg\" width=\"200\">\n                    <p><span class=\"redText\">Bad choice,</span> the bee was friendly.<br>Your bonus pay is unchanged, and remains at $0.78.</p>\n            ","response":0,"trial_type":"html-button-response","trial_index":128,"time_elapsed":354000,"internal_node_id":"0.0-4.0-1.60","subject_id":"5f7b40dfe5a7dd0b4c02d611","study_id":"60edd13110225f80f9f3709b","session_id":"6196c708b633ae8b44261b91","condition":"full-information","relevant_dimensions":["pattern","legs"],"bee_group":{"antennae":"X","wings":"X","pattern":"D","legs":"F"},"bonus":0.8600000000000005},{"rt":798,"stimulus":"bees-with-color/bee-A2DF.svg","response":1,"trial_type":"image-button-response","trial_index":129,"time_elapsed":354799,"internal_node_id":"0.0-4.0-0.61","subject_id":"5f7b40dfe5a7dd0b4c02d611","study_id":"60edd13110225f80f9f3709b","session_id":"6196c708b633ae8b44261b91","condition":"full-information","relevant_dimensions":["pattern","legs"],"bee_group":{"antennae":"X","wings":"X","pattern":"D","legs":"F"},"action":"avoid","summary":"good-avoid","bonus":0.8600000000000005},{"rt":509.90000000037253,"stimulus":"\n                    <p><b>Action: <em>avoid</em></b></p>\n                    <p>This is the bee that you just saw.</p>\n                    <img src=\"bees-with-color/bee-A2DF.svg\" width=\"200\">\n                    <p><span class=\"greenText\">Good choice!</span>  This bee would have stung you.<br>Your bonus pay is unchanged, and remains at $0.78.</p>\n            ","response":0,"trial_type":"html-button-response","trial_index":130,"time_elapsed":355310,"internal_node_id":"0.0-4.0-1.61","subject_id":"5f7b40dfe5a7dd0b4c02d611","study_id":"60edd13110225f80f9f3709b","session_id":"6196c708b633ae8b44261b91","condition":"full-information","relevant_dimensions":["pattern","legs"],"bee_group":{"antennae":"X","wings":"X","pattern":"D","legs":"F"},"bonus":0.8600000000000005},{"rt":831.0999999996275,"stimulus":"bees-with-color/bee-A1DM.svg","response":1,"trial_type":"image-button-response","trial_index":131,"time_elapsed":356142,"internal_node_id":"0.0-4.0-0.62","subject_id":"5f7b40dfe5a7dd0b4c02d611","study_id":"60edd13110225f80f9f3709b","session_id":"6196c708b633ae8b44261b91","condition":"full-information","relevant_dimensions":["pattern","legs"],"bee_group":{"antennae":"X","wings":"X","pattern":"D","legs":"F"},"action":"avoid","summary":"bad-avoid","bonus":0.8600000000000005},{"rt":432.2999999988824,"stimulus":"\n                    <p><b>Action: <em>avoid</em></b></p>\n                    <p>This is the bee that you just saw.</p>\n                    <img src=\"bees-with-color/bee-A1DM.svg\" width=\"200\">\n                    <p><span class=\"redText\">Bad choice,</span> the bee was friendly.<br>Your bonus pay is unchanged, and remains at $0.78.</p>\n            ","response":0,"trial_type":"html-button-response","trial_index":132,"time_elapsed":356576,"internal_node_id":"0.0-4.0-1.62","subject_id":"5f7b40dfe5a7dd0b4c02d611","study_id":"60edd13110225f80f9f3709b","session_id":"6196c708b633ae8b44261b91","condition":"full-information","relevant_dimensions":["pattern","legs"],"bee_group":{"antennae":"X","wings":"X","pattern":"D","legs":"F"},"bonus":0.8600000000000005},{"rt":1894.9000000003725,"stimulus":"bees-with-color/bee-B1SM.svg","response":0,"trial_type":"image-button-response","trial_index":133,"time_elapsed":358473,"internal_node_id":"0.0-4.0-0.63","subject_id":"5f7b40dfe5a7dd0b4c02d611","study_id":"60edd13110225f80f9f3709b","session_id":"6196c708b633ae8b44261b91","condition":"full-information","relevant_dimensions":["pattern","legs"],"bee_group":{"antennae":"X","wings":"X","pattern":"D","legs":"F"},"action":"harvest","summary":"good-harvest","bonus":0.8600000000000005},{"rt":529.5,"stimulus":"\n                    <p><b>Action: <em>harvest</em></b></p>\n                    <p>This is the bee that you just saw.</p>\n                    <img src=\"bees-with-color/bee-B1SM.svg\" width=\"200\">\n                    <p><span class=\"greenText\"><b>Successful harvest!</b></span><br>Your pay has increased by $0.02. Your bonus pay is now $0.80.</p>\n            ","response":0,"trial_type":"html-button-response","trial_index":134,"time_elapsed":359003,"internal_node_id":"0.0-4.0-1.63","subject_id":"5f7b40dfe5a7dd0b4c02d611","study_id":"60edd13110225f80f9f3709b","session_id":"6196c708b633ae8b44261b91","condition":"full-information","relevant_dimensions":["pattern","legs"],"bee_group":{"antennae":"X","wings":"X","pattern":"D","legs":"F"},"bonus":0.8600000000000005},{"rt":9546.200000001118,"stimulus":"You have completed the first part of this experiment.<br><br>You will now begin a shorter second part, in which you will receive no feedback.<br>The same rules regarding bonus pay apply.<br><br>Press any key to begin.","response":" ","trial_type":"html-keyboard-response","trial_index":135,"time_elapsed":368551,"internal_node_id":"0.0-5.0","subject_id":"5f7b40dfe5a7dd0b4c02d611","study_id":"60edd13110225f80f9f3709b","session_id":"6196c708b633ae8b44261b91","condition":"full-information","relevant_dimensions":["pattern","legs"],"bee_group":{"antennae":"X","wings":"X","pattern":"D","legs":"F"},"bonus":0.8600000000000005},{"rt":5684.800000000745,"stimulus":"bees-with-color/bee-B2DM.svg","response":0,"trial_type":"image-button-response","trial_index":136,"time_elapsed":374243,"internal_node_id":"0.0-6.0-0.0","subject_id":"5f7b40dfe5a7dd0b4c02d611","study_id":"60edd13110225f80f9f3709b","session_id":"6196c708b633ae8b44261b91","condition":"full-information","relevant_dimensions":["pattern","legs"],"bee_group":{"antennae":"X","wings":"X","pattern":"D","legs":"F"},"bonus":0.8600000000000005},{"rt":2567.4000000003725,"stimulus":"bees-with-color/bee-B2DF.svg","response":1,"trial_type":"image-button-response","trial_index":137,"time_elapsed":376812,"internal_node_id":"0.0-6.0-0.1","subject_id":"5f7b40dfe5a7dd0b4c02d611","study_id":"60edd13110225f80f9f3709b","session_id":"6196c708b633ae8b44261b91","condition":"full-information","relevant_dimensions":["pattern","legs"],"bee_group":{"antennae":"X","wings":"X","pattern":"D","legs":"F"},"bonus":0.8600000000000005},{"rt":2117.60000000149,"stimulus":"bees-with-color/bee-A2SF.svg","response":0,"trial_type":"image-button-response","trial_index":138,"time_elapsed":378931,"internal_node_id":"0.0-6.0-0.2","subject_id":"5f7b40dfe5a7dd0b4c02d611","study_id":"60edd13110225f80f9f3709b","session_id":"6196c708b633ae8b44261b91","condition":"full-information","relevant_dimensions":["pattern","legs"],"bee_group":{"antennae":"X","wings":"X","pattern":"D","legs":"F"},"bonus":0.8600000000000005},{"rt":2543.5,"stimulus":"bees-with-color/bee-A1SF.svg","response":0,"trial_type":"image-button-response","trial_index":139,"time_elapsed":381476,"internal_node_id":"0.0-6.0-0.3","subject_id":"5f7b40dfe5a7dd0b4c02d611","study_id":"60edd13110225f80f9f3709b","session_id":"6196c708b633ae8b44261b91","condition":"full-information","relevant_dimensions":["pattern","legs"],"bee_group":{"antennae":"X","wings":"X","pattern":"D","legs":"F"},"bonus":0.8600000000000005},{"rt":719.6000000014901,"stimulus":"bees-with-color/bee-B2SF.svg","response":1,"trial_type":"image-button-response","trial_index":140,"time_elapsed":382197,"internal_node_id":"0.0-6.0-0.4","subject_id":"5f7b40dfe5a7dd0b4c02d611","study_id":"60edd13110225f80f9f3709b","session_id":"6196c708b633ae8b44261b91","condition":"full-information","relevant_dimensions":["pattern","legs"],"bee_group":{"antennae":"X","wings":"X","pattern":"D","legs":"F"},"bonus":0.8600000000000005},{"rt":3321.60000000149,"stimulus":"bees-with-color/bee-A1DF.svg","response":1,"trial_type":"image-button-response","trial_index":141,"time_elapsed":385520,"internal_node_id":"0.0-6.0-0.5","subject_id":"5f7b40dfe5a7dd0b4c02d611","study_id":"60edd13110225f80f9f3709b","session_id":"6196c708b633ae8b44261b91","condition":"full-information","relevant_dimensions":["pattern","legs"],"bee_group":{"antennae":"X","wings":"X","pattern":"D","legs":"F"},"bonus":0.8600000000000005},{"rt":1115.4000000003725,"stimulus":"bees-with-color/bee-B2SM.svg","response":1,"trial_type":"image-button-response","trial_index":142,"time_elapsed":386637,"internal_node_id":"0.0-6.0-0.6","subject_id":"5f7b40dfe5a7dd0b4c02d611","study_id":"60edd13110225f80f9f3709b","session_id":"6196c708b633ae8b44261b91","condition":"full-information","relevant_dimensions":["pattern","legs"],"bee_group":{"antennae":"X","wings":"X","pattern":"D","legs":"F"},"bonus":0.8600000000000005},{"rt":1093.800000000745,"stimulus":"bees-with-color/bee-B1SF.svg","response":0,"trial_type":"image-button-response","trial_index":143,"time_elapsed":387732,"internal_node_id":"0.0-6.0-0.7","subject_id":"5f7b40dfe5a7dd0b4c02d611","study_id":"60edd13110225f80f9f3709b","session_id":"6196c708b633ae8b44261b91","condition":"full-information","relevant_dimensions":["pattern","legs"],"bee_group":{"antennae":"X","wings":"X","pattern":"D","legs":"F"},"bonus":0.8600000000000005},{"rt":2089.300000000745,"stimulus":"bees-with-color/bee-A2SM.svg","response":1,"trial_type":"image-button-response","trial_index":144,"time_elapsed":389823,"internal_node_id":"0.0-6.0-0.8","subject_id":"5f7b40dfe5a7dd0b4c02d611","study_id":"60edd13110225f80f9f3709b","session_id":"6196c708b633ae8b44261b91","condition":"full-information","relevant_dimensions":["pattern","legs"],"bee_group":{"antennae":"X","wings":"X","pattern":"D","legs":"F"},"bonus":0.8600000000000005},{"rt":977.5999999996275,"stimulus":"bees-with-color/bee-A1DM.svg","response":1,"trial_type":"image-button-response","trial_index":145,"time_elapsed":390802,"internal_node_id":"0.0-6.0-0.9","subject_id":"5f7b40dfe5a7dd0b4c02d611","study_id":"60edd13110225f80f9f3709b","session_id":"6196c708b633ae8b44261b91","condition":"full-information","relevant_dimensions":["pattern","legs"],"bee_group":{"antennae":"X","wings":"X","pattern":"D","legs":"F"},"bonus":0.8600000000000005},{"rt":3030.800000000745,"stimulus":"bees-with-color/bee-B1DM.svg","response":1,"trial_type":"image-button-response","trial_index":146,"time_elapsed":393834,"internal_node_id":"0.0-6.0-0.10","subject_id":"5f7b40dfe5a7dd0b4c02d611","study_id":"60edd13110225f80f9f3709b","session_id":"6196c708b633ae8b44261b91","condition":"full-information","relevant_dimensions":["pattern","legs"],"bee_group":{"antennae":"X","wings":"X","pattern":"D","legs":"F"},"bonus":0.8600000000000005},{"rt":2723.5999999996275,"stimulus":"bees-with-color/bee-B1SM.svg","response":1,"trial_type":"image-button-response","trial_index":147,"time_elapsed":396559,"internal_node_id":"0.0-6.0-0.11","subject_id":"5f7b40dfe5a7dd0b4c02d611","study_id":"60edd13110225f80f9f3709b","session_id":"6196c708b633ae8b44261b91","condition":"full-information","relevant_dimensions":["pattern","legs"],"bee_group":{"antennae":"X","wings":"X","pattern":"D","legs":"F"},"bonus":0.8600000000000005},{"rt":1450.4000000003725,"stimulus":"bees-with-color/bee-B1DF.svg","response":0,"trial_type":"image-button-response","trial_index":148,"time_elapsed":398011,"internal_node_id":"0.0-6.0-0.12","subject_id":"5f7b40dfe5a7dd0b4c02d611","study_id":"60edd13110225f80f9f3709b","session_id":"6196c708b633ae8b44261b91","condition":"full-information","relevant_dimensions":["pattern","legs"],"bee_group":{"antennae":"X","wings":"X","pattern":"D","legs":"F"},"bonus":0.8600000000000005},{"rt":1787.6000000014901,"stimulus":"bees-with-color/bee-A1SM.svg","response":0,"trial_type":"image-button-response","trial_index":149,"time_elapsed":399800,"internal_node_id":"0.0-6.0-0.13","subject_id":"5f7b40dfe5a7dd0b4c02d611","study_id":"60edd13110225f80f9f3709b","session_id":"6196c708b633ae8b44261b91","condition":"full-information","relevant_dimensions":["pattern","legs"],"bee_group":{"antennae":"X","wings":"X","pattern":"D","legs":"F"},"bonus":0.8600000000000005},{"rt":1289.300000000745,"stimulus":"bees-with-color/bee-A2DM.svg","response":1,"trial_type":"image-button-response","trial_index":150,"time_elapsed":401091,"internal_node_id":"0.0-6.0-0.14","subject_id":"5f7b40dfe5a7dd0b4c02d611","study_id":"60edd13110225f80f9f3709b","session_id":"6196c708b633ae8b44261b91","condition":"full-information","relevant_dimensions":["pattern","legs"],"bee_group":{"antennae":"X","wings":"X","pattern":"D","legs":"F"},"bonus":0.8600000000000005},{"rt":1219.2999999988824,"stimulus":"bees-with-color/bee-A2DF.svg","response":1,"trial_type":"image-button-response","trial_index":151,"time_elapsed":402312,"internal_node_id":"0.0-6.0-0.15","subject_id":"5f7b40dfe5a7dd0b4c02d611","study_id":"60edd13110225f80f9f3709b","session_id":"6196c708b633ae8b44261b91","condition":"full-information","relevant_dimensions":["pattern","legs"],"bee_group":{"antennae":"X","wings":"X","pattern":"D","legs":"F"},"bonus":0.8600000000000005},{"rt":1957.7000000011176,"stimulus":"bees-with-color/bee-B2DF.svg","response":1,"trial_type":"image-button-response","trial_index":152,"time_elapsed":404271,"internal_node_id":"0.0-6.0-0.16","subject_id":"5f7b40dfe5a7dd0b4c02d611","study_id":"60edd13110225f80f9f3709b","session_id":"6196c708b633ae8b44261b91","condition":"full-information","relevant_dimensions":["pattern","legs"],"bee_group":{"antennae":"X","wings":"X","pattern":"D","legs":"F"},"bonus":0.8600000000000005},{"rt":2641.7000000011176,"stimulus":"bees-with-color/bee-B1DM.svg","response":1,"trial_type":"image-button-response","trial_index":153,"time_elapsed":406914,"internal_node_id":"0.0-6.0-0.17","subject_id":"5f7b40dfe5a7dd0b4c02d611","study_id":"60edd13110225f80f9f3709b","session_id":"6196c708b633ae8b44261b91","condition":"full-information","relevant_dimensions":["pattern","legs"],"bee_group":{"antennae":"X","wings":"X","pattern":"D","legs":"F"},"bonus":0.8600000000000005},{"rt":875,"stimulus":"bees-with-color/bee-A2DF.svg","response":1,"trial_type":"image-button-response","trial_index":154,"time_elapsed":407790,"internal_node_id":"0.0-6.0-0.18","subject_id":"5f7b40dfe5a7dd0b4c02d611","study_id":"60edd13110225f80f9f3709b","session_id":"6196c708b633ae8b44261b91","condition":"full-information","relevant_dimensions":["pattern","legs"],"bee_group":{"antennae":"X","wings":"X","pattern":"D","legs":"F"},"bonus":0.8600000000000005},{"rt":2902.5,"stimulus":"bees-with-color/bee-A1SM.svg","response":0,"trial_type":"image-button-response","trial_index":155,"time_elapsed":410696,"internal_node_id":"0.0-6.0-0.19","subject_id":"5f7b40dfe5a7dd0b4c02d611","study_id":"60edd13110225f80f9f3709b","session_id":"6196c708b633ae8b44261b91","condition":"full-information","relevant_dimensions":["pattern","legs"],"bee_group":{"antennae":"X","wings":"X","pattern":"D","legs":"F"},"bonus":0.8600000000000005},{"rt":927.9000000003725,"stimulus":"bees-with-color/bee-A1SF.svg","response":1,"trial_type":"image-button-response","trial_index":156,"time_elapsed":411625,"internal_node_id":"0.0-6.0-0.20","subject_id":"5f7b40dfe5a7dd0b4c02d611","study_id":"60edd13110225f80f9f3709b","session_id":"6196c708b633ae8b44261b91","condition":"full-information","relevant_dimensions":["pattern","legs"],"bee_group":{"antennae":"X","wings":"X","pattern":"D","legs":"F"},"bonus":0.8600000000000005},{"rt":849.5,"stimulus":"bees-with-color/bee-B2SM.svg","response":1,"trial_type":"image-button-response","trial_index":157,"time_elapsed":412476,"internal_node_id":"0.0-6.0-0.21","subject_id":"5f7b40dfe5a7dd0b4c02d611","study_id":"60edd13110225f80f9f3709b","session_id":"6196c708b633ae8b44261b91","condition":"full-information","relevant_dimensions":["pattern","legs"],"bee_group":{"antennae":"X","wings":"X","pattern":"D","legs":"F"},"bonus":0.8600000000000005},{"rt":1304.800000000745,"stimulus":"bees-with-color/bee-B1SM.svg","response":0,"trial_type":"image-button-response","trial_index":158,"time_elapsed":413782,"internal_node_id":"0.0-6.0-0.22","subject_id":"5f7b40dfe5a7dd0b4c02d611","study_id":"60edd13110225f80f9f3709b","session_id":"6196c708b633ae8b44261b91","condition":"full-information","relevant_dimensions":["pattern","legs"],"bee_group":{"antennae":"X","wings":"X","pattern":"