[{"success":true,"trial_type":"fullscreen","trial_index":0,"time_elapsed":5318,"internal_node_id":"0.0-0.0","subject_id":"6100d64e404145c71b3bc360","study_id":"6197b3f67c2b5cd3b6d9596a","session_id":"619be58e7538c9e552ffd4e6","condition":"full-information","relevant_dimensions":["antennae","pattern"],"bee_group":{"antennae":"B","wings":"X","pattern":"S","legs":"X"},"bonus":1.8400000000000012},{"success":true,"timeout":false,"failed_images":[],"failed_audio":[],"failed_video":[],"trial_type":"preload","trial_index":1,"time_elapsed":5680,"internal_node_id":"0.0-1.0","subject_id":"6100d64e404145c71b3bc360","study_id":"6197b3f67c2b5cd3b6d9596a","session_id":"619be58e7538c9e552ffd4e6","condition":"full-information","relevant_dimensions":["antennae","pattern"],"bee_group":{"antennae":"B","wings":"X","pattern":"S","legs":"X"},"bonus":1.8400000000000012},{"rt":3556.5,"stimulus":"Welcome! Press any key to begin.","response":"u","trial_type":"html-keyboard-response","trial_index":2,"time_elapsed":9237,"internal_node_id":"0.0-2.0","subject_id":"6100d64e404145c71b3bc360","study_id":"6197b3f67c2b5cd3b6d9596a","session_id":"619be58e7538c9e552ffd4e6","condition":"full-information","relevant_dimensions":["antennae","pattern"],"bee_group":{"antennae":"B","wings":"X","pattern":"S","legs":"X"},"bonus":1.8400000000000012},{"view_history":[{"page_index":0,"viewing_time":11697.200000017881},{"page_index":1,"viewing_time":14034},{"page_index":2,"viewing_time":14692.09999999404},{"page_index":3,"viewing_time":25985.80000001192},{"page_index":4,"viewing_time":7566.0999999940395},{"page_index":5,"viewing_time":18816.09999999404},{"page_index":6,"viewing_time":10324},{"page_index":7,"viewing_time":8006},{"page_index":8,"viewing_time":4966},{"page_index":9,"viewing_time":4394.0999999940395},{"page_index":10,"viewing_time":6859.9000000059605},{"page_index":11,"viewing_time":12124},{"page_index":12,"viewing_time":25212},{"page_index":13,"viewing_time":1127.9000000059605},{"page_index":14,"viewing_time":2268.0999999940395}],"rt":168073.60000002384,"trial_type":"instructions","trial_index":3,"time_elapsed":177311,"internal_node_id":"0.0-3.0-0.0","subject_id":"6100d64e404145c71b3bc360","study_id":"6197b3f67c2b5cd3b6d9596a","session_id":"619be58e7538c9e552ffd4e6","condition":"full-information","relevant_dimensions":["antennae","pattern"],"bee_group":{"antennae":"B","wings":"X","pattern":"S","legs":"X"},"bonus":1.8400000000000012},{"rt":22448.90000000596,"response":{"Q0":["Two or six legs","Stripes or spots on body","Single or double wings","Antennae or no antennae"]},"question_order":[0],"trial_type":"survey-multi-select","trial_index":4,"time_elapsed":199764,"internal_node_id":"0.0-3.0-1.0","subject_id":"6100d64e404145c71b3bc360","study_id":"6197b3f67c2b5cd3b6d9596a","session_id":"619be58e7538c9e552ffd4e6","condition":"full-information","relevant_dimensions":["antennae","pattern"],"bee_group":{"antennae":"B","wings":"X","pattern":"S","legs":"X"},"correct":true,"bonus":1.8400000000000012},{"rt":18540.70000001788,"response":{"Q1":"No.","Q2":"Based on the four features of the bee.","Q3":"You learn if it was friendly or dangerous, but do not alter your bonus."},"question_order":[0,1,2],"trial_type":"survey-multi-choice","trial_index":5,"time_elapsed":218306,"internal_node_id":"0.0-3.0-2.0","subject_id":"6100d64e404145c71b3bc360","study_id":"6197b3f67c2b5cd3b6d9596a","session_id":"619be58e7538c9e552ffd4e6","condition":"full-information","relevant_dimensions":["antennae","pattern"],"bee_group":{"antennae":"B","wings":"X","pattern":"S","legs":"X"},"correct":true,"bonus":1.8400000000000012},{"rt":2322.899999976158,"stimulus":"<p>Congrats, you got everything right<br>When you're ready, click the button below to continue to the experiment.</p>","response":0,"trial_type":"html-button-response","trial_index":6,"time_elapsed":220630,"internal_node_id":"0.0-3.0-3.0","subject_id":"6100d64e404145c71b3bc360","study_id":"6197b3f67c2b5cd3b6d9596a","session_id":"619be58e7538c9e552ffd4e6","condition":"full-information","relevant_dimensions":["antennae","pattern"],"bee_group":{"antennae":"B","wings":"X","pattern":"S","legs":"X"},"bonus":1.8400000000000012},{"rt":21978.09999999404,"stimulus":"bees-with-color/bee-B1DM.svg","response":0,"trial_type":"image-button-response","trial_index":7,"time_elapsed":242609,"internal_node_id":"0.0-4.0-0.0","subject_id":"6100d64e404145c71b3bc360","study_id":"6197b3f67c2b5cd3b6d9596a","session_id":"619be58e7538c9e552ffd4e6","condition":"full-information","relevant_dimensions":["antennae","pattern"],"bee_group":{"antennae":"B","wings":"X","pattern":"S","legs":"X"},"action":"harvest","summary":"good-harvest","bonus":1.8400000000000012},{"rt":8978.399999976158,"stimulus":"\n                    <p><b>Action: <em>harvest</em></b></p>\n                    <p>This is the bee that you just saw.</p>\n                    <img src=\"bees-with-color/bee-B1DM.svg\" width=\"200\">\n                    <p><span class=\"greenText\"><b>Successful harvest!</b></span><br>Your pay has increased by $0.02. Your bonus pay is now $0.56.</p>\n            ","response":0,"trial_type":"html-button-response","trial_index":8,"time_elapsed":251589,"internal_node_id":"0.0-4.0-1.0","subject_id":"6100d64e404145c71b3bc360","study_id":"6197b3f67c2b5cd3b6d9596a","session_id":"619be58e7538c9e552ffd4e6","condition":"full-information","relevant_dimensions":["antennae","pattern"],"bee_group":{"antennae":"B","wings":"X","pattern":"S","legs":"X"},"bonus":1.8400000000000012},{"rt":19032.5,"stimulus":"bees-with-color/bee-A1SF.svg","response":1,"trial_type":"image-button-response","trial_index":9,"time_elapsed":270624,"internal_node_id":"0.0-4.0-0.1","subject_id":"6100d64e404145c71b3bc360","study_id":"6197b3f67c2b5cd3b6d9596a","session_id":"619be58e7538c9e552ffd4e6","condition":"full-information","relevant_dimensions":["antennae","pattern"],"bee_group":{"antennae":"B","wings":"X","pattern":"S","legs":"X"},"action":"avoid","summary":"bad-avoid","bonus":1.8400000000000012},{"rt":10902.699999988079,"stimulus":"\n                    <p><b>Action: <em>avoid</em></b></p>\n                    <p>This is the bee that you just saw.</p>\n                    <img src=\"bees-with-color/bee-A1SF.svg\" width=\"200\">\n                    <p><span class=\"redText\">Bad choice,</span> the bee was friendly.<br>Your bonus pay is unchanged, and remains at $0.56.</p>\n            ","response":0,"trial_type":"html-button-response","trial_index":10,"time_elapsed":281528,"internal_node_id":"0.0-4.0-1.1","subject_id":"6100d64e404145c71b3bc360","study_id":"6197b3f67c2b5cd3b6d9596a","session_id":"619be58e7538c9e552ffd4e6","condition":"full-information","relevant_dimensions":["antennae","pattern"],"bee_group":{"antennae":"B","wings":"X","pattern":"S","legs":"X"},"bonus":1.8400000000000012},{"rt":32380.899999976158,"stimulus":"bees-with-color/bee-A2DM.svg","response":1,"trial_type":"image-button-response","trial_index":11,"time_elapsed":313910,"internal_node_id":"0.0-4.0-0.2","subject_id":"6100d64e404145c71b3bc360","study_id":"6197b3f67c2b5cd3b6d9596a","session_id":"619be58e7538c9e552ffd4e6","condition":"full-information","relevant_dimensions":["antennae","pattern"],"bee_group":{"antennae":"B","wings":"X","pattern":"S","legs":"X"},"action":"avoid","summary":"bad-avoid","bonus":1.8400000000000012},{"rt":18732.79999998212,"stimulus":"\n                    <p><b>Action: <em>avoid</em></b></p>\n                    <p>This is the bee that you just saw.</p>\n                    <img src=\"bees-with-color/bee-A2DM.svg\" width=\"200\">\n                    <p><span class=\"redText\">Bad choice,</span> the bee was friendly.<br>Your bonus pay is unchanged, and remains at $0.56.</p>\n            ","response":0,"trial_type":"html-button-response","trial_index":12,"time_elapsed":332644,"internal_node_id":"0.0-4.0-1.2","subject_id":"6100d64e404145c71b3bc360","study_id":"6197b3f67c2b5cd3b6d9596a","session_id":"619be58e7538c9e552ffd4e6","condition":"full-information","relevant_dimensions":["antennae","pattern"],"bee_group":{"antennae":"B","wings":"X","pattern":"S","legs":"X"},"bonus":1.8400000000000012},{"rt":41266.79999998212,"stimulus":"bees-with-color/bee-B2DM.svg","response":0,"trial_type":"image-button-response","trial_index":13,"time_elapsed":373911,"internal_node_id":"0.0-4.0-0.3","subject_id":"6100d64e404145c71b3bc360","study_id":"6197b3f67c2b5cd3b6d9596a","session_id":"619be58e7538c9e552ffd4e6","condition":"full-information","relevant_dimensions":["antennae","pattern"],"bee_group":{"antennae":"B","wings":"X","pattern":"S","legs":"X"},"action":"harvest","summary":"good-harvest","bonus":1.8400000000000012},{"rt":17077,"stimulus":"\n                    <p><b>Action: <em>harvest</em></b></p>\n                    <p>This is the bee that you just saw.</p>\n                    <img src=\"bees-with-color/bee-B2DM.svg\" width=\"200\">\n                    <p><span class=\"greenText\"><b>Successful harvest!</b></span><br>Your pay has increased by $0.02. Your bonus pay is now $0.58.</p>\n            ","response":0,"trial_type":"html-button-response","trial_index":14,"time_elapsed":390990,"internal_node_id":"0.0-4.0-1.3","subject_id":"6100d64e404145c71b3bc360","study_id":"6197b3f67c2b5cd3b6d9596a","session_id":"619be58e7538c9e552ffd4e6","condition":"full-information","relevant_dimensions":["antennae","pattern"],"bee_group":{"antennae":"B","wings":"X","pattern":"S","legs":"X"},"bonus":1.8400000000000012},{"rt":55398.90000000596,"stimulus":"bees-with-color/bee-A1SM.svg","response":0,"trial_type":"image-button-response","trial_index":15,"time_elapsed":446390,"internal_node_id":"0.0-4.0-0.4","subject_id":"6100d64e404145c71b3bc360","study_id":"6197b3f67c2b5cd3b6d9596a","session_id":"619be58e7538c9e552ffd4e6","condition":"full-information","relevant_dimensions":["antennae","pattern"],"bee_group":{"antennae":"B","wings":"X","pattern":"S","legs":"X"},"action":"harvest","summary":"good-harvest","bonus":1.8400000000000012},{"rt":8150.899999976158,"stimulus":"\n                    <p><b>Action: <em>harvest</em></b></p>\n                    <p>This is the bee that you just saw.</p>\n                    <img src=\"bees-with-color/bee-A1SM.svg\" width=\"200\">\n                    <p><span class=\"greenText\"><b>Successful harvest!</b></span><br>Your pay has increased by $0.02. Your bonus pay is now $0.60.</p>\n            ","response":0,"trial_type":"html-button-response","trial_index":16,"time_elapsed":454541,"internal_node_id":"0.0-4.0-1.4","subject_id":"6100d64e404145c71b3bc360","study_id":"6197b3f67c2b5cd3b6d9596a","session_id":"619be58e7538c9e552ffd4e6","condition":"full-information","relevant_dimensions":["antennae","pattern"],"bee_group":{"antennae":"B","wings":"X","pattern":"S","legs":"X"},"bonus":1.8400000000000012},{"rt":55312.90000000596,"stimulus":"bees-with-color/bee-B1SM.svg","response":0,"trial_type":"image-button-response","trial_index":17,"time_elapsed":509855,"internal_node_id":"0.0-4.0-0.5","subject_id":"6100d64e404145c71b3bc360","study_id":"6197b3f67c2b5cd3b6d9596a","session_id":"619be58e7538c9e552ffd4e6","condition":"full-information","relevant_dimensions":["antennae","pattern"],"bee_group":{"antennae":"B","wings":"X","pattern":"S","legs":"X"},"action":"harvest","summary":"bad-harvest","bonus":1.8400000000000012},{"rt":104973.09999999404,"stimulus":"\n                    <p><b>Action: <em>harvest</em></b></p>\n                    <p>This is the bee that you just saw.</p>\n                    <img src=\"bees-with-color/bee-B1SM.svg\" width=\"200\">\n                    <p><span class=\"redText\">Bad choice, the bee was angry.</span><br><b>You have been stung!</b><br>Your pay has been decreased by $0.10. Your bonus pay is now $0.50.</p>\n            ","response":0,"trial_type":"html-button-response","trial_index":18,"time_elapsed":614830,"internal_node_id":"0.0-4.0-1.5","subject_id":"6100d64e404145c71b3bc360","study_id":"6197b3f67c2b5cd3b6d9596a","session_id":"619be58e7538c9e552ffd4e6","condition":"full-information","relevant_dimensions":["antennae","pattern"],"bee_group":{"antennae":"B","wings":"X","pattern":"S","legs":"X"},"bonus":1.8400000000000012},{"rt":47280.80000001192,"stimulus":"bees-with-color/bee-A1DM.svg","response":0,"trial_type":"image-button-response","trial_index":19,"time_elapsed":662112,"internal_node_id":"0.0-4.0-0.6","subject_id":"6100d64e404145c71b3bc360","study_id":"6197b3f67c2b5cd3b6d9596a","session_id":"619be58e7538c9e552ffd4e6","condition":"full-information","relevant_dimensions":["antennae","pattern"],"bee_group":{"antennae":"B","wings":"X","pattern":"S","legs":"X"},"action":"harvest","summary":"good-harvest","bonus":1.8400000000000012},{"rt":6568.800000011921,"stimulus":"\n                    <p><b>Action: <em>harvest</em></b></p>\n                    <p>This is the bee that you just saw.</p>\n                    <img src=\"bees-with-color/bee-A1DM.svg\" width=\"200\">\n                    <p><span class=\"greenText\"><b>Successful harvest!</b></span><br>Your pay has increased by $0.02. Your bonus pay is now $0.52.</p>\n            ","response":0,"trial_type":"html-button-response","trial_index":20,"time_elapsed":668682,"internal_node_id":"0.0-4.0-1.6","subject_id":"6100d64e404145c71b3bc360","study_id":"6197b3f67c2b5cd3b6d9596a","session_id":"619be58e7538c9e552ffd4e6","condition":"full-information","relevant_dimensions":["antennae","pattern"],"bee_group":{"antennae":"B","wings":"X","pattern":"S","legs":"X"},"bonus":1.8400000000000012},{"rt":29342.90000000596,"stimulus":"bees-with-color/bee-B2SF.svg","response":1,"trial_type":"image-button-response","trial_index":21,"time_elapsed":698026,"internal_node_id":"0.0-4.0-0.7","subject_id":"6100d64e404145c71b3bc360","study_id":"6197b3f67c2b5cd3b6d9596a","session_id":"619be58e7538c9e552ffd4e6","condition":"full-information","relevant_dimensions":["antennae","pattern"],"bee_group":{"antennae":"B","wings":"X","pattern":"S","legs":"X"},"action":"avoid","summary":"good-avoid","bonus":1.8400000000000012},{"rt":31867.29999998212,"stimulus":"\n                    <p><b>Action: <em>avoid</em></b></p>\n                    <p>This is the bee that you just saw.</p>\n                    <img src=\"bees-with-color/bee-B2SF.svg\" width=\"200\">\n                    <p><span class=\"greenText\">Good choice!</span>  This bee would have stung you.<br>Your bonus pay is unchanged, and remains at $0.52.</p>\n            ","response":0,"trial_type":"html-button-response","trial_index":22,"time_elapsed":729894,"internal_node_id":"0.0-4.0-1.7","subject_id":"6100d64e404145c71b3bc360","study_id":"6197b3f67c2b5cd3b6d9596a","session_id":"619be58e7538c9e552ffd4e6","condition":"full-information","relevant_dimensions":["antennae","pattern"],"bee_group":{"antennae":"B","wings":"X","pattern":"S","legs":"X"},"bonus":1.8400000000000012},{"rt":36098.69999998808,"stimulus":"bees-with-color/bee-B1SF.svg","response":1,"trial_type":"image-button-response","trial_index":23,"time_elapsed":765994,"internal_node_id":"0.0-4.0-0.8","subject_id":"6100d64e404145c71b3bc360","study_id":"6197b3f67c2b5cd3b6d9596a","session_id":"619be58e7538c9e552ffd4e6","condition":"full-information","relevant_dimensions":["antennae","pattern"],"bee_group":{"antennae":"B","wings":"X","pattern":"S","legs":"X"},"action":"avoid","summary":"good-avoid","bonus":1.8400000000000012},{"rt":120425,"stimulus":"\n                    <p><b>Action: <em>avoid</em></b></p>\n                    <p>This is the bee that you just saw.</p>\n                    <img src=\"bees-with-color/bee-B1SF.svg\" width=\"200\">\n                    <p><span class=\"greenText\">Good choice!</span>  This bee would have stung you.<br>Your bonus pay is unchanged, and remains at $0.52.</p>\n            ","response":0,"trial_type":"html-button-response","trial_index":24,"time_elapsed":886420,"internal_node_id":"0.0-4.0-1.8","subject_id":"6100d64e404145c71b3bc360","study_id":"6197b3f67c2b5cd3b6d9596a","session_id":"619be58e7538c9e552ffd4e6","condition":"full-information","relevant_dimensions":["antennae","pattern"],"bee_group":{"antennae":"B","wings":"X","pattern":"S","legs":"X"},"bonus":1.8400000000000012},{"rt":54514.89999997616,"stimulus":"bees-with-color/bee-B2SM.svg","response":1,"trial_type":"image-button-response","trial_index":25,"time_elapsed":940936,"internal_node_id":"0.0-4.0-0.9","subject_id":"6100d64e404145c71b3bc360","study_id":"6197b3f67c2b5cd3b6d9596a","session_id":"619be58e7538c9e552ffd4e6","condition":"full-information","relevant_dimensions":["antennae","pattern"],"bee_group":{"antennae":"B","wings":"X","pattern":"S","legs":"X"},"action":"avoid","summary":"good-avoid","bonus":1.8400000000000012},{"rt":81981.10000002384,"stimulus":"\n                    <p><b>Action: <em>avoid</em></b></p>\n                    <p>This is the bee that you just saw.</p>\n                    <img src=\"bees-with-color/bee-B2SM.svg\" width=\"200\">\n                    <p><span class=\"greenText\">Good choice!</span>  This bee would have stung you.<br>Your bonus pay is unchanged, and remains at $0.52.</p>\n            ","response":0,"trial_type":"html-button-response","trial_index":26,"time_elapsed":1022918,"internal_node_id":"0.0-4.0-1.9","subject_id":"6100d64e404145c71b3bc360","study_id":"6197b3f67c2b5cd3b6d9596a","session_id":"619be58e7538c9e552ffd4e6","condition":"full-information","relevant_dimensions":["antennae","pattern"],"bee_group":{"antennae":"B","wings":"X","pattern":"S","legs":"X"},"bonus":1.8400000000000012},{"rt":45881,"stimulus":"bees-with-color/bee-B2DF.svg","response":0,"trial_type":"image-button-response","trial_index":27,"time_elapsed":1068800,"internal_node_id":"0.0-4.0-0.10","subject_id":"6100d64e404145c71b3bc360","study_id":"6197b3f67c2b5cd3b6d9596a","session_id":"619be58e7538c9e552ffd4e6","condition":"full-information","relevant_dimensions":["antennae","pattern"],"bee_group":{"antennae":"B","wings":"X","pattern":"S","legs":"X"},"action":"harvest","summary":"good-harvest","bonus":1.8400000000000012},{"rt":55459,"stimulus":"\n                    <p><b>Action: <em>harvest</em></b></p>\n                    <p>This is the bee that you just saw.</p>\n                    <img src=\"bees-with-color/bee-B2DF.svg\" width=\"200\">\n                    <p><span class=\"greenText\"><b>Successful harvest!</b></span><br>Your pay has increased by $0.02. Your bonus pay is now $0.54.</p>\n            ","response":0,"trial_type":"html-button-response","trial_index":28,"time_elapsed":1124260,"internal_node_id":"0.0-4.0-1.10","subject_id":"6100d64e404145c71b3bc360","study_id":"6197b3f67c2b5cd3b6d9596a","session_id":"619be58e7538c9e552ffd4e6","condition":"full-information","relevant_dimensions":["antennae","pattern"],"bee_group":{"antennae":"B","wings":"X","pattern":"S","legs":"X"},"bonus":1.8400000000000012},{"rt":39000.90000000596,"stimulus":"bees-with-color/bee-A2SM.svg","response":0,"trial_type":"image-button-response","trial_index":29,"time_elapsed":1163262,"internal_node_id":"0.0-4.0-0.11","subject_id":"6100d64e404145c71b3bc360","study_id":"6197b3f67c2b5cd3b6d9596a","session_id":"619be58e7538c9e552ffd4e6","condition":"full-information","relevant_dimensions":["antennae","pattern"],"bee_group":{"antennae":"B","wings":"X","pattern":"S","legs":"X"},"action":"harvest","summary":"good-harvest","bonus":1.8400000000000012},{"rt":7731.299999982119,"stimulus":"\n                    <p><b>Action: <em>harvest</em></b></p>\n                    <p>This is the bee that you just saw.</p>\n                    <img src=\"bees-with-color/bee-A2SM.svg\" width=\"200\">\n                    <p><span class=\"greenText\"><b>Successful harvest!</b></span><br>Your pay has increased by $0.02. Your bonus pay is now $0.56.</p>\n            ","response":0,"trial_type":"html-button-response","trial_index":30,"time_elapsed":1170994,"internal_node_id":"0.0-4.0-1.11","subject_id":"6100d64e404145c71b3bc360","study_id":"6197b3f67c2b5cd3b6d9596a","session_id":"619be58e7538c9e552ffd4e6","condition":"full-information","relevant_dimensions":["antennae","pattern"],"bee_group":{"antennae":"B","wings":"X","pattern":"S","legs":"X"},"bonus":1.8400000000000012},{"rt":54233.30000001192,"stimulus":"bees-with-color/bee-A2SF.svg","response":0,"trial_type":"image-button-response","trial_index":31,"time_elapsed":1225228,"internal_node_id":"0.0-4.0-0.12","subject_id":"6100d64e404145c71b3bc360","study_id":"6197b3f67c2b5cd3b6d9596a","session_id":"619be58e7538c9e552ffd4e6","condition":"full-information","relevant_dimensions":["antennae","pattern"],"bee_group":{"antennae":"B","wings":"X","pattern":"S","legs":"X"},"action":"harvest","summary":"good-harvest","bonus":1.8400000000000012},{"rt":5627,"stimulus":"\n                    <p><b>Action: <em>harvest</em></b></p>\n                    <p>This is the bee that you just saw.</p>\n                    <img src=\"bees-with-color/bee-A2SF.svg\" width=\"200\">\n                    <p><span class=\"greenText\"><b>Successful harvest!</b></span><br>Your pay has increased by $0.02. Your bonus pay is now $0.58.</p>\n            ","response":0,"trial_type":"html-button-response","trial_index":32,"time_elapsed":1230857,"internal_node_id":"0.0-4.0-1.12","subject_id":"6100d64e404145c71b3bc360","study_id":"6197b3f67c2b5cd3b6d9596a","session_id":"619be58e7538c9e552ffd4e6","condition":"full-information","relevant_dimensions":["antennae","pattern"],"bee_group":{"antennae":"B","wings":"X","pattern":"S","legs":"X"},"bonus":1.8400000000000012},{"rt":32590.69999998808,"stimulus":"bees-with-color/bee-A1DF.svg","response":0,"trial_type":"image-button-response","trial_index":33,"time_elapsed":1263448,"internal_node_id":"0.0-4.0-0.13","subject_id":"6100d64e404145c71b3bc360","study_id":"6197b3f67c2b5cd3b6d9596a","session_id":"619be58e7538c9e552ffd4e6","condition":"full-information","relevant_dimensions":["antennae","pattern"],"bee_group":{"antennae":"B","wings":"X","pattern":"S","legs":"X"},"action":"harvest","summary":"good-harvest","bonus":1.8400000000000012},{"rt":1445,"stimulus":"\n                    <p><b>Action: <em>harvest</em></b></p>\n                    <p>This is the bee that you just saw.</p>\n                    <img src=\"bees-with-color/bee-A1DF.svg\" width=\"200\">\n                    <p><span class=\"greenText\"><b>Successful harvest!</b></span><br>Your pay has increased by $0.02. Your bonus pay is now $0.60.</p>\n            ","response":0,"trial_type":"html-button-response","trial_index":34,"time_elapsed":1264894,"internal_node_id":"0.0-4.0-1.13","subject_id":"6100d64e404145c71b3bc360","study_id":"6197b3f67c2b5cd3b6d9596a","session_id":"619be58e7538c9e552ffd4e6","condition":"full-information","relevant_dimensions":["antennae","pattern"],"bee_group":{"antennae":"B","wings":"X","pattern":"S","legs":"X"},"bonus":1.8400000000000012},{"rt":15302.699999988079,"stimulus":"bees-with-color/bee-A2DF.svg","response":0,"trial_type":"image-button-response","trial_index":35,"time_elapsed":1280198,"internal_node_id":"0.0-4.0-0.14","subject_id":"6100d64e404145c71b3bc360","study_id":"6197b3f67c2b5cd3b6d9596a","session_id":"619be58e7538c9e552ffd4e6","condition":"full-information","relevant_dimensions":["antennae","pattern"],"bee_group":{"antennae":"B","wings":"X","pattern":"S","legs":"X"},"action":"harvest","summary":"good-harvest","bonus":1.8400000000000012},{"rt":1141.199999988079,"stimulus":"\n                    <p><b>Action: <em>harvest</em></b></p>\n                    <p>This is the bee that you just saw.</p>\n                    <img src=\"bees-with-color/bee-A2DF.svg\" width=\"200\">\n                    <p><span class=\"greenText\"><b>Successful harvest!</b></span><br>Your pay has increased by $0.02. Your bonus pay is now $0.62.</p>\n            ","response":0,"trial_type":"html-button-response","trial_index":36,"time_elapsed":1281340,"internal_node_id":"0.0-4.0-1.14","subject_id":"6100d64e404145c71b3bc360","study_id":"6197b3f67c2b5cd3b6d9596a","session_id":"619be58e7538c9e552ffd4e6","condition":"full-information","relevant_dimensions":["antennae","pattern"],"bee_group":{"antennae":"B","wings":"X","pattern":"S","legs":"X"},"bonus":1.8400000000000012},{"rt":18049.100000023842,"stimulus":"bees-with-color/bee-B1DF.svg","response":0,"trial_type":"image-button-response","trial_index":37,"time_elapsed":1299390,"internal_node_id":"0.0-4.0-0.15","subject_id":"6100d64e404145c71b3bc360","study_id":"6197b3f67c2b5cd3b6d9596a","session_id":"619be58e7538c9e552ffd4e6","condition":"full-information","relevant_dimensions":["antennae","pattern"],"bee_group":{"antennae":"B","wings":"X","pattern":"S","legs":"X"},"action":"harvest","summary":"good-harvest","bonus":1.8400000000000012},{"rt":896.9000000059605,"stimulus":"\n                    <p><b>Action: <em>harvest</em></b></p>\n                    <p>This is the bee that you just saw.</p>\n                    <img src=\"bees-with-color/bee-B1DF.svg\" width=\"200\">\n                    <p><span class=\"greenText\"><b>Successful harvest!</b></span><br>Your pay has increased by $0.02. Your bonus pay is now $0.64.</p>\n            ","response":0,"trial_type":"html-button-response","trial_index":38,"time_elapsed":1300288,"internal_node_id":"0.0-4.0-1.15","subject_id":"6100d64e404145c71b3bc360","study_id":"6197b3f67c2b5cd3b6d9596a","session_id":"619be58e7538c9e552ffd4e6","condition":"full-information","relevant_dimensions":["antennae","pattern"],"bee_group":{"antennae":"B","wings":"X","pattern":"S","legs":"X"},"bonus":1.8400000000000012},{"rt":17510.79999998212,"stimulus":"bees-with-color/bee-A1SM.svg","response":0,"trial_type":"image-button-response","trial_index":39,"time_elapsed":1317800,"internal_node_id":"0.0-4.0-0.16","subject_id":"6100d64e404145c71b3bc360","study_id":"6197b3f67c2b5cd3b6d9596a","session_id":"619be58e7538c9e552ffd4e6","condition":"full-information","relevant_dimensions":["antennae","pattern"],"bee_group":{"antennae":"B","wings":"X","pattern":"S","legs":"X"},"action":"harvest","summary":"good-harvest","bonus":1.8400000000000012},{"rt":1275,"stimulus":"\n                    <p><b>Action: <em>harvest</em></b></p>\n                    <p>This is the bee that you just saw.</p>\n                    <img src=\"bees-with-color/bee-A1SM.svg\" width=\"200\">\n                    <p><span class=\"greenText\"><b>Successful harvest!</b></span><br>Your pay has increased by $0.02. Your bonus pay is now $0.66.</p>\n            ","response":0,"trial_type":"html-button-response","trial_index":40,"time_elapsed":1319076,"internal_node_id":"0.0-4.0-1.16","subject_id":"6100d64e404145c71b3bc360","study_id":"6197b3f67c2b5cd3b6d9596a","session_id":"619be58e7538c9e552ffd4e6","condition":"full-information","relevant_dimensions":["antennae","pattern"],"bee_group":{"antennae":"B","wings":"X","pattern":"S","legs":"X"},"bonus":1.8400000000000012},{"rt":7790.799999982119,"stimulus":"bees-with-color/bee-A1SF.svg","response":0,"trial_type":"image-button-response","trial_index":41,"time_elapsed":1326868,"internal_node_id":"0.0-4.0-0.17","subject_id":"6100d64e404145c71b3bc360","study_id":"6197b3f67c2b5cd3b6d9596a","session_id":"619be58e7538c9e552ffd4e6","condition":"full-information","relevant_dimensions":["antennae","pattern"],"bee_group":{"antennae":"B","wings":"X","pattern":"S","legs":"X"},"action":"harvest","summary":"good-harvest","bonus":1.8400000000000012},{"rt":853,"stimulus":"\n                    <p><b>Action: <em>harvest</em></b></p>\n                    <p>This is the bee that you just saw.</p>\n                    <img src=\"bees-with-color/bee-A1SF.svg\" width=\"200\">\n                    <p><span class=\"greenText\"><b>Successful harvest!</b></span><br>Your pay has increased by $0.02. Your bonus pay is now $0.68.</p>\n            ","response":0,"trial_type":"html-button-response","trial_index":42,"time_elapsed":1327723,"internal_node_id":"0.0-4.0-1.17","subject_id":"6100d64e404145c71b3bc360","study_id":"6197b3f67c2b5cd3b6d9596a","session_id":"619be58e7538c9e552ffd4e6","condition":"full-information","relevant_dimensions":["antennae","pattern"],"bee_group":{"antennae":"B","wings":"X","pattern":"S","legs":"X"},"bonus":1.8400000000000012},{"rt":13157.100000023842,"stimulus":"bees-with-color/bee-A1DM.svg","response":0,"trial_type":"image-button-response","trial_index":43,"time_elapsed":1340881,"internal_node_id":"0.0-4.0-0.18","subject_id":"6100d64e404145c71b3bc360","study_id":"6197b3f67c2b5cd3b6d9596a","session_id":"619be58e7538c9e552ffd4e6","condition":"full-information","relevant_dimensions":["antennae","pattern"],"bee_group":{"antennae":"B","wings":"X","pattern":"S","legs":"X"},"action":"harvest","summary":"good-harvest","bonus":1.8400000000000012},{"rt":759,"stimulus":"\n                    <p><b>Action: <em>harvest</em></b></p>\n                    <p>This is the bee that you just saw.</p>\n                    <img src=\"bees-with-color/bee-A1DM.svg\" width=\"200\">\n                    <p><span class=\"greenText\"><b>Successful harvest!</b></span><br>Your pay has increased by $0.02. Your bonus pay is now $0.70.</p>\n            ","response":0,"trial_type":"html-button-response","trial_index":44,"time_elapsed":1341640,"internal_node_id":"0.0-4.0-1.18","subject_id":"6100d64e404145c71b3bc360","study_id":"6197b3f67c2b5cd3b6d9596a","session_id":"619be58e7538c9e552ffd4e6","condition":"full-information","relevant_dimensions":["antennae","pattern"],"bee_group":{"antennae":"B","wings":"X","pattern":"S","legs":"X"},"bonus":1.8400000000000012},{"rt":11112.799999982119,"stimulus":"bees-with-color/bee-A2SM.svg","response":0,"trial_type":"image-button-response","trial_index":45,"time_elapsed":1352754,"internal_node_id":"0.0-4.0-0.19","subject_id":"6100d64e404145c71b3bc360","study_id":"6197b3f67c2b5cd3b6d9596a","session_id":"619be58e7538c9e552ffd4e6","condition":"full-information","relevant_dimensions":["antennae","pattern"],"bee_group":{"antennae":"B","wings":"X","pattern":"S","legs":"X"},"action":"harvest","summary":"good-harvest","bonus":1.8400000000000012},{"rt":849.0999999940395,"stimulus":"\n                    <p><b>Action: <em>harvest</em></b></p>\n                    <p>This is the bee that you just saw.</p>\n                    <img src=\"bees-with-color/bee-A2SM.svg\" width=\"200\">\n                    <p><span class=\"greenText\"><b>Successful harvest!</b></span><br>Your pay has increased by $0.02. Your bonus pay is now $0.72.</p>\n            ","response":0,"trial_type":"html-button-response","trial_index":46,"time_elapsed":1353604,"internal_node_id":"0.0-4.0-1.19","subject_id":"6100d64e404145c71b3bc360","study_id":"6197b3f67c2b5cd3b6d9596a","session_id":"619be58e7538c9e552ffd4e6","condition":"full-information","relevant_dimensions":["antennae","pattern"],"bee_group":{"antennae":"B","wings":"X","pattern":"S","legs":"X"},"bonus":1.8400000000000012},{"rt":5063,"stimulus":"bees-with-color/bee-A2DM.svg","response":0,"trial_type":"image-button-response","trial_index":47,"time_elapsed":1358668,"internal_node_id":"0.0-4.0-0.20","subject_id":"6100d64e404145c71b3bc360","study_id":"6197b3f67c2b5cd3b6d9596a","session_id":"619be58e7538c9e552ffd4e6","condition":"full-information","relevant_dimensions":["antennae","pattern"],"bee_group":{"antennae":"B","wings":"X","pattern":"S","legs":"X"},"action":"harvest","summary":"good-harvest","bonus":1.8400000000000012},{"rt":645,"stimulus":"\n                    <p><b>Action: <em>harvest</em></b></p>\n                    <p>This is the bee that you just saw.</p>\n                    <img src=\"bees-with-color/bee-A2DM.svg\" width=\"200\">\n                    <p><span class=\"greenText\"><b>Successful harvest!</b></span><br>Your pay has increased by $0.02. Your bonus pay is now $0.74.</p>\n            ","response":0,"trial_type":"html-button-response","trial_index":48,"time_elapsed":1359315,"internal_node_id":"0.0-4.0-1.20","subject_id":"6100d64e404145c71b3bc360","study_id":"6197b3f67c2b5cd3b6d9596a","session_id":"619be58e7538c9e552ffd4e6","condition":"full-information","relevant_dimensions":["antennae","pattern"],"bee_group":{"antennae":"B","wings":"X","pattern":"S","legs":"X"},"bonus":1.8400000000000012},{"rt":10955,"stimulus":"bees-with-color/bee-B1SF.svg","response":1,"trial_type":"image-button-response","trial_index":49,"time_elapsed":1370271,"internal_node_id":"0.0-4.0-0.21","subject_id":"6100d64e404145c71b3bc360","study_id":"6197b3f67c2b5cd3b6d9596a","session_id":"619be58e7538c9e552ffd4e6","condition":"full-information","relevant_dimensions":["antennae","pattern"],"bee_group":{"antennae":"B","wings":"X","pattern":"S","legs":"X"},"action":"avoid","summary":"good-avoid","bonus":1.8400000000000012},{"rt":2299.2000000178814,"stimulus":"\n                    <p><b>Action: <em>avoid</em></b></p>\n                    <p>This is the bee that you just saw.</p>\n                    <img src=\"bees-with-color/bee-B1SF.svg\" width=\"200\">\n                    <p><span class=\"greenText\">Good choice!</span>  This bee would have stung you.<br>Your bonus pay is unchanged, and remains at $0.74.</p>\n            ","response":0,"trial_type":"html-button-response","trial_index":50,"time_elapsed":1372571,"internal_node_id":"0.0-4.0-1.21","subject_id":"6100d64e404145c71b3bc360","study_id":"6197b3f67c2b5cd3b6d9596a","session_id":"619be58e7538c9e552ffd4e6","condition":"full-information","relevant_dimensions":["antennae","pattern"],"bee_group":{"antennae":"B","wings":"X","pattern":"S","legs":"X"},"bonus":1.8400000000000012},{"rt":4262.899999976158,"stimulus":"bees-with-color/bee-B1DM.svg","response":0,"trial_type":"image-button-response","trial_index":51,"time_elapsed":1376834,"internal_node_id":"0.0-4.0-0.22","subject_id":"6100d64e404145c71b3bc360","study_id":"6197b3f67c2b5cd3b6d9596a","session_id":"619be58e7538c9e552ffd4e6","condition":"full-information","relevant_dimensions":["antennae","pattern"],"bee_group":{"antennae":"B","wings":"X","pattern":"S","legs":"X"},"action":"harvest","summary":"good-harvest","bonus":1.8400000000000012},{"rt":1099.0999999940395,"stimulus":"\n                    <p><b>Action: <em>harvest</em></b></p>\n                    <p>This is the bee that you just saw.</p>\n                    <img src=\"bees-with-color/bee-B1DM.svg\" width=\"200\">\n                    <p><span class=\"greenText\"><b>Successful harvest!</b></span><br>Your pay has increased by $0.02. Your bonus pay is now $0.76.</p>\n            ","response":0,"trial_type":"html-button-response","trial_index":52,"time_elapsed":1377934,"internal_node_id":"0.0-4.0-1.22","subject_id":"6100d64e404145c71b3bc360","study_id":"6197b3f67c2b5cd3b6d9596a","session_id":"619be58e7538c9e552ffd4e6","condition":"full-information","relevant_dimensions":["antennae","pattern"],"bee_group":{"antennae":"B","wings":"X","pattern":"S","legs":"X"},"bonus":1.8400000000000012},{"rt":2665,"stimulus":"bees-with-color/bee-B2SM.svg","response":1,"trial_type":"image-button-response","trial_index":53,"time_elapsed":1380600,"internal_node_id":"0.0-4.0-0.23","subject_id":"6100d64e404145c71b3bc360","study_id":"6197b3f67c2b5cd3b6d9596a","session_id":"619be58e7538c9e552ffd4e6","condition":"full-information","relevant_dimensions":["antennae","pattern"],"bee_group":{"antennae":"B","wings":"X","pattern":"S","legs":"X"},"action":"avoid","summary":"good-avoid","bonus":1.8400000000000012},{"rt":593.1000000238419,"stimulus":"\n                    <p><b>Action: <em>avoid</em></b></p>\n                    <p>This is the bee that you just saw.</p>\n                    <img src=\"bees-with-color/bee-B2SM.svg\" width=\"200\">\n                    <p><span class=\"greenText\">Good choice!</span>  This bee would have stung you.<br>Your bonus pay is unchanged, and remains at $0.76.</p>\n            ","response":0,"trial_type":"html-button-response","trial_index":54,"time_elapsed":1381195,"internal_node_id":"0.0-4.0-1.23","subject_id":"6100d64e404145c71b3bc360","study_id":"6197b3f67c2b5cd3b6d9596a","session_id":"619be58e7538c9e552ffd4e6","condition":"full-information","relevant_dimensions":["antennae","pattern"],"bee_group":{"antennae":"B","wings":"X","pattern":"S","legs":"X"},"bonus":1.8400000000000012},{"rt":2582.899999976158,"stimulus":"bees-with-color/bee-B2DF.svg","response":0,"trial_type":"image-button-response","trial_index":55,"time_elapsed":1383778,"internal_node_id":"0.0-4.0-0.24","subject_id":"6100d64e404145c71b3bc360","study_id":"6197b3f67c2b5cd3b6d9596a","session_id":"619be58e7538c9e552ffd4e6","condition":"full-information","relevant_dimensions":["antennae","pattern"],"bee_group":{"antennae":"B","wings":"X","pattern":"S","legs":"X"},"action":"harvest","summary":"good-harvest","bonus":1.8400000000000012},{"rt":1699.0999999940395,"stimulus":"\n                    <p><b>Action: <em>harvest</em></b></p>\n                    <p>This is the bee that you just saw.</p>\n                    <img src=\"bees-with-color/bee-B2DF.svg\" width=\"200\">\n                    <p><span class=\"greenText\"><b>Successful harvest!</b></span><br>Your pay has increased by $0.02. Your bonus pay is now $0.78.</p>\n            ","response":0,"trial_type":"html-button-response","trial_index":56,"time_elapsed":1385479,"internal_node_id":"0.0-4.0-1.24","subject_id":"6100d64e404145c71b3bc360","study_id":"6197b3f67c2b5cd3b6d9596a","session_id":"619be58e7538c9e552ffd4e6","condition":"full-information","relevant_dimensions":["antennae","pattern"],"bee_group":{"antennae":"B","wings":"X","pattern":"S","legs":"X"},"bonus":1.8400000000000012},{"rt":2560.7999999821186,"stimulus":"bees-with-color/bee-B1DF.svg","response":0,"trial_type":"image-button-response","trial_index":57,"time_elapsed":1388040,"internal_node_id":"0.0-4.0-0.25","subject_id":"6100d64e404145c71b3bc360","study_id":"6197b3f67c2b5cd3b6d9596a","session_id":"619be58e7538c9e552ffd4e6","condition":"full-information","relevant_dimensions":["antennae","pattern"],"bee_group":{"antennae":"B","wings":"X","pattern":"S","legs":"X"},"action":"harvest","summary":"good-harvest","bonus":1.8400000000000012},{"rt":1103.0999999940395,"stimulus":"\n                    <p><b>Action: <em>harvest</em></b></p>\n                    <p>This is the bee that you just saw.</p>\n                    <img src=\"bees-with-color/bee-B1DF.svg\" width=\"200\">\n                    <p><span class=\"greenText\"><b>Successful harvest!</b></span><br>Your pay has increased by $0.02. Your bonus pay is now $0.80.</p>\n            ","response":0,"trial_type":"html-button-response","trial_index":58,"time_elapsed":1389144,"internal_node_id":"0.0-4.0-1.25","subject_id":"6100d64e404145c71b3bc360","study_id":"6197b3f67c2b5cd3b6d9596a","session_id":"619be58e7538c9e552ffd4e6","condition":"full-information","relevant_dimensions":["antennae","pattern"],"bee_group":{"antennae":"B","wings":"X","pattern":"S","legs":"X"},"bonus":1.8400000000000012},{"rt":1921.1000000238419,"stimulus":"bees-with-color/bee-B2SF.svg","response":1,"trial_type":"image-button-response","trial_index":59,"time_elapsed":1391066,"internal_node_id":"0.0-4.0-0.26","subject_id":"6100d64e404145c71b3bc360","study_id":"6197b3f67c2b5cd3b6d9596a","session_id":"619be58e7538c9e552ffd4e6","condition":"full-information","relevant_dimensions":["antennae","pattern"],"bee_group":{"antennae":"B","wings":"X","pattern":"S","legs":"X"},"action":"avoid","summary":"good-avoid","bonus":1.8400000000000012},{"rt":1370.8999999761581,"stimulus":"\n                    <p><b>Action: <em>avoid</em></b></p>\n                    <p>This is the bee that you just saw.</p>\n                    <img src=\"bees-with-color/bee-B2SF.svg\" width=\"200\">\n                    <p><span class=\"greenText\">Good choice!</span>  This bee would have stung you.<br>Your bonus pay is unchanged, and remains at $0.80.</p>\n            ","response":0,"trial_type":"html-button-response","trial_index":60,"time_elapsed":1392438,"internal_node_id":"0.0-4.0-1.26","subject_id":"6100d64e404145c71b3bc360","study_id":"6197b3f67c2b5cd3b6d9596a","session_id":"619be58e7538c9e552ffd4e6","condition":"full-information","relevant_dimensions":["antennae","pattern"],"bee_group":{"antennae":"B","wings":"X","pattern":"S","legs":"X"},"bonus":1.8400000000000012},{"rt":2025.2999999821186,"stimulus":"bees-with-color/bee-B1SM.svg","response":1,"trial_type":"image-button-response","trial_index":61,"time_elapsed":1394464,"internal_node_id":"0.0-4.0-0.27","subject_id":"6100d64e404145c71b3bc360","study_id":"6197b3f67c2b5cd3b6d9596a","session_id":"619be58e7538c9e552ffd4e6","condition":"full-information","relevant_dimensions":["antennae","pattern"],"bee_group":{"antennae":"B","wings":"X","pattern":"S","legs":"X"},"action":"avoid","summary":"good-avoid","bonus":1.8400000000000012},{"rt":845.1000000238419,"stimulus":"\n                    <p><b>Action: <em>avoid</em></b></p>\n                    <p>This is the bee that you just saw.</p>\n                    <img src=\"bees-with-color/bee-B1SM.svg\" width=\"200\">\n                    <p><span class=\"greenText\">Good choice!</span>  This bee would have stung you.<br>Your bonus pay is unchanged, and remains at $0.80.</p>\n            ","response":0,"trial_type":"html-button-response","trial_index":62,"time_elapsed":1395310,"internal_node_id":"0.0-4.0-1.27","subject_id":"6100d64e404145c71b3bc360","study_id":"6197b3f67c2b5cd3b6d9596a","session_id":"619be58e7538c9e552ffd4e6","condition":"full-information","relevant_dimensions":["antennae","pattern"],"bee_group":{"antennae":"B","wings":"X","pattern":"S","legs":"X"},"bonus":1.8400000000000012},{"rt":2030.7999999821186,"stimulus":"bees-with-color/bee-A1DF.svg","response":0,"trial_type":"image-button-response","trial_index":63,"time_elapsed":1397342,"internal_node_id":"0.0-4.0-0.28","subject_id":"6100d64e404145c71b3bc360","study_id":"6197b3f67c2b5cd3b6d9596a","session_id":"619be58e7538c9e552ffd4e6","condition":"full-information","relevant_dimensions":["antennae","pattern"],"bee_group":{"antennae":"B","wings":"X","pattern":"S","legs":"X"},"action":"harvest","summary":"good-harvest","bonus":1.8400000000000012},{"rt":538.8999999761581,"stimulus":"\n                    <p><b>Action: <em>harvest</em></b></p>\n                    <p>This is the bee that you just saw.</p>\n                    <img src=\"bees-with-color/bee-A1DF.svg\" width=\"200\">\n                    <p><span class=\"greenText\"><b>Successful harvest!</b></span><br>Your pay has increased by $0.02. Your bonus pay is now $0.82.</p>\n            ","response":0,"trial_type":"html-button-response","trial_index":64,"time_elapsed":1397882,"internal_node_id":"0.0-4.0-1.28","subject_id":"6100d64e404145c71b3bc360","study_id":"6197b3f67c2b5cd3b6d9596a","session_id":"619be58e7538c9e552ffd4e6","condition":"full-information","relevant_dimensions":["antennae","pattern"],"bee_group":{"antennae":"B","wings":"X","pattern":"S","legs":"X"},"bonus":1.8400000000000012},{"rt":1259.1000000238419,"stimulus":"bees-with-color/bee-A2DF.svg","response":0,"trial_type":"image-button-response","trial_index":65,"time_elapsed":1399143,"internal_node_id":"0.0-4.0-0.29","subject_id":"6100d64e404145c71b3bc360","study_id":"6197b3f67c2b5cd3b6d9596a","session_id":"619be58e7538c9e552ffd4e6","condition":"full-information","relevant_dimensions":["antennae","pattern"],"bee_group":{"antennae":"B","wings":"X","pattern":"S","legs":"X"},"action":"harvest","summary":"good-harvest","bonus":1.8400000000000012},{"rt":743,"stimulus":"\n                    <p><b>Action: <em>harvest</em></b></p>\n                    <p>This is the bee that you just saw.</p>\n                    <img src=\"bees-with-color/bee-A2DF.svg\" width=\"200\">\n                    <p><span class=\"greenText\"><b>Successful harvest!</b></span><br>Your pay has increased by $0.02. Your bonus pay is now $0.84.</p>\n            ","response":0,"trial_type":"html-button-response","trial_index":66,"time_elapsed":1399887,"internal_node_id":"0.0-4.0-1.29","subject_id":"6100d64e404145c71b3bc360","study_id":"6197b3f67c2b5cd3b6d9596a","session_id":"619be58e7538c9e552ffd4e6","condition":"full-information","relevant_dimensions":["antennae","pattern"],"bee_group":{"antennae":"B","wings":"X","pattern":"S","legs":"X"},"bonus":1.8400000000000012},{"rt":1714.8999999761581,"stimulus":"bees-with-color/bee-B2DM.svg","response":0,"trial_type":"image-button-response","trial_index":67,"time_elapsed":1401602,"internal_node_id":"0.0-4.0-0.30","subject_id":"6100d64e404145c71b3bc360","study_id":"6197b3f67c2b5cd3b6d9596a","session_id":"619be58e7538c9e552ffd4e6","condition":"full-information","relevant_dimensions":["antennae","pattern"],"bee_group":{"antennae":"B","wings":"X","pattern":"S","legs":"X"},"action":"harvest","summary":"good-harvest","bonus":1.8400000000000012},{"rt":753,"stimulus":"\n                    <p><b>Action: <em>harvest</em></b></p>\n                    <p>This is the bee that you just saw.</p>\n                    <img src=\"bees-with-color/bee-B2DM.svg\" width=\"200\">\n                    <p><span class=\"greenText\"><b>Successful harvest!</b></span><br>Your pay has increased by $0.02. Your bonus pay is now $0.86.</p>\n            ","response":0,"trial_type":"html-button-response","trial_index":68,"time_elapsed":1402357,"internal_node_id":"0.0-4.0-1.30","subject_id":"6100d64e404145c71b3bc360","study_id":"6197b3f67c2b5cd3b6d9596a","session_id":"619be58e7538c9e552ffd4e6","condition":"full-information","relevant_dimensions":["antennae","pattern"],"bee_group":{"antennae":"B","wings":"X","pattern":"S","legs":"X"},"bonus":1.8400000000000012},{"rt":1763,"stimulus":"bees-with-color/bee-A2SF.svg","response":0,"trial_type":"image-button-response","trial_index":69,"time_elapsed":1404120,"internal_node_id":"0.0-4.0-0.31","subject_id":"6100d64e404145c71b3bc360","study_id":"6197b3f67c2b5cd3b6d9596a","session_id":"619be58e7538c9e552ffd4e6","condition":"full-information","relevant_dimensions":["antennae","pattern"],"bee_group":{"antennae":"B","wings":"X","pattern":"S","legs":"X"},"action":"harvest","summary":"good-harvest","bonus":1.8400000000000012},{"rt":1045,"stimulus":"\n                    <p><b>Action: <em>harvest</em></b></p>\n                    <p>This is the bee that you just saw.</p>\n                    <img src=\"bees-with-color/bee-A2SF.svg\" width=\"200\">\n                    <p><span class=\"greenText\"><b>Successful harvest!</b></span><br>Your pay has increased by $0.02. Your bonus pay is now $0.88.</p>\n            ","response":0,"trial_type":"html-button-response","trial_index":70,"time_elapsed":1405166,"internal_node_id":"0.0-4.0-1.31","subject_id":"6100d64e404145c71b3bc360","study_id":"6197b3f67c2b5cd3b6d9596a","session_id":"619be58e7538c9e552ffd4e6","condition":"full-information","relevant_dimensions":["antennae","pattern"],"bee_group":{"antennae":"B","wings":"X","pattern":"S","legs":"X"},"bonus":1.8400000000000012},{"rt":1709.1000000238419,"stimulus":"bees-with-color/bee-B2DM.svg","response":0,"trial_type":"image-button-response","trial_index":71,"time_elapsed":1406876,"internal_node_id":"0.0-4.0-0.32","subject_id":"6100d64e404145c71b3bc360","study_id":"6197b3f67c2b5cd3b6d9596a","session_id":"619be58e7538c9e552ffd4e6","condition":"full-information","relevant_dimensions":["antennae","pattern"],"bee_group":{"antennae":"B","wings":"X","pattern":"S","legs":"X"},"action":"harvest","summary":"good-harvest","bonus":1.8400000000000012},{"rt":499,"stimulus":"\n                    <p><b>Action: <em>harvest</em></b></p>\n                    <p>This is the bee that you just saw.</p>\n                    <img src=\"bees-with-color/bee-B2DM.svg\" width=\"200\">\n                    <p><span class=\"greenText\"><b>Successful harvest!</b></span><br>Your pay has increased by $0.02. Your bonus pay is now $0.90.</p>\n            ","response":0,"trial_type":"html-button-response","trial_index":72,"time_elapsed":1407376,"internal_node_id":"0.0-4.0-1.32","subject_id":"6100d64e404145c71b3bc360","study_id":"6197b3f67c2b5cd3b6d9596a","session_id":"619be58e7538c9e552ffd4e6","condition":"full-information","relevant_dimensions":["antennae","pattern"],"bee_group":{"antennae":"B","wings":"X","pattern":"S","legs":"X"},"bonus":1.8400000000000012},{"rt":1541.300000011921,"stimulus":"bees-with-color/bee-B1SF.svg","response":1,"trial_type":"image-button-response","trial_index":73,"time_elapsed":1408918,"internal_node_id":"0.0-4.0-0.33","subject_id":"6100d64e404145c71b3bc360","study_id":"6197b3f67c2b5cd3b6d9596a","session_id":"619be58e7538c9e552ffd4e6","condition":"full-information","relevant_dimensions":["antennae","pattern"],"bee_group":{"antennae":"B","wings":"X","pattern":"S","legs":"X"},"action":"avoid","summary":"good-avoid","bonus":1.8400000000000012},{"rt":597.1000000238419,"stimulus":"\n                    <p><b>Action: <em>avoid</em></b></p>\n                    <p>This is the bee that you just saw.</p>\n                    <img src=\"bees-with-color/bee-B1SF.svg\" width=\"200\">\n                    <p><span class=\"greenText\">Good choice!</span>  This bee would have stung you.<br>Your bonus pay is unchanged, and remains at $0.90.</p>\n            ","response":0,"trial_type":"html-button-response","trial_index":74,"time_elapsed":1409516,"internal_node_id":"0.0-4.0-1.33","subject_id":"6100d64e404145c71b3bc360","study_id":"6197b3f67c2b5cd3b6d9596a","session_id":"619be58e7538c9e552ffd4e6","condition":"full-information","relevant_dimensions":["antennae","pattern"],"bee_group":{"antennae":"B","wings":"X","pattern":"S","legs":"X"},"bonus":1.8400000000000012},{"rt":1811,"stimulus":"bees-with-color/bee-A2SM.svg","response":0,"trial_type":"image-button-response","trial_index":75,"time_elapsed":1411328,"internal_node_id":"0.0-4.0-0.34","subject_id":"6100d64e404145c71b3bc360","study_id":"6197b3f67c2b5cd3b6d9596a","session_id":"619be58e7538c9e552ffd4e6","condition":"full-information","relevant_dimensions":["antennae","pattern"],"bee_group":{"antennae":"B","wings":"X","pattern":"S","legs":"X"},"action":"harvest","summary":"good-harvest","bonus":1.8400000000000012},{"rt":721,"stimulus":"\n                    <p><b>Action: <em>harvest</em></b></p>\n                    <p>This is the bee that you just saw.</p>\n                    <img src=\"bees-with-color/bee-A2SM.svg\" width=\"200\">\n                    <p><span class=\"greenText\"><b>Successful harvest!</b></span><br>Your pay has increased by $0.02. Your bonus pay is now $0.92.</p>\n            ","response":0,"trial_type":"html-button-response","trial_index":76,"time_elapsed":1412051,"internal_node_id":"0.0-4.0-1.34","subject_id":"6100d64e404145c71b3bc360","study_id":"6197b3f67c2b5cd3b6d9596a","session_id":"619be58e7538c9e552ffd4e6","condition":"full-information","relevant_dimensions":["antennae","pattern"],"bee_group":{"antennae":"B","wings":"X","pattern":"S","legs":"X"},"bonus":1.8400000000000012},{"rt":1368.8999999761581,"stimulus":"bees-with-color/bee-A2DF.svg","response":0,"trial_type":"image-button-response","trial_index":77,"time_elapsed":1413420,"internal_node_id":"0.0-4.0-0.35","subject_id":"6100d64e404145c71b3bc360","study_id":"6197b3f67c2b5cd3b6d9596a","session_id":"619be58e7538c9e552ffd4e6","condition":"full-information","relevant_dimensions":["antennae","pattern"],"bee_group":{"antennae":"B","wings":"X","pattern":"S","legs":"X"},"action":"harvest","summary":"good-harvest","bonus":1.8400000000000012},{"rt":727,"stimulus":"\n                    <p><b>Action: <em>harvest</em></b></p>\n                    <p>This is the bee that you just saw.</p>\n                    <img src=\"bees-with-color/bee-A2DF.svg\" width=\"200\">\n                    <p><span class=\"greenText\"><b>Successful harvest!</b></span><br>Your pay has increased by $0.02. Your bonus pay is now $0.94.</p>\n            ","response":0,"trial_type":"html-button-response","trial_index":78,"time_elapsed":1414148,"internal_node_id":"0.0-4.0-1.35","subject_id":"6100d64e404145c71b3bc360","study_id":"6197b3f67c2b5cd3b6d9596a","session_id":"619be58e7538c9e552ffd4e6","condition":"full-information","relevant_dimensions":["antennae","pattern"],"bee_group":{"antennae":"B","wings":"X","pattern":"S","legs":"X"},"bonus":1.8400000000000012},{"rt":1030.8999999761581,"stimulus":"bees-with-color/bee-B1DF.svg","response":0,"trial_type":"image-button-response","trial_index":79,"time_elapsed":1415180,"internal_node_id":"0.0-4.0-0.36","subject_id":"6100d64e404145c71b3bc360","study_id":"6197b3f67c2b5cd3b6d9596a","session_id":"619be58e7538c9e552ffd4e6","condition":"full-information","relevant_dimensions":["antennae","pattern"],"bee_group":{"antennae":"B","wings":"X","pattern":"S","legs":"X"},"action":"harvest","summary":"good-harvest","bonus":1.8400000000000012},{"rt":494.7999999821186,"stimulus":"\n                    <p><b>Action: <em>harvest</em></b></p>\n                    <p>This is the bee that you just saw.</p>\n                    <img src=\"bees-with-color/bee-B1DF.svg\" width=\"200\">\n                    <p><span class=\"greenText\"><b>Successful harvest!</b></span><br>Your pay has increased by $0.02. Your bonus pay is now $0.96.</p>\n            ","response":0,"trial_type":"html-button-response","trial_index":80,"time_elapsed":1415676,"internal_node_id":"0.0-4.0-1.36","subject_id":"6100d64e404145c71b3bc360","study_id":"6197b3f67c2b5cd3b6d9596a","session_id":"619be58e7538c9e552ffd4e6","condition":"full-information","relevant_dimensions":["antennae","pattern"],"bee_group":{"antennae":"B","wings":"X","pattern":"S","legs":"X"},"bonus":1.8400000000000012},{"rt":1523,"stimulus":"bees-with-color/bee-B1SM.svg","response":1,"trial_type":"image-button-response","trial_index":81,"time_elapsed":1417200,"internal_node_id":"0.0-4.0-0.37","subject_id":"6100d64e404145c71b3bc360","study_id":"6197b3f67c2b5cd3b6d9596a","session_id":"619be58e7538c9e552ffd4e6","condition":"full-information","relevant_dimensions":["antennae","pattern"],"bee_group":{"antennae":"B","wings":"X","pattern":"S","legs":"X"},"action":"avoid","summary":"good-avoid","bonus":1.8400000000000012},{"rt":749.1999999880791,"stimulus":"\n                    <p><b>Action: <em>avoid</em></b></p>\n                    <p>This is the bee that you just saw.</p>\n                    <img src=\"bees-with-color/bee-B1SM.svg\" width=\"200\">\n                    <p><span class=\"greenText\">Good choice!</span>  This bee would have stung you.<br>Your bonus pay is unchanged, and remains at $0.96.</p>\n            ","response":0,"trial_type":"html-button-response","trial_index":82,"time_elapsed":1417950,"internal_node_id":"0.0-4.0-1.37","subject_id":"6100d64e404145c71b3bc360","study_id":"6197b3f67c2b5cd3b6d9596a","session_id":"619be58e7538c9e552ffd4e6","condition":"full-information","relevant_dimensions":["antennae","pattern"],"bee_group":{"antennae":"B","wings":"X","pattern":"S","legs":"X"},"bonus":1.8400000000000012},{"rt":1861.4000000059605,"stimulus":"bees-with-color/bee-A1DF.svg","response":0,"trial_type":"image-button-response","trial_index":83,"time_elapsed":1419812,"internal_node_id":"0.0-4.0-0.38","subject_id":"6100d64e404145c71b3bc360","study_id":"6197b3f67c2b5cd3b6d9596a","session_id":"619be58e7538c9e552ffd4e6","condition":"full-information","relevant_dimensions":["antennae","pattern"],"bee_group":{"antennae":"B","wings":"X","pattern":"S","legs":"X"},"action":"harvest","summary":"good-harvest","bonus":1.8400000000000012},{"rt":763.2000000178814,"stimulus":"\n                    <p><b>Action: <em>harvest</em></b></p>\n                    <p>This is the bee that you just saw.</p>\n                    <img src=\"bees-with-color/bee-A1DF.svg\" width=\"200\">\n                    <p><span class=\"greenText\"><b>Successful harvest!</b></span><br>Your pay has increased by $0.02. Your bonus pay is now $0.98.</p>\n            ","response":0,"trial_type":"html-button-response","trial_index":84,"time_elapsed":1420576,"internal_node_id":"0.0-4.0-1.38","subject_id":"6100d64e404145c71b3bc360","study_id":"6197b3f67c2b5cd3b6d9596a","session_id":"619be58e7538c9e552ffd4e6","condition":"full-information","relevant_dimensions":["antennae","pattern"],"bee_group":{"antennae":"B","wings":"X","pattern":"S","legs":"X"},"bonus":1.8400000000000012},{"rt":1627.300000011921,"stimulus":"bees-with-color/bee-A1DM.svg","response":0,"trial_type":"image-button-response","trial_index":85,"time_elapsed":1422204,"internal_node_id":"0.0-4.0-0.39","subject_id":"6100d64e404145c71b3bc360","study_id":"6197b3f67c2b5cd3b6d9596a","session_id":"619be58e7538c9e552ffd4e6","condition":"full-information","relevant_dimensions":["antennae","pattern"],"bee_group":{"antennae":"B","wings":"X","pattern":"S","legs":"X"},"action":"harvest","summary":"good-harvest","bonus":1.8400000000000012},{"rt":631.0999999940395,"stimulus":"\n                    <p><b>Action: <em>harvest</em></b></p>\n                    <p>This is the bee that you just saw.</p>\n                    <img src=\"bees-with-color/bee-A1DM.svg\" width=\"200\">\n                    <p><span class=\"greenText\"><b>Successful harvest!</b></span><br>Your pay has increased by $0.02. Your bonus pay is now $1.00.</p>\n            ","response":0,"trial_type":"html-button-response","trial_index":86,"time_elapsed":1422836,"internal_node_id":"0.0-4.0-1.39","subject_id":"6100d64e404145c71b3bc360","study_id":"6197b3f67c2b5cd3b6d9596a","session_id":"619be58e7538c9e552ffd4e6","condition":"full-information","relevant_dimensions":["antennae","pattern"],"bee_group":{"antennae":"B","wings":"X","pattern":"S","legs":"X"},"bonus":1.8400000000000012},{"rt":1039,"stimulus":"bees-with-color/bee-A2DM.svg","response":0,"trial_type":"image-button-response","trial_index":87,"time_elapsed":1423876,"internal_node_id":"0.0-4.0-0.40","subject_id":"6100d64e404145c71b3bc360","study_id":"6197b3f67c2b5cd3b6d9596a","session_id":"619be58e7538c9e552ffd4e6","condition":"full-information","relevant_dimensions":["antennae","pattern"],"bee_group":{"antennae":"B","wings":"X","pattern":"S","legs":"X"},"action":"harvest","summary":"good-harvest","bonus":1.8400000000000012},{"rt":467.09999999403954,"stimulus":"\n                    <p><b>Action: <em>harvest</em></b></p>\n                    <p>This is the bee that you just saw.</p>\n                    <img src=\"bees-with-color/bee-A2DM.svg\" width=\"200\">\n                    <p><span class=\"greenText\"><b>Successful harvest!</b></span><br>Your pay has increased by $0.02. Your bonus pay is now $1.02.</p>\n            ","response":0,"trial_type":"html-button-response","trial_index":88,"time_elapsed":1424344,"internal_node_id":"0.0-4.0-1.40","subject_id":"6100d64e404145c71b3bc360","study_id":"6197b3f67c2b5cd3b6d9596a","session_id":"619be58e7538c9e552ffd4e6","condition":"full-information","relevant_dimensions":["antennae","pattern"],"bee_group":{"antennae":"B","wings":"X","pattern":"S","legs":"X"},"bonus":1.8400000000000012},{"rt":1577.1000000238419,"stimulus":"bees-with-color/bee-B1DM.svg","response":0,"trial_type":"image-button-response","trial_index":89,"time_elapsed":1425922,"internal_node_id":"0.0-4.0-0.41","subject_id":"6100d64e404145c71b3bc360","study_id":"6197b3f67c2b5cd3b6d9596a","session_id":"619be58e7538c9e552ffd4e6","condition":"full-information","relevant_dimensions":["antennae","pattern"],"bee_group":{"antennae":"B","wings":"X","pattern":"S","legs":"X"},"action":"harvest","summary":"good-harvest","bonus":1.8400000000000012},{"rt":499,"stimulus":"\n                    <p><b>Action: <em>harvest</em></b></p>\n                    <p>This is the bee that you just saw.</p>\n                    <img src=\"bees-with-color/bee-B1DM.svg\" width=\"200\">\n                    <p><span class=\"greenText\"><b>Successful harvest!</b></span><br>Your pay has increased by $0.02. Your bonus pay is now $1.04.</p>\n            ","response":0,"trial_type":"html-button-response","trial_index":90,"time_elapsed":1426422,"internal_node_id":"0.0-4.0-1.41","subject_id":"6100d64e404145c71b3bc360","study_id":"6197b3f67c2b5cd3b6d9596a","session_id":"619be58e7538c9e552ffd4e6","condition":"full-information","relevant_dimensions":["antennae","pattern"],"bee_group":{"antennae":"B","wings":"X","pattern":"S","legs":"X"},"bonus":1.8400000000000012},{"rt":1445.2000000178814,"stimulus":"bees-with-color/bee-B2SF.svg","response":1,"trial_type":"image-button-response","trial_index":91,"time_elapsed":1427869,"internal_node_id":"0.0-4.0-0.42","subject_id":"6100d64e404145c71b3bc360","study_id":"6197b3f67c2b5cd3b6d9596a","session_id":"619be58e7538c9e552ffd4e6","condition":"full-information","relevant_dimensions":["antennae","pattern"],"bee_group":{"antennae":"B","wings":"X","pattern":"S","legs":"X"},"action":"avoid","summary":"good-avoid","bonus":1.8400000000000012},{"rt":461,"stimulus":"\n                    <p><b>Action: <em>avoid</em></b></p>\n                    <p>This is the bee that you just saw.</p>\n                    <img src=\"bees-with-color/bee-B2SF.svg\" width=\"200\">\n                    <p><span class=\"greenText\">Good choice!</span>  This bee would have stung you.<br>Your bonus pay is unchanged, and remains at $1.04.</p>\n            ","response":0,"trial_type":"html-button-response","trial_index":92,"time_elapsed":1428331,"internal_node_id":"0.0-4.0-1.42","subject_id":"6100d64e404145c71b3bc360","study_id":"6197b3f67c2b5cd3b6d9596a","session_id":"619be58e7538c9e552ffd4e6","condition":"full-information","relevant_dimensions":["antennae","pattern"],"bee_group":{"antennae":"B","wings":"X","pattern":"S","legs":"X"},"bonus":1.8400000000000012},{"rt":1847.1000000238419,"stimulus":"bees-with-color/bee-A1SF.svg","response":0,"trial_type":"image-button-response","trial_index":93,"time_elapsed":1430178,"internal_node_id":"0.0-4.0-0.43","subject_id":"6100d64e404145c71b3bc360","study_id":"6197b3f67c2b5cd3b6d9596a","session_id":"619be58e7538c9e552ffd4e6","condition":"full-information","relevant_dimensions":["antennae","pattern"],"bee_group":{"antennae":"B","wings":"X","pattern":"S","legs":"X"},"action":"harvest","summary":"good-harvest","bonus":1.8400000000000012},{"rt":440.90000000596046,"stimulus":"\n                    <p><b>Action: <em>harvest</em></b></p>\n                    <p>This is the bee that you just saw.</p>\n                    <img src=\"bees-with-color/bee-A1SF.svg\" width=\"200\">\n                    <p><span class=\"greenText\"><b>Successful harvest!</b></span><br>Your pay has increased by $0.02. Your bonus pay is now $1.06.</p>\n            ","response":0,"trial_type":"html-button-response","trial_index":94,"time_elapsed":1430621,"internal_node_id":"0.0-4.0-1.43","subject_id":"6100d64e404145c71b3bc360","study_id":"6197b3f67c2b5cd3b6d9596a","session_id":"619be58e7538c9e552ffd4e6","condition":"full-information","relevant_dimensions":["antennae","pattern"],"bee_group":{"antennae":"B","wings":"X","pattern":"S","legs":"X"},"bonus":1.8400000000000012},{"rt":1756.8999999761581,"stimulus":"bees-with-color/bee-A1SM.svg","response":0,"trial_type":"image-button-response","trial_index":95,"time_elapsed":1432378,"internal_node_id":"0.0-4.0-0.44","subject_id":"6100d64e404145c71b3bc360","study_id":"6197b3f67c2b5cd3b6d9596a","session_id":"619be58e7538c9e552ffd4e6","condition":"full-information","relevant_dimensions":["antennae","pattern"],"bee_group":{"antennae":"B","wings":"X","pattern":"S","legs":"X"},"action":"harvest","summary":"good-harvest","bonus":1.8400000000000012},{"rt":600.9000000059605,"stimulus":"\n                    <p><b>Action: <em>harvest</em></b></p>\n                    <p>This is the bee that you just saw.</p>\n                    <img src=\"bees-with-color/bee-A1SM.svg\" width=\"200\">\n                    <p><span class=\"greenText\"><b>Successful harvest!</b></span><br>Your pay has increased by $0.02. Your bonus pay is now $1.08.</p>\n            ","response":0,"trial_type":"html-button-response","trial_index":96,"time_elapsed":1432980,"internal_node_id":"0.0-4.0-1.44","subject_id":"6100d64e404145c71b3bc360","study_id":"6197b3f67c2b5cd3b6d9596a","session_id":"619be58e7538c9e552ffd4e6","condition":"full-information","relevant_dimensions":["antennae","pattern"],"bee_group":{"antennae":"B","wings":"X","pattern":"S","legs":"X"},"bonus":1.8400000000000012},{"rt":1279,"stimulus":"bees-with-color/bee-A2SF.svg","response":0,"trial_type":"image-button-response","trial_index":97,"time_elapsed":1434260,"internal_node_id":"0.0-4.0-0.45","subject_id":"6100d64e404145c71b3bc360","study_id":"6197b3f67c2b5cd3b6d9596a","session_id":"619be58e7538c9e552ffd4e6","condition":"full-information","relevant_dimensions":["antennae","pattern"],"bee_group":{"antennae":"B","wings":"X","pattern":"S","legs":"X"},"action":"harvest","summary":"good-harvest","bonus":1.8400000000000012},{"rt":595.2000000178814,"stimulus":"\n                    <p><b>Action: <em>harvest</em></b></p>\n                    <p>This is the bee that you just saw.</p>\n                    <img src=\"bees-with-color/bee-A2SF.svg\" width=\"200\">\n                    <p><span class=\"greenText\"><b>Successful harvest!</b></span><br>Your pay has increased by $0.02. Your bonus pay is now $1.10.</p>\n            ","response":0,"trial_type":"html-button-response","trial_index":98,"time_elapsed":1434856,"internal_node_id":"0.0-4.0-1.45","subject_id":"6100d64e404145c71b3bc360","study_id":"6197b3f67c2b5cd3b6d9596a","session_id":"619be58e7538c9e552ffd4e6","condition":"full-information","relevant_dimensions":["antennae","pattern"],"bee_group":{"antennae":"B","wings":"X","pattern":"S","legs":"X"},"bonus":1.8400000000000012},{"rt":1129.2000000178814,"stimulus":"bees-with-color/bee-B2DF.svg","response":0,"trial_type":"image-button-response","trial_index":99,"time_elapsed":1435986,"internal_node_id":"0.0-4.0-0.46","subject_id":"6100d64e404145c71b3bc360","study_id":"6197b3f67c2b5cd3b6d9596a","session_id":"619be58e7538c9e552ffd4e6","condition":"full-information","relevant_dimensions":["antennae","pattern"],"bee_group":{"antennae":"B","wings":"X","pattern":"S","legs":"X"},"action":"harvest","summary":"good-harvest","bonus":1.8400000000000012},{"rt":353.2000000178814,"stimulus":"\n                    <p><b>Action: <em>harvest</em></b></p>\n                    <p>This is the bee that you just saw.</p>\n                    <img src=\"bees-with-color/bee-B2DF.svg\" width=\"200\">\n                    <p><span class=\"greenText\"><b>Successful harvest!</b></span><br>Your pay has increased by $0.02. Your bonus pay is now $1.12.</p>\n            ","response":0,"trial_type":"html-button-response","trial_index":100,"time_elapsed":1436340,"internal_node_id":"0.0-4.0-1.46","subject_id":"6100d64e404145c71b3bc360","study_id":"6197b3f67c2b5cd3b6d9596a","session_id":"619be58e7538c9e552ffd4e6","condition":"full-information","relevant_dimensions":["antennae","pattern"],"bee_group":{"antennae":"B","wings":"X","pattern":"S","legs":"X"},"bonus":1.8400000000000012},{"rt":1395.2000000178814,"stimulus":"bees-with-color/bee-B2SM.svg","response":1,"trial_type":"image-button-response","trial_index":101,"time_elapsed":1437737,"internal_node_id":"0.0-4.0-0.47","subject_id":"6100d64e404145c71b3bc360","study_id":"6197b3f67c2b5cd3b6d9596a","session_id":"619be58e7538c9e552ffd4e6","condition":"full-information","relevant_dimensions":["antennae","pattern"],"bee_group":{"antennae":"B","wings":"X","pattern":"S","legs":"X"},"action":"avoid","summary":"good-avoid","bonus":1.8400000000000012},{"rt":471.10000002384186,"stimulus":"\n                    <p><b>Action: <em>avoid</em></b></p>\n                    <p>This is the bee that you just saw.</p>\n                    <img src=\"bees-with-color/bee-B2SM.svg\" width=\"200\">\n                    <p><span class=\"greenText\">Good choice!</span>  This bee would have stung you.<br>Your bonus pay is unchanged, and remains at $1.12.</p>\n            ","response":0,"trial_type":"html-button-response","trial_index":102,"time_elapsed":1438209,"internal_node_id":"0.0-4.0-1.47","subject_id":"6100d64e404145c71b3bc360","study_id":"6197b3f67c2b5cd3b6d9596a","session_id":"619be58e7538c9e552ffd4e6","condition":"full-information","relevant_dimensions":["antennae","pattern"],"bee_group":{"antennae":"B","wings":"X","pattern":"S","legs":"X"},"bonus":1.8400000000000012},{"rt":1111.1000000238419,"stimulus":"bees-with-color/bee-A1DF.svg","response":0,"trial_type":"image-button-response","trial_index":103,"time_elapsed":1439321,"internal_node_id":"0.0-4.0-0.48","subject_id":"6100d64e404145c71b3bc360","study_id":"6197b3f67c2b5cd3b6d9596a","session_id":"619be58e7538c9e552ffd4e6","condition":"full-information","relevant_dimensions":["antennae","pattern"],"bee_group":{"antennae":"B","wings":"X","pattern":"S","legs":"X"},"action":"harvest","summary":"good-harvest","bonus":1.8400000000000012},{"rt":555.1000000238419,"stimulus":"\n                    <p><b>Action: <em>harvest</em></b></p>\n                    <p>This is the bee that you just saw.</p>\n                    <img src=\"bees-with-color/bee-A1DF.svg\" width=\"200\">\n                    <p><span class=\"greenText\"><b>Successful harvest!</b></span><br>Your pay has increased by $0.02. Your bonus pay is now $1.14.</p>\n            ","response":0,"trial_type":"html-button-response","trial_index":104,"time_elapsed":1439877,"internal_node_id":"0.0-4.0-1.48","subject_id":"6100d64e404145c71b3bc360","study_id":"6197b3f67c2b5cd3b6d9596a","session_id":"619be58e7538c9e552ffd4e6","condition":"full-information","relevant_dimensions":["antennae","pattern"],"bee_group":{"antennae":"B","wings":"X","pattern":"S","legs":"X"},"bonus":1.8400000000000012},{"rt":1473.2000000178814,"stimulus":"bees-with-color/bee-B1SM.svg","response":1,"trial_type":"image-button-response","trial_index":105,"time_elapsed":1441351,"internal_node_id":"0.0-4.0-0.49","subject_id":"6100d64e404145c71b3bc360","study_id":"6197b3f67c2b5cd3b6d9596a","session_id":"619be58e7538c9e552ffd4e6","condition":"full-information","relevant_dimensions":["antennae","pattern"],"bee_group":{"antennae":"B","wings":"X","pattern":"S","legs":"X"},"action":"avoid","summary":"good-avoid","bonus":1.8400000000000012},{"rt":635.0999999940395,"stimulus":"\n                    <p><b>Action: <em>avoid</em></b></p>\n                    <p>This is the bee that you just saw.</p>\n                    <img src=\"bees-with-color/bee-B1SM.svg\" width=\"200\">\n                    <p><span class=\"greenText\">Good choice!</span>  This bee would have stung you.<br>Your bonus pay is unchanged, and remains at $1.14.</p>\n            ","response":0,"trial_type":"html-button-response","trial_index":106,"time_elapsed":1441987,"internal_node_id":"0.0-4.0-1.49","subject_id":"6100d64e404145c71b3bc360","study_id":"6197b3f67c2b5cd3b6d9596a","session_id":"619be58e7538c9e552ffd4e6","condition":"full-information","relevant_dimensions":["antennae","pattern"],"bee_group":{"antennae":"B","wings":"X","pattern":"S","legs":"X"},"bonus":1.8400000000000012},{"rt":1064.7999999821186,"stimulus":"bees-with-color/bee-B2SF.svg","response":1,"trial_type":"image-button-response","trial_index":107,"time_elapsed":1443053,"internal_node_id":"0.0-4.0-0.50","subject_id":"6100d64e404145c71b3bc360","study_id":"6197b3f67c2b5cd3b6d9596a","session_id":"619be58e7538c9e552ffd4e6","condition":"full-information","relevant_dimensions":["antennae","pattern"],"bee_group":{"antennae":"B","wings":"X","pattern":"S","legs":"X"},"action":"avoid","summary":"good-avoid","bonus":1.8400000000000012},{"rt":513,"stimulus":"\n                    <p><b>Action: <em>avoid</em></b></p>\n                    <p>This is the bee that you just saw.</p>\n                    <img src=\"bees-with-color/bee-B2SF.svg\" width=\"200\">\n                    <p><span class=\"greenText\">Good choice!</span>  This bee would have stung you.<br>Your bonus pay is unchanged, and remains at $1.14.</p>\n            ","response":0,"trial_type":"html-button-response","trial_index":108,"time_elapsed":1443567,"internal_node_id":"0.0-4.0-1.50","subject_id":"6100d64e404145c71b3bc360","study_id":"6197b3f67c2b5cd3b6d9596a","session_id":"619be58e7538c9e552ffd4e6","condition":"full-information","relevant_dimensions":["antennae","pattern"],"bee_group":{"antennae":"B","wings":"X","pattern":"S","legs":"X"},"bonus":1.8400000000000012},{"rt":1301.2000000178814,"stimulus":"bees-with-color/bee-B2DM.svg","response":0,"trial_type":"image-button-response","trial_index":109,"time_elapsed":1444869,"internal_node_id":"0.0-4.0-0.51","subject_id":"6100d64e404145c71b3bc360","study_id":"6197b3f67c2b5cd3b6d9596a","session_id":"619be58e7538c9e552ffd4e6","condition":"full-information","relevant_dimensions":["antennae","pattern"],"bee_group":{"antennae":"B","wings":"X","pattern":"S","legs":"X"},"action":"harvest","summary":"good-harvest","bonus":1.8400000000000012},{"rt":595,"stimulus":"\n                    <p><b>Action: <em>harvest</em></b></p>\n                    <p>This is the bee that you just saw.</p>\n                    <img src=\"bees-with-color/bee-B2DM.svg\" width=\"200\">\n                    <p><span class=\"greenText\"><b>Successful harvest!</b></span><br>Your pay has increased by $0.02. Your bonus pay is now $1.16.</p>\n            ","response":0,"trial_type":"html-button-response","trial_index":110,"time_elapsed":1445465,"internal_node_id":"0.0-4.0-1.51","subject_id":"6100d64e404145c71b3bc360","study_id":"6197b3f67c2b5cd3b6d9596a","session_id":"619be58e7538c9e552ffd4e6","condition":"full-information","relevant_dimensions":["antennae","pattern"],"bee_group":{"antennae":"B","wings":"X","pattern":"S","legs":"X"},"bonus":1.8400000000000012},{"rt":1435.1000000238419,"stimulus":"bees-with-color/bee-B2DF.svg","response":0,"trial_type":"image-button-response","trial_index":111,"time_elapsed":1446901,"internal_node_id":"0.0-4.0-0.52","subject_id":"6100d64e404145c71b3bc360","study_id":"6197b3f67c2b5cd3b6d9596a","session_id":"619be58e7538c9e552ffd4e6","condition":"full-information","relevant_dimensions":["antennae","pattern"],"bee_group":{"antennae":"B","wings":"X","pattern":"S","legs":"X"},"action":"harvest","summary":"good-harvest","bonus":1.8400000000000012},{"rt":500.80000001192093,"stimulus":"\n                    <p><b>Action: <em>harvest</em></b></p>\n                    <p>This is the bee that you just saw.</p>\n                    <img src=\"bees-with-color/bee-B2DF.svg\" width=\"200\">\n                    <p><span class=\"greenText\"><b>Successful harvest!</b></span><br>Your pay has increased by $0.02. Your bonus pay is now $1.18.</p>\n            ","response":0,"trial_type":"html-button-response","trial_index":112,"time_elapsed":1447403,"internal_node_id":"0.0-4.0-1.52","subject_id":"6100d64e404145c71b3bc360","study_id":"6197b3f67c2b5cd3b6d9596a","session_id":"619be58e7538c9e552ffd4e6","condition":"full-information","relevant_dimensions":["antennae","pattern"],"bee_group":{"antennae":"B","wings":"X","pattern":"S","legs":"X"},"bonus":1.8400000000000012},{"rt":1511.0999999940395,"stimulus":"bees-with-color/bee-A2SM.svg","response":0,"trial_type":"image-button-response","trial_index":113,"time_elapsed":1448915,"internal_node_id":"0.0-4.0-0.53","subject_id":"6100d64e404145c71b3bc360","study_id":"6197b3f67c2b5cd3b6d9596a","session_id":"619be58e7538c9e552ffd4e6","condition":"full-information","relevant_dimensions":["antennae","pattern"],"bee_group":{"antennae":"B","wings":"X","pattern":"S","legs":"X"},"action":"harvest","summary":"good-harvest","bonus":1.8400000000000012},{"rt":497.09999999403954,"stimulus":"\n                    <p><b>Action: <em>harvest</em></b></p>\n                    <p>This is the bee that you just saw.</p>\n                    <img src=\"bees-with-color/bee-A2SM.svg\" width=\"200\">\n                    <p><span class=\"greenText\"><b>Successful harvest!</b></span><br>Your pay has increased by $0.02. Your bonus pay is now $1.20.</p>\n            ","response":0,"trial_type":"html-button-response","trial_index":114,"time_elapsed":1449413,"internal_node_id":"0.0-4.0-1.53","subject_id":"6100d64e404145c71b3bc360","study_id":"6197b3f67c2b5cd3b6d9596a","session_id":"619be58e7538c9e552ffd4e6","condition":"full-information","relevant_dimensions":["antennae","pattern"],"bee_group":{"antennae":"B","wings":"X","pattern":"S","legs":"X"},"bonus":1.8400000000000012},{"rt":1143.2000000178814,"stimulus":"bees-with-color/bee-A2DF.svg","response":0,"trial_type":"image-button-response","trial_index":115,"time_elapsed":1450557,"internal_node_id":"0.0-4.0-0.54","subject_id":"6100d64e404145c71b3bc360","study_id":"6197b3f67c2b5cd3b6d9596a","session_id":"619be58e7538c9e552ffd4e6","condition":"full-information","relevant_dimensions":["antennae","pattern"],"bee_group":{"antennae":"B","wings":"X","pattern":"S","legs":"X"},"action":"harvest","summary":"good-harvest","bonus":1.8400000000000012},{"rt":491.2000000178814,"stimulus":"\n                    <p><b>Action: <em>harvest</em></b></p>\n                    <p>This is the bee that you just saw.</p>\n                    <img src=\"bees-with-color/bee-A2DF.svg\" width=\"200\">\n                    <p><span class=\"greenText\"><b>Successful harvest!</b></span><br>Your pay has increased by $0.02. Your bonus pay is now $1.22.</p>\n            ","response":0,"trial_type":"html-button-response","trial_index":116,"time_elapsed":1451049,"internal_node_id":"0.0-4.0-1.54","subject_id":"6100d64e404145c71b3bc360","study_id":"6197b3f67c2b5cd3b6d9596a","session_id":"619be58e7538c9e552ffd4e6","condition":"full-information","relevant_dimensions":["antennae","pattern"],"bee_group":{"antennae":"B","wings":"X","pattern":"S","legs":"X"},"bonus":1.8400000000000012},{"rt":2983.300000011921,"stimulus":"bees-with-color/bee-A1DM.svg","response":0,"trial_type":"image-button-response","trial_index":117,"time_elapsed":1454033,"internal_node_id":"0.0-4.0-0.55","subject_id":"6100d64e404145c71b3bc360","study_id":"6197b3f67c2b5cd3b6d9596a","session_id":"619be58e7538c9e552ffd4e6","condition":"full-information","relevant_dimensions":["antennae","pattern"],"bee_group":{"antennae":"B","wings":"X","pattern":"S","legs":"X"},"action":"harvest","summary":"good-harvest","bonus":1.8400000000000012},{"rt":659.0999999940395,"stimulus":"\n                    <p><b>Action: <em>harvest</em></b></p>\n                    <p>This is the bee that you just saw.</p>\n                    <img src=\"bees-with-color/bee-A1DM.svg\" width=\"200\">\n                    <p><span class=\"greenText\"><b>Successful harvest!</b></span><br>Your pay has increased by $0.02. Your bonus pay is now $1.24.</p>\n            ","response":0,"trial_type":"html-button-response","trial_index":118,"time_elapsed":1454693,"internal_node_id":"0.0-4.0-1.55","subject_id":"6100d64e404145c71b3bc360","study_id":"6197b3f67c2b5cd3b6d9596a","session_id":"619be58e7538c9e552ffd4e6","condition":"full-information","relevant_dimensions":["antennae","pattern"],"bee_group":{"antennae":"B","wings":"X","pattern":"S","legs":"X"},"bonus":1.8400000000000012},{"rt":3739.2000000178814,"stimulus":"bees-with-color/bee-A2DM.svg","response":0,"trial_type":"image-button-response","trial_index":119,"time_elapsed":1458433,"internal_node_id":"0.0-4.0-0.56","subject_id":"6100d64e404145c71b3bc360","study_id":"6197b3f67c2b5cd3b6d9596a","session_id":"619be58e7538c9e552ffd4e6","condition":"full-information","relevant_dimensions":["antennae","pattern"],"bee_group":{"antennae":"B","wings":"X","pattern":"S","legs":"X"},"action":"harvest","summary":"good-harvest","bonus":1.8400000000000012},{"rt":769,"stimulus":"\n                    <p><b>Action: <em>harvest</em></b></p>\n                    <p>This is the bee that you just saw.</p>\n                    <img src=\"bees-with-color/bee-A2DM.svg\" width=\"200\">\n                    <p><span class=\"greenText\"><b>Successful harvest!</b></span><br>Your pay has increased by $0.02. Your bonus pay is now $1.26.</p>\n            ","response":0,"trial_type":"html-button-response","trial_index":120,"time_elapsed":1459203,"internal_node_id":"0.0-4.0-1.56","subject_id":"6100d64e404145c71b3bc360","study_id":"6197b3f67c2b5cd3b6d9596a","session_id":"619be58e7538c9e552ffd4e6","condition":"full-information","relevant_dimensions":["antennae","pattern"],"bee_group":{"antennae":"B","wings":"X","pattern":"S","legs":"X"},"bonus":1.8400000000000012},{"rt":1352.9000000059605,"stimulus":"bees-with-color/bee-B1DF.svg","response":0,"trial_type":"image-button-response","trial_index":121,"time_elapsed":1460557,"internal_node_id":"0.0-4.0-0.57","subject_id":"6100d64e404145c71b3bc360","study_id":"6197b3f67c2b5cd3b6d9596a","session_id":"619be58e7538c9e552ffd4e6","condition":"full-information","relevant_dimensions":["antennae","pattern"],"bee_group":{"antennae":"B","wings":"X","pattern":"S","legs":"X"},"action":"harvest","summary":"good-harvest","bonus":1.8400000000000012},{"rt":721.1000000238419,"stimulus":"\n                    <p><b>Action: <em>harvest</em></b></p>\n                    <p>This is the bee that you just saw.</p>\n                    <img src=\"bees-with-color/bee-B1DF.svg\" width=\"200\">\n                    <p><span class=\"greenText\"><b>Successful harvest!</b></span><br>Your pay has increased by $0.02. Your bonus pay is now $1.28.</p>\n            ","response":0,"trial_type":"html-button-response","trial_index":122,"time_elapsed":1461279,"internal_node_id":"0.0-4.0-1.57","subject_id":"6100d64e404145c71b3bc360","study_id":"6197b3f67c2b5cd3b6d9596a","session_id":"619be58e7538c9e552ffd4e6","condition":"full-information","relevant_dimensions":["antennae","pattern"],"bee_group":{"antennae":"B","wings":"X","pattern":"S","legs":"X"},"bonus":1.8400000000000012},{"rt":1191.1000000238419,"stimulus":"bees-with-color/bee-A2SF.svg","response":0,"trial_type":"image-button-response","trial_index":123,"time_elapsed":1462471,"internal_node_id":"0.0-4.0-0.58","subject_id":"6100d64e404145c71b3bc360","study_id":"6197b3f67c2b5cd3b6d9596a","session_id":"619be58e7538c9e552ffd4e6","condition":"full-information","relevant_dimensions":["antennae","pattern"],"bee_group":{"antennae":"B","wings":"X","pattern":"S","legs":"X"},"action":"harvest","summary":"good-harvest","bonus":1.8400000000000012},{"rt":363.09999999403954,"stimulus":"\n                    <p><b>Action: <em>harvest</em></b></p>\n                    <p>This is the bee that you just saw.</p>\n                    <img src=\"bees-with-color/bee-A2SF.svg\" width=\"200\">\n                    <p><span class=\"greenText\"><b>Successful harvest!</b></span><br>Your pay has increased by $0.02. Your bonus pay is now $1.30.</p>\n            ","response":0,"trial_type":"html-button-response","trial_index":124,"time_elapsed":1462835,"internal_node_id":"0.0-4.0-1.58","subject_id":"6100d64e404145c71b3bc360","study_id":"6197b3f67c2b5cd3b6d9596a","session_id":"619be58e7538c9e552ffd4e6","condition":"full-information","relevant_dimensions":["antennae","pattern"],"bee_group":{"antennae":"B","wings":"X","pattern":"S","legs":"X"},"bonus":1.8400000000000012},{"rt":984.6999999880791,"stimulus":"bees-with-color/bee-B2SM.svg","response":1,"trial_type":"image-button-response","trial_index":125,"time_elapsed":1463821,"internal_node_id":"0.0-4.0-0.59","subject_id":"6100d64e404145c71b3bc360","study_id":"6197b3f67c2b5cd3b6d9596a","session_id":"619be58e7538c9e552ffd4e6","condition":"full-information","relevant_dimensions":["antennae","pattern"],"bee_group":{"antennae":"B","wings":"X","pattern":"S","legs":"X"},"action":"avoid","summary":"good-avoid","bonus":1.8400000000000012},{"rt":443,"stimulus":"\n                    <p><b>Action: <em>avoid</em></b></p>\n                    <p>This is the bee that you just saw.</p>\n                    <img src=\"bees-with-color/bee-B2SM.svg\" width=\"200\">\n                    <p><span class=\"greenText\">Good choice!</span>  This bee would have stung you.<br>Your bonus pay is unchanged, and remains at $1.30.</p>\n            ","response":0,"trial_type":"html-button-response","trial_index":126,"time_elapsed":1464265,"internal_node_id":"0.0-4.0-1.59","subject_id":"6100d64e404145c71b3bc360","study_id":"6197b3f67c2b5cd3b6d9596a","session_id":"619be58e7538c9e552ffd4e6","condition":"full-information","relevant_dimensions":["antennae","pattern"],"bee_group":{"antennae":"B","wings":"X","pattern":"S","legs":"X"},"bonus":1.8400000000000012},{"rt":2562.5,"stimulus":"bees-with-color/bee-B1SF.svg","response":1,"trial_type":"image-button-response","trial_index":127,"time_elapsed":1466829,"internal_node_id":"0.0-4.0-0.60","subject_id":"6100d64e404145c71b3bc360","study_id":"6197b3f67c2b5cd3b6d9596a","session_id":"619be58e7538c9e552ffd4e6","condition":"full-information","relevant_dimensions":["antennae","pattern"],"bee_group":{"antennae":"B","wings":"X","pattern":"S","legs":"X"},"action":"avoid","summary":"good-avoid","bonus":1.8400000000000012},{"rt":477.2000000178814,"stimulus":"\n                    <p><b>Action: <em>avoid</em></b></p>\n                    <p>This is the bee that you just saw.</p>\n                    <img src=\"bees-with-color/bee-B1SF.svg\" width=\"200\">\n                    <p><span class=\"greenText\">Good choice!</span>  This bee would have stung you.<br>Your bonus pay is unchanged, and remains at $1.30.</p>\n            ","response":0,"trial_type":"html-button-response","trial_index":128,"time_elapsed":1467307,"internal_node_id":"0.0-4.0-1.60","subject_id":"6100d64e404145c71b3bc360","study_id":"6197b3f67c2b5cd3b6d9596a","session_id":"619be58e7538c9e552ffd4e6","condition":"full-information","relevant_dimensions":["antennae","pattern"],"bee_group":{"antennae":"B","wings":"X","pattern":"S","legs":"X"},"bonus":1.8400000000000012},{"rt":2857.2000000178814,"stimulus":"bees-with-color/bee-B1DM.svg","response":0,"trial_type":"image-button-response","trial_index":129,"time_elapsed":1470165,"internal_node_id":"0.0-4.0-0.61","subject_id":"6100d64e404145c71b3bc360","study_id":"6197b3f67c2b5cd3b6d9596a","session_id":"619be58e7538c9e552ffd4e6","condition":"full-information","relevant_dimensions":["antennae","pattern"],"bee_group":{"antennae":"B","wings":"X","pattern":"S","legs":"X"},"action":"harvest","summary":"good-harvest","bonus":1.8400000000000012},{"rt":581.2000000178814,"stimulus":"\n                    <p><b>Action: <em>harvest</em></b></p>\n                    <p>This is the bee that you just saw.</p>\n                    <img src=\"bees-with-color/bee-B1DM.svg\" width=\"200\">\n                    <p><span class=\"greenText\"><b>Successful harvest!</b></span><br>Your pay has increased by $0.02. Your bonus pay is now $1.32.</p>\n            ","response":0,"trial_type":"html-button-response","trial_index":130,"time_elapsed":1470747,"internal_node_id":"0.0-4.0-1.61","subject_id":"6100d64e404145c71b3bc360","study_id":"6197b3f67c2b5cd3b6d9596a","session_id":"619be58e7538c9e552ffd4e6","condition":"full-information","relevant_dimensions":["antennae","pattern"],"bee_group":{"antennae":"B","wings":"X","pattern":"S","legs":"X"},"bonus":1.8400000000000012},{"rt":1083.2000000178814,"stimulus":"bees-with-color/bee-A1SM.svg","response":0,"trial_type":"image-button-response","trial_index":131,"time_elapsed":1471831,"internal_node_id":"0.0-4.0-0.62","subject_id":"6100d64e404145c71b3bc360","study_id":"6197b3f67c2b5cd3b6d9596a","session_id":"619be58e7538c9e552ffd4e6","condition":"full-information","relevant_dimensions":["antennae","pattern"],"bee_group":{"antennae":"B","wings":"X","pattern":"S","legs":"X"},"action":"harvest","summary":"good-harvest","bonus":1.8400000000000012},{"rt":429.30000001192093,"stimulus":"\n                    <p><b>Action: <em>harvest</em></b></p>\n                    <p>This is the bee that you just saw.</p>\n                    <img src=\"bees-with-color/bee-A1SM.svg\" width=\"200\">\n                    <p><span class=\"greenText\"><b>Successful harvest!</b></span><br>Your pay has increased by $0.02. Your bonus pay is now $1.34.</p>\n            ","response":0,"trial_type":"html-button-response","trial_index":132,"time_elapsed":1472261,"internal_node_id":"0.0-4.0-1.62","subject_id":"6100d64e404145c71b3bc360","study_id":"6197b3f67c2b5cd3b6d9596a","session_id":"619be58e7538c9e552ffd4e6","condition":"full-information","relevant_dimensions":["antennae","pattern"],"bee_group":{"antennae":"B","wings":"X","pattern":"S","legs":"X"},"bonus":1.8400000000000012},{"rt":1247.2000000178814,"stimulus":"bees-with-color/bee-A1SF.svg","response":0,"trial_type":"image-button-response","trial_index":133,"time_elapsed":1473509,"internal_node_id":"0.0-4.0-0.63","subject_id":"6100d64e404145c71b3bc360","study_id":"6197b3f67c2b5cd3b6d9596a","session_id":"619be58e7538c9e552ffd4e6","condition":"full-information","relevant_dimensions":["antennae","pattern"],"bee_group":{"antennae":"B","wings":"X","pattern":"S","legs":"X"},"action":"harvest","summary":"good-harvest","bonus":1.8400000000000012},{"rt":441.30000001192093,"stimulus":"\n                    <p><b>Action: <em>harvest</em></b></p>\n                    <p>This is the bee that you just saw.</p>\n                    <img src=\"bees-with-color/bee-A1SF.svg\" width=\"200\">\n                    <p><span class=\"greenText\"><b>Successful harvest!</b></span><br>Your pay has increased by $0.02. Your bonus pay is now $1.36.</p>\n            ","response":0,"trial_type":"html-button-response","trial_index":134,"time_elapsed":1473951,"internal_node_id":"0.0-4.0-1.63","subject_id":"6100d64e404145c71b3bc360","study_id":"6197b3f67c2b5cd3b6d9596a","session_id":"619be58e7538c9e552ffd4e6","condition":"full-information","relevant_dimensions":["antennae","pattern"],"bee_group":{"antennae":"B","wings":"X","pattern":"S","legs":"X"},"bonus":1.8400000000000012},{"rt":8407.5,"stimulus":"You have completed the first part of this experiment.<br><br>You will now begin a shorter second part, in which you will receive no feedback.<br>The same rules regarding bonus pay apply.<br><br>Press any key to begin.","response":"j","trial_type":"html-keyboard-response","trial_index":135,"time_elapsed":1482359,"internal_node_id":"0.0-5.0","subject_id":"6100d64e404145c71b3bc360","study_id":"6197b3f67c2b5cd3b6d9596a","session_id":"619be58e7538c9e552ffd4e6","condition":"full-information","relevant_dimensions":["antennae","pattern"],"bee_group":{"antennae":"B","wings":"X","pattern":"S","legs":"X"},"bonus":1.8400000000000012},{"rt":5587.300000011921,"stimulus":"bees-with-color/bee-B1DF.svg","response":0,"trial_type":"image-button-response","trial_index":136,"time_elapsed":1487951,"internal_node_id":"0.0-6.0-0.0","subject_id":"6100d64e404145c71b3bc360","study_id":"6197b3f67c2b5cd3b6d9596a","session_id":"619be58e7538c9e552ffd4e6","condition":"full-information","relevant_dimensions":["antennae","pattern"],"bee_group":{"antennae":"B","wings":"X","pattern":"S","legs":"X"},"bonus":1.8400000000000012},{"rt":4580.5999999940395,"stimulus":"bees-with-color/bee-A2DF.svg","response":0,"trial_type":"image-button-response","trial_index":137,"time_elapsed":1492533,"internal_node_id":"0.0-6.0-0.1","subject_id":"6100d64e404145c71b3bc360","study_id":"6197b3f67c2b5cd3b6d9596a","session_id":"619be58e7538c9e552ffd4e6","condition":"full-information","relevant_dimensions":["antennae","pattern"],"bee_group":{"antennae":"B","wings":"X","pattern":"S","legs":"X"},"bonus":1.8400000000000012},{"rt":1056.4000000059605,"stimulus":"bees-with-color/bee-A1SF.svg","response":0,"trial_type":"image-button-response","trial_index":138,"time_elapsed":1493591,"internal_node_id":"0.0-6.0-0.2","subject_id":"6100d64e404145c71b3bc360","study_id":"6197b3f67c2b5cd3b6d9596a","session_id":"619be58e7538c9e552ffd4e6","condition":"full-information","relevant_dimensions":["antennae","pattern"],"bee_group":{"antennae":"B","wings":"X","pattern":"S","legs":"X"},"bonus":1.8400000000000012},{"rt":850.7000000178814,"stimulus":"bees-with-color/bee-A2SM.svg","response":0,"trial_type":"image-button-response","trial_index":139,"time_elapsed":1494443,"internal_node_id":"0.0-6.0-0.3","subject_id":"6100d64e404145c71b3bc360","study_id":"6197b3f67c2b5cd3b6d9596a","session_id":"619be58e7538c9e552ffd4e6","condition":"full-information","relevant_dimensions":["antennae","pattern"],"bee_group":{"antennae":"B","wings":"X","pattern":"S","legs":"X"},"bonus":1.8400000000000012},{"rt":904.6000000238419,"stimulus":"bees-with-color/bee-A2DM.svg","response":0,"trial_type":"image-button-response","trial_index":140,"time_elapsed":1495349,"internal_node_id":"0.0-6.0-0.4","subject_id":"6100d64e404145c71b3bc360","study_id":"6197b3f67c2b5cd3b6d9596a","session_id":"619be58e7538c9e552ffd4e6","condition":"full-information","relevant_dimensions":["antennae","pattern"],"bee_group":{"antennae":"B","wings":"X","pattern":"S","legs":"X"},"bonus":1.8400000000000012},{"rt":1170.9000000059605,"stimulus":"bees-with-color/bee-B2DF.svg","response":0,"trial_type":"image-button-response","trial_index":141,"time_elapsed":1496521,"internal_node_id":"0.0-6.0-0.5","subject_id":"6100d64e404145c71b3bc360","study_id":"6197b3f67c2b5cd3b6d9596a","session_id":"619be58e7538c9e552ffd4e6","condition":"full-information","relevant_dimensions":["antennae","pattern"],"bee_group":{"antennae":"B","wings":"X","pattern":"S","legs":"X"},"bonus":1.8400000000000012},{"rt":810.7000000178814,"stimulus":"bees-with-color/bee-B2SM.svg","response":1,"trial_type":"image-button-response","trial_index":142,"time_elapsed":1497333,"internal_node_id":"0.0-6.0-0.6","subject_id":"6100d64e404145c71b3bc360","study_id":"6197b3f67c2b5cd3b6d9596a","session_id":"619be58e7538c9e552ffd4e6","condition":"full-information","relevant_dimensions":["antennae","pattern"],"bee_group":{"antennae":"B","wings":"X","pattern":"S","legs":"X"},"bonus":1.8400000000000012},{"rt":788.5999999940395,"stimulus":"bees-with-color/bee-B1SF.svg","response":1,"trial_type":"image-button-response","trial_index":143,"time_elapsed":1498123,"internal_node_id":"0.0-6.0-0.7","subject_id":"6100d64e404145c71b3bc360","study_id":"6197b3f67c2b5cd3b6d9596a","session_id":"619be58e7538c9e552ffd4e6","condition":"full-information","relevant_dimensions":["antennae","pattern"],"bee_group":{"antennae":"B","wings":"X","pattern":"S","legs":"X"},"bonus":1.8400000000000012},{"rt":772.8000000119209,"stimulus":"bees-with-color/bee-B2SF.svg","response":1,"trial_type":"image-button-response","trial_index":144,"time_elapsed":1498897,"internal_node_id":"0.0-6.0-0.8","subject_id":"6100d64e404145c71b3bc360","study_id":"6197b3f67c2b5cd3b6d9596a","session_id":"619be58e7538c9e552ffd4e6","condition":"full-information","relevant_dimensions":["antennae","pattern"],"bee_group":{"antennae":"B","wings":"X","pattern":"S","legs":"X"},"bonus":1.8400000000000012},{"rt":834.9000000059605,"stimulus":"bees-with-color/bee-B1DM.svg","response":0,"trial_type":"image-button-response","trial_index":145,"time_elapsed":1499733,"internal_node_id":"0.0-6.0-0.9","subject_id":"6100d64e404145c71b3bc360","study_id":"6197b3f67c2b5cd3b6d9596a","session_id":"619be58e7538c9e552ffd4e6","condition":"full-information","relevant_dimensions":["antennae","pattern"],"bee_group":{"antennae":"B","wings":"X","pattern":"S","legs":"X"},"bonus":1.8400000000000012},{"rt":922.8000000119209,"stimulus":"bees-with-color/bee-B2DM.svg","response":0,"trial_type":"image-button-response","trial_index":146,"time_elapsed":1500657,"internal_node_id":"0.0-6.0-0.10","subject_id":"6100d64e404145c71b3bc360","study_id":"6197b3f67c2b5cd3b6d9596a","session_id":"619be58e7538c9e552ffd4e6","condition":"full-information","relevant_dimensions":["antennae","pattern"],"bee_group":{"antennae":"B","wings":"X","pattern":"S","legs":"X"},"bonus":1.8400000000000012},{"rt":936.8000000119209,"stimulus":"bees-with-color/bee-A2SF.svg","response":0,"trial_type":"image-button-response","trial_index":147,"time_elapsed":1501595,"internal_node_id":"0.0-6.0-0.11","subject_id":"6100d64e404145c71b3bc360","study_id":"6197b3f67c2b5cd3b6d9596a","session_id":"619be58e7538c9e552ffd4e6","condition":"full-information","relevant_dimensions":["antennae","pattern"],"bee_group":{"antennae":"B","wings":"X","pattern":"S","legs":"X"},"bonus":1.8400000000000012},{"rt":790.9000000059605,"stimulus":"bees-with-color/bee-A1SM.svg","response":0,"trial_type":"image-button-response","trial_index":148,"time_elapsed":1502387,"internal_node_id":"0.0-6.0-0.12","subject_id":"6100d64e404145c71b3bc360","study_id":"6197b3f67c2b5cd3b6d9596a","session_id":"619be58e7538c9e552ffd4e6","condition":"full-information","relevant_dimensions":["antennae","pattern"],"bee_group":{"antennae":"B","wings":"X","pattern":"S","legs":"X"},"bonus":1.8400000000000012},{"rt":886.8000000119209,"stimulus":"bees-with-color/bee-A1DM.svg","response":0,"trial_type":"image-button-response","trial_index":149,"time_elapsed":1503275,"internal_node_id":"0.0-6.0-0.13","subject_id":"6100d64e404145c71b3bc360","study_id":"6197b3f67c2b5cd3b6d9596a","session_id":"619be58e7538c9e552ffd4e6","condition":"full-information","relevant_dimensions":["antennae","pattern"],"bee_group":{"antennae":"B","wings":"X","pattern":"S","legs":"X"},"bonus":1.8400000000000012},{"rt":814.7000000178814,"stimulus":"bees-with-color/bee-A1DF.svg","response":0,"trial_type":"image-button-response","trial_index":150,"time_elapsed":1504091,"internal_node_id":"0.0-6.0-0.14","subject_id":"6100d64e404145c71b3bc360","study_id":"6197b3f67c2b5cd3b6d9596a","session_id":"619be58e7538c9e552ffd4e6","condition":"full-information","relevant_dimensions":["antennae","pattern"],"bee_group":{"antennae":"B","wings":"X","pattern":"S","legs":"X"},"bonus":1.8400000000000012},{"rt":1482.9000000059605,"stimulus":"bees-with-color/bee-B1SM.svg","response":1,"trial_type":"image-button-response","trial_index":151,"time_elapsed":1505575,"internal_node_id":"0.0-6.0-0.15","subject_id":"6100d64e404145c71b3bc360","study_id":"6197b3f67c2b5cd3b6d9596a","session_id":"619be58e7538c9e552ffd4e6","condition":"full-information","relevant_dimensions":["antennae","pattern"],"bee_group":{"antennae":"B","wings":"X","pattern":"S","legs":"X"},"bonus":1.8400000000000012},{"rt":836.9000000059605,"stimulus":"bees-with-color/bee-A1DM.svg","response":0,"trial_type":"image-button-response","trial_index":152,"time_elapsed":1506413,"internal_node_id":"0.0-6.0-0.16","subject_id":"6100d64e404145c71b3bc360","study_id":"6197b3f67c2b5cd3b6d9596a","session_id":"619be58e7538c9e552ffd4e6","condition":"full-information","relevant_dimensions":["antennae","pattern"],"bee_group":{"antennae":"B","wings":"X","pattern":"S","legs":"X"},"bonus":1.8400000000000012},{"rt":822.7000000178814,"stimulus":"bees-with-color/bee-A1DF.svg","response":0,"trial_type":"image-button-response","trial_index":153,"time_elapsed":1507237,"internal_node_id":"0.0-6.0-0.17","subject_id":"6100d64e404145c71b3bc360","study_id":"6197b3f67c2b5cd3b6d9596a","session_id":"619be58e7538c9e552ffd4e6","condition":"full-information","relevant_dimensions":["antennae","pattern"],"bee_group":{"antennae":"B","wings":"X","pattern":"S","legs":"X"},"bonus":1.8400000000000012},{"rt":870.9000000059605,"stimulus":"bees-with-color/bee-B1SM.svg","response":1,"trial_type":"image-button-response","trial_index":154,"time_elapsed":1508109,"internal_node_id":"0.0-6.0-0.18","subject_id":"6100d64e404145c71b3bc360","study_id":"6197b3f67c2b5cd3b6d9596a","session_id":"619be58e7538c9e552ffd4e6","condition":"full-information","relevant_dimensions":["antennae","pattern"],"bee_group":{"antennae":"B","wings":"X","pattern":"S","legs":"X"},"bonus":1.8400000000000012},{"rt":1271,"stimulus":"bees-with-color/bee-A1SM.svg","response":0,"trial_type":"image-button-response","trial_index":155,"time_elapsed":1509381,"internal_node_id":"0.0-6.0-0.19","subject_id":"6100d64e404145c71b3bc360","study_id":"6197b3f67c2b5cd3b6d9596a","session_id":"619be58e7538c9e552ffd4e6","condition":"full-information","relevant_dimensions":["antennae","pattern"],"bee_group":{"antennae":"B","wings":"X","pattern":"S","legs":"X"},"bonus":1.8400000000000012},{"rt":992.8000000119209,"stimulus":"bees-with-color/bee-B2DF.svg","response":0,"trial_type":"image-button-response","trial_index":156,"time_elapsed":1510375,"internal_node_id":"0.0-6.0-0.20","subject_id":"6100d64e404145c71b3bc360","study_id":"6197b3f67c2b5cd3