[{"success":true,"trial_type":"fullscreen","trial_index":0,"time_elapsed":10501,"internal_node_id":"0.0-0.0","subject_id":"61026e2c9829e7986adf365d","study_id":"6197b3f67c2b5cd3b6d9596a","session_id":"6197bac406ac8fc9e65d7087","condition":"contingent","relevant_dimensions":["antennae","pattern"],"bee_group":{"antennae":"B","wings":"X","pattern":"S","legs":"X"},"bonus":0.9600000000000006},{"success":true,"timeout":false,"failed_images":[],"failed_audio":[],"failed_video":[],"trial_type":"preload","trial_index":1,"time_elapsed":13308,"internal_node_id":"0.0-1.0","subject_id":"61026e2c9829e7986adf365d","study_id":"6197b3f67c2b5cd3b6d9596a","session_id":"6197bac406ac8fc9e65d7087","condition":"contingent","relevant_dimensions":["antennae","pattern"],"bee_group":{"antennae":"B","wings":"X","pattern":"S","legs":"X"},"bonus":0.9600000000000006},{"rt":53979,"stimulus":"Welcome! Press any key to begin.","response":" ","trial_type":"html-keyboard-response","trial_index":2,"time_elapsed":67289,"internal_node_id":"0.0-2.0","subject_id":"61026e2c9829e7986adf365d","study_id":"6197b3f67c2b5cd3b6d9596a","session_id":"6197bac406ac8fc9e65d7087","condition":"contingent","relevant_dimensions":["antennae","pattern"],"bee_group":{"antennae":"B","wings":"X","pattern":"S","legs":"X"},"bonus":0.9600000000000006},{"view_history":[{"page_index":0,"viewing_time":22255},{"page_index":1,"viewing_time":115794},{"page_index":2,"viewing_time":28120},{"page_index":3,"viewing_time":33489},{"page_index":4,"viewing_time":13557},{"page_index":5,"viewing_time":10486},{"page_index":6,"viewing_time":27029},{"page_index":7,"viewing_time":11414},{"page_index":8,"viewing_time":5159},{"page_index":9,"viewing_time":6530},{"page_index":10,"viewing_time":4650},{"page_index":11,"viewing_time":18919},{"page_index":12,"viewing_time":25807},{"page_index":13,"viewing_time":3464},{"page_index":14,"viewing_time":4864}],"rt":331538,"trial_type":"instructions","trial_index":3,"time_elapsed":398828,"internal_node_id":"0.0-3.0-0.0","subject_id":"61026e2c9829e7986adf365d","study_id":"6197b3f67c2b5cd3b6d9596a","session_id":"6197bac406ac8fc9e65d7087","condition":"contingent","relevant_dimensions":["antennae","pattern"],"bee_group":{"antennae":"B","wings":"X","pattern":"S","legs":"X"},"bonus":0.9600000000000006},{"rt":68842,"response":{"Q0":["Two or six legs","Stinger or no stinger","Single or double wings"]},"question_order":[0],"trial_type":"survey-multi-select","trial_index":4,"time_elapsed":467681,"internal_node_id":"0.0-3.0-1.0","subject_id":"61026e2c9829e7986adf365d","study_id":"6197b3f67c2b5cd3b6d9596a","session_id":"6197bac406ac8fc9e65d7087","condition":"contingent","relevant_dimensions":["antennae","pattern"],"bee_group":{"antennae":"B","wings":"X","pattern":"S","legs":"X"},"correct":false,"bonus":0.9600000000000006},{"rt":60053,"response":{"Q1":"No.","Q2":"Based on the four features of the bee.","Q3":"You learn if it was friendly or dangerous, but do not alter your bonus."},"question_order":[0,1,2],"trial_type":"survey-multi-choice","trial_index":5,"time_elapsed":527738,"internal_node_id":"0.0-3.0-2.0","subject_id":"61026e2c9829e7986adf365d","study_id":"6197b3f67c2b5cd3b6d9596a","session_id":"6197bac406ac8fc9e65d7087","condition":"contingent","relevant_dimensions":["antennae","pattern"],"bee_group":{"antennae":"B","wings":"X","pattern":"S","legs":"X"},"correct":false,"bonus":0.9600000000000006},{"rt":6682,"stimulus":"<p>You did not answer all comprehension questions correctly.<br>Press <b>continue</b> to review the instructions again.</p>","response":0,"trial_type":"html-button-response","trial_index":6,"time_elapsed":534423,"internal_node_id":"0.0-3.0-3.0","subject_id":"61026e2c9829e7986adf365d","study_id":"6197b3f67c2b5cd3b6d9596a","session_id":"6197bac406ac8fc9e65d7087","condition":"contingent","relevant_dimensions":["antennae","pattern"],"bee_group":{"antennae":"B","wings":"X","pattern":"S","legs":"X"},"bonus":0.9600000000000006},{"view_history":[{"page_index":0,"viewing_time":8539},{"page_index":1,"viewing_time":22387},{"page_index":2,"viewing_time":19245},{"page_index":3,"viewing_time":104962},{"page_index":4,"viewing_time":12543},{"page_index":5,"viewing_time":7186},{"page_index":6,"viewing_time":20740},{"page_index":5,"viewing_time":1277},{"page_index":4,"viewing_time":1423},{"page_index":3,"viewing_time":2719},{"page_index":2,"viewing_time":10926},{"page_index":3,"viewing_time":4600},{"page_index":4,"viewing_time":5146},{"page_index":5,"viewing_time":6466},{"page_index":6,"viewing_time":17468},{"page_index":7,"viewing_time":34934},{"page_index":8,"viewing_time":43170},{"page_index":9,"viewing_time":9971},{"page_index":10,"viewing_time":5803},{"page_index":11,"viewing_time":14374},{"page_index":12,"viewing_time":7451},{"page_index":13,"viewing_time":2096},{"page_index":14,"viewing_time":1552}],"rt":364978,"trial_type":"instructions","trial_index":7,"time_elapsed":899403,"internal_node_id":"0.0-3.0-4.0-0.0","subject_id":"61026e2c9829e7986adf365d","study_id":"6197b3f67c2b5cd3b6d9596a","session_id":"6197bac406ac8fc9e65d7087","condition":"contingent","relevant_dimensions":["antennae","pattern"],"bee_group":{"antennae":"B","wings":"X","pattern":"S","legs":"X"},"bonus":0.9600000000000006},{"rt":67868,"response":{"Q0":["Two or six legs","Stripes or spots on body","Single or double wings","Antennae or no antennae"]},"question_order":[0],"trial_type":"survey-multi-select","trial_index":8,"time_elapsed":967278,"internal_node_id":"0.0-3.0-4.0-1.0","subject_id":"61026e2c9829e7986adf365d","study_id":"6197b3f67c2b5cd3b6d9596a","session_id":"6197bac406ac8fc9e65d7087","condition":"contingent","relevant_dimensions":["antennae","pattern"],"bee_group":{"antennae":"B","wings":"X","pattern":"S","legs":"X"},"correct":true,"bonus":0.9600000000000006},{"rt":138115,"response":{"Q1":"No.","Q2":"Based on the four features of the bee.","Q3":"You do not learn if it was friendly or dangerous, and do not alter your bonus."},"question_order":[0,1,2],"trial_type":"survey-multi-choice","trial_index":9,"time_elapsed":1105398,"internal_node_id":"0.0-3.0-4.0-2.0","subject_id":"61026e2c9829e7986adf365d","study_id":"6197b3f67c2b5cd3b6d9596a","session_id":"6197bac406ac8fc9e65d7087","condition":"contingent","relevant_dimensions":["antennae","pattern"],"bee_group":{"antennae":"B","wings":"X","pattern":"S","legs":"X"},"correct":true,"bonus":0.9600000000000006},{"rt":5721,"stimulus":"<p>Congrats, you got everything right<br>When you're ready, click the button below to continue to the experiment.</p>","response":0,"trial_type":"html-button-response","trial_index":10,"time_elapsed":1111121,"internal_node_id":"0.0-3.0-4.0-3.0","subject_id":"61026e2c9829e7986adf365d","study_id":"6197b3f67c2b5cd3b6d9596a","session_id":"6197bac406ac8fc9e65d7087","condition":"contingent","relevant_dimensions":["antennae","pattern"],"bee_group":{"antennae":"B","wings":"X","pattern":"S","legs":"X"},"bonus":0.9600000000000006},{"rt":9682,"stimulus":"bees-with-color/bee-B1SF.svg","response":0,"trial_type":"image-button-response","trial_index":11,"time_elapsed":1120807,"internal_node_id":"0.0-4.0-0.0","subject_id":"61026e2c9829e7986adf365d","study_id":"6197b3f67c2b5cd3b6d9596a","session_id":"6197bac406ac8fc9e65d7087","condition":"contingent","relevant_dimensions":["antennae","pattern"],"bee_group":{"antennae":"B","wings":"X","pattern":"S","legs":"X"},"action":"harvest","summary":"bad-harvest","bonus":0.9600000000000006},{"rt":18263,"stimulus":"\n                    <p><b>Action: <em>harvest</em></b></p>\n                    <p>This is the bee that you just saw.</p>\n                    <img src=\"bees-with-color/bee-B1SF.svg\" width=\"200\">\n                    <p><span class=\"redText\">Bad choice, the bee was angry.</span><br><b>You have been stung!</b><br>Your pay has been decreased by $0.10. Your bonus pay is now $0.44.</p>\n            ","response":0,"trial_type":"html-button-response","trial_index":12,"time_elapsed":1139112,"internal_node_id":"0.0-4.0-1.0","subject_id":"61026e2c9829e7986adf365d","study_id":"6197b3f67c2b5cd3b6d9596a","session_id":"6197bac406ac8fc9e65d7087","condition":"contingent","relevant_dimensions":["antennae","pattern"],"bee_group":{"antennae":"B","wings":"X","pattern":"S","legs":"X"},"bonus":0.9600000000000006},{"rt":24330,"stimulus":"bees-with-color/bee-B2SF.svg","response":0,"trial_type":"image-button-response","trial_index":13,"time_elapsed":1163445,"internal_node_id":"0.0-4.0-0.1","subject_id":"61026e2c9829e7986adf365d","study_id":"6197b3f67c2b5cd3b6d9596a","session_id":"6197bac406ac8fc9e65d7087","condition":"contingent","relevant_dimensions":["antennae","pattern"],"bee_group":{"antennae":"B","wings":"X","pattern":"S","legs":"X"},"action":"harvest","summary":"bad-harvest","bonus":0.9600000000000006},{"rt":4384,"stimulus":"\n                    <p><b>Action: <em>harvest</em></b></p>\n                    <p>This is the bee that you just saw.</p>\n                    <img src=\"bees-with-color/bee-B2SF.svg\" width=\"200\">\n                    <p><span class=\"redText\">Bad choice, the bee was angry.</span><br><b>You have been stung!</b><br>Your pay has been decreased by $0.10. Your bonus pay is now $0.34.</p>\n            ","response":0,"trial_type":"html-button-response","trial_index":14,"time_elapsed":1167833,"internal_node_id":"0.0-4.0-1.1","subject_id":"61026e2c9829e7986adf365d","study_id":"6197b3f67c2b5cd3b6d9596a","session_id":"6197bac406ac8fc9e65d7087","condition":"contingent","relevant_dimensions":["antennae","pattern"],"bee_group":{"antennae":"B","wings":"X","pattern":"S","legs":"X"},"bonus":0.9600000000000006},{"rt":2004,"stimulus":"bees-with-color/bee-A2SF.svg","response":1,"trial_type":"image-button-response","trial_index":15,"time_elapsed":1169840,"internal_node_id":"0.0-4.0-0.2","subject_id":"61026e2c9829e7986adf365d","study_id":"6197b3f67c2b5cd3b6d9596a","session_id":"6197bac406ac8fc9e65d7087","condition":"contingent","relevant_dimensions":["antennae","pattern"],"bee_group":{"antennae":"B","wings":"X","pattern":"S","legs":"X"},"action":"avoid","summary":"bad-avoid","bonus":0.9600000000000006},{"rt":8158,"stimulus":"\n                    <p><b>Action: <em>avoid</em></b></p>\n                    <p>This is the bee that you just saw.</p>\n                    <img src=\"bees-with-color/bee-A2SF.svg\" width=\"200\">\n                    <p><br>Your bonus pay is unchanged, and remains at $0.34.</p>\n            ","response":0,"trial_type":"html-button-response","trial_index":16,"time_elapsed":1177998,"internal_node_id":"0.0-4.0-1.2","subject_id":"61026e2c9829e7986adf365d","study_id":"6197b3f67c2b5cd3b6d9596a","session_id":"6197bac406ac8fc9e65d7087","condition":"contingent","relevant_dimensions":["antennae","pattern"],"bee_group":{"antennae":"B","wings":"X","pattern":"S","legs":"X"},"bonus":0.9600000000000006},{"rt":15593,"stimulus":"bees-with-color/bee-A1DF.svg","response":0,"trial_type":"image-button-response","trial_index":17,"time_elapsed":1193593,"internal_node_id":"0.0-4.0-0.3","subject_id":"61026e2c9829e7986adf365d","study_id":"6197b3f67c2b5cd3b6d9596a","session_id":"6197bac406ac8fc9e65d7087","condition":"contingent","relevant_dimensions":["antennae","pattern"],"bee_group":{"antennae":"B","wings":"X","pattern":"S","legs":"X"},"action":"harvest","summary":"good-harvest","bonus":0.9600000000000006},{"rt":10482,"stimulus":"\n                    <p><b>Action: <em>harvest</em></b></p>\n                    <p>This is the bee that you just saw.</p>\n                    <img src=\"bees-with-color/bee-A1DF.svg\" width=\"200\">\n                    <p><span class=\"greenText\"><b>Successful harvest!</b></span><br>Your pay has increased by $0.02. Your bonus pay is now $0.36.</p>\n            ","response":0,"trial_type":"html-button-response","trial_index":18,"time_elapsed":1204077,"internal_node_id":"0.0-4.0-1.3","subject_id":"61026e2c9829e7986adf365d","study_id":"6197b3f67c2b5cd3b6d9596a","session_id":"6197bac406ac8fc9e65d7087","condition":"contingent","relevant_dimensions":["antennae","pattern"],"bee_group":{"antennae":"B","wings":"X","pattern":"S","legs":"X"},"bonus":0.9600000000000006},{"rt":4435,"stimulus":"bees-with-color/bee-B2DM.svg","response":0,"trial_type":"image-button-response","trial_index":19,"time_elapsed":1208514,"internal_node_id":"0.0-4.0-0.4","subject_id":"61026e2c9829e7986adf365d","study_id":"6197b3f67c2b5cd3b6d9596a","session_id":"6197bac406ac8fc9e65d7087","condition":"contingent","relevant_dimensions":["antennae","pattern"],"bee_group":{"antennae":"B","wings":"X","pattern":"S","legs":"X"},"action":"harvest","summary":"good-harvest","bonus":0.9600000000000006},{"rt":8825,"stimulus":"\n                    <p><b>Action: <em>harvest</em></b></p>\n                    <p>This is the bee that you just saw.</p>\n                    <img src=\"bees-with-color/bee-B2DM.svg\" width=\"200\">\n                    <p><span class=\"greenText\"><b>Successful harvest!</b></span><br>Your pay has increased by $0.02. Your bonus pay is now $0.38.</p>\n            ","response":0,"trial_type":"html-button-response","trial_index":20,"time_elapsed":1217342,"internal_node_id":"0.0-4.0-1.4","subject_id":"61026e2c9829e7986adf365d","study_id":"6197b3f67c2b5cd3b6d9596a","session_id":"6197bac406ac8fc9e65d7087","condition":"contingent","relevant_dimensions":["antennae","pattern"],"bee_group":{"antennae":"B","wings":"X","pattern":"S","legs":"X"},"bonus":0.9600000000000006},{"rt":1716,"stimulus":"bees-with-color/bee-B2DF.svg","response":0,"trial_type":"image-button-response","trial_index":21,"time_elapsed":1219060,"internal_node_id":"0.0-4.0-0.5","subject_id":"61026e2c9829e7986adf365d","study_id":"6197b3f67c2b5cd3b6d9596a","session_id":"6197bac406ac8fc9e65d7087","condition":"contingent","relevant_dimensions":["antennae","pattern"],"bee_group":{"antennae":"B","wings":"X","pattern":"S","legs":"X"},"action":"harvest","summary":"good-harvest","bonus":0.9600000000000006},{"rt":5173,"stimulus":"\n                    <p><b>Action: <em>harvest</em></b></p>\n                    <p>This is the bee that you just saw.</p>\n                    <img src=\"bees-with-color/bee-B2DF.svg\" width=\"200\">\n                    <p><span class=\"greenText\"><b>Successful harvest!</b></span><br>Your pay has increased by $0.02. Your bonus pay is now $0.40.</p>\n            ","response":0,"trial_type":"html-button-response","trial_index":22,"time_elapsed":1224236,"internal_node_id":"0.0-4.0-1.5","subject_id":"61026e2c9829e7986adf365d","study_id":"6197b3f67c2b5cd3b6d9596a","session_id":"6197bac406ac8fc9e65d7087","condition":"contingent","relevant_dimensions":["antennae","pattern"],"bee_group":{"antennae":"B","wings":"X","pattern":"S","legs":"X"},"bonus":0.9600000000000006},{"rt":6430,"stimulus":"bees-with-color/bee-A2DM.svg","response":0,"trial_type":"image-button-response","trial_index":23,"time_elapsed":1230668,"internal_node_id":"0.0-4.0-0.6","subject_id":"61026e2c9829e7986adf365d","study_id":"6197b3f67c2b5cd3b6d9596a","session_id":"6197bac406ac8fc9e65d7087","condition":"contingent","relevant_dimensions":["antennae","pattern"],"bee_group":{"antennae":"B","wings":"X","pattern":"S","legs":"X"},"action":"harvest","summary":"good-harvest","bonus":0.9600000000000006},{"rt":5090,"stimulus":"\n                    <p><b>Action: <em>harvest</em></b></p>\n                    <p>This is the bee that you just saw.</p>\n                    <img src=\"bees-with-color/bee-A2DM.svg\" width=\"200\">\n                    <p><span class=\"greenText\"><b>Successful harvest!</b></span><br>Your pay has increased by $0.02. Your bonus pay is now $0.42.</p>\n            ","response":0,"trial_type":"html-button-response","trial_index":24,"time_elapsed":1235762,"internal_node_id":"0.0-4.0-1.6","subject_id":"61026e2c9829e7986adf365d","study_id":"6197b3f67c2b5cd3b6d9596a","session_id":"6197bac406ac8fc9e65d7087","condition":"contingent","relevant_dimensions":["antennae","pattern"],"bee_group":{"antennae":"B","wings":"X","pattern":"S","legs":"X"},"bonus":0.9600000000000006},{"rt":3711,"stimulus":"bees-with-color/bee-B1DM.svg","response":1,"trial_type":"image-button-response","trial_index":25,"time_elapsed":1239475,"internal_node_id":"0.0-4.0-0.7","subject_id":"61026e2c9829e7986adf365d","study_id":"6197b3f67c2b5cd3b6d9596a","session_id":"6197bac406ac8fc9e65d7087","condition":"contingent","relevant_dimensions":["antennae","pattern"],"bee_group":{"antennae":"B","wings":"X","pattern":"S","legs":"X"},"action":"avoid","summary":"bad-avoid","bonus":0.9600000000000006},{"rt":9042,"stimulus":"\n                    <p><b>Action: <em>avoid</em></b></p>\n                    <p>This is the bee that you just saw.</p>\n                    <img src=\"bees-with-color/bee-B1DM.svg\" width=\"200\">\n                    <p><br>Your bonus pay is unchanged, and remains at $0.42.</p>\n            ","response":0,"trial_type":"html-button-response","trial_index":26,"time_elapsed":1248520,"internal_node_id":"0.0-4.0-1.7","subject_id":"61026e2c9829e7986adf365d","study_id":"6197b3f67c2b5cd3b6d9596a","session_id":"6197bac406ac8fc9e65d7087","condition":"contingent","relevant_dimensions":["antennae","pattern"],"bee_group":{"antennae":"B","wings":"X","pattern":"S","legs":"X"},"bonus":0.9600000000000006},{"rt":2453,"stimulus":"bees-with-color/bee-B1DF.svg","response":1,"trial_type":"image-button-response","trial_index":27,"time_elapsed":1250975,"internal_node_id":"0.0-4.0-0.8","subject_id":"61026e2c9829e7986adf365d","study_id":"6197b3f67c2b5cd3b6d9596a","session_id":"6197bac406ac8fc9e65d7087","condition":"contingent","relevant_dimensions":["antennae","pattern"],"bee_group":{"antennae":"B","wings":"X","pattern":"S","legs":"X"},"action":"avoid","summary":"bad-avoid","bonus":0.9600000000000006},{"rt":1738,"stimulus":"\n                    <p><b>Action: <em>avoid</em></b></p>\n                    <p>This is the bee that you just saw.</p>\n                    <img src=\"bees-with-color/bee-B1DF.svg\" width=\"200\">\n                    <p><br>Your bonus pay is unchanged, and remains at $0.42.</p>\n            ","response":0,"trial_type":"html-button-response","trial_index":28,"time_elapsed":1252716,"internal_node_id":"0.0-4.0-1.8","subject_id":"61026e2c9829e7986adf365d","study_id":"6197b3f67c2b5cd3b6d9596a","session_id":"6197bac406ac8fc9e65d7087","condition":"contingent","relevant_dimensions":["antennae","pattern"],"bee_group":{"antennae":"B","wings":"X","pattern":"S","legs":"X"},"bonus":0.9600000000000006},{"rt":3961,"stimulus":"bees-with-color/bee-A1SM.svg","response":1,"trial_type":"image-button-response","trial_index":29,"time_elapsed":1256678,"internal_node_id":"0.0-4.0-0.9","subject_id":"61026e2c9829e7986adf365d","study_id":"6197b3f67c2b5cd3b6d9596a","session_id":"6197bac406ac8fc9e65d7087","condition":"contingent","relevant_dimensions":["antennae","pattern"],"bee_group":{"antennae":"B","wings":"X","pattern":"S","legs":"X"},"action":"avoid","summary":"bad-avoid","bonus":0.9600000000000006},{"rt":1938,"stimulus":"\n                    <p><b>Action: <em>avoid</em></b></p>\n                    <p>This is the bee that you just saw.</p>\n                    <img src=\"bees-with-color/bee-A1SM.svg\" width=\"200\">\n                    <p><br>Your bonus pay is unchanged, and remains at $0.42.</p>\n            ","response":0,"trial_type":"html-button-response","trial_index":30,"time_elapsed":1258618,"internal_node_id":"0.0-4.0-1.9","subject_id":"61026e2c9829e7986adf365d","study_id":"6197b3f67c2b5cd3b6d9596a","session_id":"6197bac406ac8fc9e65d7087","condition":"contingent","relevant_dimensions":["antennae","pattern"],"bee_group":{"antennae":"B","wings":"X","pattern":"S","legs":"X"},"bonus":0.9600000000000006},{"rt":2006,"stimulus":"bees-with-color/bee-A1SF.svg","response":1,"trial_type":"image-button-response","trial_index":31,"time_elapsed":1260624,"internal_node_id":"0.0-4.0-0.10","subject_id":"61026e2c9829e7986adf365d","study_id":"6197b3f67c2b5cd3b6d9596a","session_id":"6197bac406ac8fc9e65d7087","condition":"contingent","relevant_dimensions":["antennae","pattern"],"bee_group":{"antennae":"B","wings":"X","pattern":"S","legs":"X"},"action":"avoid","summary":"bad-avoid","bonus":0.9600000000000006},{"rt":2291,"stimulus":"\n                    <p><b>Action: <em>avoid</em></b></p>\n                    <p>This is the bee that you just saw.</p>\n                    <img src=\"bees-with-color/bee-A1SF.svg\" width=\"200\">\n                    <p><br>Your bonus pay is unchanged, and remains at $0.42.</p>\n            ","response":0,"trial_type":"html-button-response","trial_index":32,"time_elapsed":1262919,"internal_node_id":"0.0-4.0-1.10","subject_id":"61026e2c9829e7986adf365d","study_id":"6197b3f67c2b5cd3b6d9596a","session_id":"6197bac406ac8fc9e65d7087","condition":"contingent","relevant_dimensions":["antennae","pattern"],"bee_group":{"antennae":"B","wings":"X","pattern":"S","legs":"X"},"bonus":0.9600000000000006},{"rt":4386,"stimulus":"bees-with-color/bee-A2SM.svg","response":1,"trial_type":"image-button-response","trial_index":33,"time_elapsed":1267307,"internal_node_id":"0.0-4.0-0.11","subject_id":"61026e2c9829e7986adf365d","study_id":"6197b3f67c2b5cd3b6d9596a","session_id":"6197bac406ac8fc9e65d7087","condition":"contingent","relevant_dimensions":["antennae","pattern"],"bee_group":{"antennae":"B","wings":"X","pattern":"S","legs":"X"},"action":"avoid","summary":"bad-avoid","bonus":0.9600000000000006},{"rt":1816,"stimulus":"\n                    <p><b>Action: <em>avoid</em></b></p>\n                    <p>This is the bee that you just saw.</p>\n                    <img src=\"bees-with-color/bee-A2SM.svg\" width=\"200\">\n                    <p><br>Your bonus pay is unchanged, and remains at $0.42.</p>\n            ","response":0,"trial_type":"html-button-response","trial_index":34,"time_elapsed":1269124,"internal_node_id":"0.0-4.0-1.11","subject_id":"61026e2c9829e7986adf365d","study_id":"6197b3f67c2b5cd3b6d9596a","session_id":"6197bac406ac8fc9e65d7087","condition":"contingent","relevant_dimensions":["antennae","pattern"],"bee_group":{"antennae":"B","wings":"X","pattern":"S","legs":"X"},"bonus":0.9600000000000006},{"rt":1661,"stimulus":"bees-with-color/bee-B2SM.svg","response":1,"trial_type":"image-button-response","trial_index":35,"time_elapsed":1270787,"internal_node_id":"0.0-4.0-0.12","subject_id":"61026e2c9829e7986adf365d","study_id":"6197b3f67c2b5cd3b6d9596a","session_id":"6197bac406ac8fc9e65d7087","condition":"contingent","relevant_dimensions":["antennae","pattern"],"bee_group":{"antennae":"B","wings":"X","pattern":"S","legs":"X"},"action":"avoid","summary":"good-avoid","bonus":0.9600000000000006},{"rt":2073,"stimulus":"\n                    <p><b>Action: <em>avoid</em></b></p>\n                    <p>This is the bee that you just saw.</p>\n                    <img src=\"bees-with-color/bee-B2SM.svg\" width=\"200\">\n                    <p><br>Your bonus pay is unchanged, and remains at $0.42.</p>\n            ","response":0,"trial_type":"html-button-response","trial_index":36,"time_elapsed":1272863,"internal_node_id":"0.0-4.0-1.12","subject_id":"61026e2c9829e7986adf365d","study_id":"6197b3f67c2b5cd3b6d9596a","session_id":"6197bac406ac8fc9e65d7087","condition":"contingent","relevant_dimensions":["antennae","pattern"],"bee_group":{"antennae":"B","wings":"X","pattern":"S","legs":"X"},"bonus":0.9600000000000006},{"rt":1758,"stimulus":"bees-with-color/bee-A2DF.svg","response":0,"trial_type":"image-button-response","trial_index":37,"time_elapsed":1274623,"internal_node_id":"0.0-4.0-0.13","subject_id":"61026e2c9829e7986adf365d","study_id":"6197b3f67c2b5cd3b6d9596a","session_id":"6197bac406ac8fc9e65d7087","condition":"contingent","relevant_dimensions":["antennae","pattern"],"bee_group":{"antennae":"B","wings":"X","pattern":"S","legs":"X"},"action":"harvest","summary":"good-harvest","bonus":0.9600000000000006},{"rt":1930,"stimulus":"\n                    <p><b>Action: <em>harvest</em></b></p>\n                    <p>This is the bee that you just saw.</p>\n                    <img src=\"bees-with-color/bee-A2DF.svg\" width=\"200\">\n                    <p><span class=\"greenText\"><b>Successful harvest!</b></span><br>Your pay has increased by $0.02. Your bonus pay is now $0.44.</p>\n            ","response":0,"trial_type":"html-button-response","trial_index":38,"time_elapsed":1276556,"internal_node_id":"0.0-4.0-1.13","subject_id":"61026e2c9829e7986adf365d","study_id":"6197b3f67c2b5cd3b6d9596a","session_id":"6197bac406ac8fc9e65d7087","condition":"contingent","relevant_dimensions":["antennae","pattern"],"bee_group":{"antennae":"B","wings":"X","pattern":"S","legs":"X"},"bonus":0.9600000000000006},{"rt":3506,"stimulus":"bees-with-color/bee-A1DM.svg","response":0,"trial_type":"image-button-response","trial_index":39,"time_elapsed":1280064,"internal_node_id":"0.0-4.0-0.14","subject_id":"61026e2c9829e7986adf365d","study_id":"6197b3f67c2b5cd3b6d9596a","session_id":"6197bac406ac8fc9e65d7087","condition":"contingent","relevant_dimensions":["antennae","pattern"],"bee_group":{"antennae":"B","wings":"X","pattern":"S","legs":"X"},"action":"harvest","summary":"good-harvest","bonus":0.9600000000000006},{"rt":4003,"stimulus":"\n                    <p><b>Action: <em>harvest</em></b></p>\n                    <p>This is the bee that you just saw.</p>\n                    <img src=\"bees-with-color/bee-A1DM.svg\" width=\"200\">\n                    <p><span class=\"greenText\"><b>Successful harvest!</b></span><br>Your pay has increased by $0.02. Your bonus pay is now $0.46.</p>\n            ","response":0,"trial_type":"html-button-response","trial_index":40,"time_elapsed":1284070,"internal_node_id":"0.0-4.0-1.14","subject_id":"61026e2c9829e7986adf365d","study_id":"6197b3f67c2b5cd3b6d9596a","session_id":"6197bac406ac8fc9e65d7087","condition":"contingent","relevant_dimensions":["antennae","pattern"],"bee_group":{"antennae":"B","wings":"X","pattern":"S","legs":"X"},"bonus":0.9600000000000006},{"rt":1523,"stimulus":"bees-with-color/bee-B1SM.svg","response":1,"trial_type":"image-button-response","trial_index":41,"time_elapsed":1285596,"internal_node_id":"0.0-4.0-0.15","subject_id":"61026e2c9829e7986adf365d","study_id":"6197b3f67c2b5cd3b6d9596a","session_id":"6197bac406ac8fc9e65d7087","condition":"contingent","relevant_dimensions":["antennae","pattern"],"bee_group":{"antennae":"B","wings":"X","pattern":"S","legs":"X"},"action":"avoid","summary":"good-avoid","bonus":0.9600000000000006},{"rt":3721,"stimulus":"\n                    <p><b>Action: <em>avoid</em></b></p>\n                    <p>This is the bee that you just saw.</p>\n                    <img src=\"bees-with-color/bee-B1SM.svg\" width=\"200\">\n                    <p><br>Your bonus pay is unchanged, and remains at $0.46.</p>\n            ","response":0,"trial_type":"html-button-response","trial_index":42,"time_elapsed":1289318,"internal_node_id":"0.0-4.0-1.15","subject_id":"61026e2c9829e7986adf365d","study_id":"6197b3f67c2b5cd3b6d9596a","session_id":"6197bac406ac8fc9e65d7087","condition":"contingent","relevant_dimensions":["antennae","pattern"],"bee_group":{"antennae":"B","wings":"X","pattern":"S","legs":"X"},"bonus":0.9600000000000006},{"rt":1910,"stimulus":"bees-with-color/bee-B2SF.svg","response":1,"trial_type":"image-button-response","trial_index":43,"time_elapsed":1291231,"internal_node_id":"0.0-4.0-0.16","subject_id":"61026e2c9829e7986adf365d","study_id":"6197b3f67c2b5cd3b6d9596a","session_id":"6197bac406ac8fc9e65d7087","condition":"contingent","relevant_dimensions":["antennae","pattern"],"bee_group":{"antennae":"B","wings":"X","pattern":"S","legs":"X"},"action":"avoid","summary":"good-avoid","bonus":0.9600000000000006},{"rt":1547,"stimulus":"\n                    <p><b>Action: <em>avoid</em></b></p>\n                    <p>This is the bee that you just saw.</p>\n                    <img src=\"bees-with-color/bee-B2SF.svg\" width=\"200\">\n                    <p><br>Your bonus pay is unchanged, and remains at $0.46.</p>\n            ","response":0,"trial_type":"html-button-response","trial_index":44,"time_elapsed":1292779,"internal_node_id":"0.0-4.0-1.16","subject_id":"61026e2c9829e7986adf365d","study_id":"6197b3f67c2b5cd3b6d9596a","session_id":"6197bac406ac8fc9e65d7087","condition":"contingent","relevant_dimensions":["antennae","pattern"],"bee_group":{"antennae":"B","wings":"X","pattern":"S","legs":"X"},"bonus":0.9600000000000006},{"rt":3075,"stimulus":"bees-with-color/bee-B2SM.svg","response":1,"trial_type":"image-button-response","trial_index":45,"time_elapsed":1295858,"internal_node_id":"0.0-4.0-0.17","subject_id":"61026e2c9829e7986adf365d","study_id":"6197b3f67c2b5cd3b6d9596a","session_id":"6197bac406ac8fc9e65d7087","condition":"contingent","relevant_dimensions":["antennae","pattern"],"bee_group":{"antennae":"B","wings":"X","pattern":"S","legs":"X"},"action":"avoid","summary":"good-avoid","bonus":0.9600000000000006},{"rt":1748,"stimulus":"\n                    <p><b>Action: <em>avoid</em></b></p>\n                    <p>This is the bee that you just saw.</p>\n                    <img src=\"bees-with-color/bee-B2SM.svg\" width=\"200\">\n                    <p><br>Your bonus pay is unchanged, and remains at $0.46.</p>\n            ","response":0,"trial_type":"html-button-response","trial_index":46,"time_elapsed":1297608,"internal_node_id":"0.0-4.0-1.17","subject_id":"61026e2c9829e7986adf365d","study_id":"6197b3f67c2b5cd3b6d9596a","session_id":"6197bac406ac8fc9e65d7087","condition":"contingent","relevant_dimensions":["antennae","pattern"],"bee_group":{"antennae":"B","wings":"X","pattern":"S","legs":"X"},"bonus":0.9600000000000006},{"rt":1244,"stimulus":"bees-with-color/bee-A2SF.svg","response":1,"trial_type":"image-button-response","trial_index":47,"time_elapsed":1298853,"internal_node_id":"0.0-4.0-0.18","subject_id":"61026e2c9829e7986adf365d","study_id":"6197b3f67c2b5cd3b6d9596a","session_id":"6197bac406ac8fc9e65d7087","condition":"contingent","relevant_dimensions":["antennae","pattern"],"bee_group":{"antennae":"B","wings":"X","pattern":"S","legs":"X"},"action":"avoid","summary":"bad-avoid","bonus":0.9600000000000006},{"rt":1430,"stimulus":"\n                    <p><b>Action: <em>avoid</em></b></p>\n                    <p>This is the bee that you just saw.</p>\n                    <img src=\"bees-with-color/bee-A2SF.svg\" width=\"200\">\n                    <p><br>Your bonus pay is unchanged, and remains at $0.46.</p>\n            ","response":0,"trial_type":"html-button-response","trial_index":48,"time_elapsed":1300285,"internal_node_id":"0.0-4.0-1.18","subject_id":"61026e2c9829e7986adf365d","study_id":"6197b3f67c2b5cd3b6d9596a","session_id":"6197bac406ac8fc9e65d7087","condition":"contingent","relevant_dimensions":["antennae","pattern"],"bee_group":{"antennae":"B","wings":"X","pattern":"S","legs":"X"},"bonus":0.9600000000000006},{"rt":1639,"stimulus":"bees-with-color/bee-B1DM.svg","response":0,"trial_type":"image-button-response","trial_index":49,"time_elapsed":1301927,"internal_node_id":"0.0-4.0-0.19","subject_id":"61026e2c9829e7986adf365d","study_id":"6197b3f67c2b5cd3b6d9596a","session_id":"6197bac406ac8fc9e65d7087","condition":"contingent","relevant_dimensions":["antennae","pattern"],"bee_group":{"antennae":"B","wings":"X","pattern":"S","legs":"X"},"action":"harvest","summary":"good-harvest","bonus":0.9600000000000006},{"rt":2601,"stimulus":"\n                    <p><b>Action: <em>harvest</em></b></p>\n                    <p>This is the bee that you just saw.</p>\n                    <img src=\"bees-with-color/bee-B1DM.svg\" width=\"200\">\n                    <p><span class=\"greenText\"><b>Successful harvest!</b></span><br>Your pay has increased by $0.02. Your bonus pay is now $0.48.</p>\n            ","response":0,"trial_type":"html-button-response","trial_index":50,"time_elapsed":1304530,"internal_node_id":"0.0-4.0-1.19","subject_id":"61026e2c9829e7986adf365d","study_id":"6197b3f67c2b5cd3b6d9596a","session_id":"6197bac406ac8fc9e65d7087","condition":"contingent","relevant_dimensions":["antennae","pattern"],"bee_group":{"antennae":"B","wings":"X","pattern":"S","legs":"X"},"bonus":0.9600000000000006},{"rt":1659,"stimulus":"bees-with-color/bee-A2SM.svg","response":1,"trial_type":"image-button-response","trial_index":51,"time_elapsed":1306191,"internal_node_id":"0.0-4.0-0.20","subject_id":"61026e2c9829e7986adf365d","study_id":"6197b3f67c2b5cd3b6d9596a","session_id":"6197bac406ac8fc9e65d7087","condition":"contingent","relevant_dimensions":["antennae","pattern"],"bee_group":{"antennae":"B","wings":"X","pattern":"S","legs":"X"},"action":"avoid","summary":"bad-avoid","bonus":0.9600000000000006},{"rt":1568,"stimulus":"\n                    <p><b>Action: <em>avoid</em></b></p>\n                    <p>This is the bee that you just saw.</p>\n                    <img src=\"bees-with-color/bee-A2SM.svg\" width=\"200\">\n                    <p><br>Your bonus pay is unchanged, and remains at $0.48.</p>\n            ","response":0,"trial_type":"html-button-response","trial_index":52,"time_elapsed":1307763,"internal_node_id":"0.0-4.0-1.20","subject_id":"61026e2c9829e7986adf365d","study_id":"6197b3f67c2b5cd3b6d9596a","session_id":"6197bac406ac8fc9e65d7087","condition":"contingent","relevant_dimensions":["antennae","pattern"],"bee_group":{"antennae":"B","wings":"X","pattern":"S","legs":"X"},"bonus":0.9600000000000006},{"rt":2169,"stimulus":"bees-with-color/bee-A1DM.svg","response":0,"trial_type":"image-button-response","trial_index":53,"time_elapsed":1309934,"internal_node_id":"0.0-4.0-0.21","subject_id":"61026e2c9829e7986adf365d","study_id":"6197b3f67c2b5cd3b6d9596a","session_id":"6197bac406ac8fc9e65d7087","condition":"contingent","relevant_dimensions":["antennae","pattern"],"bee_group":{"antennae":"B","wings":"X","pattern":"S","legs":"X"},"action":"harvest","summary":"good-harvest","bonus":0.9600000000000006},{"rt":1709,"stimulus":"\n                    <p><b>Action: <em>harvest</em></b></p>\n                    <p>This is the bee that you just saw.</p>\n                    <img src=\"bees-with-color/bee-A1DM.svg\" width=\"200\">\n                    <p><span class=\"greenText\"><b>Successful harvest!</b></span><br>Your pay has increased by $0.02. Your bonus pay is now $0.50.</p>\n            ","response":0,"trial_type":"html-button-response","trial_index":54,"time_elapsed":1311646,"internal_node_id":"0.0-4.0-1.21","subject_id":"61026e2c9829e7986adf365d","study_id":"6197b3f67c2b5cd3b6d9596a","session_id":"6197bac406ac8fc9e65d7087","condition":"contingent","relevant_dimensions":["antennae","pattern"],"bee_group":{"antennae":"B","wings":"X","pattern":"S","legs":"X"},"bonus":0.9600000000000006},{"rt":2332,"stimulus":"bees-with-color/bee-A1DF.svg","response":0,"trial_type":"image-button-response","trial_index":55,"time_elapsed":1313980,"internal_node_id":"0.0-4.0-0.22","subject_id":"61026e2c9829e7986adf365d","study_id":"6197b3f67c2b5cd3b6d9596a","session_id":"6197bac406ac8fc9e65d7087","condition":"contingent","relevant_dimensions":["antennae","pattern"],"bee_group":{"antennae":"B","wings":"X","pattern":"S","legs":"X"},"action":"harvest","summary":"good-harvest","bonus":0.9600000000000006},{"rt":1830,"stimulus":"\n                    <p><b>Action: <em>harvest</em></b></p>\n                    <p>This is the bee that you just saw.</p>\n                    <img src=\"bees-with-color/bee-A1DF.svg\" width=\"200\">\n                    <p><span class=\"greenText\"><b>Successful harvest!</b></span><br>Your pay has increased by $0.02. Your bonus pay is now $0.52.</p>\n            ","response":0,"trial_type":"html-button-response","trial_index":56,"time_elapsed":1315814,"internal_node_id":"0.0-4.0-1.22","subject_id":"61026e2c9829e7986adf365d","study_id":"6197b3f67c2b5cd3b6d9596a","session_id":"6197bac406ac8fc9e65d7087","condition":"contingent","relevant_dimensions":["antennae","pattern"],"bee_group":{"antennae":"B","wings":"X","pattern":"S","legs":"X"},"bonus":0.9600000000000006},{"rt":1689,"stimulus":"bees-with-color/bee-A2DF.svg","response":0,"trial_type":"image-button-response","trial_index":57,"time_elapsed":1317506,"internal_node_id":"0.0-4.0-0.23","subject_id":"61026e2c9829e7986adf365d","study_id":"6197b3f67c2b5cd3b6d9596a","session_id":"6197bac406ac8fc9e65d7087","condition":"contingent","relevant_dimensions":["antennae","pattern"],"bee_group":{"antennae":"B","wings":"X","pattern":"S","legs":"X"},"action":"harvest","summary":"good-harvest","bonus":0.9600000000000006},{"rt":2819,"stimulus":"\n                    <p><b>Action: <em>harvest</em></b></p>\n                    <p>This is the bee that you just saw.</p>\n                    <img src=\"bees-with-color/bee-A2DF.svg\" width=\"200\">\n                    <p><span class=\"greenText\"><b>Successful harvest!</b></span><br>Your pay has increased by $0.02. Your bonus pay is now $0.54.</p>\n            ","response":0,"trial_type":"html-button-response","trial_index":58,"time_elapsed":1320327,"internal_node_id":"0.0-4.0-1.23","subject_id":"61026e2c9829e7986adf365d","study_id":"6197b3f67c2b5cd3b6d9596a","session_id":"6197bac406ac8fc9e65d7087","condition":"contingent","relevant_dimensions":["antennae","pattern"],"bee_group":{"antennae":"B","wings":"X","pattern":"S","legs":"X"},"bonus":0.9600000000000006},{"rt":2541,"stimulus":"bees-with-color/bee-B2DF.svg","response":0,"trial_type":"image-button-response","trial_index":59,"time_elapsed":1322872,"internal_node_id":"0.0-4.0-0.24","subject_id":"61026e2c9829e7986adf365d","study_id":"6197b3f67c2b5cd3b6d9596a","session_id":"6197bac406ac8fc9e65d7087","condition":"contingent","relevant_dimensions":["antennae","pattern"],"bee_group":{"antennae":"B","wings":"X","pattern":"S","legs":"X"},"action":"harvest","summary":"good-harvest","bonus":0.9600000000000006},{"rt":2023,"stimulus":"\n                    <p><b>Action: <em>harvest</em></b></p>\n                    <p>This is the bee that you just saw.</p>\n                    <img src=\"bees-with-color/bee-B2DF.svg\" width=\"200\">\n                    <p><span class=\"greenText\"><b>Successful harvest!</b></span><br>Your pay has increased by $0.02. Your bonus pay is now $0.56.</p>\n            ","response":0,"trial_type":"html-button-response","trial_index":60,"time_elapsed":1324897,"internal_node_id":"0.0-4.0-1.24","subject_id":"61026e2c9829e7986adf365d","study_id":"6197b3f67c2b5cd3b6d9596a","session_id":"6197bac406ac8fc9e65d7087","condition":"contingent","relevant_dimensions":["antennae","pattern"],"bee_group":{"antennae":"B","wings":"X","pattern":"S","legs":"X"},"bonus":0.9600000000000006},{"rt":1561,"stimulus":"bees-with-color/bee-B1SF.svg","response":1,"trial_type":"image-button-response","trial_index":61,"time_elapsed":1326460,"internal_node_id":"0.0-4.0-0.25","subject_id":"61026e2c9829e7986adf365d","study_id":"6197b3f67c2b5cd3b6d9596a","session_id":"6197bac406ac8fc9e65d7087","condition":"contingent","relevant_dimensions":["antennae","pattern"],"bee_group":{"antennae":"B","wings":"X","pattern":"S","legs":"X"},"action":"avoid","summary":"good-avoid","bonus":0.9600000000000006},{"rt":1754,"stimulus":"\n                    <p><b>Action: <em>avoid</em></b></p>\n                    <p>This is the bee that you just saw.</p>\n                    <img src=\"bees-with-color/bee-B1SF.svg\" width=\"200\">\n                    <p><br>Your bonus pay is unchanged, and remains at $0.56.</p>\n            ","response":0,"trial_type":"html-button-response","trial_index":62,"time_elapsed":1328217,"internal_node_id":"0.0-4.0-1.25","subject_id":"61026e2c9829e7986adf365d","study_id":"6197b3f67c2b5cd3b6d9596a","session_id":"6197bac406ac8fc9e65d7087","condition":"contingent","relevant_dimensions":["antennae","pattern"],"bee_group":{"antennae":"B","wings":"X","pattern":"S","legs":"X"},"bonus":0.9600000000000006},{"rt":1738,"stimulus":"bees-with-color/bee-A1SM.svg","response":1,"trial_type":"image-button-response","trial_index":63,"time_elapsed":1329957,"internal_node_id":"0.0-4.0-0.26","subject_id":"61026e2c9829e7986adf365d","study_id":"6197b3f67c2b5cd3b6d9596a","session_id":"6197bac406ac8fc9e65d7087","condition":"contingent","relevant_dimensions":["antennae","pattern"],"bee_group":{"antennae":"B","wings":"X","pattern":"S","legs":"X"},"action":"avoid","summary":"bad-avoid","bonus":0.9600000000000006},{"rt":1658,"stimulus":"\n                    <p><b>Action: <em>avoid</em></b></p>\n                    <p>This is the bee that you just saw.</p>\n                    <img src=\"bees-with-color/bee-A1SM.svg\" width=\"200\">\n                    <p><br>Your bonus pay is unchanged, and remains at $0.56.</p>\n            ","response":0,"trial_type":"html-button-response","trial_index":64,"time_elapsed":1331618,"internal_node_id":"0.0-4.0-1.26","subject_id":"61026e2c9829e7986adf365d","study_id":"6197b3f67c2b5cd3b6d9596a","session_id":"6197bac406ac8fc9e65d7087","condition":"contingent","relevant_dimensions":["antennae","pattern"],"bee_group":{"antennae":"B","wings":"X","pattern":"S","legs":"X"},"bonus":0.9600000000000006},{"rt":1332,"stimulus":"bees-with-color/bee-B1DF.svg","response":0,"trial_type":"image-button-response","trial_index":65,"time_elapsed":1332953,"internal_node_id":"0.0-4.0-0.27","subject_id":"61026e2c9829e7986adf365d","study_id":"6197b3f67c2b5cd3b6d9596a","session_id":"6197bac406ac8fc9e65d7087","condition":"contingent","relevant_dimensions":["antennae","pattern"],"bee_group":{"antennae":"B","wings":"X","pattern":"S","legs":"X"},"action":"harvest","summary":"good-harvest","bonus":0.9600000000000006},{"rt":1802,"stimulus":"\n                    <p><b>Action: <em>harvest</em></b></p>\n                    <p>This is the bee that you just saw.</p>\n                    <img src=\"bees-with-color/bee-B1DF.svg\" width=\"200\">\n                    <p><span class=\"greenText\"><b>Successful harvest!</b></span><br>Your pay has increased by $0.02. Your bonus pay is now $0.58.</p>\n            ","response":0,"trial_type":"html-button-response","trial_index":66,"time_elapsed":1334756,"internal_node_id":"0.0-4.0-1.27","subject_id":"61026e2c9829e7986adf365d","study_id":"6197b3f67c2b5cd3b6d9596a","session_id":"6197bac406ac8fc9e65d7087","condition":"contingent","relevant_dimensions":["antennae","pattern"],"bee_group":{"antennae":"B","wings":"X","pattern":"S","legs":"X"},"bonus":0.9600000000000006},{"rt":1632,"stimulus":"bees-with-color/bee-B2DM.svg","response":0,"trial_type":"image-button-response","trial_index":67,"time_elapsed":1336391,"internal_node_id":"0.0-4.0-0.28","subject_id":"61026e2c9829e7986adf365d","study_id":"6197b3f67c2b5cd3b6d9596a","session_id":"6197bac406ac8fc9e65d7087","condition":"contingent","relevant_dimensions":["antennae","pattern"],"bee_group":{"antennae":"B","wings":"X","pattern":"S","legs":"X"},"action":"harvest","summary":"good-harvest","bonus":0.9600000000000006},{"rt":1334,"stimulus":"\n                    <p><b>Action: <em>harvest</em></b></p>\n                    <p>This is the bee that you just saw.</p>\n                    <img src=\"bees-with-color/bee-B2DM.svg\" width=\"200\">\n                    <p><span class=\"greenText\"><b>Successful harvest!</b></span><br>Your pay has increased by $0.02. Your bonus pay is now $0.60.</p>\n            ","response":0,"trial_type":"html-button-response","trial_index":68,"time_elapsed":1337729,"internal_node_id":"0.0-4.0-1.28","subject_id":"61026e2c9829e7986adf365d","study_id":"6197b3f67c2b5cd3b6d9596a","session_id":"6197bac406ac8fc9e65d7087","condition":"contingent","relevant_dimensions":["antennae","pattern"],"bee_group":{"antennae":"B","wings":"X","pattern":"S","legs":"X"},"bonus":0.9600000000000006},{"rt":1784,"stimulus":"bees-with-color/bee-B1SM.svg","response":1,"trial_type":"image-button-response","trial_index":69,"time_elapsed":1339515,"internal_node_id":"0.0-4.0-0.29","subject_id":"61026e2c9829e7986adf365d","study_id":"6197b3f67c2b5cd3b6d9596a","session_id":"6197bac406ac8fc9e65d7087","condition":"contingent","relevant_dimensions":["antennae","pattern"],"bee_group":{"antennae":"B","wings":"X","pattern":"S","legs":"X"},"action":"avoid","summary":"good-avoid","bonus":0.9600000000000006},{"rt":1690,"stimulus":"\n                    <p><b>Action: <em>avoid</em></b></p>\n                    <p>This is the bee that you just saw.</p>\n                    <img src=\"bees-with-color/bee-B1SM.svg\" width=\"200\">\n                    <p><br>Your bonus pay is unchanged, and remains at $0.60.</p>\n            ","response":0,"trial_type":"html-button-response","trial_index":70,"time_elapsed":1341208,"internal_node_id":"0.0-4.0-1.29","subject_id":"61026e2c9829e7986adf365d","study_id":"6197b3f67c2b5cd3b6d9596a","session_id":"6197bac406ac8fc9e65d7087","condition":"contingent","relevant_dimensions":["antennae","pattern"],"bee_group":{"antennae":"B","wings":"X","pattern":"S","legs":"X"},"bonus":0.9600000000000006},{"rt":1404,"stimulus":"bees-with-color/bee-A1SF.svg","response":1,"trial_type":"image-button-response","trial_index":71,"time_elapsed":1342614,"internal_node_id":"0.0-4.0-0.30","subject_id":"61026e2c9829e7986adf365d","study_id":"6197b3f67c2b5cd3b6d9596a","session_id":"6197bac406ac8fc9e65d7087","condition":"contingent","relevant_dimensions":["antennae","pattern"],"bee_group":{"antennae":"B","wings":"X","pattern":"S","legs":"X"},"action":"avoid","summary":"bad-avoid","bonus":0.9600000000000006},{"rt":1260,"stimulus":"\n                    <p><b>Action: <em>avoid</em></b></p>\n                    <p>This is the bee that you just saw.</p>\n                    <img src=\"bees-with-color/bee-A1SF.svg\" width=\"200\">\n                    <p><br>Your bonus pay is unchanged, and remains at $0.60.</p>\n            ","response":0,"trial_type":"html-button-response","trial_index":72,"time_elapsed":1343876,"internal_node_id":"0.0-4.0-1.30","subject_id":"61026e2c9829e7986adf365d","study_id":"6197b3f67c2b5cd3b6d9596a","session_id":"6197bac406ac8fc9e65d7087","condition":"contingent","relevant_dimensions":["antennae","pattern"],"bee_group":{"antennae":"B","wings":"X","pattern":"S","legs":"X"},"bonus":0.9600000000000006},{"rt":1374,"stimulus":"bees-with-color/bee-A2DM.svg","response":0,"trial_type":"image-button-response","trial_index":73,"time_elapsed":1345253,"internal_node_id":"0.0-4.0-0.31","subject_id":"61026e2c9829e7986adf365d","study_id":"6197b3f67c2b5cd3b6d9596a","session_id":"6197bac406ac8fc9e65d7087","condition":"contingent","relevant_dimensions":["antennae","pattern"],"bee_group":{"antennae":"B","wings":"X","pattern":"S","legs":"X"},"action":"harvest","summary":"good-harvest","bonus":0.9600000000000006},{"rt":1958,"stimulus":"\n                    <p><b>Action: <em>harvest</em></b></p>\n                    <p>This is the bee that you just saw.</p>\n                    <img src=\"bees-with-color/bee-A2DM.svg\" width=\"200\">\n                    <p><span class=\"greenText\"><b>Successful harvest!</b></span><br>Your pay has increased by $0.02. Your bonus pay is now $0.62.</p>\n            ","response":0,"trial_type":"html-button-response","trial_index":74,"time_elapsed":1347213,"internal_node_id":"0.0-4.0-1.31","subject_id":"61026e2c9829e7986adf365d","study_id":"6197b3f67c2b5cd3b6d9596a","session_id":"6197bac406ac8fc9e65d7087","condition":"contingent","relevant_dimensions":["antennae","pattern"],"bee_group":{"antennae":"B","wings":"X","pattern":"S","legs":"X"},"bonus":0.9600000000000006},{"rt":1489,"stimulus":"bees-with-color/bee-B2SF.svg","response":1,"trial_type":"image-button-response","trial_index":75,"time_elapsed":1348704,"internal_node_id":"0.0-4.0-0.32","subject_id":"61026e2c9829e7986adf365d","study_id":"6197b3f67c2b5cd3b6d9596a","session_id":"6197bac406ac8fc9e65d7087","condition":"contingent","relevant_dimensions":["antennae","pattern"],"bee_group":{"antennae":"B","wings":"X","pattern":"S","legs":"X"},"action":"avoid","summary":"good-avoid","bonus":0.9600000000000006},{"rt":1299,"stimulus":"\n                    <p><b>Action: <em>avoid</em></b></p>\n                    <p>This is the bee that you just saw.</p>\n                    <img src=\"bees-with-color/bee-B2SF.svg\" width=\"200\">\n                    <p><br>Your bonus pay is unchanged, and remains at $0.62.</p>\n            ","response":0,"trial_type":"html-button-response","trial_index":76,"time_elapsed":1350005,"internal_node_id":"0.0-4.0-1.32","subject_id":"61026e2c9829e7986adf365d","study_id":"6197b3f67c2b5cd3b6d9596a","session_id":"6197bac406ac8fc9e65d7087","condition":"contingent","relevant_dimensions":["antennae","pattern"],"bee_group":{"antennae":"B","wings":"X","pattern":"S","legs":"X"},"bonus":0.9600000000000006},{"rt":1604,"stimulus":"bees-with-color/bee-A2SM.svg","response":1,"trial_type":"image-button-response","trial_index":77,"time_elapsed":1351612,"internal_node_id":"0.0-4.0-0.33","subject_id":"61026e2c9829e7986adf365d","study_id":"6197b3f67c2b5cd3b6d9596a","session_id":"6197bac406ac8fc9e65d7087","condition":"contingent","relevant_dimensions":["antennae","pattern"],"bee_group":{"antennae":"B","wings":"X","pattern":"S","legs":"X"},"action":"avoid","summary":"bad-avoid","bonus":0.9600000000000006},{"rt":1118,"stimulus":"\n                    <p><b>Action: <em>avoid</em></b></p>\n                    <p>This is the bee that you just saw.</p>\n                    <img src=\"bees-with-color/bee-A2SM.svg\" width=\"200\">\n                    <p><br>Your bonus pay is unchanged, and remains at $0.62.</p>\n            ","response":0,"trial_type":"html-button-response","trial_index":78,"time_elapsed":1352732,"internal_node_id":"0.0-4.0-1.33","subject_id":"61026e2c9829e7986adf365d","study_id":"6197b3f67c2b5cd3b6d9596a","session_id":"6197bac406ac8fc9e65d7087","condition":"contingent","relevant_dimensions":["antennae","pattern"],"bee_group":{"antennae":"B","wings":"X","pattern":"S","legs":"X"},"bonus":0.9600000000000006},{"rt":1650,"stimulus":"bees-with-color/bee-A1SM.svg","response":1,"trial_type":"image-button-response","trial_index":79,"time_elapsed":1354384,"internal_node_id":"0.0-4.0-0.34","subject_id":"61026e2c9829e7986adf365d","study_id":"6197b3f67c2b5cd3b6d9596a","session_id":"6197bac406ac8fc9e65d7087","condition":"contingent","relevant_dimensions":["antennae","pattern"],"bee_group":{"antennae":"B","wings":"X","pattern":"S","legs":"X"},"action":"avoid","summary":"bad-avoid","bonus":0.9600000000000006},{"rt":1747,"stimulus":"\n                    <p><b>Action: <em>avoid</em></b></p>\n                    <p>This is the bee that you just saw.</p>\n                    <img src=\"bees-with-color/bee-A1SM.svg\" width=\"200\">\n                    <p><br>Your bonus pay is unchanged, and remains at $0.62.</p>\n            ","response":0,"trial_type":"html-button-response","trial_index":80,"time_elapsed":1356133,"internal_node_id":"0.0-4.0-1.34","subject_id":"61026e2c9829e7986adf365d","study_id":"6197b3f67c2b5cd3b6d9596a","session_id":"6197bac406ac8fc9e65d7087","condition":"contingent","relevant_dimensions":["antennae","pattern"],"bee_group":{"antennae":"B","wings":"X","pattern":"S","legs":"X"},"bonus":0.9600000000000006},{"rt":1454,"stimulus":"bees-with-color/bee-B1DF.svg","response":0,"trial_type":"image-button-response","trial_index":81,"time_elapsed":1357589,"internal_node_id":"0.0-4.0-0.35","subject_id":"61026e2c9829e7986adf365d","study_id":"6197b3f67c2b5cd3b6d9596a","session_id":"6197bac406ac8fc9e65d7087","condition":"contingent","relevant_dimensions":["antennae","pattern"],"bee_group":{"antennae":"B","wings":"X","pattern":"S","legs":"X"},"action":"harvest","summary":"good-harvest","bonus":0.9600000000000006},{"rt":2146,"stimulus":"\n                    <p><b>Action: <em>harvest</em></b></p>\n                    <p>This is the bee that you just saw.</p>\n                    <img src=\"bees-with-color/bee-B1DF.svg\" width=\"200\">\n                    <p><span class=\"greenText\"><b>Successful harvest!</b></span><br>Your pay has increased by $0.02. Your bonus pay is now $0.64.</p>\n            ","response":0,"trial_type":"html-button-response","trial_index":82,"time_elapsed":1359737,"internal_node_id":"0.0-4.0-1.35","subject_id":"61026e2c9829e7986adf365d","study_id":"6197b3f67c2b5cd3b6d9596a","session_id":"6197bac406ac8fc9e65d7087","condition":"contingent","relevant_dimensions":["antennae","pattern"],"bee_group":{"antennae":"B","wings":"X","pattern":"S","legs":"X"},"bonus":0.9600000000000006},{"rt":1967,"stimulus":"bees-with-color/bee-A2DF.svg","response":0,"trial_type":"image-button-response","trial_index":83,"time_elapsed":1361707,"internal_node_id":"0.0-4.0-0.36","subject_id":"61026e2c9829e7986adf365d","study_id":"6197b3f67c2b5cd3b6d9596a","session_id":"6197bac406ac8fc9e65d7087","condition":"contingent","relevant_dimensions":["antennae","pattern"],"bee_group":{"antennae":"B","wings":"X","pattern":"S","legs":"X"},"action":"harvest","summary":"good-harvest","bonus":0.9600000000000006},{"rt":1785,"stimulus":"\n                    <p><b>Action: <em>harvest</em></b></p>\n                    <p>This is the bee that you just saw.</p>\n                    <img src=\"bees-with-color/bee-A2DF.svg\" width=\"200\">\n                    <p><span class=\"greenText\"><b>Successful harvest!</b></span><br>Your pay has increased by $0.02. Your bonus pay is now $0.66.</p>\n            ","response":0,"trial_type":"html-button-response","trial_index":84,"time_elapsed":1363495,"internal_node_id":"0.0-4.0-1.36","subject_id":"61026e2c9829e7986adf365d","study_id":"6197b3f67c2b5cd3b6d9596a","session_id":"6197bac406ac8fc9e65d7087","condition":"contingent","relevant_dimensions":["antennae","pattern"],"bee_group":{"antennae":"B","wings":"X","pattern":"S","legs":"X"},"bonus":0.9600000000000006},{"rt":1809,"stimulus":"bees-with-color/bee-B2DF.svg","response":0,"trial_type":"image-button-response","trial_index":85,"time_elapsed":1365304,"internal_node_id":"0.0-4.0-0.37","subject_id":"61026e2c9829e7986adf365d","study_id":"6197b3f67c2b5cd3b6d9596a","session_id":"6197bac406ac8fc9e65d7087","condition":"contingent","relevant_dimensions":["antennae","pattern"],"bee_group":{"antennae":"B","wings":"X","pattern":"S","legs":"X"},"action":"harvest","summary":"good-harvest","bonus":0.9600000000000006},{"rt":1531,"stimulus":"\n                    <p><b>Action: <em>harvest</em></b></p>\n                    <p>This is the bee that you just saw.</p>\n                    <img src=\"bees-with-color/bee-B2DF.svg\" width=\"200\">\n                    <p><span class=\"greenText\"><b>Successful harvest!</b></span><br>Your pay has increased by $0.02. Your bonus pay is now $0.68.</p>\n            ","response":0,"trial_type":"html-button-response","trial_index":86,"time_elapsed":1366838,"internal_node_id":"0.0-4.0-1.37","subject_id":"61026e2c9829e7986adf365d","study_id":"6197b3f67c2b5cd3b6d9596a","session_id":"6197bac406ac8fc9e65d7087","condition":"contingent","relevant_dimensions":["antennae","pattern"],"bee_group":{"antennae":"B","wings":"X","pattern":"S","legs":"X"},"bonus":0.9600000000000006},{"rt":1473,"stimulus":"bees-with-color/bee-A1SF.svg","response":1,"trial_type":"image-button-response","trial_index":87,"time_elapsed":1368314,"internal_node_id":"0.0-4.0-0.38","subject_id":"61026e2c9829e7986adf365d","study_id":"6197b3f67c2b5cd3b6d9596a","session_id":"6197bac406ac8fc9e65d7087","condition":"contingent","relevant_dimensions":["antennae","pattern"],"bee_group":{"antennae":"B","wings":"X","pattern":"S","legs":"X"},"action":"avoid","summary":"bad-avoid","bonus":0.9600000000000006},{"rt":1337,"stimulus":"\n                    <p><b>Action: <em>avoid</em></b></p>\n                    <p>This is the bee that you just saw.</p>\n                    <img src=\"bees-with-color/bee-A1SF.svg\" width=\"200\">\n                    <p><br>Your bonus pay is unchanged, and remains at $0.68.</p>\n            ","response":0,"trial_type":"html-button-response","trial_index":88,"time_elapsed":1369652,"internal_node_id":"0.0-4.0-1.38","subject_id":"61026e2c9829e7986adf365d","study_id":"6197b3f67c2b5cd3b6d9596a","session_id":"6197bac406ac8fc9e65d7087","condition":"contingent","relevant_dimensions":["antennae","pattern"],"bee_group":{"antennae":"B","wings":"X","pattern":"S","legs":"X"},"bonus":0.9600000000000006},{"rt":2035,"stimulus":"bees-with-color/bee-B2SM.svg","response":1,"trial_type":"image-button-response","trial_index":89,"time_elapsed":1371690,"internal_node_id":"0.0-4.0-0.39","subject_id":"61026e2c9829e7986adf365d","study_id":"6197b3f67c2b5cd3b6d9596a","session_id":"6197bac406ac8fc9e65d7087","condition":"contingent","relevant_dimensions":["antennae","pattern"],"bee_group":{"antennae":"B","wings":"X","pattern":"S","legs":"X"},"action":"avoid","summary":"good-avoid","bonus":0.9600000000000006},{"rt":1269,"stimulus":"\n                    <p><b>Action: <em>avoid</em></b></p>\n                    <p>This is the bee that you just saw.</p>\n                    <img src=\"bees-with-color/bee-B2SM.svg\" width=\"200\">\n                    <p><br>Your bonus pay is unchanged, and remains at $0.68.</p>\n            ","response":0,"trial_type":"html-button-response","trial_index":90,"time_elapsed":1372962,"internal_node_id":"0.0-4.0-1.39","subject_id":"61026e2c9829e7986adf365d","study_id":"6197b3f67c2b5cd3b6d9596a","session_id":"6197bac406ac8fc9e65d7087","condition":"contingent","relevant_dimensions":["antennae","pattern"],"bee_group":{"antennae":"B","wings":"X","pattern":"S","legs":"X"},"bonus":0.9600000000000006},{"rt":1497,"stimulus":"bees-with-color/bee-B1SM.svg","response":1,"trial_type":"image-button-response","trial_index":91,"time_elapsed":1374461,"internal_node_id":"0.0-4.0-0.40","subject_id":"61026e2c9829e7986adf365d","study_id":"6197b3f67c2b5cd3b6d9596a","session_id":"6197bac406ac8fc9e65d7087","condition":"contingent","relevant_dimensions":["antennae","pattern"],"bee_group":{"antennae":"B","wings":"X","pattern":"S","legs":"X"},"action":"avoid","summary":"good-avoid","bonus":0.9600000000000006},{"rt":1518,"stimulus":"\n                    <p><b>Action: <em>avoid</em></b></p>\n                    <p>This is the bee that you just saw.</p>\n                    <img src=\"bees-with-color/bee-B1SM.svg\" width=\"200\">\n                    <p><br>Your bonus pay is unchanged, and remains at $0.68.</p>\n            ","response":0,"trial_type":"html-button-response","trial_index":92,"time_elapsed":1375982,"internal_node_id":"0.0-4.0-1.40","subject_id":"61026e2c9829e7986adf365d","study_id":"6197b3f67c2b5cd3b6d9596a","session_id":"6197bac406ac8fc9e65d7087","condition":"contingent","relevant_dimensions":["antennae","pattern"],"bee_group":{"antennae":"B","wings":"X","pattern":"S","legs":"X"},"bonus":0.9600000000000006},{"rt":1796,"stimulus":"bees-with-color/bee-A2DM.svg","response":0,"trial_type":"image-button-response","trial_index":93,"time_elapsed":1377780,"internal_node_id":"0.0-4.0-0.41","subject_id":"61026e2c9829e7986adf365d","study_id":"6197b3f67c2b5cd3b6d9596a","session_id":"6197bac406ac8fc9e65d7087","condition":"contingent","relevant_dimensions":["antennae","pattern"],"bee_group":{"antennae":"B","wings":"X","pattern":"S","legs":"X"},"action":"harvest","summary":"good-harvest","bonus":0.9600000000000006},{"rt":1564,"stimulus":"\n                    <p><b>Action: <em>harvest</em></b></p>\n                    <p>This is the bee that you just saw.</p>\n                    <img src=\"bees-with-color/bee-A2DM.svg\" width=\"200\">\n                    <p><span class=\"greenText\"><b>Successful harvest!</b></span><br>Your pay has increased by $0.02. Your bonus pay is now $0.70.</p>\n            ","response":0,"trial_type":"html-button-response","trial_index":94,"time_elapsed":1379348,"internal_node_id":"0.0-4.0-1.41","subject_id":"61026e2c9829e7986adf365d","study_id":"6197b3f67c2b5cd3b6d9596a","session_id":"6197bac406ac8fc9e65d7087","condition":"contingent","relevant_dimensions":["antennae","pattern"],"bee_group":{"antennae":"B","wings":"X","pattern":"S","legs":"X"},"bonus":0.9600000000000006},{"rt":1279,"stimulus":"bees-with-color/bee-A1DF.svg","response":0,"trial_type":"image-button-response","trial_index":95,"time_elapsed":1380629,"internal_node_id":"0.0-4.0-0.42","subject_id":"61026e2c9829e7986adf365d","study_id":"6197b3f67c2b5cd3b6d9596a","session_id":"6197bac406ac8fc9e65d7087","condition":"contingent","relevant_dimensions":["antennae","pattern"],"bee_group":{"antennae":"B","wings":"X","pattern":"S","legs":"X"},"action":"harvest","summary":"good-harvest","bonus":0.9600000000000006},{"rt":1337,"stimulus":"\n                    <p><b>Action: <em>harvest</em></b></p>\n                    <p>This is the bee that you just saw.</p>\n                    <img src=\"bees-with-color/bee-A1DF.svg\" width=\"200\">\n                    <p><span class=\"greenText\"><b>Successful harvest!</b></span><br>Your pay has increased by $0.02. Your bonus pay is now $0.72.</p>\n            ","response":0,"trial_type":"html-button-response","trial_index":96,"time_elapsed":1381969,"internal_node_id":"0.0-4.0-1.42","subject_id":"61026e2c9829e7986adf365d","study_id":"6197b3f67c2b5cd3b6d9596a","session_id":"6197bac406ac8fc9e65d7087","condition":"contingent","relevant_dimensions":["antennae","pattern"],"bee_group":{"antennae":"B","wings":"X","pattern":"S","legs":"X"},"bonus":0.9600000000000006},{"rt":1693,"stimulus":"bees-with-color/bee-B1DM.svg","response":0,"trial_type":"image-button-response","trial_index":97,"time_elapsed":1383665,"internal_node_id":"0.0-4.0-0.43","subject_id":"61026e2c9829e7986adf365d","study_id":"6197b3f67c2b5cd3b6d9596a","session_id":"6197bac406ac8fc9e65d7087","condition":"contingent","relevant_dimensions":["antennae","pattern"],"bee_group":{"antennae":"B","wings":"X","pattern":"S","legs":"X"},"action":"harvest","summary":"good-harvest","bonus":0.9600000000000006},{"rt":1447,"stimulus":"\n                    <p><b>Action: <em>harvest</em></b></p>\n                    <p>This is the bee that you just saw.</p>\n                    <img src=\"bees-with-color/bee-B1DM.svg\" width=\"200\">\n                    <p><span class=\"greenText\"><b>Successful harvest!</b></span><br>Your pay has increased by $0.02. Your bonus pay is now $0.74.</p>\n            ","response":0,"trial_type":"html-button-response","trial_index":98,"time_elapsed":1385114,"internal_node_id":"0.0-4.0-1.43","subject_id":"61026e2c9829e7986adf365d","study_id":"6197b3f67c2b5cd3b6d9596a","session_id":"6197bac406ac8fc9e65d7087","condition":"contingent","relevant_dimensions":["antennae","pattern"],"bee_group":{"antennae":"B","wings":"X","pattern":"S","legs":"X"},"bonus":0.9600000000000006},{"rt":1352,"stimulus":"bees-with-color/bee-B2DM.svg","response":0,"trial_type":"image-button-response","trial_index":99,"time_elapsed":1386469,"internal_node_id":"0.0-4.0-0.44","subject_id":"61026e2c9829e7986adf365d","study_id":"6197b3f67c2b5cd3b6d9596a","session_id":"6197bac406ac8fc9e65d7087","condition":"contingent","relevant_dimensions":["antennae","pattern"],"bee_group":{"antennae":"B","wings":"X","pattern":"S","legs":"X"},"action":"harvest","summary":"good-harvest","bonus":0.9600000000000006},{"rt":1102,"stimulus":"\n                    <p><b>Action: <em>harvest</em></b></p>\n                    <p>This is the bee that you just saw.</p>\n                    <img src=\"bees-with-color/bee-B2DM.svg\" width=\"200\">\n                    <p><span class=\"greenText\"><b>Successful harvest!</b></span><br>Your pay has increased by $0.02. Your bonus pay is now $0.76.</p>\n            ","response":0,"trial_type":"html-button-response","trial_index":100,"time_elapsed":1387573,"internal_node_id":"0.0-4.0-1.44","subject_id":"61026e2c9829e7986adf365d","study_id":"6197b3f67c2b5cd3b6d9596a","session_id":"6197bac406ac8fc9e65d7087","condition":"contingent","relevant_dimensions":["antennae","pattern"],"bee_group":{"antennae":"B","wings":"X","pattern":"S","legs":"X"},"bonus":0.9600000000000006},{"rt":1478,"stimulus":"bees-with-color/bee-A2SF.svg","response":1,"trial_type":"image-button-response","trial_index":101,"time_elapsed":1389053,"internal_node_id":"0.0-4.0-0.45","subject_id":"61026e2c9829e7986adf365d","study_id":"6197b3f67c2b5cd3b6d9596a","session_id":"6197bac406ac8fc9e65d7087","condition":"contingent","relevant_dimensions":["antennae","pattern"],"bee_group":{"antennae":"B","wings":"X","pattern":"S","legs":"X"},"action":"avoid","summary":"bad-avoid","bonus":0.9600000000000006},{"rt":1315,"stimulus":"\n                    <p><b>Action: <em>avoid</em></b></p>\n                    <p>This is the bee that you just saw.</p>\n                    <img src=\"bees-with-color/bee-A2SF.svg\" width=\"200\">\n                    <p><br>Your bonus pay is unchanged, and remains at $0.76.</p>\n            ","response":0,"trial_type":"html-button-response","trial_index":102,"time_elapsed":1390370,"internal_node_id":"0.0-4.0-1.45","subject_id":"61026e2c9829e7986adf365d","study_id":"6197b3f67c2b5cd3b6d9596a","session_id":"6197bac406ac8fc9e65d7087","condition":"contingent","relevant_dimensions":["antennae","pattern"],"bee_group":{"antennae":"B","wings":"X","pattern":"S","legs":"X"},"bonus":0.9600000000000006},{"rt":1290,"stimulus":"bees-with-color/bee-A1DM.svg","response":0,"trial_type":"image-button-response","trial_index":103,"time_elapsed":1391663,"internal_node_id":"0.0-4.0-0.46","subject_id":"61026e2c9829e7986adf365d","study_id":"6197b3f67c2b5cd3b6d9596a","session_id":"6197bac406ac8fc9e65d7087","condition":"contingent","relevant_dimensions":["antennae","pattern"],"bee_group":{"antennae":"B","wings":"X","pattern":"S","legs":"X"},"action":"harvest","summary":"good-harvest","bonus":0.9600000000000006},{"rt":1277,"stimulus":"\n                    <p><b>Action: <em>harvest</em></b></p>\n                    <p>This is the bee that you just saw.</p>\n                    <img src=\"bees-with-color/bee-A1DM.svg\" width=\"200\">\n                    <p><span class=\"greenText\"><b>Successful harvest!</b></span><br>Your pay has increased by $0.02. Your bonus pay is now $0.78.</p>\n            ","response":0,"trial_type":"html-button-response","trial_index":104,"time_elapsed":1392942,"internal_node_id":"0.0-4.0-1.46","subject_id":"61026e2c9829e7986adf365d","study_id":"6197b3f67c2b5cd3b6d9596a","session_id":"6197bac406ac8fc9e65d7087","condition":"contingent","relevant_dimensions":["antennae","pattern"],"bee_group":{"antennae":"B","wings":"X","pattern":"S","legs":"X"},"bonus":0.9600000000000006},{"rt":1393,"stimulus":"bees-with-color/bee-B1SF.svg","response":1,"trial_type":"image-button-response","trial_index":105,"time_elapsed":1394338,"internal_node_id":"0.0-4.0-0.47","subject_id":"61026e2c9829e7986adf365d","study_id":"6197b3f67c2b5cd3b6d9596a","session_id":"6197bac406ac8fc9e65d7087","condition":"contingent","relevant_dimensions":["antennae","pattern"],"bee_group":{"antennae":"B","wings":"X","pattern":"S","legs":"X"},"action":"avoid","summary":"good-avoid","bonus":0.9600000000000006},{"rt":1251,"stimulus":"\n                    <p><b>Action: <em>avoid</em></b></p>\n                    <p>This is the bee that you just saw.</p>\n                    <img src=\"bees-with-color/bee-B1SF.svg\" width=\"200\">\n                    <p><br>Your bonus pay is unchanged, and remains at $0.78.</p>\n            ","response":0,"trial_type":"html-button-response","trial_index":106,"time_elapsed":1395591,"internal_node_id":"0.0-4.0-1.47","subject_id":"61026e2c9829e7986adf365d","study_id":"6197b3f67c2b5cd3b6d9596a","session_id":"6197bac406ac8fc9e65d7087","condition":"contingent","relevant_dimensions":["antennae","pattern"],"bee_group":{"antennae":"B","wings":"X","pattern":"S","legs":"X"},"bonus":0.9600000000000006},{"rt":1277,"stimulus":"bees-with-color/bee-B1SF.svg","response":1,"trial_type":"image-button-response","trial_index":107,"time_elapsed":1396871,"internal_node_id":"0.0-4.0-0.48","subject_id":"61026e2c9829e7986adf365d","study_id":"6197b3f67c2b5cd3b6d9596a","session_id":"6197bac406ac8fc9e65d7087","condition":"contingent","relevant_dimensions":["antennae","pattern"],"bee_group":{"antennae":"B","wings":"X","pattern":"S","legs":"X"},"action":"avoid","summary":"good-avoid","bonus":0.9600000000000006},{"rt":1222,"stimulus":"\n                    <p><b>Action: <em>avoid</em></b></p>\n                    <p>This is the bee that you just saw.</p>\n                    <img src=\"bees-with-color/bee-B1SF.svg\" width=\"200\">\n                    <p><br>Your bonus pay is unchanged, and remains at $0.78.</p>\n            ","response":0,"trial_type":"html-button-response","trial_index":108,"time_elapsed":1398095,"internal_node_id":"0.0-4.0-1.48","subject_id":"61026e2c9829e7986adf365d","study_id":"6197b3f67c2b5cd3b6d9596a","session_id":"6197bac406ac8fc9e65d7087","condition":"contingent","relevant_dimensions":["antennae","pattern"],"bee_group":{"antennae":"B","wings":"X","pattern":"S","legs":"X"},"bonus":0.9600000000000006},{"rt":1219,"stimulus":"bees-with-color/bee-B2DF.svg","response":0,"trial_type":"image-button-response","trial_index":109,"time_elapsed":1399316,"internal_node_id":"0.0-4.0-0.49","subject_id":"61026e2c9829e7986adf365d","study_id":"6197b3f67c2b5cd3b6d9596a","session_id":"6197bac406ac8fc9e65d7087","condition":"contingent","relevant_dimensions":["antennae","pattern"],"bee_group":{"antennae":"B","wings":"X","pattern":"S","legs":"X"},"action":"harvest","summary":"good-harvest","bonus":0.9600000000000006},{"rt":1713,"stimulus":"\n                    <p><b>Action: <em>harvest</em></b></p>\n                    <p>This is the bee that you just saw.</p>\n                    <img src=\"bees-with-color/bee-B2DF.svg\" width=\"200\">\n                    <p><span class=\"greenText\"><b>Successful harvest!</b></span><br>Your pay has increased by $0.02. Your bonus pay is now $0.80.</p>\n            ","response":0,"trial_type":"html-button-response","trial_index":110,"time_elapsed":1401031,"internal_node_id":"0.0-4.0-1.49","subject_id":"61026e2c9829e7986adf365d","study_id":"6197b3f67c2b5cd3b6d9596a","session_id":"6197bac406ac8fc9e65d7087","condition":"contingent","relevant_dimensions":["antennae","pattern"],"bee_group":{"antennae":"B","wings":"X","pattern":"S","legs":"X"},"bonus":0.9600000000000006},{"rt":1516,"stimulus":"bees-with-color/bee-A1SF.svg","response":1,"trial_type":"image-button-response","trial_index":111,"time_elapsed":1402550,"internal_node_id":"0.0-4.0-0.50","subject_id":"61026e2c9829e7986adf365d","study_id":"6197b3f67c2b5cd3b6d9596a","session_id":"6197bac406ac8fc9e65d7087","condition":"contingent","relevant_dimensions":["antennae","pattern"],"bee_group":{"antennae":"B","wings":"X","pattern":"S","legs":"X"},"action":"avoid","summary":"bad-avoid","bonus":0.9600000000000006},{"rt":1145,"stimulus":"\n                    <p><b>Action: <em>avoid</em></b></p>\n                    <p>This is the bee that you just saw.</p>\n                    <img src=\"bees-with-color/bee-A1SF.svg\" width=\"200\">\n                    <p><br>Your bonus pay is unchanged, and remains at $0.80.</p>\n            ","response":0,"trial_type":"html-button-response","trial_index":112,"time_elapsed":1403697,"internal_node_id":"0.0-4.0-1.50","subject_id":"61026e2c9829e7986adf365d","study_id":"6197b3f67c2b5cd3b6d9596a","session_id":"6197bac406ac8fc9e65d7087","condition":"contingent","relevant_dimensions":["antennae","pattern"],"bee_group":{"antennae":"B","wings":"X","pattern":"S","legs":"X"},"bonus":0.9600000000000006},{"rt":1613,"stimulus":"bees-with-color/bee-A2SF.svg","response":1,"trial_type":"image-button-response","trial_index":113,"time_elapsed":1405313,"internal_node_id":"0.0-4.0-0.51","subject_id":"61026e2c9829e7986adf365d","study_id":"6197b3f67c2b5cd3b6d9596a","session_id":"6197bac406ac8fc9e65d7087","condition":"contingent","relevant_dimensions":["antennae","pattern"],"bee_group":{"antennae":"B","wings":"X","pattern":"S","legs":"X"},"action":"avoid","summary":"bad-avoid","bonus":0.9600000000000006},{"rt":1242,"stimulus":"\n                    <p><b>Action: <em>avoid</em></b></p>\n                    <p>This is the bee that you just saw.</p>\n                    <img src=\"bees-with-color/bee-A2SF.svg\" width=\"200\">\n                    <p><br>Your bonus pay is unchanged, and remains at $0.80.</p>\n            ","response":0,"trial_type":"html-button-response","trial_index":114,"time_elapsed":1406557,"internal_node_id":"0.0-4.0-1.51","subject_id":"61026e2c9829e7986adf365d","study_id":"6197b3f67c2b5cd3b6d9596a","session_id":"6197bac406ac8fc9e65d7087","condition":"contingent","relevant_dimensions":["antennae","pattern"],"bee_group":{"antennae":"B","wings":"X","pattern":"S","legs":"X"},"bonus":0.9600000000000006},{"rt":1352,"stimulus":"bees-with-color/bee-B1SM.svg","response":1,"trial_type":"image-button-response","trial_index":115,"time_elapsed":1407914,"internal_node_id":"0.0-4.0-0.52","subject_id":"61026e2c9829e7986adf365d","study_id":"6197b3f67c2b5cd3b6d9596a","session_id":"6197bac406ac8fc9e65d7087","condition":"contingent","relevant_dimensions":["antennae","pattern"],"bee_group":{"antennae":"B","wings":"X","pattern":"S","legs":"X"},"action":"avoid","summary":"good-avoid","bonus":0.9600000000000006},{"rt":1240,"stimulus":"\n                    <p><b>Action: <em>avoid</em></b></p>\n                    <p>This is the bee that you just saw.</p>\n                    <img src=\"bees-with-color/bee-B1SM.svg\" width=\"200\">\n                    <p><br>Your bonus pay is unchanged, and remains at $0.80.</p>\n            ","response":0,"trial_type":"html-button-response","trial_index":116,"time_elapsed":1409156,"internal_node_id":"0.0-4.0-1.52","subject_id":"61026e2c9829e7986adf365d","study_id":"6197b3f67c2b5cd3b6d9596a","session_id":"6197bac406ac8fc9e65d7087","condition":"contingent","relevant_dimensions":["antennae","pattern"],"bee_group":{"antennae":"B","wings":"X","pattern":"S","legs":"X"},"bonus":0.9600000000000006},{"rt":1558,"stimulus":"bees-with-color/bee-A2DF.svg","response":0,"trial_type":"image-button-response","trial_index":117,"time_elapsed":1410715,"internal_node_id":"0.0-4.0-0.53","subject_id":"61026e2c9829e7986adf365d","study_id":"6197b3f67c2b5cd3b6d9596a","session_id":"6197bac406ac8fc9e65d7087","condition":"contingent","relevant_dimensions":["antennae","pattern"],"bee_group":{"antennae":"B","wings":"X","pattern":"S","legs":"X"},"action":"harvest","summary":"good-harvest","bonus":0.9600000000000006},{"rt":1260,"stimulus":"\n                    <p><b>Action: <em>harvest</em></b></p>\n                    <p>This is the bee that you just saw.</p>\n                    <img src=\"bees-with-color/bee-A2DF.svg\" width=\"200\">\n                    <p><span class=\"greenText\"><b>Successful harvest!</b></span><br>Your pay has increased by $0.02. Your bonus pay is now $0.82.</p>\n            ","response":0,"trial_type":"html-button-response","trial_index":118,"time_elapsed":1411979,"internal_node_id":"0.0-4.0-1.53","subject_id":"61026e2c9829e7986adf365d","study_id":"6197b3f67c2b5cd3b6d9596a","session_id":"6197bac406ac8fc9e65d7087","condition":"contingent","relevant_dimensions":["antennae","pattern"],"bee_group":{"antennae":"B","wings":"X","pattern":"S","legs":"X"},"bonus":0.9600000000000006},{"rt":1343,"stimulus":"bees-with-color/bee-A2DM.svg","response":0,"trial_type":"image-button-response","trial_index":119,"time_elapsed":1413324,"internal_node_id":"0.0-4.0-0.54","subject_id":"61026e2c9829e7986adf365d","study_id":"6197b3f67c2b5cd3b6d9596a","session_id":"6197bac406ac8fc9e65d7087","condition":"contingent","relevant_dimensions":["antennae","pattern"],"bee_group":{"antennae":"B","wings":"X","pattern":"S","legs":"X"},"action":"harvest","summary":"good-harvest","bonus":0.9600000000000006},{"rt":1163,"stimulus":"\n                    <p><b>Action: <em>harvest</em></b></p>\n                    <p>This is the bee that you just saw.</p>\n                    <img src=\"bees-with-color/bee-A2DM.svg\" width=\"200\">\n                    <p><span class=\"greenText\"><b>Successful harvest!</b></span><br>Your pay has increased by $0.02. Your bonus pay is now $0.84.</p>\n            ","response":0,"trial_type":"html-button-response","trial_index":120,"time_elapsed":1414490,"internal_node_id":"0.0-4.0-1.54","subject_id":"61026e2c9829e7986adf365d","study_id":"6197b3f67c2b5cd3b6d9596a","session_id":"6197bac406ac8fc9e65d7087","condition":"contingent","relevant_dimensions":["antennae","pattern"],"bee_group":{"antennae":"B","wings":"X","pattern":"S","legs":"X"},"bonus":0.9600000000000006},{"rt":1404,"stimulus":"bees-with-color/bee-B1DF.svg","response":0,"trial_type":"image-button-response","trial_index":121,"time_elapsed":1415896,"internal_node_id":"0.0-4.0-0.55","subject_id":"61026e2c9829e7986adf365d","study_id":"6197b3f67c2b5cd3b6d9596a","session_id":"6197bac406ac8fc9e65d7087","condition":"contingent","relevant_dimensions":["antennae","pattern"],"bee_group":{"antennae":"B","wings":"X","pattern":"S","legs":"X"},"action":"harvest","summary":"good-harvest","bonus":0.9600000000000006},{"rt":1316,"stimulus":"\n                    <p><b>Action: <em>harvest</em></b></p>\n                    <p>This is the bee that you just saw.</p>\n                    <img src=\"bees-with-color/bee-B1DF.svg\" width=\"200\">\n                    <p><span class=\"greenText\"><b>Successful harvest!</b></span><br>Your pay has increased by $0.02. Your bonus pay is now $0.86.</p>\n            ","response":0,"trial_type":"html-button-response","trial_index":122,"time_elapsed":1417216,"internal_node_id":"0.0-4.0-1.55","subject_id":"61026e2c9829e7986adf365d","study_id":"6197b3f67c2b5cd3b6d9596a","session_id":"6197bac406ac8fc9e65d7087","condition":"contingent","relevant_dimensions":["antennae","pattern"],"bee_group":{"antennae":"B","wings":"X","pattern":"S","legs":"X"},"bonus":0.9600000000000006},{"rt":1172,"stimulus":"bees-with-color/bee-A1DF.svg","response":0,"trial_type":"image-button-response","trial_index":123,"time_elapsed":1418391,"internal_node_id":"0.0-4.0-0.56","subject_id":"61026e2c9829e7986adf365d","study_id":"6197b3f67c2b5cd3b6d9596a","session_id":"6197bac406ac8fc9e65d7087","condition":"contingent","relevant_dimensions":["antennae","pattern"],"bee_group":{"antennae":"B","wings":"X","pattern":"S","legs":"X"},"action":"harvest","summary":"good-harvest","bonus":0.9600000000000006},{"rt":1430,"stimulus":"\n                    <p><b>Action: <em>harvest</em></b></p>\n                    <p>This is the bee that you just saw.</p>\n                    <img src=\"bees-with-color/bee-A1DF.svg\" width=\"200\">\n                    <p><span class=\"greenText\"><b>Successful harvest!</b></span><br>Your pay has increased by $0.02. Your bonus pay is now $0.88.</p>\n            ","response":0,"trial_type":"html-button-response","trial_index":124,"time_elapsed":1419825,"internal_node_id":"0.0-4.0-1.56","subject_id":"61026e2c9829e7986adf365d","study_id":"6197b3f67c2b5cd3b6d9596a","session_id":"6197bac406ac8fc9e65d7087","condition":"contingent","relevant_dimensions":["antennae","pattern"],"bee_group":{"antennae":"B","wings":"X","pattern":"S","legs":"X"},"bonus":0.9600000000000006},{"rt":1640,"stimulus":"bees-with-color/bee-A1DM.svg","response":0,"trial_type":"image-button-response","trial_index":125,"time_elapsed":1421469,"internal_node_id":"0.0-4.0-0.57","subject_id":"61026e2c9829e7986adf365d","study_id":"6197b3f67c2b5cd3b6d9596a","session_id":"6197bac406ac8fc9e65d7087","condition":"contingent","relevant_dimensions":["antennae","pattern"],"bee_group":{"antennae":"B","wings":"X","pattern":"S","legs":"X"},"action":"harvest","summary":"good-harvest","bonus":0.9600000000000006},{"rt":1002,"stimulus":"\n                    <p><b>Action: <em>harvest</em></b></p>\n                    <p>This is the bee that you just saw.</p>\n                    <img src=\"bees-with-color/bee-A1DM.svg\" width=\"200\">\n                    <p><span class=\"greenText\"><b>Successful harvest!</b></span><br>Your pay has increased by $0.02. Your bonus pay is now $0.90.</p>\n            ","response":0,"trial_type":"html-button-response","trial_index":126,"time_elapsed":1422473,"internal_node_id":"0.0-4.0-1.57","subject_id":"61026e2c9829e7986adf365d","study_id":"6197b3f67c2b5cd3b6d9596a","session_id":"6197bac406ac8fc9e65d7087","condition":"contingent","relevant_dimensions":["antennae","pattern"],"bee_group":{"antennae":"B","wings":"X","pattern":"S","legs":"X"},"bonus":0.9600000000000006},{"rt":1393,"stimulus":"bees-with-color/bee-A1SM.svg","response":1,"trial_type":"image-button-response","trial_index":127,"time_elapsed":1423868,"internal_node_id":"0.0-4.0-0.58","subject_id":"61026e2c9829e7986adf365d","study_id":"6197b3f67c2b5cd3b6d9596a","session_id":"6197bac406ac8fc9e65d7087","condition":"contingent","relevant_dimensions":["antennae","pattern"],"bee_group":{"antennae":"B","wings":"X","pattern":"S","legs":"X"},"action":"avoid","summary":"bad-avoid","bonus":0.9600000000000006},{"rt":1576,"stimulus":"\n                    <p><b>Action: <em>avoid</em></b></p>\n                    <p>This is the bee that you just saw.</p>\n                    <img src=\"bees-with-color/bee-A1SM.svg\" width=\"200\">\n                    <p><br>Your bonus pay is unchanged, and remains at $0.90.</p>\n            ","response":0,"trial_type":"html-button-response","trial_index":128,"time_elapsed":1425448,"internal_node_id":"0.0-4.0-1.58","subject_id":"61026e2c9829e7986adf365d","study_id":"6197b3f67c2b5cd3b6d9596a","session_id":"6197bac406ac8fc9e65d7087","condition":"contingent","relevant_dimensions":["antennae","pattern"],"bee_group":{"antennae":"B","wings":"X","pattern":"S","legs":"X"},"bonus":0.9600000000000006},{"rt":1316,"stimulus":"bees-with-color/bee-B1DM.svg","response":0,"trial_type":"image-button-response","trial_index":129,"time_elapsed":1426766,"internal_node_id":"0.0-4.0-0.59","subject_id":"61026e2c9829e7986adf365d","study_id":"6197b3f67c2b5cd3b6d9596a","session_id":"6197bac406ac8fc9e65d7087","condition":"contingent","relevant_dimensions":["antennae","pattern"],"bee_group":{"antennae":"B","wings":"X","pattern":"S","legs":"X"},"action":"harvest","summary":"good-harvest","bonus":0.9600000000000006},{"rt":1029,"stimulus":"\n                    <p><b>Action: <em>harvest</em></b></p>\n                    <p>This is the bee that you just saw.</p>\n                    <img src=\"bees-with-color/bee-B1DM.svg\" width=\"200\">\n                    <p><span class=\"greenText\"><b>Successful harvest!</b></span><br>Your pay has increased by $0.02. Your bonus pay is now $0.92.</p>\n            ","response":0,"trial_type":"html-button-response","trial_index":130,"time_elapsed":1427798,"internal_node_id":"0.0-4.0-1.59","subject_id":"61026e2c9829e7986adf365d","study_id":"6197b3f67c2b5cd3b6d9596a","session_id":"6197bac406ac8fc9e65d7087","condition":"contingent","relevant_dimensions":["antennae","pattern"],"bee_group":{"antennae":"B","wings":"X","pattern":"S","legs":"X"},"bonus":0.9600000000000006},{"rt":1250,"stimulus":"bees-with-color/bee-B2DM.svg","response":0,"trial_type":"image-button-response","trial_index":131,"time_elapsed":1429050,"internal_node_id":"0.0-4.0-0.60","subject_id":"61026e2c9829e7986adf365d","study_id":"6197b3f67c2b5cd3b6d9596a","session_id":"6197bac406ac8fc9e65d7087","condition":"contingent","relevant_dimensions":["antennae","pattern"],"bee_group":{"antennae":"B","wings":"X","pattern":"S","legs":"X"},"action":"harvest","summary":"good-harvest","bonus":0.9600000000000006},{"rt":1641,"stimulus":"\n                    <p><b>Action: <em>harvest</em></b></p>\n                    <p>This is the bee that you just saw.</p>\n                    <img src=\"bees-with-color/bee-B2DM.svg\" width=\"200\">\n                    <p><span class=\"greenText\"><b>Successful harvest!</b></span><br>Your pay has increased by $0.02. Your bonus pay is now $0.94.</p>\n            ","response":0,"trial_type":"html-button-response","trial_index":132,"time_elapsed":1430694,"internal_node_id":"0.0-4.0-1.60","subject_id":"61026e2c9829e7986adf365d","study_id":"6197b3f67c2b5cd3b6d9596a","session_id":"6197bac406ac8fc9e65d7087","condition":"contingent","relevant_dimensions":["antennae","pattern"],"bee_group":{"antennae":"B","wings":"X","pattern":"S","legs":"X"},"bonus":0.9600000000000006},{"rt":1232,"stimulus":"bees-with-color/bee-B2SF.svg","response":1,"trial_type":"image-button-response","trial_index":133,"time_elapsed":1431930,"internal_node_id":"0.0-4.0-0.61","subject_id":"61026e2c9829e7986adf365d","study_id":"6197b3f67c2b5cd3b6d9596a","session_id":"6197bac406ac8fc9e65d7087","condition":"contingent","relevant_dimensions":["antennae","pattern"],"bee_group":{"antennae":"B","wings":"X","pattern":"S","legs":"X"},"action":"avoid","summary":"good-avoid","bonus":0.9600000000000006},{"rt":1247,"stimulus":"\n                    <p><b>Action: <em>avoid</em></b></p>\n                    <p>This is the bee that you just saw.</p>\n                    <img src=\"bees-with-color/bee-B2SF.svg\" width=\"200\">\n                    <p><br>Your bonus pay is unchanged, and remains at $0.94.</p>\n            ","response":0,"trial_type":"html-button-response","trial_index":134,"time_elapsed":1433180,"internal_node_id":"0.0-4.0-1.61","subject_id":"61026e2c9829e7986adf365d","study_id":"6197b3f67c2b5cd3b6d9596a","session_id":"6197bac406ac8fc9e65d7087","condition":"contingent","relevant_dimensions":["antennae","pattern"],"bee_group":{"antennae":"B","wings":"X","pattern":"S","legs":"X"},"bonus":0.9600000000000006},{"rt":3011,"stimulus":"bees-with-color/bee-A2SM.svg","response":1,"trial_type":"image-button-response","trial_index":135,"time_elapsed":1436194,"internal_node_id":"0.0-4.0-0.62","subject_id":"61026e2c9829e7986adf365d","study_id":"6197b3f67c2b5cd3b6d9596a","session_id":"6197bac406ac8fc9e65d7087","condition":"contingent","relevant_dimensions":["antennae","pattern"],"bee_group":{"antennae":"B","wings":"X","pattern":"S","legs":"X"},"action":"avoid","summary":"bad-avoid","bonus":0.9600000000000006},{"rt":1287,"stimulus":"\n                    <p><b>Action: <em>avoid</em></b></p>\n                    <p>This is the bee that you just saw.</p>\n                    <img src=\"bees-with-color/bee-A2SM.svg\" width=\"200\">\n                    <p><br>Your bonus pay is unchanged, and remains at $0.94.</p>\n            ","response":0,"trial_type":"html-button-response","trial_index":136,"time_elapsed":1437483,"internal_node_id":"0.0-4.0-1.62","subject_id":"61026e2c9829e7986adf365d","study_id":"6197b3f67c2b5cd3b6d9596a","session_id":"6197bac406ac8fc9e65d7087","condition":"contingent","relevant_dimensions":["antennae","pattern"],"bee_group":{"antennae":"B","wings":"X","pattern":"S","legs":"X"},"bonus":0.9600000000000006},{"rt":1278,"stimulus":"bees-with-color/bee-B2SM.svg","response":1,"trial_type":"image-button-response","trial_index":137,"time_elapsed":1438764,"internal_node_id":"0.0-4.0-0.63","subject_id":"61026e2c9829e7986adf365d","study_id":"6197b3f67c2b5cd3b6d9596a","session_id":"6197bac406ac8fc9e65d7087","condition":"contingent","relevant_dimensions":["antennae","pattern"],"bee_group":{"antennae":"B","wings":"X","pattern":"S","legs":"X"},"action":"avoid","summary":"good-avoid","bonus":0.9600000000000006},{"rt":1114,"stimulus":"\n                    <p><b>Action: <em>avoid</em></b></p>\n                    <p>This is the bee that you just saw.</p>\n                    <img src=\"bees-with-color/bee-B2SM.svg\" width=\"200\">\n                    <p><br>Your bonus pay is unchanged, and remains at $0.94.</p>\n            ","response":0,"trial_type":"html-button-response","trial_index":138,"time_elapsed":1439882,"internal_node_id":"0.0-4.0-1.63","subject_id":"61026e2c9829e7986adf365d","study_id":"6197b3f67c2b5cd3b6d9596a","session_id":"6197bac406ac8fc9e65d7087","condition":"contingent","relevant_dimensions":["antennae","pattern"],"bee_group":{"antennae":"B","wings":"X","pattern":"S","legs":"X"},"bonus":0.9600000000000006},{"rt":12674,"stimulus":"You have completed the first part of this experiment.<br><br>You will now begin a shorter second part, in which you will receive no feedback.<br>The same rules regarding bonus pay apply.<br><br>Press any key to begin.","response":" ","trial_type":"html-keyboard-response","trial_index":139,"time_elapsed":1452558,"internal_node_id":"0.0-5.0","subject_id":"61026e2c9829e7986adf365d","study_id":"6197b3f67c2b5cd3b6d9596a","session_id":"6197bac406ac8fc9e65d7087","condition":"contingent","relevant_dimensions":["antennae","pattern"],"bee_group":{"antennae":"B","wings":"X","pattern":"S","legs":"X"},"bonus":0.9600000000000006},{"rt":6565,"stimulus":"bees-with-color/bee-A1DF.svg","response":1,"trial_type":"image-button-response","trial_index":140,"time_elapsed":1459127,"internal_node_id":"0.0-6.0-0.0","subject_id":"61026e2c9829e7986adf365d","study_id":"6197b3f67c2b5cd3b6d9596a","session_id":"6197bac406ac8fc9e65d7087","condition":"contingent","relevant_dimensions":["antennae","pattern"],"bee_group":{"antennae":"B","wings":"X","pattern":"S","legs":"X"},"bonus":0.9600000000000006},{"rt":8647,"stimulus":"bees-with-color/bee-A1SM.svg","response":1,"trial_type":"image-button-response","trial_index":141,"time_elapsed":1467776,"internal_node_id":"0.0-6.0-0.1","subject_id":"61026e2c9829e7986adf365d","study_id":"6197b3f67c2b5cd3b6d9596a","session_id":"6197bac406ac8fc9e65d7087","condition":"contingent","relevant_dimensions":["antennae","pattern"],"bee_group":{"antennae":"B","wings":"X","pattern":"S","legs":"X"},"bonus":0.9600000000000006},{"rt":2337,"stimulus":"bees-with-color/bee-B2DF.svg","response":0,"trial_type":"image-button-response","trial_index":142,"time_elapsed":1470115,"internal_node_id":"0.0-6.0-0.2","subject_id":"61026e2c9829e7986adf365d","study_id":"6197b3f67c2b5cd3b6d9596a","session_id":"6197bac406ac8fc9e65d7087","condition":"contingent","relevant_dimensions":["antennae","pattern"],"bee_group":{"antennae":"B","wings":"X","pattern":"S","legs":"X"},"bonus":0.9600000000000006},{"rt":9685,"stimulus":"bees-with-color/bee-B2DM.svg","response":1,"trial_type":"image-button-response","trial_index":143,"time_elapsed":1479803,"internal_node_id":"0.0-6.0-0.3","subject_id":"61026e2c9829e7986adf365d","study_id":"6197b3f67c2b5cd3b6d9596a","session_id":"6197bac406ac8fc9e65d7087","condition":"contingent","relevant_dimensions":["antennae","pattern"],"bee_group":{"antennae":"B","wings":"X","pattern":"S","legs":"X"},"bonus":0.9600000000000006},{"rt":17187,"stimulus":"bees-with-color/bee-B2SF.svg","response":1,"trial_type":"image-button-response","trial_index":144,"time_elapsed":1496991,"internal_node_id":"0.0-6.0-0.4","subject_id":"61026e2c9829e7986adf365d","study_id":"6197b3f67c2b5cd3b6d9596a","session_id":"6197bac406ac8fc9e65d7087","condition":"contingent","relevant_dimensions":["antennae","pattern"],"bee_group":{"antennae":"B","wings":"X","pattern":"S","legs":"X"},"bonus":0.9600000000000006},{"rt":3826,"stimulus":"bees-with-color/bee-B1DM.svg","response":1,"trial_type":"image-button-response","trial_index":145,"time_elapsed":1500819,"internal_node_id":"0.0-6.0-0.5","subject_id":"61026e2c9829e7986adf365d","study_id":"6197b3f67c2b5cd3b6d9596a","session_id":"6197bac406ac8fc9e65d7087","condition":"contingent","relevant_dimensions":["antennae","pattern"],"bee_group":{"antennae":"B","wings":"X","pattern":"S","legs":"X"},"bonus":0.9600000000000006},{"rt":148,"stimulus":"bees-with-color/bee-B1SF.svg","response":1,"trial_type":"image-button-response","trial_index":146,"time_elapsed":1500970,"internal_node_id":"0.0-6.0-0.6","subject_id":"61026e2c9829e7986adf365d","study_id":"6197b3f67c2b5cd3b6d9596a","session_id":"6197bac406ac8fc9e65d7087","condition":"contingent","relevant_dimensions":["antennae","pattern"],"bee_group":{"antennae":"B","wings":"X","pattern":"S","legs":"X"},"bonus":0.9600000000000006},{"rt":171,"stimulus":"bees-with-color/bee-A1DM.svg","response":1,"trial_type":"image-button-response","trial_index":147,"time_elapsed":1501144,"internal_node_id":"0.0-6.0-0.7","subject_id":"61026e2c9829e7986adf365d","study_id":"6197b3f67c2b5cd3b6d9596a","session_id":"6197bac406ac8fc9e65d7087","condition":"contingent","relevant_dimensions":["antennae","pattern"],"bee_group":{"antennae":"B","wings":"X","pattern":"S","legs":"X"},"bonus":0.9600000000000006},{"rt":195,"stimulus":"bees-with-color/bee-B1DF.svg","response":1,"trial_type":"image-button-response","trial_index":148,"time_elapsed":1501341,"internal_node_id":"0.0-6.0-0.8","subject_id":"61026e2c9829e7986adf365d","study_id":"6197b3f67c2b5cd3b6d9596a","session_id":"6197bac406ac8fc9e65d7087","condition":"contingent","relevant_dimensions":["antennae","pattern"],"bee_group":{"antennae":"B","wings":"X","pattern":"S","legs":"X"},"bonus":0.9600000000000006},{"rt":245,"stimulus":"bees-with-color/bee-A1SF.svg","response":1,"trial_type":"image-button-response","trial_index":149,"time_elapsed":1501590,"internal_node_id":"0.0-6.0-0.9","subject_id":"61026e2c9829e7986adf365d","study_id":"6197b3f67c2b5cd3b6d9596a","session_id":"6197bac406ac8fc9e65d7087","condition":"contingent","relevant_dimensions":["antennae","pattern"],"bee_group":{"antennae":"B","wings":"X","pattern":"S","legs":"X"},"bonus":0.9600000000000006},{"rt":2576,"stimulus":"bees-with-color/bee-B2SM.svg","response":1,"trial_type":"image-button-response","trial_index":150,"time_elapsed":1504169,"internal_node_id":"0.0-6.0-0.10","subject_id":"61026e2c9829e7986adf365d","study_id":"6197b3f67c2b5cd3b6d9596a","session_id":"6197bac406ac8fc9e65d7087","condition":"contingent","relevant_dimensions":["antennae","pattern"],"bee_group":{"antennae":"B","wings":"X","pattern":"S","legs":"X"},"bonus":0.9600000000000006},{"rt":363,"stimulus":"bees-with-color/bee-A2DF.svg","response":1,"trial_type":"image-button-response","trial_index":151,"time_elapsed":1504534,"internal_node_id":"0.0-6.0-0.11","subject_id":"61026e2c9829e7986adf365d","study_id":"6197b3f67c2b5cd3b6d9596a","session_id":"6197bac406ac8fc9e65d7087","condition":"contingent","relevant_dimensions":["antennae","pattern"],"bee_group":{"antennae":"B","wings":"X","pattern":"S","legs":"X"},"bonus":0.9600000000000006},{"rt":169,"stimulus":"bees-with-color/bee-B1SM.svg","response":1,"trial_type":"image-button-response","trial_index":152,"time_elapsed":1504705,"internal_node_id":"0.0-6.0-0.12","subject_id":"61026e2c9829e7986adf365d","study_id":"6197b3f67c2b5cd3b6d9596a","session_id":"6197bac406ac8fc9e65d7087","condition":"contingent","relevant_dimensions":["antennae","pattern"],"bee_group":{"antennae":"B","wings":"X","pattern":"S","legs":"X"},"bonus":0.9600000000000006},{"rt":181,"stimulus":"bees-with-color/bee-A2SF.svg","response":1,"trial_type":"image-button-response","trial_index":153,"time_elapsed":1504889,"internal_node_id":"0.0-6.0-0.13","subject_id":"61026e2c9829e7986adf365d","study_id":"6197b3f67c2b5cd3b6d9596a","session_id":"6197bac406ac8fc9e65d7087","condition":"contingent","relevant_dimensions":["antennae","pattern"],"bee_group":{"antennae":"B","wings":"X","pattern":"S","legs":"X"},"bonus":0.9600000000000006},{"rt":63,"stimulus":"bees-with-color/bee-A2DM.svg","response":1,"trial_type":"image-button-response","trial_index":154,"time_elapsed":1504955,"internal_node_id":"0.0-6.0-0.14","subject_id":"61026e2c9829e7986adf365d","study_id":"6197b3f67c2b5cd3b6d9596a","session_id":"6197bac406ac8fc9e65d7087","condition":"contingent","relevant_dimensions":["antennae","pattern"],"bee_group":{"antennae":"B","wings":"X","pattern":"S","legs":"X"},"bonus":0.9600000000000006},{"rt":188,"stimulus":"bees-with-color/bee-A2SM.svg","response":1,"trial_type":"image-button-response","trial_index":155,"time_elapsed":1505143,"internal_node_id":"0.0-6.0-0.15","subject_id":"61026e2c9829e7986adf365d","study_id":"6197b3f67c2b5cd3b6d9596a","session_id":"6197bac406ac8fc9e65d7087","condition":"contingent","relevant_dimensions":["antennae","pattern"],"bee_group":{"antennae":"B","wings":"X","pattern":"S","legs":"X"},"bonus":0.9600000000000006},{"rt":326,"stimulus":"bees-with-color/bee-B1SM.svg","response":1,"trial_type":"image-button-response","trial_index":156,"time_elapsed":1505473,"internal_node_id":"0.0-6.0-0.16","subject_id":"61026e2c9829e7986adf365d","study_id":"6197b3f67c2b5cd3b6d9596a","session_id":"6197bac406ac8fc9e65d7087","condition":"contingent","relevant_dimensions":["antennae","pattern"],"bee_group":{"antennae":"B","wings":"X","pattern":"S","legs":"X"},"bonus":0.9600000000000006},{"rt":557,"stimulus":"bees-with-color/bee-A1DF.svg","response":1,"trial_type":"image-button-response","trial_index":157,"time_elapsed":1506031,"internal_node_id":"0.0-6.0-0.17","subject_id":"61026e2c9829e7986adf365d","study_id":"6197b3f67c2b5cd3b6d9596a","session_id":"6197bac406ac8fc9e65d7087","condition":"contingent","relevant_dimensions":["antennae","pattern"],"bee_group":{"antennae":"B","wings":"X","pattern":"S","legs":"X"},"bonus":0.9600000000000006},{"rt":259,"stimulus":"bees-with-color/bee-A1SM.svg","response":1,"trial_type":"image-button-response","trial_index":158,"time_elapsed":1506294,"internal_node_id":"0.0-6.0-0.18","subject_id":"61026e2c9829e7986adf365d","study_id":"6197b3f67c2b5cd3b6d9596a","session_id":"6197bac406ac8fc9e65d7087","condition":"contingent","relevant_dimensions":["antennae","pattern"],"bee_group":{"antennae":"B","wings":"X","pattern":"S","legs":"X"},"bonus":0.9600000000000006},{"rt":389,"stimulus":"bees-with-color/bee-A1DM.svg","response":1,"trial_type":"image-button-response","trial_index":159,"time_elapsed":1506685,"internal_node_id":"0.0-6.0-0.19","subject_id":"61026e2c9829e7986adf365d","study_id":"6197b3f67c2b5cd3b6d9596a","session_id":"6197bac406ac8fc9e65d7087","condition":"contingent","relevant_dimensions":["antennae","pattern"],"bee_group":{"antennae":"B","wings":"X","pattern":"S","legs":"X"},"bonus":0.9600000000000006},{"rt":939,"stimulus":"bees-with-color/bee-B1SF.svg","response":1,"trial_type":"image-button-response","trial_index":160,"time_elapsed":1507626,"internal_node_id":"0.0-6.0-0.20","subject_id":"61026e2c9829e7986adf365d","study_id":"6197b3f67c2b5cd3b6d9596a","session_id":"6197bac406ac8fc9e65d7087","condition":"contingent","relevant_dimensions":["antennae","pattern"],"bee_group":{"antennae":"B","wings":"X","pattern":"S","legs":"X"},"bonus":0.9600000000000006},{"rt":156,"stimulus":"bees-with-color/bee-B2DM.svg","response":1,"trial_type":"image-button-response","trial_index":161,"time_elapsed":1507783,"internal_node_id":"0.0-6.0-0.21","subject_id":"61026e2c9829e7986adf365d","study_id":"6197b3f67c2b5cd3b6d9596a","session_id":"6197bac406ac8fc9e65d7087","condition":"contingent","relevant_dimensions":["antennae","pattern"],"bee_group":{"antennae":"B","wings":"X","pattern":"S","legs":"X"},"bonus":0.9600000000000006},{"rt":188,"stimulus":"bees-with-color/bee-B1DF.svg","response":1,"trial_type":"image-button-response","trial_index":162,"time_elapsed":1507973,"internal_node_id":"0.0-6.0-0.22","subject_id":"61026e2c9829e7986adf365d","study_id":"6197b3f67c2b5cd3b6d9596a","session_id":"6197bac406ac8fc9e65d7087","condition":"contingent","relevant_dimensions":["antennae","pattern"],"bee_group":{"antennae":"B","wings":"X","pattern":"S","legs":"X"},"bonus":0.9600000000000006},{"rt":165,"stimulus":"bees-with-color/bee-B2DF.svg","response":1,"trial_type":"image-button-response","trial_index":163,"time_elapsed":1508141,"internal_node_id":"0.0-6.0-0.23","subject_id":"61026e2c9829e7986adf365d","study_id":"6197b3f67c2b5cd3b6d9596a","session_id":"6197bac406ac8fc9e65d7087","condition":"contingent","relevant_dimensions":["antennae","pattern"],"bee_group":{"antennae":"B","wings":"X","pattern":"S","legs":"X"},"bonus":0.9600000000000006},{"rt":262,"stimulus":"bees-with-color/bee-A1SF.svg","response":1,"trial_type":"image-button-response","trial_index":164,"time_elapsed":1508405,"internal_node_id":"0.0-6.0-0.24","subject_id":"61026e2c9829e7986adf365d","study_id":"6197b3f67c2b5cd3b6d9596a","session_id":"6197bac406ac8fc9e65d7087","condition":"contingent","relevant_dimensions":["antennae","pattern"],"bee_group":{"antennae":"B","wings":"X","pattern":"S","legs":"X"},"bonus":0.9600000000000006},{"rt":1425,"stimulus":"be