[{"success":true,"trial_type":"fullscreen","trial_index":0,"time_elapsed":5140,"internal_node_id":"0.0-0.0","subject_id":"615c0bdd5dfdf4c8af71d50b","study_id":"60edd13110225f80f9f3709b","session_id":"6196c704dc628f99a4aa56b9","condition":"contingent","relevant_dimensions":["antennae","legs"],"bee_group":{"antennae":"B","wings":"X","pattern":"X","legs":"F"},"bonus":0},{"success":true,"timeout":false,"failed_images":[],"failed_audio":[],"failed_video":[],"trial_type":"preload","trial_index":1,"time_elapsed":13306,"internal_node_id":"0.0-1.0","subject_id":"615c0bdd5dfdf4c8af71d50b","study_id":"60edd13110225f80f9f3709b","session_id":"6196c704dc628f99a4aa56b9","condition":"contingent","relevant_dimensions":["antennae","legs"],"bee_group":{"antennae":"B","wings":"X","pattern":"X","legs":"F"},"bonus":0},{"rt":2846.6999999955297,"stimulus":"Welcome! Press any key to begin.","response":"g","trial_type":"html-keyboard-response","trial_index":2,"time_elapsed":16155,"internal_node_id":"0.0-2.0","subject_id":"615c0bdd5dfdf4c8af71d50b","study_id":"60edd13110225f80f9f3709b","session_id":"6196c704dc628f99a4aa56b9","condition":"contingent","relevant_dimensions":["antennae","legs"],"bee_group":{"antennae":"B","wings":"X","pattern":"X","legs":"F"},"bonus":0},{"view_history":[{"page_index":0,"viewing_time":4971.19999999553},{"page_index":1,"viewing_time":12415.80000000447},{"page_index":2,"viewing_time":14676.39999999851},{"page_index":3,"viewing_time":36570.5},{"page_index":4,"viewing_time":8078.89999999851},{"page_index":5,"viewing_time":11133.89999999851},{"page_index":6,"viewing_time":12080.70000000298},{"page_index":7,"viewing_time":8242.70000000298},{"page_index":8,"viewing_time":4803.0999999940395},{"page_index":9,"viewing_time":9482.90000000596},{"page_index":10,"viewing_time":7745},{"page_index":11,"viewing_time":11466.19999999553},{"page_index":12,"viewing_time":21684.89999999851},{"page_index":13,"viewing_time":2497.4000000059605},{"page_index":14,"viewing_time":2876.0999999940395}],"rt":168726.19999999553,"trial_type":"instructions","trial_index":3,"time_elapsed":184882,"internal_node_id":"0.0-3.0-0.0","subject_id":"615c0bdd5dfdf4c8af71d50b","study_id":"60edd13110225f80f9f3709b","session_id":"6196c704dc628f99a4aa56b9","condition":"contingent","relevant_dimensions":["antennae","legs"],"bee_group":{"antennae":"B","wings":"X","pattern":"X","legs":"F"},"bonus":0},{"rt":18788,"response":{"Q0":["Two or six legs","Stripes or spots on body","Single or double wings","Antennae or no antennae"]},"question_order":[0],"trial_type":"survey-multi-select","trial_index":4,"time_elapsed":203679,"internal_node_id":"0.0-3.0-1.0","subject_id":"615c0bdd5dfdf4c8af71d50b","study_id":"60edd13110225f80f9f3709b","session_id":"6196c704dc628f99a4aa56b9","condition":"contingent","relevant_dimensions":["antennae","legs"],"bee_group":{"antennae":"B","wings":"X","pattern":"X","legs":"F"},"correct":true,"bonus":0},{"rt":26283.80000000447,"response":{"Q1":"No.","Q2":"Based on the four features of the bee.","Q3":"You do not learn if it was friendly or dangerous, and do not alter your bonus."},"question_order":[0,1,2],"trial_type":"survey-multi-choice","trial_index":5,"time_elapsed":229968,"internal_node_id":"0.0-3.0-2.0","subject_id":"615c0bdd5dfdf4c8af71d50b","study_id":"60edd13110225f80f9f3709b","session_id":"6196c704dc628f99a4aa56b9","condition":"contingent","relevant_dimensions":["antennae","legs"],"bee_group":{"antennae":"B","wings":"X","pattern":"X","legs":"F"},"correct":true,"bonus":0},{"rt":3249.39999999851,"stimulus":"<p>Congrats, you got everything right<br>When you're ready, click the button below to continue to the experiment.</p>","response":0,"trial_type":"html-button-response","trial_index":6,"time_elapsed":233221,"internal_node_id":"0.0-3.0-3.0","subject_id":"615c0bdd5dfdf4c8af71d50b","study_id":"60edd13110225f80f9f3709b","session_id":"6196c704dc628f99a4aa56b9","condition":"contingent","relevant_dimensions":["antennae","legs"],"bee_group":{"antennae":"B","wings":"X","pattern":"X","legs":"F"},"bonus":0},{"rt":5412.30000000447,"stimulus":"bees-with-color/bee-A2SF.svg","response":0,"trial_type":"image-button-response","trial_index":7,"time_elapsed":238639,"internal_node_id":"0.0-4.0-0.0","subject_id":"615c0bdd5dfdf4c8af71d50b","study_id":"60edd13110225f80f9f3709b","session_id":"6196c704dc628f99a4aa56b9","condition":"contingent","relevant_dimensions":["antennae","legs"],"bee_group":{"antennae":"B","wings":"X","pattern":"X","legs":"F"},"action":"harvest","summary":"good-harvest","bonus":0},{"rt":21593.10000000149,"stimulus":"\n                    <p><b>Action: <em>harvest</em></b></p>\n                    <p>This is the bee that you just saw.</p>\n                    <img src=\"bees-with-color/bee-A2SF.svg\" width=\"200\">\n                    <p><span class=\"greenText\"><b>Successful harvest!</b></span><br>Your pay has increased by $0.02. Your bonus pay is now $0.56.</p>\n            ","response":0,"trial_type":"html-button-response","trial_index":8,"time_elapsed":260239,"internal_node_id":"0.0-4.0-1.0","subject_id":"615c0bdd5dfdf4c8af71d50b","study_id":"60edd13110225f80f9f3709b","session_id":"6196c704dc628f99a4aa56b9","condition":"contingent","relevant_dimensions":["antennae","legs"],"bee_group":{"antennae":"B","wings":"X","pattern":"X","legs":"F"},"bonus":0},{"rt":9444,"stimulus":"bees-with-color/bee-A2SM.svg","response":1,"trial_type":"image-button-response","trial_index":9,"time_elapsed":269688,"internal_node_id":"0.0-4.0-0.1","subject_id":"615c0bdd5dfdf4c8af71d50b","study_id":"60edd13110225f80f9f3709b","session_id":"6196c704dc628f99a4aa56b9","condition":"contingent","relevant_dimensions":["antennae","legs"],"bee_group":{"antennae":"B","wings":"X","pattern":"X","legs":"F"},"action":"avoid","summary":"bad-avoid","bonus":0},{"rt":7750.29999999702,"stimulus":"\n                    <p><b>Action: <em>avoid</em></b></p>\n                    <p>This is the bee that you just saw.</p>\n                    <img src=\"bees-with-color/bee-A2SM.svg\" width=\"200\">\n                    <p><br>Your bonus pay is unchanged, and remains at $0.56.</p>\n            ","response":0,"trial_type":"html-button-response","trial_index":10,"time_elapsed":277442,"internal_node_id":"0.0-4.0-1.1","subject_id":"615c0bdd5dfdf4c8af71d50b","study_id":"60edd13110225f80f9f3709b","session_id":"6196c704dc628f99a4aa56b9","condition":"contingent","relevant_dimensions":["antennae","legs"],"bee_group":{"antennae":"B","wings":"X","pattern":"X","legs":"F"},"bonus":0},{"rt":7238.9000000059605,"stimulus":"bees-with-color/bee-B1SM.svg","response":0,"trial_type":"image-button-response","trial_index":11,"time_elapsed":284685,"internal_node_id":"0.0-4.0-0.2","subject_id":"615c0bdd5dfdf4c8af71d50b","study_id":"60edd13110225f80f9f3709b","session_id":"6196c704dc628f99a4aa56b9","condition":"contingent","relevant_dimensions":["antennae","legs"],"bee_group":{"antennae":"B","wings":"X","pattern":"X","legs":"F"},"action":"harvest","summary":"good-harvest","bonus":0},{"rt":4556.10000000149,"stimulus":"\n                    <p><b>Action: <em>harvest</em></b></p>\n                    <p>This is the bee that you just saw.</p>\n                    <img src=\"bees-with-color/bee-B1SM.svg\" width=\"200\">\n                    <p><span class=\"greenText\"><b>Successful harvest!</b></span><br>Your pay has increased by $0.02. Your bonus pay is now $0.58.</p>\n            ","response":0,"trial_type":"html-button-response","trial_index":12,"time_elapsed":289246,"internal_node_id":"0.0-4.0-1.2","subject_id":"615c0bdd5dfdf4c8af71d50b","study_id":"60edd13110225f80f9f3709b","session_id":"6196c704dc628f99a4aa56b9","condition":"contingent","relevant_dimensions":["antennae","legs"],"bee_group":{"antennae":"B","wings":"X","pattern":"X","legs":"F"},"bonus":0},{"rt":3786.89999999851,"stimulus":"bees-with-color/bee-B1DF.svg","response":1,"trial_type":"image-button-response","trial_index":13,"time_elapsed":293037,"internal_node_id":"0.0-4.0-0.3","subject_id":"615c0bdd5dfdf4c8af71d50b","study_id":"60edd13110225f80f9f3709b","session_id":"6196c704dc628f99a4aa56b9","condition":"contingent","relevant_dimensions":["antennae","legs"],"bee_group":{"antennae":"B","wings":"X","pattern":"X","legs":"F"},"action":"avoid","summary":"good-avoid","bonus":0},{"rt":5901.89999999851,"stimulus":"\n                    <p><b>Action: <em>avoid</em></b></p>\n                    <p>This is the bee that you just saw.</p>\n                    <img src=\"bees-with-color/bee-B1DF.svg\" width=\"200\">\n                    <p><br>Your bonus pay is unchanged, and remains at $0.58.</p>\n            ","response":0,"trial_type":"html-button-response","trial_index":14,"time_elapsed":298941,"internal_node_id":"0.0-4.0-1.3","subject_id":"615c0bdd5dfdf4c8af71d50b","study_id":"60edd13110225f80f9f3709b","session_id":"6196c704dc628f99a4aa56b9","condition":"contingent","relevant_dimensions":["antennae","legs"],"bee_group":{"antennae":"B","wings":"X","pattern":"X","legs":"F"},"bonus":0},{"rt":10226.5,"stimulus":"bees-with-color/bee-A1DM.svg","response":1,"trial_type":"image-button-response","trial_index":15,"time_elapsed":309172,"internal_node_id":"0.0-4.0-0.4","subject_id":"615c0bdd5dfdf4c8af71d50b","study_id":"60edd13110225f80f9f3709b","session_id":"6196c704dc628f99a4aa56b9","condition":"contingent","relevant_dimensions":["antennae","legs"],"bee_group":{"antennae":"B","wings":"X","pattern":"X","legs":"F"},"action":"avoid","summary":"bad-avoid","bonus":0},{"rt":2358,"stimulus":"\n                    <p><b>Action: <em>avoid</em></b></p>\n                    <p>This is the bee that you just saw.</p>\n                    <img src=\"bees-with-color/bee-A1DM.svg\" width=\"200\">\n                    <p><br>Your bonus pay is unchanged, and remains at $0.58.</p>\n            ","response":0,"trial_type":"html-button-response","trial_index":16,"time_elapsed":311533,"internal_node_id":"0.0-4.0-1.4","subject_id":"615c0bdd5dfdf4c8af71d50b","study_id":"60edd13110225f80f9f3709b","session_id":"6196c704dc628f99a4aa56b9","condition":"contingent","relevant_dimensions":["antennae","legs"],"bee_group":{"antennae":"B","wings":"X","pattern":"X","legs":"F"},"bonus":0},{"rt":3129.3000000044703,"stimulus":"bees-with-color/bee-B1DM.svg","response":0,"trial_type":"image-button-response","trial_index":17,"time_elapsed":314666,"internal_node_id":"0.0-4.0-0.5","subject_id":"615c0bdd5dfdf4c8af71d50b","study_id":"60edd13110225f80f9f3709b","session_id":"6196c704dc628f99a4aa56b9","condition":"contingent","relevant_dimensions":["antennae","legs"],"bee_group":{"antennae":"B","wings":"X","pattern":"X","legs":"F"},"action":"harvest","summary":"good-harvest","bonus":0},{"rt":6160.70000000298,"stimulus":"\n                    <p><b>Action: <em>harvest</em></b></p>\n                    <p>This is the bee that you just saw.</p>\n                    <img src=\"bees-with-color/bee-B1DM.svg\" width=\"200\">\n                    <p><span class=\"greenText\"><b>Successful harvest!</b></span><br>Your pay has increased by $0.02. Your bonus pay is now $0.60.</p>\n            ","response":0,"trial_type":"html-button-response","trial_index":18,"time_elapsed":320829,"internal_node_id":"0.0-4.0-1.5","subject_id":"615c0bdd5dfdf4c8af71d50b","study_id":"60edd13110225f80f9f3709b","session_id":"6196c704dc628f99a4aa56b9","condition":"contingent","relevant_dimensions":["antennae","legs"],"bee_group":{"antennae":"B","wings":"X","pattern":"X","legs":"F"},"bonus":0},{"rt":3638.7000000029802,"stimulus":"bees-with-color/bee-B2SM.svg","response":0,"trial_type":"image-button-response","trial_index":19,"time_elapsed":324473,"internal_node_id":"0.0-4.0-0.6","subject_id":"615c0bdd5dfdf4c8af71d50b","study_id":"60edd13110225f80f9f3709b","session_id":"6196c704dc628f99a4aa56b9","condition":"contingent","relevant_dimensions":["antennae","legs"],"bee_group":{"antennae":"B","wings":"X","pattern":"X","legs":"F"},"action":"harvest","summary":"good-harvest","bonus":0},{"rt":3144.10000000149,"stimulus":"\n                    <p><b>Action: <em>harvest</em></b></p>\n                    <p>This is the bee that you just saw.</p>\n                    <img src=\"bees-with-color/bee-B2SM.svg\" width=\"200\">\n                    <p><span class=\"greenText\"><b>Successful harvest!</b></span><br>Your pay has increased by $0.02. Your bonus pay is now $0.62.</p>\n            ","response":0,"trial_type":"html-button-response","trial_index":20,"time_elapsed":327620,"internal_node_id":"0.0-4.0-1.6","subject_id":"615c0bdd5dfdf4c8af71d50b","study_id":"60edd13110225f80f9f3709b","session_id":"6196c704dc628f99a4aa56b9","condition":"contingent","relevant_dimensions":["antennae","legs"],"bee_group":{"antennae":"B","wings":"X","pattern":"X","legs":"F"},"bonus":0},{"rt":5908,"stimulus":"bees-with-color/bee-B2DF.svg","response":1,"trial_type":"image-button-response","trial_index":21,"time_elapsed":333532,"internal_node_id":"0.0-4.0-0.7","subject_id":"615c0bdd5dfdf4c8af71d50b","study_id":"60edd13110225f80f9f3709b","session_id":"6196c704dc628f99a4aa56b9","condition":"contingent","relevant_dimensions":["antennae","legs"],"bee_group":{"antennae":"B","wings":"X","pattern":"X","legs":"F"},"action":"avoid","summary":"good-avoid","bonus":0},{"rt":3750.6999999955297,"stimulus":"\n                    <p><b>Action: <em>avoid</em></b></p>\n                    <p>This is the bee that you just saw.</p>\n                    <img src=\"bees-with-color/bee-B2DF.svg\" width=\"200\">\n                    <p><br>Your bonus pay is unchanged, and remains at $0.62.</p>\n            ","response":0,"trial_type":"html-button-response","trial_index":22,"time_elapsed":337285,"internal_node_id":"0.0-4.0-1.7","subject_id":"615c0bdd5dfdf4c8af71d50b","study_id":"60edd13110225f80f9f3709b","session_id":"6196c704dc628f99a4aa56b9","condition":"contingent","relevant_dimensions":["antennae","legs"],"bee_group":{"antennae":"B","wings":"X","pattern":"X","legs":"F"},"bonus":0},{"rt":3605.2999999970198,"stimulus":"bees-with-color/bee-A1DF.svg","response":0,"trial_type":"image-button-response","trial_index":23,"time_elapsed":340895,"internal_node_id":"0.0-4.0-0.8","subject_id":"615c0bdd5dfdf4c8af71d50b","study_id":"60edd13110225f80f9f3709b","session_id":"6196c704dc628f99a4aa56b9","condition":"contingent","relevant_dimensions":["antennae","legs"],"bee_group":{"antennae":"B","wings":"X","pattern":"X","legs":"F"},"action":"harvest","summary":"good-harvest","bonus":0},{"rt":2053.5,"stimulus":"\n                    <p><b>Action: <em>harvest</em></b></p>\n                    <p>This is the bee that you just saw.</p>\n                    <img src=\"bees-with-color/bee-A1DF.svg\" width=\"200\">\n                    <p><span class=\"greenText\"><b>Successful harvest!</b></span><br>Your pay has increased by $0.02. Your bonus pay is now $0.64.</p>\n            ","response":0,"trial_type":"html-button-response","trial_index":24,"time_elapsed":342951,"internal_node_id":"0.0-4.0-1.8","subject_id":"615c0bdd5dfdf4c8af71d50b","study_id":"60edd13110225f80f9f3709b","session_id":"6196c704dc628f99a4aa56b9","condition":"contingent","relevant_dimensions":["antennae","legs"],"bee_group":{"antennae":"B","wings":"X","pattern":"X","legs":"F"},"bonus":0},{"rt":2025.2999999970198,"stimulus":"bees-with-color/bee-B1SF.svg","response":1,"trial_type":"image-button-response","trial_index":25,"time_elapsed":344980,"internal_node_id":"0.0-4.0-0.9","subject_id":"615c0bdd5dfdf4c8af71d50b","study_id":"60edd13110225f80f9f3709b","session_id":"6196c704dc628f99a4aa56b9","condition":"contingent","relevant_dimensions":["antennae","legs"],"bee_group":{"antennae":"B","wings":"X","pattern":"X","legs":"F"},"action":"avoid","summary":"good-avoid","bonus":0},{"rt":1740.9000000059605,"stimulus":"\n                    <p><b>Action: <em>avoid</em></b></p>\n                    <p>This is the bee that you just saw.</p>\n                    <img src=\"bees-with-color/bee-B1SF.svg\" width=\"200\">\n                    <p><br>Your bonus pay is unchanged, and remains at $0.64.</p>\n            ","response":0,"trial_type":"html-button-response","trial_index":26,"time_elapsed":346725,"internal_node_id":"0.0-4.0-1.9","subject_id":"615c0bdd5dfdf4c8af71d50b","study_id":"60edd13110225f80f9f3709b","session_id":"6196c704dc628f99a4aa56b9","condition":"contingent","relevant_dimensions":["antennae","legs"],"bee_group":{"antennae":"B","wings":"X","pattern":"X","legs":"F"},"bonus":0},{"rt":2739.60000000149,"stimulus":"bees-with-color/bee-B2SF.svg","response":0,"trial_type":"image-button-response","trial_index":27,"time_elapsed":349468,"internal_node_id":"0.0-4.0-0.10","subject_id":"615c0bdd5dfdf4c8af71d50b","study_id":"60edd13110225f80f9f3709b","session_id":"6196c704dc628f99a4aa56b9","condition":"contingent","relevant_dimensions":["antennae","legs"],"bee_group":{"antennae":"B","wings":"X","pattern":"X","legs":"F"},"action":"harvest","summary":"bad-harvest","bonus":0},{"rt":17630.39999999851,"stimulus":"\n                    <p><b>Action: <em>harvest</em></b></p>\n                    <p>This is the bee that you just saw.</p>\n                    <img src=\"bees-with-color/bee-B2SF.svg\" width=\"200\">\n                    <p><span class=\"redText\">Bad choice, the bee was angry.</span><br><b>You have been stung!</b><br>Your pay has been decreased by $0.10. Your bonus pay is now $0.54.</p>\n            ","response":0,"trial_type":"html-button-response","trial_index":28,"time_elapsed":367101,"internal_node_id":"0.0-4.0-1.10","subject_id":"615c0bdd5dfdf4c8af71d50b","study_id":"60edd13110225f80f9f3709b","session_id":"6196c704dc628f99a4aa56b9","condition":"contingent","relevant_dimensions":["antennae","legs"],"bee_group":{"antennae":"B","wings":"X","pattern":"X","legs":"F"},"bonus":0},{"rt":2701.89999999851,"stimulus":"bees-with-color/bee-A2DF.svg","response":1,"trial_type":"image-button-response","trial_index":29,"time_elapsed":369807,"internal_node_id":"0.0-4.0-0.11","subject_id":"615c0bdd5dfdf4c8af71d50b","study_id":"60edd13110225f80f9f3709b","session_id":"6196c704dc628f99a4aa56b9","condition":"contingent","relevant_dimensions":["antennae","legs"],"bee_group":{"antennae":"B","wings":"X","pattern":"X","legs":"F"},"action":"avoid","summary":"bad-avoid","bonus":0},{"rt":2159.3000000044703,"stimulus":"\n                    <p><b>Action: <em>avoid</em></b></p>\n                    <p>This is the bee that you just saw.</p>\n                    <img src=\"bees-with-color/bee-A2DF.svg\" width=\"200\">\n                    <p><br>Your bonus pay is unchanged, and remains at $0.54.</p>\n            ","response":0,"trial_type":"html-button-response","trial_index":30,"time_elapsed":371969,"internal_node_id":"0.0-4.0-1.11","subject_id":"615c0bdd5dfdf4c8af71d50b","study_id":"60edd13110225f80f9f3709b","session_id":"6196c704dc628f99a4aa56b9","condition":"contingent","relevant_dimensions":["antennae","legs"],"bee_group":{"antennae":"B","wings":"X","pattern":"X","legs":"F"},"bonus":0},{"rt":3766.5,"stimulus":"bees-with-color/bee-B2DM.svg","response":0,"trial_type":"image-button-response","trial_index":31,"time_elapsed":375738,"internal_node_id":"0.0-4.0-0.12","subject_id":"615c0bdd5dfdf4c8af71d50b","study_id":"60edd13110225f80f9f3709b","session_id":"6196c704dc628f99a4aa56b9","condition":"contingent","relevant_dimensions":["antennae","legs"],"bee_group":{"antennae":"B","wings":"X","pattern":"X","legs":"F"},"action":"harvest","summary":"good-harvest","bonus":0},{"rt":1962.0999999940395,"stimulus":"\n                    <p><b>Action: <em>harvest</em></b></p>\n                    <p>This is the bee that you just saw.</p>\n                    <img src=\"bees-with-color/bee-B2DM.svg\" width=\"200\">\n                    <p><span class=\"greenText\"><b>Successful harvest!</b></span><br>Your pay has increased by $0.02. Your bonus pay is now $0.56.</p>\n            ","response":0,"trial_type":"html-button-response","trial_index":32,"time_elapsed":377703,"internal_node_id":"0.0-4.0-1.12","subject_id":"615c0bdd5dfdf4c8af71d50b","study_id":"60edd13110225f80f9f3709b","session_id":"6196c704dc628f99a4aa56b9","condition":"contingent","relevant_dimensions":["antennae","legs"],"bee_group":{"antennae":"B","wings":"X","pattern":"X","legs":"F"},"bonus":0},{"rt":2673.39999999851,"stimulus":"bees-with-color/bee-A1SM.svg","response":1,"trial_type":"image-button-response","trial_index":33,"time_elapsed":380380,"internal_node_id":"0.0-4.0-0.13","subject_id":"615c0bdd5dfdf4c8af71d50b","study_id":"60edd13110225f80f9f3709b","session_id":"6196c704dc628f99a4aa56b9","condition":"contingent","relevant_dimensions":["antennae","legs"],"bee_group":{"antennae":"B","wings":"X","pattern":"X","legs":"F"},"action":"avoid","summary":"bad-avoid","bonus":0},{"rt":1930.6000000014901,"stimulus":"\n                    <p><b>Action: <em>avoid</em></b></p>\n                    <p>This is the bee that you just saw.</p>\n                    <img src=\"bees-with-color/bee-A1SM.svg\" width=\"200\">\n                    <p><br>Your bonus pay is unchanged, and remains at $0.56.</p>\n            ","response":0,"trial_type":"html-button-response","trial_index":34,"time_elapsed":382313,"internal_node_id":"0.0-4.0-1.13","subject_id":"615c0bdd5dfdf4c8af71d50b","study_id":"60edd13110225f80f9f3709b","session_id":"6196c704dc628f99a4aa56b9","condition":"contingent","relevant_dimensions":["antennae","legs"],"bee_group":{"antennae":"B","wings":"X","pattern":"X","legs":"F"},"bonus":0},{"rt":3879.39999999851,"stimulus":"bees-with-color/bee-A1SF.svg","response":0,"trial_type":"image-button-response","trial_index":35,"time_elapsed":386196,"internal_node_id":"0.0-4.0-0.14","subject_id":"615c0bdd5dfdf4c8af71d50b","study_id":"60edd13110225f80f9f3709b","session_id":"6196c704dc628f99a4aa56b9","condition":"contingent","relevant_dimensions":["antennae","legs"],"bee_group":{"antennae":"B","wings":"X","pattern":"X","legs":"F"},"action":"harvest","summary":"good-harvest","bonus":0},{"rt":1631.7000000029802,"stimulus":"\n                    <p><b>Action: <em>harvest</em></b></p>\n                    <p>This is the bee that you just saw.</p>\n                    <img src=\"bees-with-color/bee-A1SF.svg\" width=\"200\">\n                    <p><span class=\"greenText\"><b>Successful harvest!</b></span><br>Your pay has increased by $0.02. Your bonus pay is now $0.58.</p>\n            ","response":0,"trial_type":"html-button-response","trial_index":36,"time_elapsed":387830,"internal_node_id":"0.0-4.0-1.14","subject_id":"615c0bdd5dfdf4c8af71d50b","study_id":"60edd13110225f80f9f3709b","session_id":"6196c704dc628f99a4aa56b9","condition":"contingent","relevant_dimensions":["antennae","legs"],"bee_group":{"antennae":"B","wings":"X","pattern":"X","legs":"F"},"bonus":0},{"rt":4329.39999999851,"stimulus":"bees-with-color/bee-A2DM.svg","response":0,"trial_type":"image-button-response","trial_index":37,"time_elapsed":392163,"internal_node_id":"0.0-4.0-0.15","subject_id":"615c0bdd5dfdf4c8af71d50b","study_id":"60edd13110225f80f9f3709b","session_id":"6196c704dc628f99a4aa56b9","condition":"contingent","relevant_dimensions":["antennae","legs"],"bee_group":{"antennae":"B","wings":"X","pattern":"X","legs":"F"},"action":"harvest","summary":"good-harvest","bonus":0},{"rt":1647.2000000029802,"stimulus":"\n                    <p><b>Action: <em>harvest</em></b></p>\n                    <p>This is the bee that you just saw.</p>\n                    <img src=\"bees-with-color/bee-A2DM.svg\" width=\"200\">\n                    <p><span class=\"greenText\"><b>Successful harvest!</b></span><br>Your pay has increased by $0.02. Your bonus pay is now $0.60.</p>\n            ","response":0,"trial_type":"html-button-response","trial_index":38,"time_elapsed":393813,"internal_node_id":"0.0-4.0-1.15","subject_id":"615c0bdd5dfdf4c8af71d50b","study_id":"60edd13110225f80f9f3709b","session_id":"6196c704dc628f99a4aa56b9","condition":"contingent","relevant_dimensions":["antennae","legs"],"bee_group":{"antennae":"B","wings":"X","pattern":"X","legs":"F"},"bonus":0},{"rt":3780.10000000149,"stimulus":"bees-with-color/bee-A1SM.svg","response":1,"trial_type":"image-button-response","trial_index":39,"time_elapsed":397596,"internal_node_id":"0.0-4.0-0.16","subject_id":"615c0bdd5dfdf4c8af71d50b","study_id":"60edd13110225f80f9f3709b","session_id":"6196c704dc628f99a4aa56b9","condition":"contingent","relevant_dimensions":["antennae","legs"],"bee_group":{"antennae":"B","wings":"X","pattern":"X","legs":"F"},"action":"avoid","summary":"bad-avoid","bonus":0},{"rt":1643.7000000029802,"stimulus":"\n                    <p><b>Action: <em>avoid</em></b></p>\n                    <p>This is the bee that you just saw.</p>\n                    <img src=\"bees-with-color/bee-A1SM.svg\" width=\"200\">\n                    <p><br>Your bonus pay is unchanged, and remains at $0.60.</p>\n            ","response":0,"trial_type":"html-button-response","trial_index":40,"time_elapsed":399242,"internal_node_id":"0.0-4.0-1.16","subject_id":"615c0bdd5dfdf4c8af71d50b","study_id":"60edd13110225f80f9f3709b","session_id":"6196c704dc628f99a4aa56b9","condition":"contingent","relevant_dimensions":["antennae","legs"],"bee_group":{"antennae":"B","wings":"X","pattern":"X","legs":"F"},"bonus":0},{"rt":2011.4000000059605,"stimulus":"bees-with-color/bee-A1DF.svg","response":1,"trial_type":"image-button-response","trial_index":41,"time_elapsed":401257,"internal_node_id":"0.0-4.0-0.17","subject_id":"615c0bdd5dfdf4c8af71d50b","study_id":"60edd13110225f80f9f3709b","session_id":"6196c704dc628f99a4aa56b9","condition":"contingent","relevant_dimensions":["antennae","legs"],"bee_group":{"antennae":"B","wings":"X","pattern":"X","legs":"F"},"action":"avoid","summary":"bad-avoid","bonus":0},{"rt":1677.3000000044703,"stimulus":"\n                    <p><b>Action: <em>avoid</em></b></p>\n                    <p>This is the bee that you just saw.</p>\n                    <img src=\"bees-with-color/bee-A1DF.svg\" width=\"200\">\n                    <p><br>Your bonus pay is unchanged, and remains at $0.60.</p>\n            ","response":0,"trial_type":"html-button-response","trial_index":42,"time_elapsed":402937,"internal_node_id":"0.0-4.0-1.17","subject_id":"615c0bdd5dfdf4c8af71d50b","study_id":"60edd13110225f80f9f3709b","session_id":"6196c704dc628f99a4aa56b9","condition":"contingent","relevant_dimensions":["antennae","legs"],"bee_group":{"antennae":"B","wings":"X","pattern":"X","legs":"F"},"bonus":0},{"rt":2907.2999999970198,"stimulus":"bees-with-color/bee-B2SM.svg","response":0,"trial_type":"image-button-response","trial_index":43,"time_elapsed":405846,"internal_node_id":"0.0-4.0-0.18","subject_id":"615c0bdd5dfdf4c8af71d50b","study_id":"60edd13110225f80f9f3709b","session_id":"6196c704dc628f99a4aa56b9","condition":"contingent","relevant_dimensions":["antennae","legs"],"bee_group":{"antennae":"B","wings":"X","pattern":"X","legs":"F"},"action":"harvest","summary":"good-harvest","bonus":0},{"rt":1558.6000000014901,"stimulus":"\n                    <p><b>Action: <em>harvest</em></b></p>\n                    <p>This is the bee that you just saw.</p>\n                    <img src=\"bees-with-color/bee-B2SM.svg\" width=\"200\">\n                    <p><span class=\"greenText\"><b>Successful harvest!</b></span><br>Your pay has increased by $0.02. Your bonus pay is now $0.62.</p>\n            ","response":0,"trial_type":"html-button-response","trial_index":44,"time_elapsed":407407,"internal_node_id":"0.0-4.0-1.18","subject_id":"615c0bdd5dfdf4c8af71d50b","study_id":"60edd13110225f80f9f3709b","session_id":"6196c704dc628f99a4aa56b9","condition":"contingent","relevant_dimensions":["antennae","legs"],"bee_group":{"antennae":"B","wings":"X","pattern":"X","legs":"F"},"bonus":0},{"rt":3952.5,"stimulus":"bees-with-color/bee-B2DF.svg","response":0,"trial_type":"image-button-response","trial_index":45,"time_elapsed":411363,"internal_node_id":"0.0-4.0-0.19","subject_id":"615c0bdd5dfdf4c8af71d50b","study_id":"60edd13110225f80f9f3709b","session_id":"6196c704dc628f99a4aa56b9","condition":"contingent","relevant_dimensions":["antennae","legs"],"bee_group":{"antennae":"B","wings":"X","pattern":"X","legs":"F"},"action":"harvest","summary":"bad-harvest","bonus":0},{"rt":1696.2000000029802,"stimulus":"\n                    <p><b>Action: <em>harvest</em></b></p>\n                    <p>This is the bee that you just saw.</p>\n                    <img src=\"bees-with-color/bee-B2DF.svg\" width=\"200\">\n                    <p><span class=\"redText\">Bad choice, the bee was angry.</span><br><b>You have been stung!</b><br>Your pay has been decreased by $0.10. Your bonus pay is now $0.52.</p>\n            ","response":0,"trial_type":"html-button-response","trial_index":46,"time_elapsed":413062,"internal_node_id":"0.0-4.0-1.19","subject_id":"615c0bdd5dfdf4c8af71d50b","study_id":"60edd13110225f80f9f3709b","session_id":"6196c704dc628f99a4aa56b9","condition":"contingent","relevant_dimensions":["antennae","legs"],"bee_group":{"antennae":"B","wings":"X","pattern":"X","legs":"F"},"bonus":0},{"rt":5588.79999999702,"stimulus":"bees-with-color/bee-B1DF.svg","response":0,"trial_type":"image-button-response","trial_index":47,"time_elapsed":418655,"internal_node_id":"0.0-4.0-0.20","subject_id":"615c0bdd5dfdf4c8af71d50b","study_id":"60edd13110225f80f9f3709b","session_id":"6196c704dc628f99a4aa56b9","condition":"contingent","relevant_dimensions":["antennae","legs"],"bee_group":{"antennae":"B","wings":"X","pattern":"X","legs":"F"},"action":"harvest","summary":"bad-harvest","bonus":0},{"rt":2041.6999999955297,"stimulus":"\n                    <p><b>Action: <em>harvest</em></b></p>\n                    <p>This is the bee that you just saw.</p>\n                    <img src=\"bees-with-color/bee-B1DF.svg\" width=\"200\">\n                    <p><span class=\"redText\">Bad choice, the bee was angry.</span><br><b>You have been stung!</b><br>Your pay has been decreased by $0.10. Your bonus pay is now $0.42.</p>\n            ","response":0,"trial_type":"html-button-response","trial_index":48,"time_elapsed":420699,"internal_node_id":"0.0-4.0-1.20","subject_id":"615c0bdd5dfdf4c8af71d50b","study_id":"60edd13110225f80f9f3709b","session_id":"6196c704dc628f99a4aa56b9","condition":"contingent","relevant_dimensions":["antennae","legs"],"bee_group":{"antennae":"B","wings":"X","pattern":"X","legs":"F"},"bonus":0},{"rt":1836.1000000014901,"stimulus":"bees-with-color/bee-B1DM.svg","response":0,"trial_type":"image-button-response","trial_index":49,"time_elapsed":422539,"internal_node_id":"0.0-4.0-0.21","subject_id":"615c0bdd5dfdf4c8af71d50b","study_id":"60edd13110225f80f9f3709b","session_id":"6196c704dc628f99a4aa56b9","condition":"contingent","relevant_dimensions":["antennae","legs"],"bee_group":{"antennae":"B","wings":"X","pattern":"X","legs":"F"},"action":"harvest","summary":"good-harvest","bonus":0},{"rt":1609.8000000044703,"stimulus":"\n                    <p><b>Action: <em>harvest</em></b></p>\n                    <p>This is the bee that you just saw.</p>\n                    <img src=\"bees-with-color/bee-B1DM.svg\" width=\"200\">\n                    <p><span class=\"greenText\"><b>Successful harvest!</b></span><br>Your pay has increased by $0.02. Your bonus pay is now $0.44.</p>\n            ","response":0,"trial_type":"html-button-response","trial_index":50,"time_elapsed":424151,"internal_node_id":"0.0-4.0-1.21","subject_id":"615c0bdd5dfdf4c8af71d50b","study_id":"60edd13110225f80f9f3709b","session_id":"6196c704dc628f99a4aa56b9","condition":"contingent","relevant_dimensions":["antennae","legs"],"bee_group":{"antennae":"B","wings":"X","pattern":"X","legs":"F"},"bonus":0},{"rt":2813.89999999851,"stimulus":"bees-with-color/bee-A2SM.svg","response":0,"trial_type":"image-button-response","trial_index":51,"time_elapsed":426968,"internal_node_id":"0.0-4.0-0.22","subject_id":"615c0bdd5dfdf4c8af71d50b","study_id":"60edd13110225f80f9f3709b","session_id":"6196c704dc628f99a4aa56b9","condition":"contingent","relevant_dimensions":["antennae","legs"],"bee_group":{"antennae":"B","wings":"X","pattern":"X","legs":"F"},"action":"harvest","summary":"good-harvest","bonus":0},{"rt":1792.8999999985099,"stimulus":"\n                    <p><b>Action: <em>harvest</em></b></p>\n                    <p>This is the bee that you just saw.</p>\n                    <img src=\"bees-with-color/bee-A2SM.svg\" width=\"200\">\n                    <p><span class=\"greenText\"><b>Successful harvest!</b></span><br>Your pay has increased by $0.02. Your bonus pay is now $0.46.</p>\n            ","response":0,"trial_type":"html-button-response","trial_index":52,"time_elapsed":428763,"internal_node_id":"0.0-4.0-1.22","subject_id":"615c0bdd5dfdf4c8af71d50b","study_id":"60edd13110225f80f9f3709b","session_id":"6196c704dc628f99a4aa56b9","condition":"contingent","relevant_dimensions":["antennae","legs"],"bee_group":{"antennae":"B","wings":"X","pattern":"X","legs":"F"},"bonus":0},{"rt":2254.8000000044703,"stimulus":"bees-with-color/bee-A2DF.svg","response":1,"trial_type":"image-button-response","trial_index":53,"time_elapsed":431021,"internal_node_id":"0.0-4.0-0.23","subject_id":"615c0bdd5dfdf4c8af71d50b","study_id":"60edd13110225f80f9f3709b","session_id":"6196c704dc628f99a4aa56b9","condition":"contingent","relevant_dimensions":["antennae","legs"],"bee_group":{"antennae":"B","wings":"X","pattern":"X","legs":"F"},"action":"avoid","summary":"bad-avoid","bonus":0},{"rt":2224.8000000044703,"stimulus":"\n                    <p><b>Action: <em>avoid</em></b></p>\n                    <p>This is the bee that you just saw.</p>\n                    <img src=\"bees-with-color/bee-A2DF.svg\" width=\"200\">\n                    <p><br>Your bonus pay is unchanged, and remains at $0.46.</p>\n            ","response":0,"trial_type":"html-button-response","trial_index":54,"time_elapsed":433249,"internal_node_id":"0.0-4.0-1.23","subject_id":"615c0bdd5dfdf4c8af71d50b","study_id":"60edd13110225f80f9f3709b","session_id":"6196c704dc628f99a4aa56b9","condition":"contingent","relevant_dimensions":["antennae","legs"],"bee_group":{"antennae":"B","wings":"X","pattern":"X","legs":"F"},"bonus":0},{"rt":2330.60000000149,"stimulus":"bees-with-color/bee-B2DM.svg","response":0,"trial_type":"image-button-response","trial_index":55,"time_elapsed":435583,"internal_node_id":"0.0-4.0-0.24","subject_id":"615c0bdd5dfdf4c8af71d50b","study_id":"60edd13110225f80f9f3709b","session_id":"6196c704dc628f99a4aa56b9","condition":"contingent","relevant_dimensions":["antennae","legs"],"bee_group":{"antennae":"B","wings":"X","pattern":"X","legs":"F"},"action":"harvest","summary":"good-harvest","bonus":0},{"rt":1586.7999999970198,"stimulus":"\n                    <p><b>Action: <em>harvest</em></b></p>\n                    <p>This is the bee that you just saw.</p>\n                    <img src=\"bees-with-color/bee-B2DM.svg\" width=\"200\">\n                    <p><span class=\"greenText\"><b>Successful harvest!</b></span><br>Your pay has increased by $0.02. Your bonus pay is now $0.48.</p>\n            ","response":0,"trial_type":"html-button-response","trial_index":56,"time_elapsed":437172,"internal_node_id":"0.0-4.0-1.24","subject_id":"615c0bdd5dfdf4c8af71d50b","study_id":"60edd13110225f80f9f3709b","session_id":"6196c704dc628f99a4aa56b9","condition":"contingent","relevant_dimensions":["antennae","legs"],"bee_group":{"antennae":"B","wings":"X","pattern":"X","legs":"F"},"bonus":0},{"rt":2628.89999999851,"stimulus":"bees-with-color/bee-A2DM.svg","response":0,"trial_type":"image-button-response","trial_index":57,"time_elapsed":439805,"internal_node_id":"0.0-4.0-0.25","subject_id":"615c0bdd5dfdf4c8af71d50b","study_id":"60edd13110225f80f9f3709b","session_id":"6196c704dc628f99a4aa56b9","condition":"contingent","relevant_dimensions":["antennae","legs"],"bee_group":{"antennae":"B","wings":"X","pattern":"X","legs":"F"},"action":"harvest","summary":"good-harvest","bonus":0},{"rt":1559.0999999940395,"stimulus":"\n                    <p><b>Action: <em>harvest</em></b></p>\n                    <p>This is the bee that you just saw.</p>\n                    <img src=\"bees-with-color/bee-A2DM.svg\" width=\"200\">\n                    <p><span class=\"greenText\"><b>Successful harvest!</b></span><br>Your pay has increased by $0.02. Your bonus pay is now $0.50.</p>\n            ","response":0,"trial_type":"html-button-response","trial_index":58,"time_elapsed":441366,"internal_node_id":"0.0-4.0-1.25","subject_id":"615c0bdd5dfdf4c8af71d50b","study_id":"60edd13110225f80f9f3709b","session_id":"6196c704dc628f99a4aa56b9","condition":"contingent","relevant_dimensions":["antennae","legs"],"bee_group":{"antennae":"B","wings":"X","pattern":"X","legs":"F"},"bonus":0},{"rt":3905.60000000149,"stimulus":"bees-with-color/bee-A1DM.svg","response":1,"trial_type":"image-button-response","trial_index":59,"time_elapsed":445275,"internal_node_id":"0.0-4.0-0.26","subject_id":"615c0bdd5dfdf4c8af71d50b","study_id":"60edd13110225f80f9f3709b","session_id":"6196c704dc628f99a4aa56b9","condition":"contingent","relevant_dimensions":["antennae","legs"],"bee_group":{"antennae":"B","wings":"X","pattern":"X","legs":"F"},"action":"avoid","summary":"bad-avoid","bonus":0},{"rt":1683.6000000014901,"stimulus":"\n                    <p><b>Action: <em>avoid</em></b></p>\n                    <p>This is the bee that you just saw.</p>\n                    <img src=\"bees-with-color/bee-A1DM.svg\" width=\"200\">\n                    <p><br>Your bonus pay is unchanged, and remains at $0.50.</p>\n            ","response":0,"trial_type":"html-button-response","trial_index":60,"time_elapsed":446962,"internal_node_id":"0.0-4.0-1.26","subject_id":"615c0bdd5dfdf4c8af71d50b","study_id":"60edd13110225f80f9f3709b","session_id":"6196c704dc628f99a4aa56b9","condition":"contingent","relevant_dimensions":["antennae","legs"],"bee_group":{"antennae":"B","wings":"X","pattern":"X","legs":"F"},"bonus":0},{"rt":1940.3000000044703,"stimulus":"bees-with-color/bee-B1SF.svg","response":0,"trial_type":"image-button-response","trial_index":61,"time_elapsed":448906,"internal_node_id":"0.0-4.0-0.27","subject_id":"615c0bdd5dfdf4c8af71d50b","study_id":"60edd13110225f80f9f3709b","session_id":"6196c704dc628f99a4aa56b9","condition":"contingent","relevant_dimensions":["antennae","legs"],"bee_group":{"antennae":"B","wings":"X","pattern":"X","legs":"F"},"action":"harvest","summary":"bad-harvest","bonus":0},{"rt":2006.8000000044703,"stimulus":"\n                    <p><b>Action: <em>harvest</em></b></p>\n                    <p>This is the bee that you just saw.</p>\n                    <img src=\"bees-with-color/bee-B1SF.svg\" width=\"200\">\n                    <p><span class=\"redText\">Bad choice, the bee was angry.</span><br><b>You have been stung!</b><br>Your pay has been decreased by $0.10. Your bonus pay is now $0.40.</p>\n            ","response":0,"trial_type":"html-button-response","trial_index":62,"time_elapsed":450915,"internal_node_id":"0.0-4.0-1.27","subject_id":"615c0bdd5dfdf4c8af71d50b","study_id":"60edd13110225f80f9f3709b","session_id":"6196c704dc628f99a4aa56b9","condition":"contingent","relevant_dimensions":["antennae","legs"],"bee_group":{"antennae":"B","wings":"X","pattern":"X","legs":"F"},"bonus":0},{"rt":4073,"stimulus":"bees-with-color/bee-B2SF.svg","response":0,"trial_type":"image-button-response","trial_index":63,"time_elapsed":454992,"internal_node_id":"0.0-4.0-0.28","subject_id":"615c0bdd5dfdf4c8af71d50b","study_id":"60edd13110225f80f9f3709b","session_id":"6196c704dc628f99a4aa56b9","condition":"contingent","relevant_dimensions":["antennae","legs"],"bee_group":{"antennae":"B","wings":"X","pattern":"X","legs":"F"},"action":"harvest","summary":"bad-harvest","bonus":0},{"rt":1667,"stimulus":"\n                    <p><b>Action: <em>harvest</em></b></p>\n                    <p>This is the bee that you just saw.</p>\n                    <img src=\"bees-with-color/bee-B2SF.svg\" width=\"200\">\n                    <p><span class=\"redText\">Bad choice, the bee was angry.</span><br><b>You have been stung!</b><br>Your pay has been decreased by $0.10. Your bonus pay is now $0.30.</p>\n            ","response":0,"trial_type":"html-button-response","trial_index":64,"time_elapsed":456661,"internal_node_id":"0.0-4.0-1.28","subject_id":"615c0bdd5dfdf4c8af71d50b","study_id":"60edd13110225f80f9f3709b","session_id":"6196c704dc628f99a4aa56b9","condition":"contingent","relevant_dimensions":["antennae","legs"],"bee_group":{"antennae":"B","wings":"X","pattern":"X","legs":"F"},"bonus":0},{"rt":4729.39999999851,"stimulus":"bees-with-color/bee-A1SF.svg","response":1,"trial_type":"image-button-response","trial_index":65,"time_elapsed":461394,"internal_node_id":"0.0-4.0-0.29","subject_id":"615c0bdd5dfdf4c8af71d50b","study_id":"60edd13110225f80f9f3709b","session_id":"6196c704dc628f99a4aa56b9","condition":"contingent","relevant_dimensions":["antennae","legs"],"bee_group":{"antennae":"B","wings":"X","pattern":"X","legs":"F"},"action":"avoid","summary":"bad-avoid","bonus":0},{"rt":2212.60000000149,"stimulus":"\n                    <p><b>Action: <em>avoid</em></b></p>\n                    <p>This is the bee that you just saw.</p>\n                    <img src=\"bees-with-color/bee-A1SF.svg\" width=\"200\">\n                    <p><br>Your bonus pay is unchanged, and remains at $0.30.</p>\n            ","response":0,"trial_type":"html-button-response","trial_index":66,"time_elapsed":463609,"internal_node_id":"0.0-4.0-1.29","subject_id":"615c0bdd5dfdf4c8af71d50b","study_id":"60edd13110225f80f9f3709b","session_id":"6196c704dc628f99a4aa56b9","condition":"contingent","relevant_dimensions":["antennae","legs"],"bee_group":{"antennae":"B","wings":"X","pattern":"X","legs":"F"},"bonus":0},{"rt":3876.2000000029802,"stimulus":"bees-with-color/bee-B1SM.svg","response":1,"trial_type":"image-button-response","trial_index":67,"time_elapsed":467488,"internal_node_id":"0.0-4.0-0.30","subject_id":"615c0bdd5dfdf4c8af71d50b","study_id":"60edd13110225f80f9f3709b","session_id":"6196c704dc628f99a4aa56b9","condition":"contingent","relevant_dimensions":["antennae","legs"],"bee_group":{"antennae":"B","wings":"X","pattern":"X","legs":"F"},"action":"avoid","summary":"bad-avoid","bonus":0},{"rt":1599.8999999985099,"stimulus":"\n                    <p><b>Action: <em>avoid</em></b></p>\n                    <p>This is the bee that you just saw.</p>\n                    <img src=\"bees-with-color/bee-B1SM.svg\" width=\"200\">\n                    <p><br>Your bonus pay is unchanged, and remains at $0.30.</p>\n            ","response":0,"trial_type":"html-button-response","trial_index":68,"time_elapsed":469091,"internal_node_id":"0.0-4.0-1.30","subject_id":"615c0bdd5dfdf4c8af71d50b","study_id":"60edd13110225f80f9f3709b","session_id":"6196c704dc628f99a4aa56b9","condition":"contingent","relevant_dimensions":["antennae","legs"],"bee_group":{"antennae":"B","wings":"X","pattern":"X","legs":"F"},"bonus":0},{"rt":2696.3000000044703,"stimulus":"bees-with-color/bee-A2SF.svg","response":0,"trial_type":"image-button-response","trial_index":69,"time_elapsed":471791,"internal_node_id":"0.0-4.0-0.31","subject_id":"615c0bdd5dfdf4c8af71d50b","study_id":"60edd13110225f80f9f3709b","session_id":"6196c704dc628f99a4aa56b9","condition":"contingent","relevant_dimensions":["antennae","legs"],"bee_group":{"antennae":"B","wings":"X","pattern":"X","legs":"F"},"action":"harvest","summary":"good-harvest","bonus":0},{"rt":1555.3999999985099,"stimulus":"\n                    <p><b>Action: <em>harvest</em></b></p>\n                    <p>This is the bee that you just saw.</p>\n                    <img src=\"bees-with-color/bee-A2SF.svg\" width=\"200\">\n                    <p><span class=\"greenText\"><b>Successful harvest!</b></span><br>Your pay has increased by $0.02. Your bonus pay is now $0.32.</p>\n            ","response":0,"trial_type":"html-button-response","trial_index":70,"time_elapsed":473349,"internal_node_id":"0.0-4.0-1.31","subject_id":"615c0bdd5dfdf4c8af71d50b","study_id":"60edd13110225f80f9f3709b","session_id":"6196c704dc628f99a4aa56b9","condition":"contingent","relevant_dimensions":["antennae","legs"],"bee_group":{"antennae":"B","wings":"X","pattern":"X","legs":"F"},"bonus":0},{"rt":3955.2000000029802,"stimulus":"bees-with-color/bee-B1DM.svg","response":1,"trial_type":"image-button-response","trial_index":71,"time_elapsed":477307,"internal_node_id":"0.0-4.0-0.32","subject_id":"615c0bdd5dfdf4c8af71d50b","study_id":"60edd13110225f80f9f3709b","session_id":"6196c704dc628f99a4aa56b9","condition":"contingent","relevant_dimensions":["antennae","legs"],"bee_group":{"antennae":"B","wings":"X","pattern":"X","legs":"F"},"action":"avoid","summary":"bad-avoid","bonus":0},{"rt":1483.7000000029802,"stimulus":"\n                    <p><b>Action: <em>avoid</em></b></p>\n                    <p>This is the bee that you just saw.</p>\n                    <img src=\"bees-with-color/bee-B1DM.svg\" width=\"200\">\n                    <p><br>Your bonus pay is unchanged, and remains at $0.32.</p>\n            ","response":0,"trial_type":"html-button-response","trial_index":72,"time_elapsed":478794,"internal_node_id":"0.0-4.0-1.32","subject_id":"615c0bdd5dfdf4c8af71d50b","study_id":"60edd13110225f80f9f3709b","session_id":"6196c704dc628f99a4aa56b9","condition":"contingent","relevant_dimensions":["antennae","legs"],"bee_group":{"antennae":"B","wings":"X","pattern":"X","legs":"F"},"bonus":0},{"rt":2664.2999999970198,"stimulus":"bees-with-color/bee-A2SF.svg","response":0,"trial_type":"image-button-response","trial_index":73,"time_elapsed":481461,"internal_node_id":"0.0-4.0-0.33","subject_id":"615c0bdd5dfdf4c8af71d50b","study_id":"60edd13110225f80f9f3709b","session_id":"6196c704dc628f99a4aa56b9","condition":"contingent","relevant_dimensions":["antennae","legs"],"bee_group":{"antennae":"B","wings":"X","pattern":"X","legs":"F"},"action":"harvest","summary":"good-harvest","bonus":0},{"rt":1635.1000000014901,"stimulus":"\n                    <p><b>Action: <em>harvest</em></b></p>\n                    <p>This is the bee that you just saw.</p>\n                    <img src=\"bees-with-color/bee-A2SF.svg\" width=\"200\">\n                    <p><span class=\"greenText\"><b>Successful harvest!</b></span><br>Your pay has increased by $0.02. Your bonus pay is now $0.34.</p>\n            ","response":0,"trial_type":"html-button-response","trial_index":74,"time_elapsed":483099,"internal_node_id":"0.0-4.0-1.33","subject_id":"615c0bdd5dfdf4c8af71d50b","study_id":"60edd13110225f80f9f3709b","session_id":"6196c704dc628f99a4aa56b9","condition":"contingent","relevant_dimensions":["antennae","legs"],"bee_group":{"antennae":"B","wings":"X","pattern":"X","legs":"F"},"bonus":0},{"rt":1708.7000000029802,"stimulus":"bees-with-color/bee-B1SF.svg","response":1,"trial_type":"image-button-response","trial_index":75,"time_elapsed":484811,"internal_node_id":"0.0-4.0-0.34","subject_id":"615c0bdd5dfdf4c8af71d50b","study_id":"60edd13110225f80f9f3709b","session_id":"6196c704dc628f99a4aa56b9","condition":"contingent","relevant_dimensions":["antennae","legs"],"bee_group":{"antennae":"B","wings":"X","pattern":"X","legs":"F"},"action":"avoid","summary":"good-avoid","bonus":0},{"rt":2128.10000000149,"stimulus":"\n                    <p><b>Action: <em>avoid</em></b></p>\n                    <p>This is the bee that you just saw.</p>\n                    <img src=\"bees-with-color/bee-B1SF.svg\" width=\"200\">\n                    <p><br>Your bonus pay is unchanged, and remains at $0.34.</p>\n            ","response":0,"trial_type":"html-button-response","trial_index":76,"time_elapsed":486942,"internal_node_id":"0.0-4.0-1.34","subject_id":"615c0bdd5dfdf4c8af71d50b","study_id":"60edd13110225f80f9f3709b","session_id":"6196c704dc628f99a4aa56b9","condition":"contingent","relevant_dimensions":["antennae","legs"],"bee_group":{"antennae":"B","wings":"X","pattern":"X","legs":"F"},"bonus":0},{"rt":2446,"stimulus":"bees-with-color/bee-A1SM.svg","response":0,"trial_type":"image-button-response","trial_index":77,"time_elapsed":489391,"internal_node_id":"0.0-4.0-0.35","subject_id":"615c0bdd5dfdf4c8af71d50b","study_id":"60edd13110225f80f9f3709b","session_id":"6196c704dc628f99a4aa56b9","condition":"contingent","relevant_dimensions":["antennae","legs"],"bee_group":{"antennae":"B","wings":"X","pattern":"X","legs":"F"},"action":"harvest","summary":"good-harvest","bonus":0},{"rt":1616.7000000029802,"stimulus":"\n                    <p><b>Action: <em>harvest</em></b></p>\n                    <p>This is the bee that you just saw.</p>\n                    <img src=\"bees-with-color/bee-A1SM.svg\" width=\"200\">\n                    <p><span class=\"greenText\"><b>Successful harvest!</b></span><br>Your pay has increased by $0.02. Your bonus pay is now $0.36.</p>\n            ","response":0,"trial_type":"html-button-response","trial_index":78,"time_elapsed":491011,"internal_node_id":"0.0-4.0-1.35","subject_id":"615c0bdd5dfdf4c8af71d50b","study_id":"60edd13110225f80f9f3709b","session_id":"6196c704dc628f99a4aa56b9","condition":"contingent","relevant_dimensions":["antennae","legs"],"bee_group":{"antennae":"B","wings":"X","pattern":"X","legs":"F"},"bonus":0},{"rt":4314.79999999702,"stimulus":"bees-with-color/bee-A2DF.svg","response":0,"trial_type":"image-button-response","trial_index":79,"time_elapsed":495329,"internal_node_id":"0.0-4.0-0.36","subject_id":"615c0bdd5dfdf4c8af71d50b","study_id":"60edd13110225f80f9f3709b","session_id":"6196c704dc628f99a4aa56b9","condition":"contingent","relevant_dimensions":["antennae","legs"],"bee_group":{"antennae":"B","wings":"X","pattern":"X","legs":"F"},"action":"harvest","summary":"good-harvest","bonus":0},{"rt":1586.1000000014901,"stimulus":"\n                    <p><b>Action: <em>harvest</em></b></p>\n                    <p>This is the bee that you just saw.</p>\n                    <img src=\"bees-with-color/bee-A2DF.svg\" width=\"200\">\n                    <p><span class=\"greenText\"><b>Successful harvest!</b></span><br>Your pay has increased by $0.02. Your bonus pay is now $0.38.</p>\n            ","response":0,"trial_type":"html-button-response","trial_index":80,"time_elapsed":496918,"internal_node_id":"0.0-4.0-1.36","subject_id":"615c0bdd5dfdf4c8af71d50b","study_id":"60edd13110225f80f9f3709b","session_id":"6196c704dc628f99a4aa56b9","condition":"contingent","relevant_dimensions":["antennae","legs"],"bee_group":{"antennae":"B","wings":"X","pattern":"X","legs":"F"},"bonus":0},{"rt":2364.89999999851,"stimulus":"bees-with-color/bee-A2SM.svg","response":1,"trial_type":"image-button-response","trial_index":81,"time_elapsed":499287,"internal_node_id":"0.0-4.0-0.37","subject_id":"615c0bdd5dfdf4c8af71d50b","study_id":"60edd13110225f80f9f3709b","session_id":"6196c704dc628f99a4aa56b9","condition":"contingent","relevant_dimensions":["antennae","legs"],"bee_group":{"antennae":"B","wings":"X","pattern":"X","legs":"F"},"action":"avoid","summary":"bad-avoid","bonus":0},{"rt":2367.6999999955297,"stimulus":"\n                    <p><b>Action: <em>avoid</em></b></p>\n                    <p>This is the bee that you just saw.</p>\n                    <img src=\"bees-with-color/bee-A2SM.svg\" width=\"200\">\n                    <p><br>Your bonus pay is unchanged, and remains at $0.38.</p>\n            ","response":0,"trial_type":"html-button-response","trial_index":82,"time_elapsed":501657,"internal_node_id":"0.0-4.0-1.37","subject_id":"615c0bdd5dfdf4c8af71d50b","study_id":"60edd13110225f80f9f3709b","session_id":"6196c704dc628f99a4aa56b9","condition":"contingent","relevant_dimensions":["antennae","legs"],"bee_group":{"antennae":"B","wings":"X","pattern":"X","legs":"F"},"bonus":0},{"rt":4037.2999999970198,"stimulus":"bees-with-color/bee-B2DF.svg","response":0,"trial_type":"image-button-response","trial_index":83,"time_elapsed":505698,"internal_node_id":"0.0-4.0-0.38","subject_id":"615c0bdd5dfdf4c8af71d50b","study_id":"60edd13110225f80f9f3709b","session_id":"6196c704dc628f99a4aa56b9","condition":"contingent","relevant_dimensions":["antennae","legs"],"bee_group":{"antennae":"B","wings":"X","pattern":"X","legs":"F"},"action":"harvest","summary":"bad-harvest","bonus":0},{"rt":2193.6999999955297,"stimulus":"\n                    <p><b>Action: <em>harvest</em></b></p>\n                    <p>This is the bee that you just saw.</p>\n                    <img src=\"bees-with-color/bee-B2DF.svg\" width=\"200\">\n                    <p><span class=\"redText\">Bad choice, the bee was angry.</span><br><b>You have been stung!</b><br>Your pay has been decreased by $0.10. Your bonus pay is now $0.28.</p>\n            ","response":0,"trial_type":"html-button-response","trial_index":84,"time_elapsed":507895,"internal_node_id":"0.0-4.0-1.38","subject_id":"615c0bdd5dfdf4c8af71d50b","study_id":"60edd13110225f80f9f3709b","session_id":"6196c704dc628f99a4aa56b9","condition":"contingent","relevant_dimensions":["antennae","legs"],"bee_group":{"antennae":"B","wings":"X","pattern":"X","legs":"F"},"bonus":0},{"rt":5373.0999999940395,"stimulus":"bees-with-color/bee-B1SM.svg","response":1,"trial_type":"image-button-response","trial_index":85,"time_elapsed":513271,"internal_node_id":"0.0-4.0-0.39","subject_id":"615c0bdd5dfdf4c8af71d50b","study_id":"60edd13110225f80f9f3709b","session_id":"6196c704dc628f99a4aa56b9","condition":"contingent","relevant_dimensions":["antennae","legs"],"bee_group":{"antennae":"B","wings":"X","pattern":"X","legs":"F"},"action":"avoid","summary":"bad-avoid","bonus":0},{"rt":8506.60000000149,"stimulus":"\n                    <p><b>Action: <em>avoid</em></b></p>\n                    <p>This is the bee that you just saw.</p>\n                    <img src=\"bees-with-color/bee-B1SM.svg\" width=\"200\">\n                    <p><br>Your bonus pay is unchanged, and remains at $0.28.</p>\n            ","response":0,"trial_type":"html-button-response","trial_index":86,"time_elapsed":521780,"internal_node_id":"0.0-4.0-1.39","subject_id":"615c0bdd5dfdf4c8af71d50b","study_id":"60edd13110225f80f9f3709b","session_id":"6196c704dc628f99a4aa56b9","condition":"contingent","relevant_dimensions":["antennae","legs"],"bee_group":{"antennae":"B","wings":"X","pattern":"X","legs":"F"},"bonus":0},{"rt":2947.39999999851,"stimulus":"bees-with-color/bee-B2DM.svg","response":1,"trial_type":"image-button-response","trial_index":87,"time_elapsed":524731,"internal_node_id":"0.0-4.0-0.40","subject_id":"615c0bdd5dfdf4c8af71d50b","study_id":"60edd13110225f80f9f3709b","session_id":"6196c704dc628f99a4aa56b9","condition":"contingent","relevant_dimensions":["antennae","legs"],"bee_group":{"antennae":"B","wings":"X","pattern":"X","legs":"F"},"action":"avoid","summary":"bad-avoid","bonus":0},{"rt":2010,"stimulus":"\n                    <p><b>Action: <em>avoid</em></b></p>\n                    <p>This is the bee that you just saw.</p>\n                    <img src=\"bees-with-color/bee-B2DM.svg\" width=\"200\">\n                    <p><br>Your bonus pay is unchanged, and remains at $0.28.</p>\n            ","response":0,"trial_type":"html-button-response","trial_index":88,"time_elapsed":526745,"internal_node_id":"0.0-4.0-1.40","subject_id":"615c0bdd5dfdf4c8af71d50b","study_id":"60edd13110225f80f9f3709b","session_id":"6196c704dc628f99a4aa56b9","condition":"contingent","relevant_dimensions":["antennae","legs"],"bee_group":{"antennae":"B","wings":"X","pattern":"X","legs":"F"},"bonus":0},{"rt":1708.6000000014901,"stimulus":"bees-with-color/bee-A1SF.svg","response":1,"trial_type":"image-button-response","trial_index":89,"time_elapsed":528456,"internal_node_id":"0.0-4.0-0.41","subject_id":"615c0bdd5dfdf4c8af71d50b","study_id":"60edd13110225f80f9f3709b","session_id":"6196c704dc628f99a4aa56b9","condition":"contingent","relevant_dimensions":["antennae","legs"],"bee_group":{"antennae":"B","wings":"X","pattern":"X","legs":"F"},"action":"avoid","summary":"bad-avoid","bonus":0},{"rt":2310.10000000149,"stimulus":"\n                    <p><b>Action: <em>avoid</em></b></p>\n                    <p>This is the bee that you just saw.</p>\n                    <img src=\"bees-with-color/bee-A1SF.svg\" width=\"200\">\n                    <p><br>Your bonus pay is unchanged, and remains at $0.28.</p>\n            ","response":0,"trial_type":"html-button-response","trial_index":90,"time_elapsed":530768,"internal_node_id":"0.0-4.0-1.41","subject_id":"615c0bdd5dfdf4c8af71d50b","study_id":"60edd13110225f80f9f3709b","session_id":"6196c704dc628f99a4aa56b9","condition":"contingent","relevant_dimensions":["antennae","legs"],"bee_group":{"antennae":"B","wings":"X","pattern":"X","legs":"F"},"bonus":0},{"rt":3771.2999999970198,"stimulus":"bees-with-color/bee-A1DF.svg","response":1,"trial_type":"image-button-response","trial_index":91,"time_elapsed":534542,"internal_node_id":"0.0-4.0-0.42","subject_id":"615c0bdd5dfdf4c8af71d50b","study_id":"60edd13110225f80f9f3709b","session_id":"6196c704dc628f99a4aa56b9","condition":"contingent","relevant_dimensions":["antennae","legs"],"bee_group":{"antennae":"B","wings":"X","pattern":"X","legs":"F"},"action":"avoid","summary":"bad-avoid","bonus":0},{"rt":2020.2000000029802,"stimulus":"\n                    <p><b>Action: <em>avoid</em></b></p>\n                    <p>This is the bee that you just saw.</p>\n                    <img src=\"bees-with-color/bee-A1DF.svg\" width=\"200\">\n                    <p><br>Your bonus pay is unchanged, and remains at $0.28.</p>\n            ","response":0,"trial_type":"html-button-response","trial_index":92,"time_elapsed":536565,"internal_node_id":"0.0-4.0-1.42","subject_id":"615c0bdd5dfdf4c8af71d50b","study_id":"60edd13110225f80f9f3709b","session_id":"6196c704dc628f99a4aa56b9","condition":"contingent","relevant_dimensions":["antennae","legs"],"bee_group":{"antennae":"B","wings":"X","pattern":"X","legs":"F"},"bonus":0},{"rt":1969.3999999985099,"stimulus":"bees-with-color/bee-B2SF.svg","response":0,"trial_type":"image-button-response","trial_index":93,"time_elapsed":538538,"internal_node_id":"0.0-4.0-0.43","subject_id":"615c0bdd5dfdf4c8af71d50b","study_id":"60edd13110225f80f9f3709b","session_id":"6196c704dc628f99a4aa56b9","condition":"contingent","relevant_dimensions":["antennae","legs"],"bee_group":{"antennae":"B","wings":"X","pattern":"X","legs":"F"},"action":"harvest","summary":"bad-harvest","bonus":0},{"rt":2036,"stimulus":"\n                    <p><b>Action: <em>harvest</em></b></p>\n                    <p>This is the bee that you just saw.</p>\n                    <img src=\"bees-with-color/bee-B2SF.svg\" width=\"200\">\n                    <p><span class=\"redText\">Bad choice, the bee was angry.</span><br><b>You have been stung!</b><br>Your pay has been decreased by $0.10. Your bonus pay is now $0.18.</p>\n            ","response":0,"trial_type":"html-button-response","trial_index":94,"time_elapsed":540576,"internal_node_id":"0.0-4.0-1.43","subject_id":"615c0bdd5dfdf4c8af71d50b","study_id":"60edd13110225f80f9f3709b","session_id":"6196c704dc628f99a4aa56b9","condition":"contingent","relevant_dimensions":["antennae","legs"],"bee_group":{"antennae":"B","wings":"X","pattern":"X","legs":"F"},"bonus":0},{"rt":1381.2000000029802,"stimulus":"bees-with-color/bee-B2SM.svg","response":1,"trial_type":"image-button-response","trial_index":95,"time_elapsed":541961,"internal_node_id":"0.0-4.0-0.44","subject_id":"615c0bdd5dfdf4c8af71d50b","study_id":"60edd13110225f80f9f3709b","session_id":"6196c704dc628f99a4aa56b9","condition":"contingent","relevant_dimensions":["antennae","legs"],"bee_group":{"antennae":"B","wings":"X","pattern":"X","legs":"F"},"action":"avoid","summary":"bad-avoid","bonus":0},{"rt":1464.1000000014901,"stimulus":"\n                    <p><b>Action: <em>avoid</em></b></p>\n                    <p>This is the bee that you just saw.</p>\n                    <img src=\"bees-with-color/bee-B2SM.svg\" width=\"200\">\n                    <p><br>Your bonus pay is unchanged, and remains at $0.18.</p>\n            ","response":0,"trial_type":"html-button-response","trial_index":96,"time_elapsed":543427,"internal_node_id":"0.0-4.0-1.44","subject_id":"615c0bdd5dfdf4c8af71d50b","study_id":"60edd13110225f80f9f3709b","session_id":"6196c704dc628f99a4aa56b9","condition":"contingent","relevant_dimensions":["antennae","legs"],"bee_group":{"antennae":"B","wings":"X","pattern":"X","legs":"F"},"bonus":0},{"rt":1349.8000000044703,"stimulus":"bees-with-color/bee-B1DF.svg","response":1,"trial_type":"image-button-response","trial_index":97,"time_elapsed":544779,"internal_node_id":"0.0-4.0-0.45","subject_id":"615c0bdd5dfdf4c8af71d50b","study_id":"60edd13110225f80f9f3709b","session_id":"6196c704dc628f99a4aa56b9","condition":"contingent","relevant_dimensions":["antennae","legs"],"bee_group":{"antennae":"B","wings":"X","pattern":"X","legs":"F"},"action":"avoid","summary":"good-avoid","bonus":0},{"rt":1459.8999999985099,"stimulus":"\n                    <p><b>Action: <em>avoid</em></b></p>\n                    <p>This is the bee that you just saw.</p>\n                    <img src=\"bees-with-color/bee-B1DF.svg\" width=\"200\">\n                    <p><br>Your bonus pay is unchanged, and remains at $0.18.</p>\n            ","response":0,"trial_type":"html-button-response","trial_index":98,"time_elapsed":546242,"internal_node_id":"0.0-4.0-1.45","subject_id":"615c0bdd5dfdf4c8af71d50b","study_id":"60edd13110225f80f9f3709b","session_id":"6196c704dc628f99a4aa56b9","condition":"contingent","relevant_dimensions":["antennae","legs"],"bee_group":{"antennae":"B","wings":"X","pattern":"X","legs":"F"},"bonus":0},{"rt":2554.5,"stimulus":"bees-with-color/bee-A2DM.svg","response":1,"trial_type":"image-button-response","trial_index":99,"time_elapsed":548799,"internal_node_id":"0.0-4.0-0.46","subject_id":"615c0bdd5dfdf4c8af71d50b","study_id":"60edd13110225f80f9f3709b","session_id":"6196c704dc628f99a4aa56b9","condition":"contingent","relevant_dimensions":["antennae","legs"],"bee_group":{"antennae":"B","wings":"X","pattern":"X","legs":"F"},"action":"avoid","summary":"bad-avoid","bonus":0},{"rt":1363.1999999955297,"stimulus":"\n                    <p><b>Action: <em>avoid</em></b></p>\n                    <p>This is the bee that you just saw.</p>\n                    <img src=\"bees-with-color/bee-A2DM.svg\" width=\"200\">\n                    <p><br>Your bonus pay is unchanged, and remains at $0.18.</p>\n            ","response":0,"trial_type":"html-button-response","trial_index":100,"time_elapsed":550165,"internal_node_id":"0.0-4.0-1.46","subject_id":"615c0bdd5dfdf4c8af71d50b","study_id":"60edd13110225f80f9f3709b","session_id":"6196c704dc628f99a4aa56b9","condition":"contingent","relevant_dimensions":["antennae","legs"],"bee_group":{"antennae":"B","wings":"X","pattern":"X","legs":"F"},"bonus":0},{"rt":3313,"stimulus":"bees-with-color/bee-A1DM.svg","response":0,"trial_type":"image-button-response","trial_index":101,"time_elapsed":553481,"internal_node_id":"0.0-4.0-0.47","subject_id":"615c0bdd5dfdf4c8af71d50b","study_id":"60edd13110225f80f9f3709b","session_id":"6196c704dc628f99a4aa56b9","condition":"contingent","relevant_dimensions":["antennae","legs"],"bee_group":{"antennae":"B","wings":"X","pattern":"X","legs":"F"},"action":"harvest","summary":"good-harvest","bonus":0},{"rt":1521.7999999970198,"stimulus":"\n                    <p><b>Action: <em>harvest</em></b></p>\n                    <p>This is the bee that you just saw.</p>\n                    <img src=\"bees-with-color/bee-A1DM.svg\" width=\"200\">\n                    <p><span class=\"greenText\"><b>Successful harvest!</b></span><br>Your pay has increased by $0.02. Your bonus pay is now $0.20.</p>\n            ","response":0,"trial_type":"html-button-response","trial_index":102,"time_elapsed":555005,"internal_node_id":"0.0-4.0-1.47","subject_id":"615c0bdd5dfdf4c8af71d50b","study_id":"60edd13110225f80f9f3709b","session_id":"6196c704dc628f99a4aa56b9","condition":"contingent","relevant_dimensions":["antennae","legs"],"bee_group":{"antennae":"B","wings":"X","pattern":"X","legs":"F"},"bonus":0},{"rt":3516.7000000029802,"stimulus":"bees-with-color/bee-A2SF.svg","response":0,"trial_type":"image-button-response","trial_index":103,"time_elapsed":558525,"internal_node_id":"0.0-4.0-0.48","subject_id":"615c0bdd5dfdf4c8af71d50b","study_id":"60edd13110225f80f9f3709b","session_id":"6196c704dc628f99a4aa56b9","condition":"contingent","relevant_dimensions":["antennae","legs"],"bee_group":{"antennae":"B","wings":"X","pattern":"X","legs":"F"},"action":"harvest","summary":"good-harvest","bonus":0},{"rt":1533.2000000029802,"stimulus":"\n                    <p><b>Action: <em>harvest</em></b></p>\n                    <p>This is the bee that you just saw.</p>\n                    <img src=\"bees-with-color/bee-A2SF.svg\" width=\"200\">\n                    <p><span class=\"greenText\"><b>Successful harvest!</b></span><br>Your pay has increased by $0.02. Your bonus pay is now $0.22.</p>\n            ","response":0,"trial_type":"html-button-response","trial_index":104,"time_elapsed":560061,"internal_node_id":"0.0-4.0-1.48","subject_id":"615c0bdd5dfdf4c8af71d50b","study_id":"60edd13110225f80f9f3709b","session_id":"6196c704dc628f99a4aa56b9","condition":"contingent","relevant_dimensions":["antennae","legs"],"bee_group":{"antennae":"B","wings":"X","pattern":"X","legs":"F"},"bonus":0},{"rt":2284,"stimulus":"bees-with-color/bee-B2SM.svg","response":1,"trial_type":"image-button-response","trial_index":105,"time_elapsed":562348,"internal_node_id":"0.0-4.0-0.49","subject_id":"615c0bdd5dfdf4c8af71d50b","study_id":"60edd13110225f80f9f3709b","session_id":"6196c704dc628f99a4aa56b9","condition":"contingent","relevant_dimensions":["antennae","legs"],"bee_group":{"antennae":"B","wings":"X","pattern":"X","legs":"F"},"action":"avoid","summary":"bad-avoid","bonus":0},{"rt":1834.1999999955297,"stimulus":"\n                    <p><b>Action: <em>avoid</em></b></p>\n                    <p>This is the bee that you just saw.</p>\n                    <img src=\"bees-with-color/bee-B2SM.svg\" width=\"200\">\n                    <p><br>Your bonus pay is unchanged, and remains at $0.22.</p>\n            ","response":0,"trial_type":"html-button-response","trial_index":106,"time_elapsed":564185,"internal_node_id":"0.0-4.0-1.49","subject_id":"615c0bdd5dfdf4c8af71d50b","study_id":"60edd13110225f80f9f3709b","session_id":"6196c704dc628f99a4aa56b9","condition":"contingent","relevant_dimensions":["antennae","legs"],"bee_group":{"antennae":"B","wings":"X","pattern":"X","legs":"F"},"bonus":0},{"rt":6761.80000000447,"stimulus":"bees-with-color/bee-A2SM.svg","response":0,"trial_type":"image-button-response","trial_index":107,"time_elapsed":570949,"internal_node_id":"0.0-4.0-0.50","subject_id":"615c0bdd5dfdf4c8af71d50b","study_id":"60edd13110225f80f9f3709b","session_id":"6196c704dc628f99a4aa56b9","condition":"contingent","relevant_dimensions":["antennae","legs"],"bee_group":{"antennae":"B","wings":"X","pattern":"X","legs":"F"},"action":"harvest","summary":"good-harvest","bonus":0},{"rt":1541.1000000014901,"stimulus":"\n                    <p><b>Action: <em>harvest</em></b></p>\n                    <p>This is the bee that you just saw.</p>\n                    <img src=\"bees-with-color/bee-A2SM.svg\" width=\"200\">\n                    <p><span class=\"greenText\"><b>Successful harvest!</b></span><br>Your pay has increased by $0.02. Your bonus pay is now $0.24.</p>\n            ","response":0,"trial_type":"html-button-response","trial_index":108,"time_elapsed":572493,"internal_node_id":"0.0-4.0-1.50","subject_id":"615c0bdd5dfdf4c8af71d50b","study_id":"60edd13110225f80f9f3709b","session_id":"6196c704dc628f99a4aa56b9","condition":"contingent","relevant_dimensions":["antennae","legs"],"bee_group":{"antennae":"B","wings":"X","pattern":"X","legs":"F"},"bonus":0},{"rt":1706.8000000044703,"stimulus":"bees-with-color/bee-B1SM.svg","response":1,"trial_type":"image-button-response","trial_index":109,"time_elapsed":574203,"internal_node_id":"0.0-4.0-0.51","subject_id":"615c0bdd5dfdf4c8af71d50b","study_id":"60edd13110225f80f9f3709b","session_id":"6196c704dc628f99a4aa56b9","condition":"contingent","relevant_dimensions":["antennae","legs"],"bee_group":{"antennae":"B","wings":"X","pattern":"X","legs":"F"},"action":"avoid","summary":"bad-avoid","bonus":0},{"rt":1555.3000000044703,"stimulus":"\n                    <p><b>Action: <em>avoid</em></b></p>\n                    <p>This is the bee that you just saw.</p>\n                    <img src=\"bees-with-color/bee-B1SM.svg\" width=\"200\">\n                    <p><br>Your bonus pay is unchanged, and remains at $0.24.</p>\n            ","response":0,"trial_type":"html-button-response","trial_index":110,"time_elapsed":575761,"internal_node_id":"0.0-4.0-1.51","subject_id":"615c0bdd5dfdf4c8af71d50b","study_id":"60edd13110225f80f9f3709b","session_id":"6196c704dc628f99a4aa56b9","condition":"contingent","relevant_dimensions":["antennae","legs"],"bee_group":{"antennae":"B","wings":"X","pattern":"X","legs":"F"},"bonus":0},{"rt":5673.29999999702,"stimulus":"bees-with-color/bee-A1SF.svg","response":1,"trial_type":"image-button-response","trial_index":111,"time_elapsed":581437,"internal_node_id":"0.0-4.0-0.52","subject_id":"615c0bdd5dfdf4c8af71d50b","study_id":"60edd13110225f80f9f3709b","session_id":"6196c704dc628f99a4aa56b9","condition":"contingent","relevant_dimensions":["antennae","legs"],"bee_group":{"antennae":"B","wings":"X","pattern":"X","legs":"F"},"action":"avoid","summary":"bad-avoid","bonus":0},{"rt":1772.7000000029802,"stimulus":"\n                    <p><b>Action: <em>avoid</em></b></p>\n                    <p>This is the bee that you just saw.</p>\n                    <img src=\"bees-with-color/bee-A1SF.svg\" width=\"200\">\n                    <p><br>Your bonus pay is unchanged, and remains at $0.24.</p>\n            ","response":0,"trial_type":"html-button-response","trial_index":112,"time_elapsed":583212,"internal_node_id":"0.0-4.0-1.52","subject_id":"615c0bdd5dfdf4c8af71d50b","study_id":"60edd13110225f80f9f3709b","session_id":"6196c704dc628f99a4aa56b9","condition":"contingent","relevant_dimensions":["antennae","legs"],"bee_group":{"antennae":"B","wings":"X","pattern":"X","legs":"F"},"bonus":0},{"rt":7365.5,"stimulus":"bees-with-color/bee-A2DM.svg","response":1,"trial_type":"image-button-response","trial_index":113,"time_elapsed":590581,"internal_node_id":"0.0-4.0-0.53","subject_id":"615c0bdd5dfdf4c8af71d50b","study_id":"60edd13110225f80f9f3709b","session_id":"6196c704dc628f99a4aa56b9","condition":"contingent","relevant_dimensions":["antennae","legs"],"bee_group":{"antennae":"B","wings":"X","pattern":"X","legs":"F"},"action":"avoid","summary":"bad-avoid","bonus":0},{"rt":1749.5999999940395,"stimulus":"\n                    <p><b>Action: <em>avoid</em></b></p>\n                    <p>This is the bee that you just saw.</p>\n                    <img src=\"bees-with-color/bee-A2DM.svg\" width=\"200\">\n                    <p><br>Your bonus pay is unchanged, and remains at $0.24.</p>\n            ","response":0,"trial_type":"html-button-response","trial_index":114,"time_elapsed":592333,"internal_node_id":"0.0-4.0-1.53","subject_id":"615c0bdd5dfdf4c8af71d50b","study_id":"60edd13110225f80f9f3709b","session_id":"6196c704dc628f99a4aa56b9","condition":"contingent","relevant_dimensions":["antennae","legs"],"bee_group":{"antennae":"B","wings":"X","pattern":"X","legs":"F"},"bonus":0},{"rt":2457.60000000149,"stimulus":"bees-with-color/bee-B2SF.svg","response":0,"trial_type":"image-button-response","trial_index":115,"time_elapsed":594794,"internal_node_id":"0.0-4.0-0.54","subject_id":"615c0bdd5dfdf4c8af71d50b","study_id":"60edd13110225f80f9f3709b","session_id":"6196c704dc628f99a4aa56b9","condition":"contingent","relevant_dimensions":["antennae","legs"],"bee_group":{"antennae":"B","wings":"X","pattern":"X","legs":"F"},"action":"harvest","summary":"bad-harvest","bonus":0},{"rt":1978.6000000014901,"stimulus":"\n                    <p><b>Action: <em>harvest</em></b></p>\n                    <p>This is the bee that you just saw.</p>\n                    <img src=\"bees-with-color/bee-B2SF.svg\" width=\"200\">\n                    <p><span class=\"redText\">Bad choice, the bee was angry.</span><br><b>You have been stung!</b><br>Your pay has been decreased by $0.10. Your bonus pay is now $0.14.</p>\n            ","response":0,"trial_type":"html-button-response","trial_index":116,"time_elapsed":596775,"internal_node_id":"0.0-4.0-1.54","subject_id":"615c0bdd5dfdf4c8af71d50b","study_id":"60edd13110225f80f9f3709b","session_id":"6196c704dc628f99a4aa56b9","condition":"contingent","relevant_dimensions":["antennae","legs"],"bee_group":{"antennae":"B","wings":"X","pattern":"X","legs":"F"},"bonus":0},{"rt":2826.2000000029802,"stimulus":"bees-with-color/bee-B1DF.svg","response":0,"trial_type":"image-button-response","trial_index":117,"time_elapsed":599605,"internal_node_id":"0.0-4.0-0.55","subject_id":"615c0bdd5dfdf4c8af71d50b","study_id":"60edd13110225f80f9f3709b","session_id":"6196c704dc628f99a4aa56b9","condition":"contingent","relevant_dimensions":["antennae","legs"],"bee_group":{"antennae":"B","wings":"X","pattern":"X","legs":"F"},"action":"harvest","summary":"bad-harvest","bonus":0},{"rt":1552.8999999985099,"stimulus":"\n                    <p><b>Action: <em>harvest</em></b></p>\n                    <p>This is the bee that you just saw.</p>\n                    <img src=\"bees-with-color/bee-B1DF.svg\" width=\"200\">\n                    <p><span class=\"redText\">Bad choice, the bee was angry.</span><br><b>You have been stung!</b><br>Your pay has been decreased by $0.10. Your bonus pay is now $0.04.</p>\n            ","response":0,"trial_type":"html-button-response","trial_index":118,"time_elapsed":601160,"internal_node_id":"0.0-4.0-1.55","subject_id":"615c0bdd5dfdf4c8af71d50b","study_id":"60edd13110225f80f9f3709b","session_id":"6196c704dc628f99a4aa56b9","condition":"contingent","relevant_dimensions":["antennae","legs"],"bee_group":{"antennae":"B","wings":"X","pattern":"X","legs":"F"},"bonus":0},{"rt":1552.5,"stimulus":"bees-with-color/bee-A1SM.svg","response":1,"trial_type":"image-button-response","trial_index":119,"time_elapsed":602716,"internal_node_id":"0.0-4.0-0.56","subject_id":"615c0bdd5dfdf4c8af71d50b","study_id":"60edd13110225f80f9f3709b","session_id":"6196c704dc628f99a4aa56b9","condition":"contingent","relevant_dimensions":["antennae","legs"],"bee_group":{"antennae":"B","wings":"X","pattern":"X","legs":"F"},"action":"avoid","summary":"bad-avoid","bonus":0},{"rt":4207.89999999851,"stimulus":"\n                    <p><b>Action: <em>avoid</em></b></p>\n                    <p>This is the bee that you just saw.</p>\n                    <img src=\"bees-with-color/bee-A1SM.svg\" width=\"200\">\n                    <p><br>Your bonus pay is unchanged, and remains at $0.04.</p>\n            ","response":0,"trial_type":"html-button-response","trial_index":120,"time_elapsed":606926,"internal_node_id":"0.0-4.0-1.56","subject_id":"615c0bdd5dfdf4c8af71d50b","study_id":"60edd13110225f80f9f3709b","session_id":"6196c704dc628f99a4aa56b9","condition":"contingent","relevant_dimensions":["antennae","legs"],"bee_group":{"antennae":"B","wings":"X","pattern":"X","legs":"F"},"bonus":0},{"rt":1880.3000000044703,"stimulus":"bees-with-color/bee-A2DF.svg","response":1,"trial_type":"image-button-response","trial_index":121,"time_elapsed":608810,"internal_node_id":"0.0-4.0-0.57","subject_id":"615c0bdd5dfdf4c8af71d50b","study_id":"60edd13110225f80f9f3709b","session_id":"6196c704dc628f99a4aa56b9","condition":"contingent","relevant_dimensions":["antennae","legs"],"bee_group":{"antennae":"B","wings":"X","pattern":"X","legs":"F"},"action":"avoid","summary":"bad-avoid","bonus":0},{"rt":2261.39999999851,"stimulus":"\n                    <p><b>Action: <em>avoid</em></b></p>\n                    <p>This is the bee that you just saw.</p>\n                    <img src=\"bees-with-color/bee-A2DF.svg\" width=\"200\">\n                    <p><br>Your bonus pay is unchanged, and remains at $0.04.</p>\n            ","response":0,"trial_type":"html-button-response","trial_index":122,"time_elapsed":611074,"internal_node_id":"0.0-4.0-1.57","subject_id":"615c0bdd5dfdf4c8af71d50b","study_id":"60edd13110225f80f9f3709b","session_id":"6196c704dc628f99a4aa56b9","condition":"contingent","relevant_dimensions":["antennae","legs"],"bee_group":{"antennae":"B","wings":"X","pattern":"X","legs":"F"},"bonus":0},{"rt":2272.89999999851,"stimulus":"bees-with-color/bee-A1DM.svg","response":1,"trial_type":"image-button-response","trial_index":123,"time_elapsed":613350,"internal_node_id":"0.0-4.0-0.58","subject_id":"615c0bdd5dfdf4c8af71d50b","study_id":"60edd13110225f80f9f3709b","session_id":"6196c704dc628f99a4aa56b9","condition":"contingent","relevant_dimensions":["antennae","legs"],"bee_group":{"antennae":"B","wings":"X","pattern":"X","legs":"F"},"action":"avoid","summary":"bad-avoid","bonus":0},{"rt":1661.8999999985099,"stimulus":"\n                    <p><b>Action: <em>avoid</em></b></p>\n                    <p>This is the bee that you just saw.</p>\n                    <img src=\"bees-with-color/bee-A1DM.svg\" width=\"200\">\n                    <p><br>Your bonus pay is unchanged, and remains at $0.04.</p>\n            ","response":0,"trial_type":"html-button-response","trial_index":124,"time_elapsed":615015,"internal_node_id":"0.0-4.0-1.58","subject_id":"615c0bdd5dfdf4c8af71d50b","study_id":"60edd13110225f80f9f3709b","session_id":"6196c704dc628f99a4aa56b9","condition":"contingent","relevant_dimensions":["antennae","legs"],"bee_group":{"antennae":"B","wings":"X","pattern":"X","legs":"F"},"bonus":0},{"rt":1617.5,"stimulus":"bees-with-color/bee-B1DM.svg","response":1,"trial_type":"image-button-response","trial_index":125,"time_elapsed":616635,"internal_node_id":"0.0-4.0-0.59","subject_id":"615c0bdd5dfdf4c8af71d50b","study_id":"60edd13110225f80f9f3709b","session_id":"6196c704dc628f99a4aa56b9","condition":"contingent","relevant_dimensions":["antennae","legs"],"bee_group":{"antennae":"B","wings":"X","pattern":"X","legs":"F"},"action":"avoid","summary":"bad-avoid","bonus":0},{"rt":1789.3999999985099,"stimulus":"\n                    <p><b>Action: <em>avoid</em></b></p>\n                    <p>This is the bee that you just saw.</p>\n                    <img src=\"bees-with-color/bee-B1DM.svg\" width=\"200\">\n                    <p><br>Your bonus pay is unchanged, and remains at $0.04.</p>\n            ","response":0,"trial_type":"html-button-response","trial_index":126,"time_elapsed":618427,"internal_node_id":"0.0-4.0-1.59","subject_id":"615c0bdd5dfdf4c8af71d50b","study_id":"60edd13110225f80f9f3709b","session_id":"6196c704dc628f99a4aa56b9","condition":"contingent","relevant_dimensions":["antennae","legs"],"bee_group":{"antennae":"B","wings":"X","pattern":"X","legs":"F"},"bonus":0},{"rt":2518.10000000149,"stimulus":"bees-with-color/bee-B2DF.svg","response":0,"trial_type":"image-button-response","trial_index":127,"time_elapsed":620949,"internal_node_id":"0.0-4.0-0.60","subject_id":"615c0bdd5dfdf4c8af71d50b","study_id":"60edd13110225f80f9f3709b","session_id":"6196c704dc628f99a4aa56b9","condition":"contingent","relevant_dimensions":["antennae","legs"],"bee_group":{"antennae":"B","wings":"X","pattern":"X","legs":"F"},"action":"harvest","summary":"bad-harvest","bonus":0},{"rt":3264.2999999970198,"stimulus":"\n                    <p><b>Action: <em>harvest</em></b></p>\n                    <p>This is the bee that you just saw.</p>\n                    <img src=\"bees-with-color/bee-B2DF.svg\" width=\"200\">\n                    <p><span class=\"redText\">Bad choice, the bee was angry.</span><br><b>You have been stung!</b><br>Your pay has been decreased by $0.10. Your bonus pay is now $0.00.</p>\n            ","response":0,"trial_type":"html-button-response","trial_index":128,"time_elapsed":624216,"internal_node_id":"0.0-4.0-1.60","subject_id":"615c0bdd5dfdf4c8af71d50b","study_id":"60edd13110225f80f9f3709b","session_id":"6196c704dc628f99a4aa56b9","condition":"contingent","relevant_dimensions":["antennae","legs"],"bee_group":{"antennae":"B","wings":"X","pattern":"X","legs":"F"},"bonus":0},{"rt":4859.9000000059605,"stimulus":"bees-with-color/bee-B1SF.svg","response":0,"trial_type":"image-button-response","trial_index":129,"time_elapsed":629079,"internal_node_id":"0.0-4.0-0.61","subject_id":"615c0bdd5dfdf4c8af71d50b","study_id":"60edd13110225f80f9f3709b","session_id":"6196c704dc628f99a4aa56b9","condition":"contingent","relevant_dimensions":["antennae","legs"],"bee_group":{"antennae":"B","wings":"X","pattern":"X","legs":"F"},"action":"harvest","summary":"bad-harvest","bonus":0},{"rt":1695.8000000044703,"stimulus":"\n                    <p><b>Action: <em>harvest</em></b></p>\n                    <p>This is the bee that you just saw.</p>\n                    <img src=\"bees-with-color/bee-B1SF.svg\" width=\"200\">\n                    <p><span class=\"redText\">Bad choice, the bee was angry.</span><br><b>You have been stung!</b><br>Your pay has been decreased by $0.10. Your bonus pay is now $0.00.</p>\n            ","response":0,"trial_type":"html-button-response","trial_index":130,"time_elapsed":630777,"internal_node_id":"0.0-4.0-1.61","subject_id":"615c0bdd5dfdf4c8af71d50b","study_id":"60edd13110225f80f9f3709b","session_id":"6196c704dc628f99a4aa56b9","condition":"contingent","relevant_dimensions":["antennae","legs"],"bee_group":{"antennae":"B","wings":"X","pattern":"X","legs":"F"},"bonus":0},{"rt":2860.5,"stimulus":"bees-with-color/bee-B2DM.svg","response":0,"trial_type":"image-button-response","trial_index":131,"time_elapsed":633642,"internal_node_id":"0.0-4.0-0.62","subject_id":"615c0bdd5dfdf4c8af71d50b","study_id":"60edd13110225f80f9f3709b","session_id":"6196c704dc628f99a4aa56b9","condition":"contingent","relevant_dimensions":["antennae","legs"],"bee_group":{"antennae":"B","wings":"X","pattern":"X","legs":"F"},"action":"harvest","summary":"good-harvest","bonus":0},{"rt":1800,"stimulus":"\n                    <p><b>Action: <em>harvest</em></b></p>\n                    <p>This is the bee that you just saw.</p>\n                    <img src=\"bees-with-color/bee-B2DM.svg\" width=\"200\">\n                    <p><span class=\"greenText\"><b>Successful harvest!</b></span><br>Your pay has increased by $0.02. Your bonus pay is now $0.02.</p>\n            ","response":0,"trial_type":"html-button-response","trial_index":132,"time_elapsed":635445,"internal_node_id":"0.0-4.0-1.62","subject_id":"615c0bdd5dfdf4c8af71d50b","study_id":"60edd13110225f80f9f3709b","session_id":"6196c704dc628f99a4aa56b9","condition":"contingent","relevant_dimensions":["antennae","legs"],"bee_group":{"antennae":"B","wings":"X","pattern":"X","legs":"F"},"bonus":0},{"rt":2565.2000000029802,"stimulus":"bees-with-color/bee-A1DF.svg","response":0,"trial_type":"image-button-response","trial_index":133,"time_elapsed":638014,"internal_node_id":"0.0-4.0-0.63","subject_id":"615c0bdd5dfdf4c8af71d50b","study_id":"60edd13110225f80f9f3709b","session_id":"6196c704dc628f99a4aa56b9","condition":"contingent","relevant_dimensions":["antennae","legs"],"bee_group":{"antennae":"B","wings":"X","pattern":"X","legs":"F"},"action":"harvest","summary":"good-harvest","bonus":0},{"rt":1728,"stimulus":"\n                    <p><b>Action: <em>harvest</em></b></p>\n                    <p>This is the bee that you just saw.</p>\n                    <img src=\"bees-with-color/bee-A1DF.svg\" width=\"200\">\n                    <p><span class=\"greenText\"><b>Successful harvest!</b></span><br>Your pay has increased by $0.02. Your bonus pay is now $0.04.</p>\n            ","response":0,"trial_type":"html-button-response","trial_index":134,"time_elapsed":639745,"internal_node_id":"0.0-4.0-1.63","subject_id":"615c0bdd5dfdf4c8af71d50b","study_id":"60edd13110225f80f9f3709b","session_id":"6196c704dc628f99a4aa56b9","condition":"contingent","relevant_dimensions":["antennae","legs"],"bee_group":{"antennae":"B","wings":"X","pattern":"X","legs":"F"},"bonus":0},{"rt":9915.20000000298,"stimulus":"You have completed the first part of this experiment.<br><br>You will now begin a shorter second part, in which you will receive no feedback.<br>The same rules regarding bonus pay apply.<br><br>Press any key to begin.","response":"m","trial_type":"html-keyboard-response","trial_index":135,"time_elapsed":649664,"internal_node_id":"0.0-5.0","subject_id":"615c0bdd5dfdf4c8af71d50b","study_id":"60edd13110225f80f9f3709b","session_id":"6196c704dc628f99a4aa56b9","condition":"contingent","relevant_dimensions":["antennae","legs"],"bee_group":{"antennae":"B","wings":"X","pattern":"X","legs":"F"},"bonus":0},{"rt":11393.40000000596,"stimulus":"bees-with-color/bee-B1DM.svg","response":1,"trial_type":"image-button-response","trial_index":136,"time_elapsed":661079,"internal_node_id":"0.0-6.0-0.0","subject_id":"615c0bdd5dfdf4c8af71d50b","study_id":"60edd13110225f80f9f3709b","session_id":"6196c704dc628f99a4aa56b9","condition":"contingent","relevant_dimensions":["antennae","legs"],"bee_group":{"antennae":"B","wings":"X","pattern":"X","legs":"F"},"bonus":0},{"rt":3225.1999999955297,"stimulus":"bees-with-color/bee-A2DF.svg","response":0,"trial_type":"image-button-response","trial_index":137,"time_elapsed":664310,"internal_node_id":"0.0-6.0-0.1","subject_id":"615c0bdd5dfdf4c8af71d50b","study_id":"60edd13110225f80f9f3709b","session_id":"6196c704dc628f99a4aa56b9","condition":"contingent","relevant_dimensions":["antennae","legs"],"bee_group":{"antennae":"B","wings":"X","pattern":"X","legs":"F"},"bonus":0},{"rt":1552.6000000014901,"stimulus":"bees-with-color/bee-A2DM.svg","response":1,"trial_type":"image-button-response","trial_index":138,"time_elapsed":665866,"internal_node_id":"0.0-6.0-0.2","subject_id":"615c0bdd5dfdf4c8af71d50b","study_id":"60edd13110225f80f9f3709b","session_id":"6196c704dc628f99a4aa56b9","condition":"contingent","relevant_dimensions":["antennae","legs"],"bee_group":{"antennae":"B","wings":"X","pattern":"X","legs":"F"},"bonus":0},{"rt":5585.70000000298,"stimulus":"bees-with-color/bee-A2SF.svg","response":0,"trial_type":"image-button-response","trial_index":139,"time_elapsed":671456,"internal_node_id":"0.0-6.0-0.3","subject_id":"615c0bdd5dfdf4c8af71d50b","study_id":"60edd13110225f80f9f3709b","session_id":"6196c704dc628f99a4aa56b9","condition":"contingent","relevant_dimensions":["antennae","legs"],"bee_group":{"antennae":"B","wings":"X","pattern":"X","legs":"F"},"bonus":0},{"rt":1913.8999999985099,"stimulus":"bees-with-color/bee-B2DF.svg","response":0,"trial_type":"image-button-response","trial_index":140,"time_elapsed":673375,"internal_node_id":"0.0-6.0-0.4","subject_id":"615c0bdd5dfdf4c8af71d50b","study_id":"60edd13110225f80f9f3709b","session_id":"6196c704dc628f99a4aa56b9","condition":"contingent","relevant_dimensions":["antennae","legs"],"bee_group":{"antennae":"B","wings":"X","pattern":"X","legs":"F"},"bonus":0},{"rt":1768.3999999985099,"stimulus":"bees-with-color/bee-A2SM.svg","response":1,"trial_type":"image-button-response","trial_index":141,"time_elapsed":675147,"internal_node_id":"0.0-6.0-0.5","subject_id":"615c0bdd5dfdf4c8af71d50b","study_id":"60edd13110225f80f9f3709b","session_id":"6196c704dc628f99a4aa56b9","condition":"contingent","relevant_dimensions":["antennae","legs"],"bee_group":{"antennae":"B","wings":"X","pattern":"X","legs":"F"},"bonus":0},{"rt":2147.10000000149,"stimulus":"bees-with-color/bee-B2SF.svg","response":1,"trial_type":"image-button-response","trial_index":142,"time_elapsed":677296,"internal_node_id":"0.0-6.0-0.6","subject_id":"615c0bdd5dfdf4c8af71d50b","study_id":"60edd13110225f80f9f3709b","session_id":"6196c704dc628f99a4aa56b9","condition":"contingent","relevant_dimensions":["antennae","legs"],"bee_group":{"antennae":"B","wings":"X","pattern":"X","legs":"F"},"bonus":0},{"rt":1286.6000000014901,"stimulus":"bees-with-color/bee-B1SM.svg","response":1,"trial_type":"image-button-response","trial_index":143,"time_elapsed":678586,"internal_node_id":"0.0-6.0-0.7","subject_id":"615c0bdd5dfdf4c8af71d50b","study_id":"60edd13110225f80f9f3709b","session_id":"6196c704dc628f99a4aa56b9","condition":"contingent","relevant_dimensions":["antennae","legs"],"bee_group":{"antennae":"B","wings":"X","pattern":"X","legs":"F"},"bonus":0},{"rt":2771.2999999970198,"stimulus":"bees-with-color/bee-A1DF.svg","response":1,"trial_type":"image-button-response","trial_index":144,"time_elapsed":681362,"internal_node_id":"0.0-6.0-0.8","subject_id":"615c0bdd5dfdf4c8af71d50b","study_id":"60edd13110225f80f9f3709b","session_id":"6196c704dc628f99a4aa56b9","condition":"contingent","relevant_dimensions":["antennae","legs"],"bee_group":{"antennae":"B","wings":"X","pattern":"X","legs":"F"},"bonus":0},{"rt":1321.6999999955297,"stimulus":"bees-with-color/bee-A1SM.svg","response":1,"trial_type":"image-button-response","trial_index":145,"time_elapsed":682689,"internal_node_id":"0.0-6.0-0.9","subject_id":"615c0bdd5dfdf4c8af71d50b","study_id":"60edd13110225f80f9f3709b","session_id":"6196c704dc628f99a4aa56b9","condition":"contingent","relevant_dimensions":["antennae","legs"],"bee_group":{"antennae":"B","wings":"X","pattern":"X","legs":"F"},"bonus":0},{"rt":1461,"stimulus":"bees-with-color/bee-A1DM.svg","response":1,"trial_type":"image-button-response","trial_index":146,"time_elapsed":684154,"internal_node_id":"0.0-6.0-0.10","subject_id":"615c0bdd5dfdf4c8af71d50b","study_id":"60edd13110225f80f9f3709b","session_id":"6196c704dc628f99a4aa56b9","condition":"contingent","relevant_dimensions":["antennae","legs"],"bee_group":{"antennae":"B","wings":"X","pattern":"X","legs":"F"},"bonus":0},{"rt":1778.8000000044703,"stimulus":"bees-with-color/bee-B2SM.svg","response":1,"trial_type":"image-button-response","trial_index":147,"time_elapsed":685935,"internal_node_id":"0.0-6.0-0.11","subject_id":"615c0bdd5dfdf4c8af71d50b","study_id":"60edd13110225f80f9f3709b","session_id":"6196c704dc628f99a4aa56b9","condition":"contingent","relevant_dimensions":["antennae","legs"],"bee_group":{"antennae":"B","wings":"X","pattern":"X","legs":"F"},"bonus":0},{"rt":1122.5,"stimulus":"bees-with-color/bee-B2DM.svg","response":1,"trial_type":"image-button-response","trial_index":148,"time_elapsed":687062,"internal_node_id":"0.0-6.0-0.12","subject_id":"615c0bdd5dfdf4c8af71d50b","study_id":"60edd13110225f80f9f3709b","session_id":"6196c704dc628f99a4aa56b9","condition":"contingent","relevant_dimensions":["antennae","legs"],"bee_group":{"antennae":"B","wings":"X","pattern":"X","legs":"F"},"bonus":0},{"rt":222.69999999552965,"stimulus":"bees-with-color/bee-B1SF.svg","response":1,"trial_type":"image-button-response","trial_index":149,"time_elapsed":687289,"internal_node_id":"0.0-6.0-0.13","subject_id":"615c0bdd5dfdf4c8af71d50b","study_id":"60edd13110225f80f9f3709b","session_id":"6196c704dc628f99a4aa56b9","condition":"contingent","relevant_dimensions":["antennae","legs"],"bee_group":{"antennae":"B","wings":"X","pattern":"X","legs":"F"},"bonus":0},{"rt":224.10000000149012,"stimulus":"bees-with-color/bee-A1SF.svg","response":1,"trial_type":"image-button-response","trial_index":150,"time_elapsed":687517,"internal_node_id":"0.0-6.0-0.14","subject_id":"615c0bdd5dfdf4c8af71d50b","study_id":"60edd13110225f80f9f3709b","session_id":"6196c704dc628f99a4aa56b9","condition":"contingent","relevant_dimensions":["antennae","legs"],"bee_group":{"antennae":"B","wings":"X","pattern":"X","legs":"F"},"bonus":0},{"rt":220.5,"stimulus":"bees-with-color/bee-B1DF.svg","response":1,"trial_type":"image-button-response","trial_index":151,"time_elapsed":687742,"internal_node_id":"0.0-6.0-0.15","subject_id":"615c0bdd5dfdf4c8af71d50b","study_id":"60edd13110225f80f9f3709b","session_id":"6196c704dc628f99a4aa56b9","condition":"contingent","relevant_dimensions":["antennae","legs"],"bee_group":{"antennae":"B","wings":"X","pattern":"X","legs":"F"},"bonus":0},{"rt":2721.5999999940395,"stimulus":"bees-with-color/bee-B1DF.svg","response":1,"trial_type":"image-button-response","trial_index":152,"time_elapsed":690466,"internal_node_id":"0.0-6.0-0.16","subject_id":"615c0bdd5dfdf4c8af71d50b","study_id":"60edd13110225f80f9f3709b","session_id":"6196c704dc628f99a4aa56b9","condition":"contingent","relevant_dimensions":["antennae","legs"],"bee_group":{"antennae":"B","wings":"X","pattern":"X","legs":"F"},"bonus":0},{"rt":1914.5,"stimulus":"bees-with-color/bee-B2DF.svg","response":0,"trial_type":"image-button-response","trial_index":153,"time_elapsed":692385,"internal_node_id":"0.0-6.0-0.17","subject_id":"615c0bdd5dfdf4c8af71d50b","study_id":"60edd13110225f80f9f3709b","session_id":"6196c704dc628f99a4aa56b9","condition":"contingent","relevant_dimensions":["antennae","legs"],"bee_group":{"antennae":"B","wings":"X","pattern":"X","legs":"F"},"bonus":0},{"rt":1511.3999999985099,"stimulus":"bees-with-color/bee-B1DM.svg","response":1,"trial_type":"image-button-response","trial_index":154,"time_elapsed":693899,"internal_node_id":"0.0-6.0-0.18","subject_id":"615c0bdd5dfdf4c8af71d50b","study_id":"60edd13110225f80f9f3709b","session_id":"6196c704dc628f99a4aa56b9","condition":"contingent","relevant_dimensions":["antennae","legs"],"bee_group":{"antennae":"B","wings":"X","pattern":"X","legs":"F"},"bonus":0},{"rt":2871,"stimulus":"bees-with-color/bee-A2SF.svg","response":0,"trial_type":"image-button-response","trial_index":155,"time_elapsed":696773,"internal_node_id":"0.0-6.0-0.19","subject_id":"615c0bdd5dfdf4c8af71d50b","study_id":"60edd13110225f80f9f3709b","session_id":"6196c704dc628f99a4aa56b9","condition":"contingent","relevant_dimensions":["antennae","legs"],"bee_group":{"antennae":"B","wings":"X","pattern":"X","legs":"F"},"bonus":0},{"rt":1182.7000000029802,"stimulus":"bees-with-color/bee-A1DF.svg","response":1,"trial_type":"image-button-response","trial_index":156,"time_elapsed":697958,"internal_node_id":"0.0-6.0-0.20","subject_id":"615c0bdd5dfdf4c8af71d50b","study_id":"60edd13110225f80f9f3709b","session_id":"6196c704dc628f99a4aa56b9","condition":"contingent","relevant_dimensions":["antennae","legs"],"bee_group":{"antennae":"B","wings":"X","pattern":"X","legs":"F"},"bonus":0},{"rt":1834,"stimulus":"bees-with-color/bee-B1SM.svg","response":1,"trial_type":"image-button-response","trial_index":157,"time_elapsed":699796,"internal_node_id":"0.0-6.0-0.21","subject_id":"615c0bdd5dfdf4c8af71d50b","study_id":"60edd13110225f80f9f3709b","session_id":"6196c704dc628f99a4aa56b9","condition":"contingent","relevant_dimensions":["antennae","legs"],"bee_group":{"antennae":"B","wings":"X","pattern":"X","legs":"F"},"bonus":0},{"rt":1740.2000000029802,"stimulus":"bees-with-color/bee-A1DM.svg","response":1,"trial_type":"image-button-response","trial_index":158,"time_elapsed":701539,"internal_node_id":"0.0-6.0-0.22","subject_id":"615c0bdd5dfdf4c8af71d50b","study_id":"60edd13110225f80f9f3709b","session_id":"6196c704dc628f99a4aa56b9","condition":"contingent","relevant_dimensions":["antennae","legs"],"bee_group":{"antennae":"B","wings":"X","pattern":"X","legs":"F"},"bonus":0},{"rt":5735.70000000298,"stimulus":"bees-with-color/bee-B2SM.svg","response":1,"trial_type":"image-button-response","trial_index":159,"time_elapsed":707278,"internal_node_id":"0.0-6.0-0.23","subject_id":"615c0bdd5dfdf4c8af71d50b","study_id":"60edd13110225f80f9f3709b","session_id":"6196c704dc628f99a4aa56b9","condition":"contingent","relevant_dimensions":["antennae","legs"],"bee_group":{"antennae":"B","wings":"X","pattern":"X","legs":"F"},"bonus":0},{"rt":6113.89999999851,"stimulus":"bees-with-color/bee-A1SM.svg","response":1,"trial_type":"image-button-response","trial_index":160,"time_elapsed":713396,"internal_node_id":"0.0-6.0-0.24","subject_id":"615c0bdd5dfdf4c8af71d50b","study_id":"60edd13110225f80f9f3709b","session_id":"6196c704dc628f99a4aa56b9","condition":"contingent","relevant_dimensions":["antennae","legs"],"bee_group":{"antennae":"B","wings":"X","pattern":"X","legs":"F"},"bonus":0},{"rt":1582.1000000014901,"stimulus":"bees-with-color/bee-A2DF.svg","response":0,"trial_type":"image-button-response","trial_index":161,"time_elapsed":714983,"internal_node_id":"0.0-6.0-0.25","subject_id":"615c0bdd5dfdf4c8af71d50b","study_id":"60edd13110225f80f9f3709b","session_id":"6196c704dc628f99a4aa56b9","condition":"contingent","relevant_dimensions":["antennae","legs"],"bee_group":{"antennae":"B","wings":"X","pattern":"X","legs":"F"},"bonus":0},{"rt":2066.8000000044703,"stimulus":"bees-with-color/bee-B2DM.svg","response":1,"trial_type":"image-button-response","trial_index":162,"time_elapsed":717053,"internal_node_id":"0.0-6.0-0.26","subject_id":"615c0bdd5dfdf4c8af71d50b","study_id":"60edd13110225f80f9f3709b","session_id":"6196c704dc628f99a4aa56b9","condition":"contingent","relevant_dimensions":["antennae","legs"],"bee_group":{"antennae":"B","wings":"X","pattern":"X","legs":"F"},"bonus":0},{"rt":4864.70000000298,"stimulus":"bees-with-color/bee-A2DM.svg","response":0,"trial_type":"image-button-response","trial_index":163,"time_elapsed":721920,"internal_node_id":"0.0-6.0-0.27","subject_id":"615c0bdd5dfdf4c8af71d50b","study_id":"60edd13110225f80f9f3709b","session_id":"6196c704dc628f99a4aa56b9","condition":"contingent","relevant_dimensions":["antennae","legs"],"bee_group":{"antennae":"B","wings":"X","pattern":"X","legs":"F"},"bonus":0},{"rt":1818.6000000014901,"stimulus":"bees-with-color/bee-A2SM.svg","response":1,"trial_type":"image-button-response","trial_index":164,"time_elapsed":723744,"internal_node_id":"0.0-6.0-0.28","subject_id":"615c0bdd5dfdf4c8af71d50b","study_id":"60edd13110225f80f9f3709b","session_id":"6196c704dc628f99a4aa56b9","condition":"contingent","relevant_dimensions":["antennae","legs"],"bee_group":{"antennae":"B","wings":"X","pattern":"X","legs":"F"},"bonus":0},{"rt":1459.5,"stimulus":"bees-with-color/bee-B1SF.svg","response":1,"trial_type":"image-button-response","trial_index":165,"time_elapsed":725206,"internal_node_id":"0.0-6.0-0.29","subject_id":"615c0bdd5dfdf4c8af71d50b","study_id":"60edd13110225f80f9f3709b","session_id":"6196c704dc628f99a4aa56b9","condition":"contingent","relevant_dimensions":["antennae","legs"],"bee_group":{"antennae":"B","wings":"X","pattern":"X","legs":"F"},"bonus":0},{"rt":2132.10000000149,"stimulus":"bees-with-color/bee-B2SF.svg","response":0,"trial_type":"image-button-response","trial_index":166,"time_elapsed":727342,"internal_node_id":"0.0-6.0-0.30","subject_id":"615c0bdd5dfdf4c8af71d50b","study_id":"60edd13110225f80f9f3709b","session_id":"6196c704dc628f99a4aa56b9","condition":"contingent","relevant_dimensions":["antennae","legs"],"bee_group":{"antennae":"B","wings":"X","pattern":"X","legs":"F"},"bonus":0},{"rt":1644.2999999970198,"stimulus":"bees-with-color/bee-A1SF.svg","response":1,"trial_type":"image-button-response","trial_index":167,"time_elapsed":728991,"internal_node_id":"0.0-6.0-0.31","subject_id":"615c0bdd5dfdf4c8af71d50b","study_id":"60edd13110225f80f9f3709b","session_id":"6196c704dc628f99a4aa56b9","condition":"contingent","relevant_dimensions":["antennae","legs"],"bee_group":{"antennae":"B","wings":"X","pattern":"X","legs":"F"},"bonus":0},{"rt":18967.39999999851,"stimulus":"You started with $2.50 of base pay.<br><br>\n            You made $0.00 in bonus pay,\n            for a total of <b>$2.50</b>.","response":0,"trial_type":"html-button-response","trial_index":168,"time_elapsed":747960,"internal_node_id":"0.0-7.0-0.0","subject_id":"615c0bdd5dfdf4c8af71d50b","study_id":"60edd13110225f80f9f3709b","session_id":"6196c704dc628f99a4aa56b9","condition":"contingent","relevant_dimensions":["antennae","legs"],"bee_group":{"antennae":"B","wings":"X","pattern":"X","legs":"F"},"bonus":0},{"rt":9774.39999999851,"response":{"percent-dangerous-bees":"50"},"trial_type":"survey-text","trial_index":169,"time_elapsed":757745,"internal_node_id":"0.0-7.0-1.0","subject_id":"615c0bdd5dfdf4c8af71d50b","study_id":"60edd13110225f80f9f3709b","session_id":"6196c704dc628f99a4aa56b9","condition":"contingent","relevant_