[{"success":true,"trial_type":"fullscreen","trial_index":0,"time_elapsed":15999,"internal_node_id":"0.0-0.0","subject_id":"610325a6052741bbfb84bcd1","study_id":"6197b3f67c2b5cd3b6d9596a","session_id":"619beeec466f487fe45684d8","condition":"contingent","relevant_dimensions":["antennae","pattern"],"bee_group":{"antennae":"B","wings":"X","pattern":"S","legs":"X"},"bonus":1.000000000000001},{"success":true,"timeout":false,"failed_images":[],"failed_audio":[],"failed_video":[],"trial_type":"preload","trial_index":1,"time_elapsed":16177,"internal_node_id":"0.0-1.0","subject_id":"610325a6052741bbfb84bcd1","study_id":"6197b3f67c2b5cd3b6d9596a","session_id":"619beeec466f487fe45684d8","condition":"contingent","relevant_dimensions":["antennae","pattern"],"bee_group":{"antennae":"B","wings":"X","pattern":"S","legs":"X"},"bonus":1.000000000000001},{"rt":17402.599999964237,"stimulus":"Welcome! Press any key to begin.","response":" ","trial_type":"html-keyboard-response","trial_index":2,"time_elapsed":33580,"internal_node_id":"0.0-2.0","subject_id":"610325a6052741bbfb84bcd1","study_id":"6197b3f67c2b5cd3b6d9596a","session_id":"619beeec466f487fe45684d8","condition":"contingent","relevant_dimensions":["antennae","pattern"],"bee_group":{"antennae":"B","wings":"X","pattern":"S","legs":"X"},"bonus":1.000000000000001},{"view_history":[{"page_index":0,"viewing_time":2765.899999976158},{"page_index":1,"viewing_time":6707.800000011921},{"page_index":2,"viewing_time":7932.699999988079},{"page_index":3,"viewing_time":9505.699999988079},{"page_index":4,"viewing_time":4304.800000011921},{"page_index":5,"viewing_time":4359},{"page_index":6,"viewing_time":4696.199999988079},{"page_index":7,"viewing_time":3859.600000023842},{"page_index":6,"viewing_time":4327.800000011921},{"page_index":7,"viewing_time":15570.5},{"page_index":8,"viewing_time":4566.899999976158},{"page_index":9,"viewing_time":2892.900000035763},{"page_index":10,"viewing_time":3290.899999976158},{"page_index":11,"viewing_time":20719.399999976158},{"page_index":12,"viewing_time":7330.700000047684},{"page_index":13,"viewing_time":1121},{"page_index":14,"viewing_time":2302.099999964237}],"rt":106254,"trial_type":"instructions","trial_index":3,"time_elapsed":139834,"internal_node_id":"0.0-3.0-0.0","subject_id":"610325a6052741bbfb84bcd1","study_id":"6197b3f67c2b5cd3b6d9596a","session_id":"619beeec466f487fe45684d8","condition":"contingent","relevant_dimensions":["antennae","pattern"],"bee_group":{"antennae":"B","wings":"X","pattern":"S","legs":"X"},"bonus":1.000000000000001},{"rt":8017.899999976158,"response":{"Q0":["Two or six legs","Stripes or spots on body","Single or double wings","Antennae or no antennae"]},"question_order":[0],"trial_type":"survey-multi-select","trial_index":4,"time_elapsed":147854,"internal_node_id":"0.0-3.0-1.0","subject_id":"610325a6052741bbfb84bcd1","study_id":"6197b3f67c2b5cd3b6d9596a","session_id":"619beeec466f487fe45684d8","condition":"contingent","relevant_dimensions":["antennae","pattern"],"bee_group":{"antennae":"B","wings":"X","pattern":"S","legs":"X"},"correct":true,"bonus":1.000000000000001},{"rt":21767.30000001192,"response":{"Q1":"No.","Q2":"Based on the four features of the bee.","Q3":"You do not learn if it was friendly or dangerous, and do not alter your bonus."},"question_order":[0,1,2],"trial_type":"survey-multi-choice","trial_index":5,"time_elapsed":169625,"internal_node_id":"0.0-3.0-2.0","subject_id":"610325a6052741bbfb84bcd1","study_id":"6197b3f67c2b5cd3b6d9596a","session_id":"619beeec466f487fe45684d8","condition":"contingent","relevant_dimensions":["antennae","pattern"],"bee_group":{"antennae":"B","wings":"X","pattern":"S","legs":"X"},"correct":true,"bonus":1.000000000000001},{"rt":3181,"stimulus":"<p>Congrats, you got everything right<br>When you're ready, click the button below to continue to the experiment.</p>","response":0,"trial_type":"html-button-response","trial_index":6,"time_elapsed":172808,"internal_node_id":"0.0-3.0-3.0","subject_id":"610325a6052741bbfb84bcd1","study_id":"6197b3f67c2b5cd3b6d9596a","session_id":"619beeec466f487fe45684d8","condition":"contingent","relevant_dimensions":["antennae","pattern"],"bee_group":{"antennae":"B","wings":"X","pattern":"S","legs":"X"},"bonus":1.000000000000001},{"rt":4415.300000011921,"stimulus":"bees-with-color/bee-B2SF.svg","response":0,"trial_type":"image-button-response","trial_index":7,"time_elapsed":177225,"internal_node_id":"0.0-4.0-0.0","subject_id":"610325a6052741bbfb84bcd1","study_id":"6197b3f67c2b5cd3b6d9596a","session_id":"619beeec466f487fe45684d8","condition":"contingent","relevant_dimensions":["antennae","pattern"],"bee_group":{"antennae":"B","wings":"X","pattern":"S","legs":"X"},"action":"harvest","summary":"bad-harvest","bonus":1.000000000000001},{"rt":47805.10000002384,"stimulus":"\n                    <p><b>Action: <em>harvest</em></b></p>\n                    <p>This is the bee that you just saw.</p>\n                    <img src=\"bees-with-color/bee-B2SF.svg\" width=\"200\">\n                    <p><span class=\"redText\">Bad choice, the bee was angry.</span><br><b>You have been stung!</b><br>Your pay has been decreased by $0.10. Your bonus pay is now $0.44.</p>\n            ","response":0,"trial_type":"html-button-response","trial_index":8,"time_elapsed":225032,"internal_node_id":"0.0-4.0-1.0","subject_id":"610325a6052741bbfb84bcd1","study_id":"6197b3f67c2b5cd3b6d9596a","session_id":"619beeec466f487fe45684d8","condition":"contingent","relevant_dimensions":["antennae","pattern"],"bee_group":{"antennae":"B","wings":"X","pattern":"S","legs":"X"},"bonus":1.000000000000001},{"rt":2080.5,"stimulus":"bees-with-color/bee-B2DM.svg","response":0,"trial_type":"image-button-response","trial_index":9,"time_elapsed":227114,"internal_node_id":"0.0-4.0-0.1","subject_id":"610325a6052741bbfb84bcd1","study_id":"6197b3f67c2b5cd3b6d9596a","session_id":"619beeec466f487fe45684d8","condition":"contingent","relevant_dimensions":["antennae","pattern"],"bee_group":{"antennae":"B","wings":"X","pattern":"S","legs":"X"},"action":"harvest","summary":"good-harvest","bonus":1.000000000000001},{"rt":29851.100000023842,"stimulus":"\n                    <p><b>Action: <em>harvest</em></b></p>\n                    <p>This is the bee that you just saw.</p>\n                    <img src=\"bees-with-color/bee-B2DM.svg\" width=\"200\">\n                    <p><span class=\"greenText\"><b>Successful harvest!</b></span><br>Your pay has increased by $0.02. Your bonus pay is now $0.46.</p>\n            ","response":0,"trial_type":"html-button-response","trial_index":10,"time_elapsed":256966,"internal_node_id":"0.0-4.0-1.1","subject_id":"610325a6052741bbfb84bcd1","study_id":"6197b3f67c2b5cd3b6d9596a","session_id":"619beeec466f487fe45684d8","condition":"contingent","relevant_dimensions":["antennae","pattern"],"bee_group":{"antennae":"B","wings":"X","pattern":"S","legs":"X"},"bonus":1.000000000000001},{"rt":1415.5,"stimulus":"bees-with-color/bee-A1SM.svg","response":0,"trial_type":"image-button-response","trial_index":11,"time_elapsed":258383,"internal_node_id":"0.0-4.0-0.2","subject_id":"610325a6052741bbfb84bcd1","study_id":"6197b3f67c2b5cd3b6d9596a","session_id":"619beeec466f487fe45684d8","condition":"contingent","relevant_dimensions":["antennae","pattern"],"bee_group":{"antennae":"B","wings":"X","pattern":"S","legs":"X"},"action":"harvest","summary":"good-harvest","bonus":1.000000000000001},{"rt":30061,"stimulus":"\n                    <p><b>Action: <em>harvest</em></b></p>\n                    <p>This is the bee that you just saw.</p>\n                    <img src=\"bees-with-color/bee-A1SM.svg\" width=\"200\">\n                    <p><span class=\"greenText\"><b>Successful harvest!</b></span><br>Your pay has increased by $0.02. Your bonus pay is now $0.48.</p>\n            ","response":0,"trial_type":"html-button-response","trial_index":12,"time_elapsed":288445,"internal_node_id":"0.0-4.0-1.2","subject_id":"610325a6052741bbfb84bcd1","study_id":"6197b3f67c2b5cd3b6d9596a","session_id":"619beeec466f487fe45684d8","condition":"contingent","relevant_dimensions":["antennae","pattern"],"bee_group":{"antennae":"B","wings":"X","pattern":"S","legs":"X"},"bonus":1.000000000000001},{"rt":1246.7000000476837,"stimulus":"bees-with-color/bee-A1SF.svg","response":1,"trial_type":"image-button-response","trial_index":13,"time_elapsed":289693,"internal_node_id":"0.0-4.0-0.3","subject_id":"610325a6052741bbfb84bcd1","study_id":"6197b3f67c2b5cd3b6d9596a","session_id":"619beeec466f487fe45684d8","condition":"contingent","relevant_dimensions":["antennae","pattern"],"bee_group":{"antennae":"B","wings":"X","pattern":"S","legs":"X"},"action":"avoid","summary":"bad-avoid","bonus":1.000000000000001},{"rt":6282.799999952316,"stimulus":"\n                    <p><b>Action: <em>avoid</em></b></p>\n                    <p>This is the bee that you just saw.</p>\n                    <img src=\"bees-with-color/bee-A1SF.svg\" width=\"200\">\n                    <p><br>Your bonus pay is unchanged, and remains at $0.48.</p>\n            ","response":0,"trial_type":"html-button-response","trial_index":14,"time_elapsed":295977,"internal_node_id":"0.0-4.0-1.3","subject_id":"610325a6052741bbfb84bcd1","study_id":"6197b3f67c2b5cd3b6d9596a","session_id":"619beeec466f487fe45684d8","condition":"contingent","relevant_dimensions":["antennae","pattern"],"bee_group":{"antennae":"B","wings":"X","pattern":"S","legs":"X"},"bonus":1.000000000000001},{"rt":2456.899999976158,"stimulus":"bees-with-color/bee-A2DF.svg","response":0,"trial_type":"image-button-response","trial_index":15,"time_elapsed":298435,"internal_node_id":"0.0-4.0-0.4","subject_id":"610325a6052741bbfb84bcd1","study_id":"6197b3f67c2b5cd3b6d9596a","session_id":"619beeec466f487fe45684d8","condition":"contingent","relevant_dimensions":["antennae","pattern"],"bee_group":{"antennae":"B","wings":"X","pattern":"S","legs":"X"},"action":"harvest","summary":"good-harvest","bonus":1.000000000000001},{"rt":20475.30000001192,"stimulus":"\n                    <p><b>Action: <em>harvest</em></b></p>\n                    <p>This is the bee that you just saw.</p>\n                    <img src=\"bees-with-color/bee-A2DF.svg\" width=\"200\">\n                    <p><span class=\"greenText\"><b>Successful harvest!</b></span><br>Your pay has increased by $0.02. Your bonus pay is now $0.50.</p>\n            ","response":0,"trial_type":"html-button-response","trial_index":16,"time_elapsed":318911,"internal_node_id":"0.0-4.0-1.4","subject_id":"610325a6052741bbfb84bcd1","study_id":"6197b3f67c2b5cd3b6d9596a","session_id":"619beeec466f487fe45684d8","condition":"contingent","relevant_dimensions":["antennae","pattern"],"bee_group":{"antennae":"B","wings":"X","pattern":"S","legs":"X"},"bonus":1.000000000000001},{"rt":4376.800000011921,"stimulus":"bees-with-color/bee-A1DF.svg","response":0,"trial_type":"image-button-response","trial_index":17,"time_elapsed":323289,"internal_node_id":"0.0-4.0-0.5","subject_id":"610325a6052741bbfb84bcd1","study_id":"6197b3f67c2b5cd3b6d9596a","session_id":"619beeec466f487fe45684d8","condition":"contingent","relevant_dimensions":["antennae","pattern"],"bee_group":{"antennae":"B","wings":"X","pattern":"S","legs":"X"},"action":"harvest","summary":"good-harvest","bonus":1.000000000000001},{"rt":5489,"stimulus":"\n                    <p><b>Action: <em>harvest</em></b></p>\n                    <p>This is the bee that you just saw.</p>\n                    <img src=\"bees-with-color/bee-A1DF.svg\" width=\"200\">\n                    <p><span class=\"greenText\"><b>Successful harvest!</b></span><br>Your pay has increased by $0.02. Your bonus pay is now $0.52.</p>\n            ","response":0,"trial_type":"html-button-response","trial_index":18,"time_elapsed":328779,"internal_node_id":"0.0-4.0-1.5","subject_id":"610325a6052741bbfb84bcd1","study_id":"6197b3f67c2b5cd3b6d9596a","session_id":"619beeec466f487fe45684d8","condition":"contingent","relevant_dimensions":["antennae","pattern"],"bee_group":{"antennae":"B","wings":"X","pattern":"S","legs":"X"},"bonus":1.000000000000001},{"rt":7065.399999976158,"stimulus":"bees-with-color/bee-A2DM.svg","response":0,"trial_type":"image-button-response","trial_index":19,"time_elapsed":335846,"internal_node_id":"0.0-4.0-0.6","subject_id":"610325a6052741bbfb84bcd1","study_id":"6197b3f67c2b5cd3b6d9596a","session_id":"619beeec466f487fe45684d8","condition":"contingent","relevant_dimensions":["antennae","pattern"],"bee_group":{"antennae":"B","wings":"X","pattern":"S","legs":"X"},"action":"harvest","summary":"good-harvest","bonus":1.000000000000001},{"rt":18032.599999964237,"stimulus":"\n                    <p><b>Action: <em>harvest</em></b></p>\n                    <p>This is the bee that you just saw.</p>\n                    <img src=\"bees-with-color/bee-A2DM.svg\" width=\"200\">\n                    <p><span class=\"greenText\"><b>Successful harvest!</b></span><br>Your pay has increased by $0.02. Your bonus pay is now $0.54.</p>\n            ","response":0,"trial_type":"html-button-response","trial_index":20,"time_elapsed":353879,"internal_node_id":"0.0-4.0-1.6","subject_id":"610325a6052741bbfb84bcd1","study_id":"6197b3f67c2b5cd3b6d9596a","session_id":"619beeec466f487fe45684d8","condition":"contingent","relevant_dimensions":["antennae","pattern"],"bee_group":{"antennae":"B","wings":"X","pattern":"S","legs":"X"},"bonus":1.000000000000001},{"rt":5723.699999988079,"stimulus":"bees-with-color/bee-B1SM.svg","response":0,"trial_type":"image-button-response","trial_index":21,"time_elapsed":359604,"internal_node_id":"0.0-4.0-0.7","subject_id":"610325a6052741bbfb84bcd1","study_id":"6197b3f67c2b5cd3b6d9596a","session_id":"619beeec466f487fe45684d8","condition":"contingent","relevant_dimensions":["antennae","pattern"],"bee_group":{"antennae":"B","wings":"X","pattern":"S","legs":"X"},"action":"harvest","summary":"bad-harvest","bonus":1.000000000000001},{"rt":25107.400000035763,"stimulus":"\n                    <p><b>Action: <em>harvest</em></b></p>\n                    <p>This is the bee that you just saw.</p>\n                    <img src=\"bees-with-color/bee-B1SM.svg\" width=\"200\">\n                    <p><span class=\"redText\">Bad choice, the bee was angry.</span><br><b>You have been stung!</b><br>Your pay has been decreased by $0.10. Your bonus pay is now $0.44.</p>\n            ","response":0,"trial_type":"html-button-response","trial_index":22,"time_elapsed":384712,"internal_node_id":"0.0-4.0-1.7","subject_id":"610325a6052741bbfb84bcd1","study_id":"6197b3f67c2b5cd3b6d9596a","session_id":"619beeec466f487fe45684d8","condition":"contingent","relevant_dimensions":["antennae","pattern"],"bee_group":{"antennae":"B","wings":"X","pattern":"S","legs":"X"},"bonus":1.000000000000001},{"rt":8807.300000011921,"stimulus":"bees-with-color/bee-A1DM.svg","response":0,"trial_type":"image-button-response","trial_index":23,"time_elapsed":393521,"internal_node_id":"0.0-4.0-0.8","subject_id":"610325a6052741bbfb84bcd1","study_id":"6197b3f67c2b5cd3b6d9596a","session_id":"619beeec466f487fe45684d8","condition":"contingent","relevant_dimensions":["antennae","pattern"],"bee_group":{"antennae":"B","wings":"X","pattern":"S","legs":"X"},"action":"harvest","summary":"good-harvest","bonus":1.000000000000001},{"rt":871,"stimulus":"\n                    <p><b>Action: <em>harvest</em></b></p>\n                    <p>This is the bee that you just saw.</p>\n                    <img src=\"bees-with-color/bee-A1DM.svg\" width=\"200\">\n                    <p><span class=\"greenText\"><b>Successful harvest!</b></span><br>Your pay has increased by $0.02. Your bonus pay is now $0.46.</p>\n            ","response":0,"trial_type":"html-button-response","trial_index":24,"time_elapsed":394393,"internal_node_id":"0.0-4.0-1.8","subject_id":"610325a6052741bbfb84bcd1","study_id":"6197b3f67c2b5cd3b6d9596a","session_id":"619beeec466f487fe45684d8","condition":"contingent","relevant_dimensions":["antennae","pattern"],"bee_group":{"antennae":"B","wings":"X","pattern":"S","legs":"X"},"bonus":1.000000000000001},{"rt":8663,"stimulus":"bees-with-color/bee-B1DM.svg","response":1,"trial_type":"image-button-response","trial_index":25,"time_elapsed":403057,"internal_node_id":"0.0-4.0-0.9","subject_id":"610325a6052741bbfb84bcd1","study_id":"6197b3f67c2b5cd3b6d9596a","session_id":"619beeec466f487fe45684d8","condition":"contingent","relevant_dimensions":["antennae","pattern"],"bee_group":{"antennae":"B","wings":"X","pattern":"S","legs":"X"},"action":"avoid","summary":"bad-avoid","bonus":1.000000000000001},{"rt":991.6999999880791,"stimulus":"\n                    <p><b>Action: <em>avoid</em></b></p>\n                    <p>This is the bee that you just saw.</p>\n                    <img src=\"bees-with-color/bee-B1DM.svg\" width=\"200\">\n                    <p><br>Your bonus pay is unchanged, and remains at $0.46.</p>\n            ","response":0,"trial_type":"html-button-response","trial_index":26,"time_elapsed":404049,"internal_node_id":"0.0-4.0-1.9","subject_id":"610325a6052741bbfb84bcd1","study_id":"6197b3f67c2b5cd3b6d9596a","session_id":"619beeec466f487fe45684d8","condition":"contingent","relevant_dimensions":["antennae","pattern"],"bee_group":{"antennae":"B","wings":"X","pattern":"S","legs":"X"},"bonus":1.000000000000001},{"rt":6092.5,"stimulus":"bees-with-color/bee-A2SF.svg","response":1,"trial_type":"image-button-response","trial_index":27,"time_elapsed":410143,"internal_node_id":"0.0-4.0-0.10","subject_id":"610325a6052741bbfb84bcd1","study_id":"6197b3f67c2b5cd3b6d9596a","session_id":"619beeec466f487fe45684d8","condition":"contingent","relevant_dimensions":["antennae","pattern"],"bee_group":{"antennae":"B","wings":"X","pattern":"S","legs":"X"},"action":"avoid","summary":"bad-avoid","bonus":1.000000000000001},{"rt":974,"stimulus":"\n                    <p><b>Action: <em>avoid</em></b></p>\n                    <p>This is the bee that you just saw.</p>\n                    <img src=\"bees-with-color/bee-A2SF.svg\" width=\"200\">\n                    <p><br>Your bonus pay is unchanged, and remains at $0.46.</p>\n            ","response":0,"trial_type":"html-button-response","trial_index":28,"time_elapsed":411118,"internal_node_id":"0.0-4.0-1.10","subject_id":"610325a6052741bbfb84bcd1","study_id":"6197b3f67c2b5cd3b6d9596a","session_id":"619beeec466f487fe45684d8","condition":"contingent","relevant_dimensions":["antennae","pattern"],"bee_group":{"antennae":"B","wings":"X","pattern":"S","legs":"X"},"bonus":1.000000000000001},{"rt":1836,"stimulus":"bees-with-color/bee-B2DF.svg","response":0,"trial_type":"image-button-response","trial_index":29,"time_elapsed":412955,"internal_node_id":"0.0-4.0-0.11","subject_id":"610325a6052741bbfb84bcd1","study_id":"6197b3f67c2b5cd3b6d9596a","session_id":"619beeec466f487fe45684d8","condition":"contingent","relevant_dimensions":["antennae","pattern"],"bee_group":{"antennae":"B","wings":"X","pattern":"S","legs":"X"},"action":"harvest","summary":"good-harvest","bonus":1.000000000000001},{"rt":28420.399999976158,"stimulus":"\n                    <p><b>Action: <em>harvest</em></b></p>\n                    <p>This is the bee that you just saw.</p>\n                    <img src=\"bees-with-color/bee-B2DF.svg\" width=\"200\">\n                    <p><span class=\"greenText\"><b>Successful harvest!</b></span><br>Your pay has increased by $0.02. Your bonus pay is now $0.48.</p>\n            ","response":0,"trial_type":"html-button-response","trial_index":30,"time_elapsed":441377,"internal_node_id":"0.0-4.0-1.11","subject_id":"610325a6052741bbfb84bcd1","study_id":"6197b3f67c2b5cd3b6d9596a","session_id":"619beeec466f487fe45684d8","condition":"contingent","relevant_dimensions":["antennae","pattern"],"bee_group":{"antennae":"B","wings":"X","pattern":"S","legs":"X"},"bonus":1.000000000000001},{"rt":10044.5,"stimulus":"bees-with-color/bee-B1SF.svg","response":1,"trial_type":"image-button-response","trial_index":31,"time_elapsed":451423,"internal_node_id":"0.0-4.0-0.12","subject_id":"610325a6052741bbfb84bcd1","study_id":"6197b3f67c2b5cd3b6d9596a","session_id":"619beeec466f487fe45684d8","condition":"contingent","relevant_dimensions":["antennae","pattern"],"bee_group":{"antennae":"B","wings":"X","pattern":"S","legs":"X"},"action":"avoid","summary":"good-avoid","bonus":1.000000000000001},{"rt":742.1999999880791,"stimulus":"\n                    <p><b>Action: <em>avoid</em></b></p>\n                    <p>This is the bee that you just saw.</p>\n                    <img src=\"bees-with-color/bee-B1SF.svg\" width=\"200\">\n                    <p><br>Your bonus pay is unchanged, and remains at $0.48.</p>\n            ","response":0,"trial_type":"html-button-response","trial_index":32,"time_elapsed":452166,"internal_node_id":"0.0-4.0-1.12","subject_id":"610325a6052741bbfb84bcd1","study_id":"6197b3f67c2b5cd3b6d9596a","session_id":"619beeec466f487fe45684d8","condition":"contingent","relevant_dimensions":["antennae","pattern"],"bee_group":{"antennae":"B","wings":"X","pattern":"S","legs":"X"},"bonus":1.000000000000001},{"rt":10377.600000023842,"stimulus":"bees-with-color/bee-B2SM.svg","response":1,"trial_type":"image-button-response","trial_index":33,"time_elapsed":462544,"internal_node_id":"0.0-4.0-0.13","subject_id":"610325a6052741bbfb84bcd1","study_id":"6197b3f67c2b5cd3b6d9596a","session_id":"619beeec466f487fe45684d8","condition":"contingent","relevant_dimensions":["antennae","pattern"],"bee_group":{"antennae":"B","wings":"X","pattern":"S","legs":"X"},"action":"avoid","summary":"good-avoid","bonus":1.000000000000001},{"rt":704.5999999642372,"stimulus":"\n                    <p><b>Action: <em>avoid</em></b></p>\n                    <p>This is the bee that you just saw.</p>\n                    <img src=\"bees-with-color/bee-B2SM.svg\" width=\"200\">\n                    <p><br>Your bonus pay is unchanged, and remains at $0.48.</p>\n            ","response":0,"trial_type":"html-button-response","trial_index":34,"time_elapsed":463250,"internal_node_id":"0.0-4.0-1.13","subject_id":"610325a6052741bbfb84bcd1","study_id":"6197b3f67c2b5cd3b6d9596a","session_id":"619beeec466f487fe45684d8","condition":"contingent","relevant_dimensions":["antennae","pattern"],"bee_group":{"antennae":"B","wings":"X","pattern":"S","legs":"X"},"bonus":1.000000000000001},{"rt":728.3999999761581,"stimulus":"bees-with-color/bee-A2SM.svg","response":0,"trial_type":"image-button-response","trial_index":35,"time_elapsed":463979,"internal_node_id":"0.0-4.0-0.14","subject_id":"610325a6052741bbfb84bcd1","study_id":"6197b3f67c2b5cd3b6d9596a","session_id":"619beeec466f487fe45684d8","condition":"contingent","relevant_dimensions":["antennae","pattern"],"bee_group":{"antennae":"B","wings":"X","pattern":"S","legs":"X"},"action":"harvest","summary":"good-harvest","bonus":1.000000000000001},{"rt":718.1999999880791,"stimulus":"\n                    <p><b>Action: <em>harvest</em></b></p>\n                    <p>This is the bee that you just saw.</p>\n                    <img src=\"bees-with-color/bee-A2SM.svg\" width=\"200\">\n                    <p><span class=\"greenText\"><b>Successful harvest!</b></span><br>Your pay has increased by $0.02. Your bonus pay is now $0.50.</p>\n            ","response":0,"trial_type":"html-button-response","trial_index":36,"time_elapsed":464698,"internal_node_id":"0.0-4.0-1.14","subject_id":"610325a6052741bbfb84bcd1","study_id":"6197b3f67c2b5cd3b6d9596a","session_id":"619beeec466f487fe45684d8","condition":"contingent","relevant_dimensions":["antennae","pattern"],"bee_group":{"antennae":"B","wings":"X","pattern":"S","legs":"X"},"bonus":1.000000000000001},{"rt":1409,"stimulus":"bees-with-color/bee-B1DF.svg","response":0,"trial_type":"image-button-response","trial_index":37,"time_elapsed":466108,"internal_node_id":"0.0-4.0-0.15","subject_id":"610325a6052741bbfb84bcd1","study_id":"6197b3f67c2b5cd3b6d9596a","session_id":"619beeec466f487fe45684d8","condition":"contingent","relevant_dimensions":["antennae","pattern"],"bee_group":{"antennae":"B","wings":"X","pattern":"S","legs":"X"},"action":"harvest","summary":"good-harvest","bonus":1.000000000000001},{"rt":671,"stimulus":"\n                    <p><b>Action: <em>harvest</em></b></p>\n                    <p>This is the bee that you just saw.</p>\n                    <img src=\"bees-with-color/bee-B1DF.svg\" width=\"200\">\n                    <p><span class=\"greenText\"><b>Successful harvest!</b></span><br>Your pay has increased by $0.02. Your bonus pay is now $0.52.</p>\n            ","response":0,"trial_type":"html-button-response","trial_index":38,"time_elapsed":466780,"internal_node_id":"0.0-4.0-1.15","subject_id":"610325a6052741bbfb84bcd1","study_id":"6197b3f67c2b5cd3b6d9596a","session_id":"619beeec466f487fe45684d8","condition":"contingent","relevant_dimensions":["antennae","pattern"],"bee_group":{"antennae":"B","wings":"X","pattern":"S","legs":"X"},"bonus":1.000000000000001},{"rt":1113.9000000357628,"stimulus":"bees-with-color/bee-B2SM.svg","response":1,"trial_type":"image-button-response","trial_index":39,"time_elapsed":467895,"internal_node_id":"0.0-4.0-0.16","subject_id":"610325a6052741bbfb84bcd1","study_id":"6197b3f67c2b5cd3b6d9596a","session_id":"619beeec466f487fe45684d8","condition":"contingent","relevant_dimensions":["antennae","pattern"],"bee_group":{"antennae":"B","wings":"X","pattern":"S","legs":"X"},"action":"avoid","summary":"good-avoid","bonus":1.000000000000001},{"rt":486,"stimulus":"\n                    <p><b>Action: <em>avoid</em></b></p>\n                    <p>This is the bee that you just saw.</p>\n                    <img src=\"bees-with-color/bee-B2SM.svg\" width=\"200\">\n                    <p><br>Your bonus pay is unchanged, and remains at $0.52.</p>\n            ","response":0,"trial_type":"html-button-response","trial_index":40,"time_elapsed":468382,"internal_node_id":"0.0-4.0-1.16","subject_id":"610325a6052741bbfb84bcd1","study_id":"6197b3f67c2b5cd3b6d9596a","session_id":"619beeec466f487fe45684d8","condition":"contingent","relevant_dimensions":["antennae","pattern"],"bee_group":{"antennae":"B","wings":"X","pattern":"S","legs":"X"},"bonus":1.000000000000001},{"rt":1112.199999988079,"stimulus":"bees-with-color/bee-A2SF.svg","response":0,"trial_type":"image-button-response","trial_index":41,"time_elapsed":469495,"internal_node_id":"0.0-4.0-0.17","subject_id":"610325a6052741bbfb84bcd1","study_id":"6197b3f67c2b5cd3b6d9596a","session_id":"619beeec466f487fe45684d8","condition":"contingent","relevant_dimensions":["antennae","pattern"],"bee_group":{"antennae":"B","wings":"X","pattern":"S","legs":"X"},"action":"harvest","summary":"good-harvest","bonus":1.000000000000001},{"rt":639.9000000357628,"stimulus":"\n                    <p><b>Action: <em>harvest</em></b></p>\n                    <p>This is the bee that you just saw.</p>\n                    <img src=\"bees-with-color/bee-A2SF.svg\" width=\"200\">\n                    <p><span class=\"greenText\"><b>Successful harvest!</b></span><br>Your pay has increased by $0.02. Your bonus pay is now $0.54.</p>\n            ","response":0,"trial_type":"html-button-response","trial_index":42,"time_elapsed":470136,"internal_node_id":"0.0-4.0-1.17","subject_id":"610325a6052741bbfb84bcd1","study_id":"6197b3f67c2b5cd3b6d9596a","session_id":"619beeec466f487fe45684d8","condition":"contingent","relevant_dimensions":["antennae","pattern"],"bee_group":{"antennae":"B","wings":"X","pattern":"S","legs":"X"},"bonus":1.000000000000001},{"rt":1395.199999988079,"stimulus":"bees-with-color/bee-A1SM.svg","response":0,"trial_type":"image-button-response","trial_index":43,"time_elapsed":471532,"internal_node_id":"0.0-4.0-0.18","subject_id":"610325a6052741bbfb84bcd1","study_id":"6197b3f67c2b5cd3b6d9596a","session_id":"619beeec466f487fe45684d8","condition":"contingent","relevant_dimensions":["antennae","pattern"],"bee_group":{"antennae":"B","wings":"X","pattern":"S","legs":"X"},"action":"harvest","summary":"good-harvest","bonus":1.000000000000001},{"rt":621.1999999880791,"stimulus":"\n                    <p><b>Action: <em>harvest</em></b></p>\n                    <p>This is the bee that you just saw.</p>\n                    <img src=\"bees-with-color/bee-A1SM.svg\" width=\"200\">\n                    <p><span class=\"greenText\"><b>Successful harvest!</b></span><br>Your pay has increased by $0.02. Your bonus pay is now $0.56.</p>\n            ","response":0,"trial_type":"html-button-response","trial_index":44,"time_elapsed":472154,"internal_node_id":"0.0-4.0-1.18","subject_id":"610325a6052741bbfb84bcd1","study_id":"6197b3f67c2b5cd3b6d9596a","session_id":"619beeec466f487fe45684d8","condition":"contingent","relevant_dimensions":["antennae","pattern"],"bee_group":{"antennae":"B","wings":"X","pattern":"S","legs":"X"},"bonus":1.000000000000001},{"rt":10613,"stimulus":"bees-with-color/bee-A1DM.svg","response":0,"trial_type":"image-button-response","trial_index":45,"time_elapsed":482767,"internal_node_id":"0.0-4.0-0.19","subject_id":"610325a6052741bbfb84bcd1","study_id":"6197b3f67c2b5cd3b6d9596a","session_id":"619beeec466f487fe45684d8","condition":"contingent","relevant_dimensions":["antennae","pattern"],"bee_group":{"antennae":"B","wings":"X","pattern":"S","legs":"X"},"action":"harvest","summary":"good-harvest","bonus":1.000000000000001},{"rt":721.7999999523163,"stimulus":"\n                    <p><b>Action: <em>harvest</em></b></p>\n                    <p>This is the bee that you just saw.</p>\n                    <img src=\"bees-with-color/bee-A1DM.svg\" width=\"200\">\n                    <p><span class=\"greenText\"><b>Successful harvest!</b></span><br>Your pay has increased by $0.02. Your bonus pay is now $0.58.</p>\n            ","response":0,"trial_type":"html-button-response","trial_index":46,"time_elapsed":483490,"internal_node_id":"0.0-4.0-1.19","subject_id":"610325a6052741bbfb84bcd1","study_id":"6197b3f67c2b5cd3b6d9596a","session_id":"619beeec466f487fe45684d8","condition":"contingent","relevant_dimensions":["antennae","pattern"],"bee_group":{"antennae":"B","wings":"X","pattern":"S","legs":"X"},"bonus":1.000000000000001},{"rt":1073.699999988079,"stimulus":"bees-with-color/bee-B1SM.svg","response":1,"trial_type":"image-button-response","trial_index":47,"time_elapsed":484565,"internal_node_id":"0.0-4.0-0.20","subject_id":"610325a6052741bbfb84bcd1","study_id":"6197b3f67c2b5cd3b6d9596a","session_id":"619beeec466f487fe45684d8","condition":"contingent","relevant_dimensions":["antennae","pattern"],"bee_group":{"antennae":"B","wings":"X","pattern":"S","legs":"X"},"action":"avoid","summary":"good-avoid","bonus":1.000000000000001},{"rt":1227.1000000238419,"stimulus":"\n                    <p><b>Action: <em>avoid</em></b></p>\n                    <p>This is the bee that you just saw.</p>\n                    <img src=\"bees-with-color/bee-B1SM.svg\" width=\"200\">\n                    <p><br>Your bonus pay is unchanged, and remains at $0.58.</p>\n            ","response":0,"trial_type":"html-button-response","trial_index":48,"time_elapsed":485793,"internal_node_id":"0.0-4.0-1.20","subject_id":"610325a6052741bbfb84bcd1","study_id":"6197b3f67c2b5cd3b6d9596a","session_id":"619beeec466f487fe45684d8","condition":"contingent","relevant_dimensions":["antennae","pattern"],"bee_group":{"antennae":"B","wings":"X","pattern":"S","legs":"X"},"bonus":1.000000000000001},{"rt":8901,"stimulus":"bees-with-color/bee-B2DF.svg","response":1,"trial_type":"image-button-response","trial_index":49,"time_elapsed":494695,"internal_node_id":"0.0-4.0-0.21","subject_id":"610325a6052741bbfb84bcd1","study_id":"6197b3f67c2b5cd3b6d9596a","session_id":"619beeec466f487fe45684d8","condition":"contingent","relevant_dimensions":["antennae","pattern"],"bee_group":{"antennae":"B","wings":"X","pattern":"S","legs":"X"},"action":"avoid","summary":"bad-avoid","bonus":1.000000000000001},{"rt":603.8999999761581,"stimulus":"\n                    <p><b>Action: <em>avoid</em></b></p>\n                    <p>This is the bee that you just saw.</p>\n                    <img src=\"bees-with-color/bee-B2DF.svg\" width=\"200\">\n                    <p><br>Your bonus pay is unchanged, and remains at $0.58.</p>\n            ","response":0,"trial_type":"html-button-response","trial_index":50,"time_elapsed":495300,"internal_node_id":"0.0-4.0-1.21","subject_id":"610325a6052741bbfb84bcd1","study_id":"6197b3f67c2b5cd3b6d9596a","session_id":"619beeec466f487fe45684d8","condition":"contingent","relevant_dimensions":["antennae","pattern"],"bee_group":{"antennae":"B","wings":"X","pattern":"S","legs":"X"},"bonus":1.000000000000001},{"rt":1078.7999999523163,"stimulus":"bees-with-color/bee-A1SF.svg","response":0,"trial_type":"image-button-response","trial_index":51,"time_elapsed":496380,"internal_node_id":"0.0-4.0-0.22","subject_id":"610325a6052741bbfb84bcd1","study_id":"6197b3f67c2b5cd3b6d9596a","session_id":"619beeec466f487fe45684d8","condition":"contingent","relevant_dimensions":["antennae","pattern"],"bee_group":{"antennae":"B","wings":"X","pattern":"S","legs":"X"},"action":"harvest","summary":"good-harvest","bonus":1.000000000000001},{"rt":599.1000000238419,"stimulus":"\n                    <p><b>Action: <em>harvest</em></b></p>\n                    <p>This is the bee that you just saw.</p>\n                    <img src=\"bees-with-color/bee-A1SF.svg\" width=\"200\">\n                    <p><span class=\"greenText\"><b>Successful harvest!</b></span><br>Your pay has increased by $0.02. Your bonus pay is now $0.60.</p>\n            ","response":0,"trial_type":"html-button-response","trial_index":52,"time_elapsed":496980,"internal_node_id":"0.0-4.0-1.22","subject_id":"610325a6052741bbfb84bcd1","study_id":"6197b3f67c2b5cd3b6d9596a","session_id":"619beeec466f487fe45684d8","condition":"contingent","relevant_dimensions":["antennae","pattern"],"bee_group":{"antennae":"B","wings":"X","pattern":"S","legs":"X"},"bonus":1.000000000000001},{"rt":753.1999999880791,"stimulus":"bees-with-color/bee-A2SM.svg","response":0,"trial_type":"image-button-response","trial_index":53,"time_elapsed":497734,"internal_node_id":"0.0-4.0-0.23","subject_id":"610325a6052741bbfb84bcd1","study_id":"6197b3f67c2b5cd3b6d9596a","session_id":"619beeec466f487fe45684d8","condition":"contingent","relevant_dimensions":["antennae","pattern"],"bee_group":{"antennae":"B","wings":"X","pattern":"S","legs":"X"},"action":"harvest","summary":"good-harvest","bonus":1.000000000000001},{"rt":564.1999999880791,"stimulus":"\n                    <p><b>Action: <em>harvest</em></b></p>\n                    <p>This is the bee that you just saw.</p>\n                    <img src=\"bees-with-color/bee-A2SM.svg\" width=\"200\">\n                    <p><span class=\"greenText\"><b>Successful harvest!</b></span><br>Your pay has increased by $0.02. Your bonus pay is now $0.62.</p>\n            ","response":0,"trial_type":"html-button-response","trial_index":54,"time_elapsed":498299,"internal_node_id":"0.0-4.0-1.23","subject_id":"610325a6052741bbfb84bcd1","study_id":"6197b3f67c2b5cd3b6d9596a","session_id":"619beeec466f487fe45684d8","condition":"contingent","relevant_dimensions":["antennae","pattern"],"bee_group":{"antennae":"B","wings":"X","pattern":"S","legs":"X"},"bonus":1.000000000000001},{"rt":967.2000000476837,"stimulus":"bees-with-color/bee-B1DF.svg","response":0,"trial_type":"image-button-response","trial_index":55,"time_elapsed":499267,"internal_node_id":"0.0-4.0-0.24","subject_id":"610325a6052741bbfb84bcd1","study_id":"6197b3f67c2b5cd3b6d9596a","session_id":"619beeec466f487fe45684d8","condition":"contingent","relevant_dimensions":["antennae","pattern"],"bee_group":{"antennae":"B","wings":"X","pattern":"S","legs":"X"},"action":"harvest","summary":"good-harvest","bonus":1.000000000000001},{"rt":528.8999999761581,"stimulus":"\n                    <p><b>Action: <em>harvest</em></b></p>\n                    <p>This is the bee that you just saw.</p>\n                    <img src=\"bees-with-color/bee-B1DF.svg\" width=\"200\">\n                    <p><span class=\"greenText\"><b>Successful harvest!</b></span><br>Your pay has increased by $0.02. Your bonus pay is now $0.64.</p>\n            ","response":0,"trial_type":"html-button-response","trial_index":56,"time_elapsed":499797,"internal_node_id":"0.0-4.0-1.24","subject_id":"610325a6052741bbfb84bcd1","study_id":"6197b3f67c2b5cd3b6d9596a","session_id":"619beeec466f487fe45684d8","condition":"contingent","relevant_dimensions":["antennae","pattern"],"bee_group":{"antennae":"B","wings":"X","pattern":"S","legs":"X"},"bonus":1.000000000000001},{"rt":1081.199999988079,"stimulus":"bees-with-color/bee-B2SF.svg","response":1,"trial_type":"image-button-response","trial_index":57,"time_elapsed":500879,"internal_node_id":"0.0-4.0-0.25","subject_id":"610325a6052741bbfb84bcd1","study_id":"6197b3f67c2b5cd3b6d9596a","session_id":"619beeec466f487fe45684d8","condition":"contingent","relevant_dimensions":["antennae","pattern"],"bee_group":{"antennae":"B","wings":"X","pattern":"S","legs":"X"},"action":"avoid","summary":"good-avoid","bonus":1.000000000000001},{"rt":412.0999999642372,"stimulus":"\n                    <p><b>Action: <em>avoid</em></b></p>\n                    <p>This is the bee that you just saw.</p>\n                    <img src=\"bees-with-color/bee-B2SF.svg\" width=\"200\">\n                    <p><br>Your bonus pay is unchanged, and remains at $0.64.</p>\n            ","response":0,"trial_type":"html-button-response","trial_index":58,"time_elapsed":501292,"internal_node_id":"0.0-4.0-1.25","subject_id":"610325a6052741bbfb84bcd1","study_id":"6197b3f67c2b5cd3b6d9596a","session_id":"619beeec466f487fe45684d8","condition":"contingent","relevant_dimensions":["antennae","pattern"],"bee_group":{"antennae":"B","wings":"X","pattern":"S","legs":"X"},"bonus":1.000000000000001},{"rt":778.1000000238419,"stimulus":"bees-with-color/bee-A1DF.svg","response":0,"trial_type":"image-button-response","trial_index":59,"time_elapsed":502070,"internal_node_id":"0.0-4.0-0.26","subject_id":"610325a6052741bbfb84bcd1","study_id":"6197b3f67c2b5cd3b6d9596a","session_id":"619beeec466f487fe45684d8","condition":"contingent","relevant_dimensions":["antennae","pattern"],"bee_group":{"antennae":"B","wings":"X","pattern":"S","legs":"X"},"action":"harvest","summary":"good-harvest","bonus":1.000000000000001},{"rt":456.19999998807907,"stimulus":"\n                    <p><b>Action: <em>harvest</em></b></p>\n                    <p>This is the bee that you just saw.</p>\n                    <img src=\"bees-with-color/bee-A1DF.svg\" width=\"200\">\n                    <p><span class=\"greenText\"><b>Successful harvest!</b></span><br>Your pay has increased by $0.02. Your bonus pay is now $0.66.</p>\n            ","response":0,"trial_type":"html-button-response","trial_index":60,"time_elapsed":502528,"internal_node_id":"0.0-4.0-1.26","subject_id":"610325a6052741bbfb84bcd1","study_id":"6197b3f67c2b5cd3b6d9596a","session_id":"619beeec466f487fe45684d8","condition":"contingent","relevant_dimensions":["antennae","pattern"],"bee_group":{"antennae":"B","wings":"X","pattern":"S","legs":"X"},"bonus":1.000000000000001},{"rt":790.1000000238419,"stimulus":"bees-with-color/bee-B1DM.svg","response":0,"trial_type":"image-button-response","trial_index":61,"time_elapsed":503318,"internal_node_id":"0.0-4.0-0.27","subject_id":"610325a6052741bbfb84bcd1","study_id":"6197b3f67c2b5cd3b6d9596a","session_id":"619beeec466f487fe45684d8","condition":"contingent","relevant_dimensions":["antennae","pattern"],"bee_group":{"antennae":"B","wings":"X","pattern":"S","legs":"X"},"action":"harvest","summary":"good-harvest","bonus":1.000000000000001},{"rt":551.1000000238419,"stimulus":"\n                    <p><b>Action: <em>harvest</em></b></p>\n                    <p>This is the bee that you just saw.</p>\n                    <img src=\"bees-with-color/bee-B1DM.svg\" width=\"200\">\n                    <p><span class=\"greenText\"><b>Successful harvest!</b></span><br>Your pay has increased by $0.02. Your bonus pay is now $0.68.</p>\n            ","response":0,"trial_type":"html-button-response","trial_index":62,"time_elapsed":503871,"internal_node_id":"0.0-4.0-1.27","subject_id":"610325a6052741bbfb84bcd1","study_id":"6197b3f67c2b5cd3b6d9596a","session_id":"619beeec466f487fe45684d8","condition":"contingent","relevant_dimensions":["antennae","pattern"],"bee_group":{"antennae":"B","wings":"X","pattern":"S","legs":"X"},"bonus":1.000000000000001},{"rt":1035.8999999761581,"stimulus":"bees-with-color/bee-B1SF.svg","response":1,"trial_type":"image-button-response","trial_index":63,"time_elapsed":504907,"internal_node_id":"0.0-4.0-0.28","subject_id":"610325a6052741bbfb84bcd1","study_id":"6197b3f67c2b5cd3b6d9596a","session_id":"619beeec466f487fe45684d8","condition":"contingent","relevant_dimensions":["antennae","pattern"],"bee_group":{"antennae":"B","wings":"X","pattern":"S","legs":"X"},"action":"avoid","summary":"good-avoid","bonus":1.000000000000001},{"rt":439.19999998807907,"stimulus":"\n                    <p><b>Action: <em>avoid</em></b></p>\n                    <p>This is the bee that you just saw.</p>\n                    <img src=\"bees-with-color/bee-B1SF.svg\" width=\"200\">\n                    <p><br>Your bonus pay is unchanged, and remains at $0.68.</p>\n            ","response":0,"trial_type":"html-button-response","trial_index":64,"time_elapsed":505347,"internal_node_id":"0.0-4.0-1.28","subject_id":"610325a6052741bbfb84bcd1","study_id":"6197b3f67c2b5cd3b6d9596a","session_id":"619beeec466f487fe45684d8","condition":"contingent","relevant_dimensions":["antennae","pattern"],"bee_group":{"antennae":"B","wings":"X","pattern":"S","legs":"X"},"bonus":1.000000000000001},{"rt":881.0999999642372,"stimulus":"bees-with-color/bee-A2DF.svg","response":0,"trial_type":"image-button-response","trial_index":65,"time_elapsed":506229,"internal_node_id":"0.0-4.0-0.29","subject_id":"610325a6052741bbfb84bcd1","study_id":"6197b3f67c2b5cd3b6d9596a","session_id":"619beeec466f487fe45684d8","condition":"contingent","relevant_dimensions":["antennae","pattern"],"bee_group":{"antennae":"B","wings":"X","pattern":"S","legs":"X"},"action":"harvest","summary":"good-harvest","bonus":1.000000000000001},{"rt":504,"stimulus":"\n                    <p><b>Action: <em>harvest</em></b></p>\n                    <p>This is the bee that you just saw.</p>\n                    <img src=\"bees-with-color/bee-A2DF.svg\" width=\"200\">\n                    <p><span class=\"greenText\"><b>Successful harvest!</b></span><br>Your pay has increased by $0.02. Your bonus pay is now $0.70.</p>\n            ","response":0,"trial_type":"html-button-response","trial_index":66,"time_elapsed":506734,"internal_node_id":"0.0-4.0-1.29","subject_id":"610325a6052741bbfb84bcd1","study_id":"6197b3f67c2b5cd3b6d9596a","session_id":"619beeec466f487fe45684d8","condition":"contingent","relevant_dimensions":["antennae","pattern"],"bee_group":{"antennae":"B","wings":"X","pattern":"S","legs":"X"},"bonus":1.000000000000001},{"rt":931.2000000476837,"stimulus":"bees-with-color/bee-A2DM.svg","response":0,"trial_type":"image-button-response","trial_index":67,"time_elapsed":507666,"internal_node_id":"0.0-4.0-0.30","subject_id":"610325a6052741bbfb84bcd1","study_id":"6197b3f67c2b5cd3b6d9596a","session_id":"619beeec466f487fe45684d8","condition":"contingent","relevant_dimensions":["antennae","pattern"],"bee_group":{"antennae":"B","wings":"X","pattern":"S","legs":"X"},"action":"harvest","summary":"good-harvest","bonus":1.000000000000001},{"rt":502.10000002384186,"stimulus":"\n                    <p><b>Action: <em>harvest</em></b></p>\n                    <p>This is the bee that you just saw.</p>\n                    <img src=\"bees-with-color/bee-A2DM.svg\" width=\"200\">\n                    <p><span class=\"greenText\"><b>Successful harvest!</b></span><br>Your pay has increased by $0.02. Your bonus pay is now $0.72.</p>\n            ","response":0,"trial_type":"html-button-response","trial_index":68,"time_elapsed":508169,"internal_node_id":"0.0-4.0-1.30","subject_id":"610325a6052741bbfb84bcd1","study_id":"6197b3f67c2b5cd3b6d9596a","session_id":"619beeec466f487fe45684d8","condition":"contingent","relevant_dimensions":["antennae","pattern"],"bee_group":{"antennae":"B","wings":"X","pattern":"S","legs":"X"},"bonus":1.000000000000001},{"rt":753.1000000238419,"stimulus":"bees-with-color/bee-B2DM.svg","response":0,"trial_type":"image-button-response","trial_index":69,"time_elapsed":508923,"internal_node_id":"0.0-4.0-0.31","subject_id":"610325a6052741bbfb84bcd1","study_id":"6197b3f67c2b5cd3b6d9596a","session_id":"619beeec466f487fe45684d8","condition":"contingent","relevant_dimensions":["antennae","pattern"],"bee_group":{"antennae":"B","wings":"X","pattern":"S","legs":"X"},"action":"harvest","summary":"good-harvest","bonus":1.000000000000001},{"rt":480.10000002384186,"stimulus":"\n                    <p><b>Action: <em>harvest</em></b></p>\n                    <p>This is the bee that you just saw.</p>\n                    <img src=\"bees-with-color/bee-B2DM.svg\" width=\"200\">\n                    <p><span class=\"greenText\"><b>Successful harvest!</b></span><br>Your pay has increased by $0.02. Your bonus pay is now $0.74.</p>\n            ","response":0,"trial_type":"html-button-response","trial_index":70,"time_elapsed":509404,"internal_node_id":"0.0-4.0-1.31","subject_id":"610325a6052741bbfb84bcd1","study_id":"6197b3f67c2b5cd3b6d9596a","session_id":"619beeec466f487fe45684d8","condition":"contingent","relevant_dimensions":["antennae","pattern"],"bee_group":{"antennae":"B","wings":"X","pattern":"S","legs":"X"},"bonus":1.000000000000001},{"rt":1022.1000000238419,"stimulus":"bees-with-color/bee-A1DF.svg","response":0,"trial_type":"image-button-response","trial_index":71,"time_elapsed":510427,"internal_node_id":"0.0-4.0-0.32","subject_id":"610325a6052741bbfb84bcd1","study_id":"6197b3f67c2b5cd3b6d9596a","session_id":"619beeec466f487fe45684d8","condition":"contingent","relevant_dimensions":["antennae","pattern"],"bee_group":{"antennae":"B","wings":"X","pattern":"S","legs":"X"},"action":"harvest","summary":"good-harvest","bonus":1.000000000000001},{"rt":448,"stimulus":"\n                    <p><b>Action: <em>harvest</em></b></p>\n                    <p>This is the bee that you just saw.</p>\n                    <img src=\"bees-with-color/bee-A1DF.svg\" width=\"200\">\n                    <p><span class=\"greenText\"><b>Successful harvest!</b></span><br>Your pay has increased by $0.02. Your bonus pay is now $0.76.</p>\n            ","response":0,"trial_type":"html-button-response","trial_index":72,"time_elapsed":510876,"internal_node_id":"0.0-4.0-1.32","subject_id":"610325a6052741bbfb84bcd1","study_id":"6197b3f67c2b5cd3b6d9596a","session_id":"619beeec466f487fe45684d8","condition":"contingent","relevant_dimensions":["antennae","pattern"],"bee_group":{"antennae":"B","wings":"X","pattern":"S","legs":"X"},"bonus":1.000000000000001},{"rt":1164.2000000476837,"stimulus":"bees-with-color/bee-B1SM.svg","response":0,"trial_type":"image-button-response","trial_index":73,"time_elapsed":512041,"internal_node_id":"0.0-4.0-0.33","subject_id":"610325a6052741bbfb84bcd1","study_id":"6197b3f67c2b5cd3b6d9596a","session_id":"619beeec466f487fe45684d8","condition":"contingent","relevant_dimensions":["antennae","pattern"],"bee_group":{"antennae":"B","wings":"X","pattern":"S","legs":"X"},"action":"harvest","summary":"bad-harvest","bonus":1.000000000000001},{"rt":831.2000000476837,"stimulus":"\n                    <p><b>Action: <em>harvest</em></b></p>\n                    <p>This is the bee that you just saw.</p>\n                    <img src=\"bees-with-color/bee-B1SM.svg\" width=\"200\">\n                    <p><span class=\"redText\">Bad choice, the bee was angry.</span><br><b>You have been stung!</b><br>Your pay has been decreased by $0.10. Your bonus pay is now $0.66.</p>\n            ","response":0,"trial_type":"html-button-response","trial_index":74,"time_elapsed":512873,"internal_node_id":"0.0-4.0-1.33","subject_id":"610325a6052741bbfb84bcd1","study_id":"6197b3f67c2b5cd3b6d9596a","session_id":"619beeec466f487fe45684d8","condition":"contingent","relevant_dimensions":["antennae","pattern"],"bee_group":{"antennae":"B","wings":"X","pattern":"S","legs":"X"},"bonus":1.000000000000001},{"rt":1147,"stimulus":"bees-with-color/bee-A1SF.svg","response":1,"trial_type":"image-button-response","trial_index":75,"time_elapsed":514021,"internal_node_id":"0.0-4.0-0.34","subject_id":"610325a6052741bbfb84bcd1","study_id":"6197b3f67c2b5cd3b6d9596a","session_id":"619beeec466f487fe45684d8","condition":"contingent","relevant_dimensions":["antennae","pattern"],"bee_group":{"antennae":"B","wings":"X","pattern":"S","legs":"X"},"action":"avoid","summary":"bad-avoid","bonus":1.000000000000001},{"rt":361.19999998807907,"stimulus":"\n                    <p><b>Action: <em>avoid</em></b></p>\n                    <p>This is the bee that you just saw.</p>\n                    <img src=\"bees-with-color/bee-A1SF.svg\" width=\"200\">\n                    <p><br>Your bonus pay is unchanged, and remains at $0.66.</p>\n            ","response":0,"trial_type":"html-button-response","trial_index":76,"time_elapsed":514383,"internal_node_id":"0.0-4.0-1.34","subject_id":"610325a6052741bbfb84bcd1","study_id":"6197b3f67c2b5cd3b6d9596a","session_id":"619beeec466f487fe45684d8","condition":"contingent","relevant_dimensions":["antennae","pattern"],"bee_group":{"antennae":"B","wings":"X","pattern":"S","legs":"X"},"bonus":1.000000000000001},{"rt":811.1999999880791,"stimulus":"bees-with-color/bee-B2SM.svg","response":0,"trial_type":"image-button-response","trial_index":77,"time_elapsed":515195,"internal_node_id":"0.0-4.0-0.35","subject_id":"610325a6052741bbfb84bcd1","study_id":"6197b3f67c2b5cd3b6d9596a","session_id":"619beeec466f487fe45684d8","condition":"contingent","relevant_dimensions":["antennae","pattern"],"bee_group":{"antennae":"B","wings":"X","pattern":"S","legs":"X"},"action":"harvest","summary":"bad-harvest","bonus":1.000000000000001},{"rt":583.0999999642372,"stimulus":"\n                    <p><b>Action: <em>harvest</em></b></p>\n                    <p>This is the bee that you just saw.</p>\n                    <img src=\"bees-with-color/bee-B2SM.svg\" width=\"200\">\n                    <p><span class=\"redText\">Bad choice, the bee was angry.</span><br><b>You have been stung!</b><br>Your pay has been decreased by $0.10. Your bonus pay is now $0.56.</p>\n            ","response":0,"trial_type":"html-button-response","trial_index":78,"time_elapsed":515779,"internal_node_id":"0.0-4.0-1.35","subject_id":"610325a6052741bbfb84bcd1","study_id":"6197b3f67c2b5cd3b6d9596a","session_id":"619beeec466f487fe45684d8","condition":"contingent","relevant_dimensions":["antennae","pattern"],"bee_group":{"antennae":"B","wings":"X","pattern":"S","legs":"X"},"bonus":1.000000000000001},{"rt":1396,"stimulus":"bees-with-color/bee-A2SF.svg","response":1,"trial_type":"image-button-response","trial_index":79,"time_elapsed":517176,"internal_node_id":"0.0-4.0-0.36","subject_id":"610325a6052741bbfb84bcd1","study_id":"6197b3f67c2b5cd3b6d9596a","session_id":"619beeec466f487fe45684d8","condition":"contingent","relevant_dimensions":["antennae","pattern"],"bee_group":{"antennae":"B","wings":"X","pattern":"S","legs":"X"},"action":"avoid","summary":"bad-avoid","bonus":1.000000000000001},{"rt":469.19999998807907,"stimulus":"\n                    <p><b>Action: <em>avoid</em></b></p>\n                    <p>This is the bee that you just saw.</p>\n                    <img src=\"bees-with-color/bee-A2SF.svg\" width=\"200\">\n                    <p><br>Your bonus pay is unchanged, and remains at $0.56.</p>\n            ","response":0,"trial_type":"html-button-response","trial_index":80,"time_elapsed":517646,"internal_node_id":"0.0-4.0-1.36","subject_id":"610325a6052741bbfb84bcd1","study_id":"6197b3f67c2b5cd3b6d9596a","session_id":"619beeec466f487fe45684d8","condition":"contingent","relevant_dimensions":["antennae","pattern"],"bee_group":{"antennae":"B","wings":"X","pattern":"S","legs":"X"},"bonus":1.000000000000001},{"rt":634.2999999523163,"stimulus":"bees-with-color/bee-A2DF.svg","response":0,"trial_type":"image-button-response","trial_index":81,"time_elapsed":518281,"internal_node_id":"0.0-4.0-0.37","subject_id":"610325a6052741bbfb84bcd1","study_id":"6197b3f67c2b5cd3b6d9596a","session_id":"619beeec466f487fe45684d8","condition":"contingent","relevant_dimensions":["antennae","pattern"],"bee_group":{"antennae":"B","wings":"X","pattern":"S","legs":"X"},"action":"harvest","summary":"good-harvest","bonus":1.000000000000001},{"rt":475.10000002384186,"stimulus":"\n                    <p><b>Action: <em>harvest</em></b></p>\n                    <p>This is the bee that you just saw.</p>\n                    <img src=\"bees-with-color/bee-A2DF.svg\" width=\"200\">\n                    <p><span class=\"greenText\"><b>Successful harvest!</b></span><br>Your pay has increased by $0.02. Your bonus pay is now $0.58.</p>\n            ","response":0,"trial_type":"html-button-response","trial_index":82,"time_elapsed":518757,"internal_node_id":"0.0-4.0-1.37","subject_id":"610325a6052741bbfb84bcd1","study_id":"6197b3f67c2b5cd3b6d9596a","session_id":"619beeec466f487fe45684d8","condition":"contingent","relevant_dimensions":["antennae","pattern"],"bee_group":{"antennae":"B","wings":"X","pattern":"S","legs":"X"},"bonus":1.000000000000001},{"rt":1003.1999999880791,"stimulus":"bees-with-color/bee-B1DM.svg","response":0,"trial_type":"image-button-response","trial_index":83,"time_elapsed":519761,"internal_node_id":"0.0-4.0-0.38","subject_id":"610325a6052741bbfb84bcd1","study_id":"6197b3f67c2b5cd3b6d9596a","session_id":"619beeec466f487fe45684d8","condition":"contingent","relevant_dimensions":["antennae","pattern"],"bee_group":{"antennae":"B","wings":"X","pattern":"S","legs":"X"},"action":"harvest","summary":"good-harvest","bonus":1.000000000000001},{"rt":386.19999998807907,"stimulus":"\n                    <p><b>Action: <em>harvest</em></b></p>\n                    <p>This is the bee that you just saw.</p>\n                    <img src=\"bees-with-color/bee-B1DM.svg\" width=\"200\">\n                    <p><span class=\"greenText\"><b>Successful harvest!</b></span><br>Your pay has increased by $0.02. Your bonus pay is now $0.60.</p>\n            ","response":0,"trial_type":"html-button-response","trial_index":84,"time_elapsed":520148,"internal_node_id":"0.0-4.0-1.38","subject_id":"610325a6052741bbfb84bcd1","study_id":"6197b3f67c2b5cd3b6d9596a","session_id":"619beeec466f487fe45684d8","condition":"contingent","relevant_dimensions":["antennae","pattern"],"bee_group":{"antennae":"B","wings":"X","pattern":"S","legs":"X"},"bonus":1.000000000000001},{"rt":1082.300000011921,"stimulus":"bees-with-color/bee-B1DF.svg","response":0,"trial_type":"image-button-response","trial_index":85,"time_elapsed":521231,"internal_node_id":"0.0-4.0-0.39","subject_id":"610325a6052741bbfb84bcd1","study_id":"6197b3f67c2b5cd3b6d9596a","session_id":"619beeec466f487fe45684d8","condition":"contingent","relevant_dimensions":["antennae","pattern"],"bee_group":{"antennae":"B","wings":"X","pattern":"S","legs":"X"},"action":"harvest","summary":"good-harvest","bonus":1.000000000000001},{"rt":400.0999999642372,"stimulus":"\n                    <p><b>Action: <em>harvest</em></b></p>\n                    <p>This is the bee that you just saw.</p>\n                    <img src=\"bees-with-color/bee-B1DF.svg\" width=\"200\">\n                    <p><span class=\"greenText\"><b>Successful harvest!</b></span><br>Your pay has increased by $0.02. Your bonus pay is now $0.62.</p>\n            ","response":0,"trial_type":"html-button-response","trial_index":86,"time_elapsed":521632,"internal_node_id":"0.0-4.0-1.39","subject_id":"610325a6052741bbfb84bcd1","study_id":"6197b3f67c2b5cd3b6d9596a","session_id":"619beeec466f487fe45684d8","condition":"contingent","relevant_dimensions":["antennae","pattern"],"bee_group":{"antennae":"B","wings":"X","pattern":"S","legs":"X"},"bonus":1.000000000000001},{"rt":833.1999999880791,"stimulus":"bees-with-color/bee-A1SM.svg","response":1,"trial_type":"image-button-response","trial_index":87,"time_elapsed":522466,"internal_node_id":"0.0-4.0-0.40","subject_id":"610325a6052741bbfb84bcd1","study_id":"6197b3f67c2b5cd3b6d9596a","session_id":"619beeec466f487fe45684d8","condition":"contingent","relevant_dimensions":["antennae","pattern"],"bee_group":{"antennae":"B","wings":"X","pattern":"S","legs":"X"},"action":"avoid","summary":"bad-avoid","bonus":1.000000000000001},{"rt":353,"stimulus":"\n                    <p><b>Action: <em>avoid</em></b></p>\n                    <p>This is the bee that you just saw.</p>\n                    <img src=\"bees-with-color/bee-A1SM.svg\" width=\"200\">\n                    <p><br>Your bonus pay is unchanged, and remains at $0.62.</p>\n            ","response":0,"trial_type":"html-button-response","trial_index":88,"time_elapsed":522820,"internal_node_id":"0.0-4.0-1.40","subject_id":"610325a6052741bbfb84bcd1","study_id":"6197b3f67c2b5cd3b6d9596a","session_id":"619beeec466f487fe45684d8","condition":"contingent","relevant_dimensions":["antennae","pattern"],"bee_group":{"antennae":"B","wings":"X","pattern":"S","legs":"X"},"bonus":1.000000000000001},{"rt":676.3000000119209,"stimulus":"bees-with-color/bee-B2DM.svg","response":0,"trial_type":"image-button-response","trial_index":89,"time_elapsed":523497,"internal_node_id":"0.0-4.0-0.41","subject_id":"610325a6052741bbfb84bcd1","study_id":"6197b3f67c2b5cd3b6d9596a","session_id":"619beeec466f487fe45684d8","condition":"contingent","relevant_dimensions":["antennae","pattern"],"bee_group":{"antennae":"B","wings":"X","pattern":"S","legs":"X"},"action":"harvest","summary":"good-harvest","bonus":1.000000000000001},{"rt":355.9000000357628,"stimulus":"\n                    <p><b>Action: <em>harvest</em></b></p>\n                    <p>This is the bee that you just saw.</p>\n                    <img src=\"bees-with-color/bee-B2DM.svg\" width=\"200\">\n                    <p><span class=\"greenText\"><b>Successful harvest!</b></span><br>Your pay has increased by $0.02. Your bonus pay is now $0.64.</p>\n            ","response":0,"trial_type":"html-button-response","trial_index":90,"time_elapsed":523854,"internal_node_id":"0.0-4.0-1.41","subject_id":"610325a6052741bbfb84bcd1","study_id":"6197b3f67c2b5cd3b6d9596a","session_id":"619beeec466f487fe45684d8","condition":"contingent","relevant_dimensions":["antennae","pattern"],"bee_group":{"antennae":"B","wings":"X","pattern":"S","legs":"X"},"bonus":1.000000000000001},{"rt":794.2000000476837,"stimulus":"bees-with-color/bee-A1DM.svg","response":0,"trial_type":"image-button-response","trial_index":91,"time_elapsed":524649,"internal_node_id":"0.0-4.0-0.42","subject_id":"610325a6052741bbfb84bcd1","study_id":"6197b3f67c2b5cd3b6d9596a","session_id":"619beeec466f487fe45684d8","condition":"contingent","relevant_dimensions":["antennae","pattern"],"bee_group":{"antennae":"B","wings":"X","pattern":"S","legs":"X"},"action":"harvest","summary":"good-harvest","bonus":1.000000000000001},{"rt":384.2000000476837,"stimulus":"\n                    <p><b>Action: <em>harvest</em></b></p>\n                    <p>This is the bee that you just saw.</p>\n                    <img src=\"bees-with-color/bee-A1DM.svg\" width=\"200\">\n                    <p><span class=\"greenText\"><b>Successful harvest!</b></span><br>Your pay has increased by $0.02. Your bonus pay is now $0.66.</p>\n            ","response":0,"trial_type":"html-button-response","trial_index":92,"time_elapsed":525034,"internal_node_id":"0.0-4.0-1.42","subject_id":"610325a6052741bbfb84bcd1","study_id":"6197b3f67c2b5cd3b6d9596a","session_id":"619beeec466f487fe45684d8","condition":"contingent","relevant_dimensions":["antennae","pattern"],"bee_group":{"antennae":"B","wings":"X","pattern":"S","legs":"X"},"bonus":1.000000000000001},{"rt":775.6000000238419,"stimulus":"bees-with-color/bee-B1SF.svg","response":1,"trial_type":"image-button-response","trial_index":93,"time_elapsed":525810,"internal_node_id":"0.0-4.0-0.43","subject_id":"610325a6052741bbfb84bcd1","study_id":"6197b3f67c2b5cd3b6d9596a","session_id":"619beeec466f487fe45684d8","condition":"contingent","relevant_dimensions":["antennae","pattern"],"bee_group":{"antennae":"B","wings":"X","pattern":"S","legs":"X"},"action":"avoid","summary":"good-avoid","bonus":1.000000000000001},{"rt":351.80000001192093,"stimulus":"\n                    <p><b>Action: <em>avoid</em></b></p>\n                    <p>This is the bee that you just saw.</p>\n                    <img src=\"bees-with-color/bee-B1SF.svg\" width=\"200\">\n                    <p><br>Your bonus pay is unchanged, and remains at $0.66.</p>\n            ","response":0,"trial_type":"html-button-response","trial_index":94,"time_elapsed":526163,"internal_node_id":"0.0-4.0-1.43","subject_id":"610325a6052741bbfb84bcd1","study_id":"6197b3f67c2b5cd3b6d9596a","session_id":"619beeec466f487fe45684d8","condition":"contingent","relevant_dimensions":["antennae","pattern"],"bee_group":{"antennae":"B","wings":"X","pattern":"S","legs":"X"},"bonus":1.000000000000001},{"rt":771.2000000476837,"stimulus":"bees-with-color/bee-B2DF.svg","response":0,"trial_type":"image-button-response","trial_index":95,"time_elapsed":526935,"internal_node_id":"0.0-4.0-0.44","subject_id":"610325a6052741bbfb84bcd1","study_id":"6197b3f67c2b5cd3b6d9596a","session_id":"619beeec466f487fe45684d8","condition":"contingent","relevant_dimensions":["antennae","pattern"],"bee_group":{"antennae":"B","wings":"X","pattern":"S","legs":"X"},"action":"harvest","summary":"good-harvest","bonus":1.000000000000001},{"rt":385.10000002384186,"stimulus":"\n                    <p><b>Action: <em>harvest</em></b></p>\n                    <p>This is the bee that you just saw.</p>\n                    <img src=\"bees-with-color/bee-B2DF.svg\" width=\"200\">\n                    <p><span class=\"greenText\"><b>Successful harvest!</b></span><br>Your pay has increased by $0.02. Your bonus pay is now $0.68.</p>\n            ","response":0,"trial_type":"html-button-response","trial_index":96,"time_elapsed":527321,"internal_node_id":"0.0-4.0-1.44","subject_id":"610325a6052741bbfb84bcd1","study_id":"6197b3f67c2b5cd3b6d9596a","session_id":"619beeec466f487fe45684d8","condition":"contingent","relevant_dimensions":["antennae","pattern"],"bee_group":{"antennae":"B","wings":"X","pattern":"S","legs":"X"},"bonus":1.000000000000001},{"rt":994.1000000238419,"stimulus":"bees-with-color/bee-A2DM.svg","response":0,"trial_type":"image-button-response","trial_index":97,"time_elapsed":528316,"internal_node_id":"0.0-4.0-0.45","subject_id":"610325a6052741bbfb84bcd1","study_id":"6197b3f67c2b5cd3b6d9596a","session_id":"619beeec466f487fe45684d8","condition":"contingent","relevant_dimensions":["antennae","pattern"],"bee_group":{"antennae":"B","wings":"X","pattern":"S","legs":"X"},"action":"harvest","summary":"good-harvest","bonus":1.000000000000001},{"rt":419,"stimulus":"\n                    <p><b>Action: <em>harvest</em></b></p>\n                    <p>This is the bee that you just saw.</p>\n                    <img src=\"bees-with-color/bee-A2DM.svg\" width=\"200\">\n                    <p><span class=\"greenText\"><b>Successful harvest!</b></span><br>Your pay has increased by $0.02. Your bonus pay is now $0.70.</p>\n            ","response":0,"trial_type":"html-button-response","trial_index":98,"time_elapsed":528736,"internal_node_id":"0.0-4.0-1.45","subject_id":"610325a6052741bbfb84bcd1","study_id":"6197b3f67c2b5cd3b6d9596a","session_id":"619beeec466f487fe45684d8","condition":"contingent","relevant_dimensions":["antennae","pattern"],"bee_group":{"antennae":"B","wings":"X","pattern":"S","legs":"X"},"bonus":1.000000000000001},{"rt":842.1000000238419,"stimulus":"bees-with-color/bee-A2SM.svg","response":1,"trial_type":"image-button-response","trial_index":99,"time_elapsed":529579,"internal_node_id":"0.0-4.0-0.46","subject_id":"610325a6052741bbfb84bcd1","study_id":"6197b3f67c2b5cd3b6d9596a","session_id":"619beeec466f487fe45684d8","condition":"contingent","relevant_dimensions":["antennae","pattern"],"bee_group":{"antennae":"B","wings":"X","pattern":"S","legs":"X"},"action":"avoid","summary":"bad-avoid","bonus":1.000000000000001},{"rt":366.89999997615814,"stimulus":"\n                    <p><b>Action: <em>avoid</em></b></p>\n                    <p>This is the bee that you just saw.</p>\n                    <img src=\"bees-with-color/bee-A2SM.svg\" width=\"200\">\n                    <p><br>Your bonus pay is unchanged, and remains at $0.70.</p>\n            ","response":0,"trial_type":"html-button-response","trial_index":100,"time_elapsed":529947,"internal_node_id":"0.0-4.0-1.46","subject_id":"610325a6052741bbfb84bcd1","study_id":"6197b3f67c2b5cd3b6d9596a","session_id":"619beeec466f487fe45684d8","condition":"contingent","relevant_dimensions":["antennae","pattern"],"bee_group":{"antennae":"B","wings":"X","pattern":"S","legs":"X"},"bonus":1.000000000000001},{"rt":937.1999999880791,"stimulus":"bees-with-color/bee-B2SF.svg","response":1,"trial_type":"image-button-response","trial_index":101,"time_elapsed":530885,"internal_node_id":"0.0-4.0-0.47","subject_id":"610325a6052741bbfb84bcd1","study_id":"6197b3f67c2b5cd3b6d9596a","session_id":"619beeec466f487fe45684d8","condition":"contingent","relevant_dimensions":["antennae","pattern"],"bee_group":{"antennae":"B","wings":"X","pattern":"S","legs":"X"},"action":"avoid","summary":"good-avoid","bonus":1.000000000000001},{"rt":324,"stimulus":"\n                    <p><b>Action: <em>avoid</em></b></p>\n                    <p>This is the bee that you just saw.</p>\n                    <img src=\"bees-with-color/bee-B2SF.svg\" width=\"200\">\n                    <p><br>Your bonus pay is unchanged, and remains at $0.70.</p>\n            ","response":0,"trial_type":"html-button-response","trial_index":102,"time_elapsed":531210,"internal_node_id":"0.0-4.0-1.47","subject_id":"610325a6052741bbfb84bcd1","study_id":"6197b3f67c2b5cd3b6d9596a","session_id":"619beeec466f487fe45684d8","condition":"contingent","relevant_dimensions":["antennae","pattern"],"bee_group":{"antennae":"B","wings":"X","pattern":"S","legs":"X"},"bonus":1.000000000000001},{"rt":640.0999999642372,"stimulus":"bees-with-color/bee-A2DM.svg","response":0,"trial_type":"image-button-response","trial_index":103,"time_elapsed":531851,"internal_node_id":"0.0-4.0-0.48","subject_id":"610325a6052741bbfb84bcd1","study_id":"6197b3f67c2b5cd3b6d9596a","session_id":"619beeec466f487fe45684d8","condition":"contingent","relevant_dimensions":["antennae","pattern"],"bee_group":{"antennae":"B","wings":"X","pattern":"S","legs":"X"},"action":"harvest","summary":"good-harvest","bonus":1.000000000000001},{"rt":358.19999998807907,"stimulus":"\n                    <p><b>Action: <em>harvest</em></b></p>\n                    <p>This is the bee that you just saw.</p>\n                    <img src=\"bees-with-color/bee-A2DM.svg\" width=\"200\">\n                    <p><span class=\"greenText\"><b>Successful harvest!</b></span><br>Your pay has increased by $0.02. Your bonus pay is now $0.72.</p>\n            ","response":0,"trial_type":"html-button-response","trial_index":104,"time_elapsed":532210,"internal_node_id":"0.0-4.0-1.48","subject_id":"610325a6052741bbfb84bcd1","study_id":"6197b3f67c2b5cd3b6d9596a","session_id":"619beeec466f487fe45684d8","condition":"contingent","relevant_dimensions":["antennae","pattern"],"bee_group":{"antennae":"B","wings":"X","pattern":"S","legs":"X"},"bonus":1.000000000000001},{"rt":608.1999999880791,"stimulus":"bees-with-color/bee-A1DM.svg","response":0,"trial_type":"image-button-response","trial_index":105,"time_elapsed":532818,"internal_node_id":"0.0-4.0-0.49","subject_id":"610325a6052741bbfb84bcd1","study_id":"6197b3f67c2b5cd3b6d9596a","session_id":"619beeec466f487fe45684d8","condition":"contingent","relevant_dimensions":["antennae","pattern"],"bee_group":{"antennae":"B","wings":"X","pattern":"S","legs":"X"},"action":"harvest","summary":"good-harvest","bonus":1.000000000000001},{"rt":402.19999998807907,"stimulus":"\n                    <p><b>Action: <em>harvest</em></b></p>\n                    <p>This is the bee that you just saw.</p>\n                    <img src=\"bees-with-color/bee-A1DM.svg\" width=\"200\">\n                    <p><span class=\"greenText\"><b>Successful harvest!</b></span><br>Your pay has increased by $0.02. Your bonus pay is now $0.74.</p>\n            ","response":0,"trial_type":"html-button-response","trial_index":106,"time_elapsed":533222,"internal_node_id":"0.0-4.0-1.49","subject_id":"610325a6052741bbfb84bcd1","study_id":"6197b3f67c2b5cd3b6d9596a","session_id":"619beeec466f487fe45684d8","condition":"contingent","relevant_dimensions":["antennae","pattern"],"bee_group":{"antennae":"B","wings":"X","pattern":"S","legs":"X"},"bonus":1.000000000000001},{"rt":763.1000000238419,"stimulus":"bees-with-color/bee-B2SM.svg","response":1,"trial_type":"image-button-response","trial_index":107,"time_elapsed":533986,"internal_node_id":"0.0-4.0-0.50","subject_id":"610325a6052741bbfb84bcd1","study_id":"6197b3f67c2b5cd3b6d9596a","session_id":"619beeec466f487fe45684d8","condition":"contingent","relevant_dimensions":["antennae","pattern"],"bee_group":{"antennae":"B","wings":"X","pattern":"S","legs":"X"},"action":"avoid","summary":"good-avoid","bonus":1.000000000000001},{"rt":329.2999999523163,"stimulus":"\n                    <p><b>Action: <em>avoid</em></b></p>\n                    <p>This is the bee that you just saw.</p>\n                    <img src=\"bees-with-color/bee-B2SM.svg\" width=\"200\">\n                    <p><br>Your bonus pay is unchanged, and remains at $0.74.</p>\n            ","response":0,"trial_type":"html-button-response","trial_index":108,"time_elapsed":534316,"internal_node_id":"0.0-4.0-1.50","subject_id":"610325a6052741bbfb84bcd1","study_id":"6197b3f67c2b5cd3b6d9596a","session_id":"619beeec466f487fe45684d8","condition":"contingent","relevant_dimensions":["antennae","pattern"],"bee_group":{"antennae":"B","wings":"X","pattern":"S","legs":"X"},"bonus":1.000000000000001},{"rt":864.0999999642372,"stimulus":"bees-with-color/bee-A1SM.svg","response":0,"trial_type":"image-button-response","trial_index":109,"time_elapsed":535181,"internal_node_id":"0.0-4.0-0.51","subject_id":"610325a6052741bbfb84bcd1","study_id":"6197b3f67c2b5cd3b6d9596a","session_id":"619beeec466f487fe45684d8","condition":"contingent","relevant_dimensions":["antennae","pattern"],"bee_group":{"antennae":"B","wings":"X","pattern":"S","legs":"X"},"action":"harvest","summary":"good-harvest","bonus":1.000000000000001},{"rt":387.19999998807907,"stimulus":"\n                    <p><b>Action: <em>harvest</em></b></p>\n                    <p>This is the bee that you just saw.</p>\n                    <img src=\"bees-with-color/bee-A1SM.svg\" width=\"200\">\n                    <p><span class=\"greenText\"><b>Successful harvest!</b></span><br>Your pay has increased by $0.02. Your bonus pay is now $0.76.</p>\n            ","response":0,"trial_type":"html-button-response","trial_index":110,"time_elapsed":535569,"internal_node_id":"0.0-4.0-1.51","subject_id":"610325a6052741bbfb84bcd1","study_id":"6197b3f67c2b5cd3b6d9596a","session_id":"619beeec466f487fe45684d8","condition":"contingent","relevant_dimensions":["antennae","pattern"],"bee_group":{"antennae":"B","wings":"X","pattern":"S","legs":"X"},"bonus":1.000000000000001},{"rt":843.9000000357628,"stimulus":"bees-with-color/bee-A2SF.svg","response":1,"trial_type":"image-button-response","trial_index":111,"time_elapsed":536414,"internal_node_id":"0.0-4.0-0.52","subject_id":"610325a6052741bbfb84bcd1","study_id":"6197b3f67c2b5cd3b6d9596a","session_id":"619beeec466f487fe45684d8","condition":"contingent","relevant_dimensions":["antennae","pattern"],"bee_group":{"antennae":"B","wings":"X","pattern":"S","legs":"X"},"action":"avoid","summary":"bad-avoid","bonus":1.000000000000001},{"rt":319.0999999642372,"stimulus":"\n                    <p><b>Action: <em>avoid</em></b></p>\n                    <p>This is the bee that you just saw.</p>\n                    <img src=\"bees-with-color/bee-A2SF.svg\" width=\"200\">\n                    <p><br>Your bonus pay is unchanged, and remains at $0.76.</p>\n            ","response":0,"trial_type":"html-button-response","trial_index":112,"time_elapsed":536734,"internal_node_id":"0.0-4.0-1.52","subject_id":"610325a6052741bbfb84bcd1","study_id":"6197b3f67c2b5cd3b6d9596a","session_id":"619beeec466f487fe45684d8","condition":"contingent","relevant_dimensions":["antennae","pattern"],"bee_group":{"antennae":"B","wings":"X","pattern":"S","legs":"X"},"bonus":1.000000000000001},{"rt":851.2999999523163,"stimulus":"bees-with-color/bee-B1SF.svg","response":1,"trial_type":"image-button-response","trial_index":113,"time_elapsed":537586,"internal_node_id":"0.0-4.0-0.53","subject_id":"610325a6052741bbfb84bcd1","study_id":"6197b3f67c2b5cd3b6d9596a","session_id":"619beeec466f487fe45684d8","condition":"contingent","relevant_dimensions":["antennae","pattern"],"bee_group":{"antennae":"B","wings":"X","pattern":"S","legs":"X"},"action":"avoid","summary":"good-avoid","bonus":1.000000000000001},{"rt":326.19999998807907,"stimulus":"\n                    <p><b>Action: <em>avoid</em></b></p>\n                    <p>This is the bee that you just saw.</p>\n                    <img src=\"bees-with-color/bee-B1SF.svg\" width=\"200\">\n                    <p><br>Your bonus pay is unchanged, and remains at $0.76.</p>\n            ","response":0,"trial_type":"html-button-response","trial_index":114,"time_elapsed":537913,"internal_node_id":"0.0-4.0-1.53","subject_id":"610325a6052741bbfb84bcd1","study_id":"6197b3f67c2b5cd3b6d9596a","session_id":"619beeec466f487fe45684d8","condition":"contingent","relevant_dimensions":["antennae","pattern"],"bee_group":{"antennae":"B","wings":"X","pattern":"S","legs":"X"},"bonus":1.000000000000001},{"rt":558.2999999523163,"stimulus":"bees-with-color/bee-B1DF.svg","response":0,"trial_type":"image-button-response","trial_index":115,"time_elapsed":538472,"internal_node_id":"0.0-4.0-0.54","subject_id":"610325a6052741bbfb84bcd1","study_id":"6197b3f67c2b5cd3b6d9596a","session_id":"619beeec466f487fe45684d8","condition":"contingent","relevant_dimensions":["antennae","pattern"],"bee_group":{"antennae":"B","wings":"X","pattern":"S","legs":"X"},"action":"harvest","summary":"good-harvest","bonus":1.000000000000001},{"rt":370.80000001192093,"stimulus":"\n                    <p><b>Action: <em>harvest</em></b></p>\n                    <p>This is the bee that you just saw.</p>\n                    <img src=\"bees-with-color/bee-B1DF.svg\" width=\"200\">\n                    <p><span class=\"greenText\"><b>Successful harvest!</b></span><br>Your pay has increased by $0.02. Your bonus pay is now $0.78.</p>\n            ","response":0,"trial_type":"html-button-response","trial_index":116,"time_elapsed":538843,"internal_node_id":"0.0-4.0-1.54","subject_id":"610325a6052741bbfb84bcd1","study_id":"6197b3f67c2b5cd3b6d9596a","session_id":"619beeec466f487fe45684d8","condition":"contingent","relevant_dimensions":["antennae","pattern"],"bee_group":{"antennae":"B","wings":"X","pattern":"S","legs":"X"},"bonus":1.000000000000001},{"rt":597.1999999880791,"stimulus":"bees-with-color/bee-A1DF.svg","response":0,"trial_type":"image-button-response","trial_index":117,"time_elapsed":539441,"internal_node_id":"0.0-4.0-0.55","subject_id":"610325a6052741bbfb84bcd1","study_id":"6197b3f67c2b5cd3b6d9596a","session_id":"619beeec466f487fe45684d8","condition":"contingent","relevant_dimensions":["antennae","pattern"],"bee_group":{"antennae":"B","wings":"X","pattern":"S","legs":"X"},"action":"harvest","summary":"good-harvest","bonus":1.000000000000001},{"rt":371.19999998807907,"stimulus":"\n                    <p><b>Action: <em>harvest</em></b></p>\n                    <p>This is the bee that you just saw.</p>\n                    <img src=\"bees-with-color/bee-A1DF.svg\" width=\"200\">\n                    <p><span class=\"greenText\"><b>Successful harvest!</b></span><br>Your pay has increased by $0.02. Your bonus pay is now $0.80.</p>\n            ","response":0,"trial_type":"html-button-response","trial_index":118,"time_elapsed":539814,"internal_node_id":"0.0-4.0-1.55","subject_id":"610325a6052741bbfb84bcd1","study_id":"6197b3f67c2b5cd3b6d9596a","session_id":"619beeec466f487fe45684d8","condition":"contingent","relevant_dimensions":["antennae","pattern"],"bee_group":{"antennae":"B","wings":"X","pattern":"S","legs":"X"},"bonus":1.000000000000001},{"rt":793.1999999880791,"stimulus":"bees-with-color/bee-B2SF.svg","response":0,"trial_type":"image-button-response","trial_index":119,"time_elapsed":540608,"internal_node_id":"0.0-4.0-0.56","subject_id":"610325a6052741bbfb84bcd1","study_id":"6197b3f67c2b5cd3b6d9596a","session_id":"619beeec466f487fe45684d8","condition":"contingent","relevant_dimensions":["antennae","pattern"],"bee_group":{"antennae":"B","wings":"X","pattern":"S","legs":"X"},"action":"harvest","summary":"bad-harvest","bonus":1.000000000000001},{"rt":885,"stimulus":"\n                    <p><b>Action: <em>harvest</em></b></p>\n                    <p>This is the bee that you just saw.</p>\n                    <img src=\"bees-with-color/bee-B2SF.svg\" width=\"200\">\n                    <p><span class=\"redText\">Bad choice, the bee was angry.</span><br><b>You have been stung!</b><br>Your pay has been decreased by $0.10. Your bonus pay is now $0.70.</p>\n            ","response":0,"trial_type":"html-button-response","trial_index":120,"time_elapsed":541493,"internal_node_id":"0.0-4.0-1.56","subject_id":"610325a6052741bbfb84bcd1","study_id":"6197b3f67c2b5cd3b6d9596a","session_id":"619beeec466f487fe45684d8","condition":"contingent","relevant_dimensions":["antennae","pattern"],"bee_group":{"antennae":"B","wings":"X","pattern":"S","legs":"X"},"bonus":1.000000000000001},{"rt":481.19999998807907,"stimulus":"bees-with-color/bee-B2DF.svg","response":1,"trial_type":"image-button-response","trial_index":121,"time_elapsed":541976,"internal_node_id":"0.0-4.0-0.57","subject_id":"610325a6052741bbfb84bcd1","study_id":"6197b3f67c2b5cd3b6d9596a","session_id":"619beeec466f487fe45684d8","condition":"contingent","relevant_dimensions":["antennae","pattern"],"bee_group":{"antennae":"B","wings":"X","pattern":"S","legs":"X"},"action":"avoid","summary":"bad-avoid","bonus":1.000000000000001},{"rt":543,"stimulus":"\n                    <p><b>Action: <em>avoid</em></b></p>\n                    <p>This is the bee that you just saw.</p>\n                    <img src=\"bees-with-color/bee-B2DF.svg\" width=\"200\">\n                    <p><br>Your bonus pay is unchanged, and remains at $0.70.</p>\n            ","response":0,"trial_type":"html-button-response","trial_index":122,"time_elapsed":542519,"internal_node_id":"0.0-4.0-1.57","subject_id":"610325a6052741bbfb84bcd1","study_id":"6197b3f67c2b5cd3b6d9596a","session_id":"619beeec466f487fe45684d8","condition":"contingent","relevant_dimensions":["antennae","pattern"],"bee_group":{"antennae":"B","wings":"X","pattern":"S","legs":"X"},"bonus":1.000000000000001},{"rt":553.2000000476837,"stimulus":"bees-with-color/bee-B2DM.svg","response":0,"trial_type":"image-button-response","trial_index":123,"time_elapsed":543073,"internal_node_id":"0.0-4.0-0.58","subject_id":"610325a6052741bbfb84bcd1","study_id":"6197b3f67c2b5cd3b6d9596a","session_id":"619beeec466f487fe45684d8","condition":"contingent","relevant_dimensions":["antennae","pattern"],"bee_group":{"antennae":"B","wings":"X","pattern":"S","legs":"X"},"action":"harvest","summary":"good-harvest","bonus":1.000000000000001},{"rt":323.10000002384186,"stimulus":"\n                    <p><b>Action: <em>harvest</em></b></p>\n                    <p>This is the bee that you just saw.</p>\n                    <img src=\"bees-with-color/bee-B2DM.svg\" width=\"200\">\n                    <p><span class=\"greenText\"><b>Successful harvest!</b></span><br>Your pay has increased by $0.02. Your bonus pay is now $0.72.</p>\n            ","response":0,"trial_type":"html-button-response","trial_index":124,"time_elapsed":543397,"internal_node_id":"0.0-4.0-1.58","subject_id":"610325a6052741bbfb84bcd1","study_id":"6197b3f67c2b5cd3b6d9596a","session_id":"619beeec466f487fe45684d8","condition":"contingent","relevant_dimensions":["antennae","pattern"],"bee_group":{"antennae":"B","wings":"X","pattern":"S","legs":"X"},"bonus":1.000000000000001},{"rt":635.1000000238419,"stimulus":"bees-with-color/bee-B1DM.svg","response":0,"trial_type":"image-button-response","trial_index":125,"time_elapsed":544033,"internal_node_id":"0.0-4.0-0.59","subject_id":"610325a6052741bbfb84bcd1","study_id":"6197b3f67c2b5cd3b6d9596a","session_id":"619beeec466f487fe45684d8","condition":"contingent","relevant_dimensions":["antennae","pattern"],"bee_group":{"antennae":"B","wings":"X","pattern":"S","legs":"X"},"action":"harvest","summary":"good-harvest","bonus":1.000000000000001},{"rt":416.2000000476837,"stimulus":"\n                    <p><b>Action: <em>harvest</em></b></p>\n                    <p>This is the bee that you just saw.</p>\n                    <img src=\"bees-with-color/bee-B1DM.svg\" width=\"200\">\n                    <p><span class=\"greenText\"><b>Successful harvest!</b></span><br>Your pay has increased by $0.02. Your bonus pay is now $0.74.</p>\n            ","response":0,"trial_type":"html-button-response","trial_index":126,"time_elapsed":544450,"internal_node_id":"0.0-4.0-1.59","subject_id":"610325a6052741bbfb84bcd1","study_id":"6197b3f67c2b5cd3b6d9596a","session_id":"619beeec466f487fe45684d8","condition":"contingent","relevant_dimensions":["antennae","pattern"],"bee_group":{"antennae":"B","wings":"X","pattern":"S","legs":"X"},"bonus":1.000000000000001},{"rt":905.2000000476837,"stimulus":"bees-with-color/bee-B1SM.svg","response":1,"trial_type":"image-button-response","trial_index":127,"time_elapsed":545356,"internal_node_id":"0.0-4.0-0.60","subject_id":"610325a6052741bbfb84bcd1","study_id":"6197b3f67c2b5cd3b6d9596a","session_id":"619beeec466f487fe45684d8","condition":"contingent","relevant_dimensions":["antennae","pattern"],"bee_group":{"antennae":"B","wings":"X","pattern":"S","legs":"X"},"action":"avoid","summary":"good-avoid","bonus":1.000000000000001},{"rt":365.89999997615814,"stimulus":"\n                    <p><b>Action: <em>avoid</em></b></p>\n                    <p>This is the bee that you just saw.</p>\n                    <img src=\"bees-with-color/bee-B1SM.svg\" width=\"200\">\n                    <p><br>Your bonus pay is unchanged, and remains at $0.74.</p>\n            ","response":0,"trial_type":"html-button-response","trial_index":128,"time_elapsed":545723,"internal_node_id":"0.0-4.0-1.60","subject_id":"610325a6052741bbfb84bcd1","study_id":"6197b3f67c2b5cd3b6d9596a","session_id":"619beeec466f487fe45684d8","condition":"contingent","relevant_dimensions":["antennae","pattern"],"bee_group":{"antennae":"B","wings":"X","pattern":"S","legs":"X"},"bonus":1.000000000000001},{"rt":1078.2000000476837,"stimulus":"bees-with-color/bee-A1SF.svg","response":1,"trial_type":"image-button-response","trial_index":129,"time_elapsed":546802,"internal_node_id":"0.0-4.0-0.61","subject_id":"610325a6052741bbfb84bcd1","study_id":"6197b3f67c2b5cd3b6d9596a","session_id":"619beeec466f487fe45684d8","condition":"contingent","relevant_dimensions":["antennae","pattern"],"bee_group":{"antennae":"B","wings":"X","pattern":"S","legs":"X"},"action":"avoid","summary":"bad-avoid","bonus":1.000000000000001},{"rt":319,"stimulus":"\n                    <p><b>Action: <em>avoid</em></b></p>\n                    <p>This is the bee that you just saw.</p>\n                    <img src=\"bees-with-color/bee-A1SF.svg\" width=\"200\">\n                    <p><br>Your bonus pay is unchanged, and remains at $0.74.</p>\n            ","response":0,"trial_type":"html-button-response","trial_index":130,"time_elapsed":547122,"internal_node_id":"0.0-4.0-1.61","subject_id":"610325a6052741bbfb84bcd1","study_id":"6197b3f67c2b5cd3b6d9596a","session_id":"619beeec466f487fe45684d8","condition":"contingent","relevant_dimensions":["antennae","pattern"],"bee_group":{"antennae":"B","wings":"X","pattern":"S","legs":"X"},"bonus":1.000000000000001},{"rt":614.1999999880791,"stimulus":"bees-with-color/bee-A2DF.svg","response":0,"trial_type":"image-button-response","trial_index":131,"time_elapsed":547737,"internal_node_id":"0.0-4.0-0.62","subject_id":"610325a6052741bbfb84bcd1","study_id":"6197b3f67c2b5cd3b6d9596a","session_id":"619beeec466f487fe45684d8","condition":"contingent","relevant_dimensions":["antennae","pattern"],"bee_group":{"antennae":"B","wings":"X","pattern":"S","legs":"X"},"action":"harvest","summary":"good-harvest","bonus":1.000000000000001},{"rt":368.89999997615814,"stimulus":"\n                    <p><b>Action: <em>harvest</em></b></p>\n                    <p>This is the bee that you just saw.</p>\n                    <img src=\"bees-with-color/bee-A2DF.svg\" width=\"200\">\n                    <p><span class=\"greenText\"><b>Successful harvest!</b></span><br>Your pay has increased by $0.02. Your bonus pay is now $0.76.</p>\n            ","response":0,"trial_type":"html-button-response","trial_index":132,"time_elapsed":548107,"internal_node_id":"0.0-4.0-1.62","subject_id":"610325a6052741bbfb84bcd1","study_id":"6197b3f67c2b5cd3b6d9596a","session_id":"619beeec466f487fe45684d8","condition":"contingent","relevant_dimensions":["antennae","pattern"],"bee_group":{"antennae":"B","wings":"X","pattern":"S","legs":"X"},"bonus":1.000000000000001},{"rt":793,"stimulus":"bees-with-color/bee-A2SM.svg","response":1,"trial_type":"image-button-response","trial_index":133,"time_elapsed":548901,"internal_node_id":"0.0-4.0-0.63","subject_id":"610325a6052741bbfb84bcd1","study_id":"6197b3f67c2b5cd3b6d9596a","session_id":"619beeec466f487fe45684d8","condition":"contingent","relevant_dimensions":["antennae","pattern"],"bee_group":{"antennae":"B","wings":"X","pattern":"S","legs":"X"},"action":"avoid","summary":"bad-avoid","bonus":1.000000000000001},{"rt":345.0999999642372,"stimulus":"\n                    <p><b>Action: <em>avoid</em></b></p>\n                    <p>This is the bee that you just saw.</p>\n                    <img src=\"bees-with-color/bee-A2SM.svg\" width=\"200\">\n                    <p><br>Your bonus pay is unchanged, and remains at $0.76.</p>\n            ","response":0,"trial_type":"html-button-response","trial_index":134,"time_elapsed":549247,"internal_node_id":"0.0-4.0-1.63","subject_id":"610325a6052741bbfb84bcd1","study_id":"6197b3f67c2b5cd3b6d9596a","session_id":"619beeec466f487fe45684d8","condition":"contingent","relevant_dimensions":["antennae","pattern"],"bee_group":{"antennae":"B","wings":"X","pattern":"S","legs":"X"},"bonus":1.000000000000001},{"rt":4675,"stimulus":"You have completed the first part of this experiment.<br><br>You will now begin a shorter second part, in which you will receive no feedback.<br>The same rules regarding bonus pay apply.<br><br>Press any key to begin.","response":" ","trial_type":"html-keyboard-response","trial_index":135,"time_elapsed":553923,"internal_node_id":"0.0-5.0","subject_id":"610325a6052741bbfb84bcd1","study_id":"6197b3f67c2b5cd3b6d9596a","session_id":"619beeec466f487fe45684d8","condition":"contingent","relevant_dimensions":["antennae","pattern"],"bee_group":{"antennae":"B","wings":"X","pattern":"S","legs":"X"},"bonus":1.000000000000001},{"rt":1954,"stimulus":"bees-with-color/bee-B2DF.svg","response":0,"trial_type":"image-button-response","trial_index":136,"time_elapsed":555881,"internal_node_id":"0.0-6.0-0.0","subject_id":"610325a6052741bbfb84bcd1","study_id":"6197b3f67c2b5cd3b6d9596a","session_id":"619beeec466f487fe45684d8","condition":"contingent","relevant_dimensions":["antennae","pattern"],"bee_group":{"antennae":"B","wings":"X","pattern":"S","legs":"X"},"bonus":1.000000000000001},{"rt":2632.800000011921,"stimulus":"bees-with-color/bee-A2SF.svg","response":1,"trial_type":"image-button-response","trial_index":137,"time_elapsed":558515,"internal_node_id":"0.0-6.0-0.1","subject_id":"610325a6052741bbfb84bcd1","study_id":"6197b3f67c2b5cd3b6d9596a","session_id":"619beeec466f487fe45684d8","condition":"contingent","relevant_dimensions":["antennae","pattern"],"bee_group":{"antennae":"B","wings":"X","pattern":"S","legs":"X"},"bonus":1.000000000000001},{"rt":645.8000000119209,"stimulus":"bees-with-color/bee-B2DM.svg","response":0,"trial_type":"image-button-response","trial_index":138,"time_elapsed":559162,"internal_node_id":"0.0-6.0-0.2","subject_id":"610325a6052741bbfb84bcd1","study_id":"6197b3f67c2b5cd3b6d9596a","session_id":"619beeec466f487fe45684d8","condition":"contingent","relevant_dimensions":["antennae","pattern"],"bee_group":{"antennae":"B","wings":"X","pattern":"S","legs":"X"},"bonus":1.000000000000001},{"rt":557.6000000238419,"stimulus":"bees-with-color/bee-A2DF.svg","response":0,"trial_type":"image-button-response","trial_index":139,"time_elapsed":559721,"internal_node_id":"0.0-6.0-0.3","subject_id":"610325a6052741bbfb84bcd1","study_id":"6197b3f67c2b5cd3b6d9596a","session_id":"619beeec466f487fe45684d8","condition":"contingent","relevant_dimensions":["antennae","pattern"],"bee_group":{"antennae":"B","wings":"X","pattern":"S","legs":"X"},"bonus":1.000000000000001},{"rt":652.9000000357628,"stimulus":"bees-with-color/bee-A1DF.svg","response":0,"trial_type":"image-button-response","trial_index":140,"time_elapsed":560375,"internal_node_id":"0.0-6.0-0.4","subject_id":"610325a6052741bbfb84bcd1","study_id":"6197b3f67c2b5cd3b6d9596a","session_id":"619beeec466f487fe45684d8","condition":"contingent","relevant_dimensions":["antennae","pattern"],"bee_group":{"antennae":"B","wings":"X","pattern":"S","legs":"X"},"bonus":1.000000000000001},{"rt":710.9000000357628,"stimulus":"bees-with-color/bee-A1SF.svg","response":1,"trial_type":"image-button-response","trial_index":141,"time_elapsed":561087,"internal_node_id":"0.0-6.0-0.5","subject_id":"610325a6052741bbfb84bcd1","study_id":"6197b3f67c2b5cd3b6d9596a","session_id":"619beeec466f487fe45684d8","condition":"contingent","relevant_dimensions":["antennae","pattern"],"bee_group":{"antennae":"B","wings":"X","pattern":"S","legs":"X"},"bonus":1.000000000000001},{"rt":770.6999999880791,"stimulus":"bees-with-color/bee-B1SF.svg","response":1,"trial_type":"image-button-response","trial_index":142,"time_elapsed":561859,"internal_node_id":"0.0-6.0-0.6","subject_id":"610325a6052741bbfb84bcd1","study_id":"6197b3f67c2b5cd3b6d9596a","session_id":"619beeec466f487fe45684d8","condition":"contingent","relevant_dimensions":["antennae","pattern"],"bee_group":{"antennae":"B","wings":"X","pattern":"S","legs":"X"},"bonus":1.000000000000001},{"rt":747.8000000119209,"stimulus":"bees-with-color/bee-B2SM.svg","response":0,"trial_type":"image-button-response","trial_index":143,"time_elapsed":562608,"internal_node_id":"0.0-6.0-0.7","subject_id":"610325a6052741bbfb84bcd1","study_id":"6197b3f67c2b5cd3b6d9596a","session_id":"619beeec466f487fe45684d8","condition":"contingent","relevant_dimensions":["antennae","pattern"],"bee_group":{"antennae":"B","wings":"X","pattern":"S","legs":"X"},"bonus":1.000000000000001},{"rt":700.8000000119209,"stimulus":"bees-with-color/bee-A1SM.svg","response":0,"trial_type":"image-button-response","trial_index":144,"time_elapsed":563310,"internal_node_id":"0.0-6.0-0.8","subject_id":"610325a6052741bbfb84bcd1","study_id":"6197b3f67c2b5cd3b6d9596a","session_id":"619beeec466f487fe45684d8","condition":"contingent","relevant_dimensions":["antennae","pattern"],"bee_group":{"antennae":"B","wings":"X","pattern":"S","legs":"X"},"bonus":1.000000000000001},{"rt":716,"stimulus":"bees-with-color/bee-B1DF.svg","response":0,"trial_type":"image-button-response","trial_index":145,"time_elapsed":564027,"internal_node_id":"0.0-6.0-0.9","subject_id":"610325a6052741bbfb84bcd1","study_id":"6197b3f67c2b5cd3b6d9596a","session_id":"619beeec466f487fe45684d8","condition":"contingent","relevant_dimensions":["antennae","pattern"],"bee_group":{"antennae":"B","wings":"X","pattern":"S","legs":"X"},"bonus":1.000000000000001},{"rt":536,"stimulus":"bees-with-color/bee-A1DM.svg","response":0,"trial_type":"image-button-response","trial_index":146,"time_elapsed":564564,"internal_node_id":"0.0-6.0-0.10","subject_id":"610325a6052741bbfb84bcd1","study_id":"6197b3f67c2b5cd3b6d9596a","session_id":"619beeec466f487fe45684d8","condition":"contingent","relevant_dimensions":["antennae","pattern"],"bee_group":{"antennae":"B","wings":"X","pattern":"S","legs":"X"},"bonus":1.000000000000001},{"rt":757.6000000238419,"stimulus":"bees-with-color/bee-B2SF.svg","response":1,"trial_type":"image-button-response","trial_index":147,"time_elapsed":565323,"internal_node_id":"0.0-6.0-0.11","subject_id":"610325a6052741bbfb84bcd1","study_id":"6197b3f67c2b5cd3b6d9596a","session_id":"619beeec466f487fe45684d8","condition":"contingent","relevant_dimensions":["antennae","pattern"],"bee_group":{"antennae":"B","wings":"X","pattern":"S","legs":"X"},"bonus":1.000000000000001},{"rt":688.6999999880791,"stimulus":"bees-with-color/bee-A2DM.svg","response":0,"trial_type":"image-button-response","trial_index":148,"time_elapsed":566013,"internal_node_id":"0.0-6.0-0.12","subject_id":"610325a6052741bbfb84bcd1","study_id":"6197b3f67c2b5cd3b6d9596a","session_id":"619beeec466f487fe45684d8","condition":"contingent","relevant_dimensions":["antennae","pattern"],"bee_group":{"antennae":"B","wings":"X","pattern":"S","legs":"X"},"bonus":1.000000000000001},{"rt":603.7999999523163,"stimulus":"bees-with-color/bee-B1DM.svg","response":0,"trial_type":"image-button-response","trial_index":149,"time_elapsed":566618,"internal_node_id":"0.0-6.0-0.13","subject_id":"610325a6052741bbfb84bcd1","study_id":"6197b3f67c2b5cd3b6d9596a","session_id":"619beeec466f487fe45684d8","condition":"contingent","relevant_dimensions":["antennae","pattern"],"bee_group":{"antennae":"B","wings":"X","pattern":"S","legs":"X"},"bonus":1.000000000000001},{"rt":665.6999999880791,"stimulus":"bees-with-color/bee-A2SM.svg","response":1,"trial_type":"image-button-response","trial_index":150,"time_elapsed":567285,"internal_node_id":"0.0-6.0-0.14","subject_id":"610325a6052741bbfb84bcd1","study_id":"6197b3f67c2b5cd3b6d9596a","session_id":"619beeec466f487fe45684d8","condition":"contingent","relevant_dimensions":["antennae","pattern"],"bee_group":{"antennae":"B","wings":"X","pattern":"S","legs":"X"},"bonus":1.000000000000001},{"rt":573.6999999880791,"stimulus":"bees-with-color/bee-B1SM.svg","response":1,"trial_type":"image-button-response","trial_index":151,"time_elapsed":567859,"internal_node_id":"0.0-6.0-0.15","subject_id":"610325a6052741bbfb84bcd1","study_id":"6197b3f67c2b5cd3b6d9596a","session_id":"619beeec466f487fe45684d8","condition":"contingent","relevant_dimensions":["antennae","pattern"],"bee_group":{"antennae":"B","wings":"X","pattern":"S","legs":"X"},"bonus":1.000000000000001},{"rt":593.3000000119209,"stimulus":"bees-with-color/bee-A1DM.svg","response":0,"trial_type":"image-button-response","trial_index":152,"time_elapsed":568454,"internal_node_id":"0.0-6.0-0.16","subject_id":"610325a6052741bbfb84bcd1","study_id":"6197b3f67c2b5cd3b6d9596a","session_id":"619beeec466f487fe45684d8","condition":"contingent","relevant_dimensions":["antennae","pattern"],"bee_group":{"antennae":"B","wings":"X","pattern":"S","legs":"X"},"bonus":1.000000000000001},{"rt":451.7999999523163,"stimulus":"bees-with-color/bee-B2DM.svg","response":0,"trial_type":"image-button-response","trial_index":153,"time_elapsed":568907,"internal_node_id":"0.0-6.0-0.17","subject_id":"610325a6052741bbfb84bcd1","study_id":"6197b3f67c2b5cd3b6d9596a","session_id":"619beeec466f487fe45684d8","condition":"contingent","relevant_dimensions":["antennae","pattern"],"bee_group":{"antennae":"B","wings":"X","pattern":"S","legs":"X"},"bonus":1.000000000000001},{"rt":697.9000000357628,"stimulus":"bees-with-color/bee-B2SF.svg","response":1,"trial_type":"image-button-response","trial_index":154,"time_elapsed":569606,"internal_node_id":"0.0-6.0-0.18","subject_id":"610325a6052741bbfb84bcd1","study_id":"6197b3f67c2b5cd3b6d9596a","session_id":"619beeec466f487fe45684d8","condition":"contingent","relevant_dimensions":["antennae","pattern"],"bee_group":{"antennae":"B","wings":"X","pattern":"S","legs":"X"},"bonus":1.000000000000001},{"rt":534,"stimulus":"bees-with-color/bee-A1DF.svg","response":0,"trial_type":"image-button-response","trial_index":155,"time_elapsed":570141,"internal_node_id":"0.0-6.0-0.19","subject_id":"610325a6052741bbfb84bcd1","study_id":"6197b3f67c2b5cd3b6d9596a","session_id":"619beeec466f487fe45684d8","condition":"contingent","relevant_dimensions":["antennae","pattern"],"bee_group":{"antennae":"B","wings":"X","pattern":"S","legs":"X"},"bonus":1.000000000000001},{"rt":646.1999999880791,"stimulus":"bees-with-color/bee-A2SM.svg","response":1,"trial_type":"image-button-response","trial_index":156,"time_elapsed":570788,"internal_node_id":"0.0-6.0-0.20","subject_id":"610325a6052741bbfb84bcd1","study_id":"6197b3f67c2b5cd3b6d9596a","session_id":"619beeec466f487fe45684d8","condition":"contingent","relevant_dimensions":["antennae","pattern"],"bee_group":{"antennae":"B","wings":"X","pattern":"S","legs":"X"},"bonus":1.000000000000001},{"rt":732.8999999761581,"stimulus":"bees-with-color/bee-A2SF.svg","response":1,"trial_type":"image-button-response","trial_index":157,"time_elapsed":571522,"internal_node_id":"0.0-6.0-0.21","subject_id":"610325a6052741bbfb84bcd1","study_id":"6197b3f67c2b5cd3b6d9596a","session_id":"619beeec466f487fe45684d8","condition":"contingent","relevant_dimensions":["antennae","pattern"],"bee_group":{"antennae":"B","wings":"X","pattern":"S","legs":"X"},"bonus":1.000000000000001},{"rt":503.80000001192093,"stimulus":"bees-with-color/bee-B1DF.svg","response":0,"trial_type":"image-button-response","trial_index":158,"time_elapsed":572027,"internal_node_id":"0.0-6.0-0.22","subject_id":"610325a6052741bbfb84bcd1","study_id":"6197b3f67c2b5cd3b6d9596a","session_id":"619beeec466f487fe45684d8","condition":"contingent","relevant_dimensions":["antennae","pattern"],"bee_group":{"antennae":"B","wings":"X","pattern":"S","legs":"X"},"bonus":1.000000000000001},{"rt":624,"stimulus":"bees-with-color/bee-B2SM.svg","response":1,"trial_type":"image-button-response","trial_index":159,"time_elapsed":572652,"internal_node_id":"0.0-6.0-0.23","subject_id":"610325a6052741bbfb84bcd1","study_id":"6197b3f67c2b5cd3b6d9596a","session_id":"619beeec466f487fe45684d8","condition":"contingent","relevant_dimensions":["antennae","pattern"],"bee_group":{"antennae":"B","wings":"X","pattern":"S","legs":"X"},"bonus":1.000000000000001},{"rt":1592,"stimulus":"bees-with-color/bee-B1SF.svg","response":1,"trial_type":"image-button-response","trial_index":160,"time_elapsed":574244,"internal_node_id":"0.0-6.0-0.24","subject_id":"610325a6052741bbfb84bcd1","study_id":"6197b3f67c2b5cd3b6d9596a","session_id":"619beeec466f487fe45684d8","condition":"contingent","relevant_dimensions":["antennae","pattern"],"bee_group":{"antennae":"B","wings":"X","pattern":"S","legs":"X"},"bonus":1.000000000000001},{"rt":457.80000001192093,"stimulus":"bees-with-color/bee-B2DF.svg","response":0,"trial_type":"image-button-response","trial_index":161,"time_elapsed":574703,"internal_node_id":"0.0-6.0-0.25","subject_id":"610325a6052741bbfb84bcd1","study_id":"6197b3f67c2b5cd3b6d9596a","session_id":"619beeec466f487fe45684d8","condition":"contingent","relevant_dimensions":["antennae","pattern"],"bee_group":{"antennae":"B","wings":"X","pattern":"S","legs":"X"},"bonus":1.000000000000001},{"rt":684.0999999642372,"stimulus":"bees-with-color/bee-A1SF.svg","response":1,"trial_type":"image-button-response","trial_index":162,