[{"success":true,"trial_type":"fullscreen","trial_index":0,"time_elapsed":8106,"internal_node_id":"0.0-0.0","subject_id":"613c366feb00475071e752cb","study_id":"6197b3f67c2b5cd3b6d9596a","session_id":"619be321464b5b2bd849f07e","condition":"contingent","relevant_dimensions":["wings","legs"],"bee_group":{"antennae":"X","wings":"1","pattern":"X","legs":"F"},"bonus":1.640000000000001},{"success":true,"timeout":false,"failed_images":[],"failed_audio":[],"failed_video":[],"trial_type":"preload","trial_index":1,"time_elapsed":9607,"internal_node_id":"0.0-1.0","subject_id":"613c366feb00475071e752cb","study_id":"6197b3f67c2b5cd3b6d9596a","session_id":"619be321464b5b2bd849f07e","condition":"contingent","relevant_dimensions":["wings","legs"],"bee_group":{"antennae":"X","wings":"1","pattern":"X","legs":"F"},"bonus":1.640000000000001},{"rt":2144.7999999998137,"stimulus":"Welcome! Press any key to begin.","response":" ","trial_type":"html-keyboard-response","trial_index":2,"time_elapsed":11753,"internal_node_id":"0.0-2.0","subject_id":"613c366feb00475071e752cb","study_id":"6197b3f67c2b5cd3b6d9596a","session_id":"619be321464b5b2bd849f07e","condition":"contingent","relevant_dimensions":["wings","legs"],"bee_group":{"antennae":"X","wings":"1","pattern":"X","legs":"F"},"bonus":1.640000000000001},{"view_history":[{"page_index":0,"viewing_time":5716.600000000559},{"page_index":1,"viewing_time":165865.5},{"page_index":2,"viewing_time":87439.70000000019},{"page_index":3,"viewing_time":44904.5},{"page_index":4,"viewing_time":10131.5},{"page_index":5,"viewing_time":13125.799999999814},{"page_index":6,"viewing_time":100394.20000000019},{"page_index":7,"viewing_time":6492},{"page_index":8,"viewing_time":25364.299999999814},{"page_index":9,"viewing_time":3300.2000000001863},{"page_index":10,"viewing_time":3064.199999999255},{"page_index":11,"viewing_time":9713.600000000559},{"page_index":12,"viewing_time":39091.89999999944},{"page_index":13,"viewing_time":5836.100000000559},{"page_index":14,"viewing_time":2951.7000000001863}],"rt":523392.7000000002,"trial_type":"instructions","trial_index":3,"time_elapsed":535168,"internal_node_id":"0.0-3.0-0.0","subject_id":"613c366feb00475071e752cb","study_id":"6197b3f67c2b5cd3b6d9596a","session_id":"619be321464b5b2bd849f07e","condition":"contingent","relevant_dimensions":["wings","legs"],"bee_group":{"antennae":"X","wings":"1","pattern":"X","legs":"F"},"bonus":1.640000000000001},{"rt":53370.59999999963,"response":{"Q0":["Two or six legs","Stripes or spots on body","Single or double wings","Antennae or no antennae"]},"question_order":[0],"trial_type":"survey-multi-select","trial_index":4,"time_elapsed":588579,"internal_node_id":"0.0-3.0-1.0","subject_id":"613c366feb00475071e752cb","study_id":"6197b3f67c2b5cd3b6d9596a","session_id":"619be321464b5b2bd849f07e","condition":"contingent","relevant_dimensions":["wings","legs"],"bee_group":{"antennae":"X","wings":"1","pattern":"X","legs":"F"},"correct":true,"bonus":1.640000000000001},{"rt":103089,"response":{"Q1":"No.","Q2":"Based on the four features of the bee.","Q3":"You do not learn if it was friendly or dangerous, and do not alter your bonus."},"question_order":[0,1,2],"trial_type":"survey-multi-choice","trial_index":5,"time_elapsed":691676,"internal_node_id":"0.0-3.0-2.0","subject_id":"613c366feb00475071e752cb","study_id":"6197b3f67c2b5cd3b6d9596a","session_id":"619be321464b5b2bd849f07e","condition":"contingent","relevant_dimensions":["wings","legs"],"bee_group":{"antennae":"X","wings":"1","pattern":"X","legs":"F"},"correct":true,"bonus":1.640000000000001},{"rt":4548.700000000186,"stimulus":"<p>Congrats, you got everything right<br>When you're ready, click the button below to continue to the experiment.</p>","response":0,"trial_type":"html-button-response","trial_index":6,"time_elapsed":696227,"internal_node_id":"0.0-3.0-3.0","subject_id":"613c366feb00475071e752cb","study_id":"6197b3f67c2b5cd3b6d9596a","session_id":"619be321464b5b2bd849f07e","condition":"contingent","relevant_dimensions":["wings","legs"],"bee_group":{"antennae":"X","wings":"1","pattern":"X","legs":"F"},"bonus":1.640000000000001},{"rt":9302.200000000186,"stimulus":"bees-with-color/bee-B2DF.svg","response":0,"trial_type":"image-button-response","trial_index":7,"time_elapsed":705604,"internal_node_id":"0.0-4.0-0.0","subject_id":"613c366feb00475071e752cb","study_id":"6197b3f67c2b5cd3b6d9596a","session_id":"619be321464b5b2bd849f07e","condition":"contingent","relevant_dimensions":["wings","legs"],"bee_group":{"antennae":"X","wings":"1","pattern":"X","legs":"F"},"action":"harvest","summary":"good-harvest","bonus":1.640000000000001},{"rt":27736.5,"stimulus":"\n                    <p><b>Action: <em>harvest</em></b></p>\n                    <p>This is the bee that you just saw.</p>\n                    <img src=\"bees-with-color/bee-B2DF.svg\" width=\"200\">\n                    <p><span class=\"greenText\"><b>Successful harvest!</b></span><br>Your pay has increased by $0.02. Your bonus pay is now $0.56.</p>\n            ","response":0,"trial_type":"html-button-response","trial_index":8,"time_elapsed":733375,"internal_node_id":"0.0-4.0-1.0","subject_id":"613c366feb00475071e752cb","study_id":"6197b3f67c2b5cd3b6d9596a","session_id":"619be321464b5b2bd849f07e","condition":"contingent","relevant_dimensions":["wings","legs"],"bee_group":{"antennae":"X","wings":"1","pattern":"X","legs":"F"},"bonus":1.640000000000001},{"rt":3827.300000000745,"stimulus":"bees-with-color/bee-B1DM.svg","response":1,"trial_type":"image-button-response","trial_index":9,"time_elapsed":737205,"internal_node_id":"0.0-4.0-0.1","subject_id":"613c366feb00475071e752cb","study_id":"6197b3f67c2b5cd3b6d9596a","session_id":"619be321464b5b2bd849f07e","condition":"contingent","relevant_dimensions":["wings","legs"],"bee_group":{"antennae":"X","wings":"1","pattern":"X","legs":"F"},"action":"avoid","summary":"bad-avoid","bonus":1.640000000000001},{"rt":5396.5999999996275,"stimulus":"\n                    <p><b>Action: <em>avoid</em></b></p>\n                    <p>This is the bee that you just saw.</p>\n                    <img src=\"bees-with-color/bee-B1DM.svg\" width=\"200\">\n                    <p><br>Your bonus pay is unchanged, and remains at $0.56.</p>\n            ","response":0,"trial_type":"html-button-response","trial_index":10,"time_elapsed":742605,"internal_node_id":"0.0-4.0-1.1","subject_id":"613c366feb00475071e752cb","study_id":"6197b3f67c2b5cd3b6d9596a","session_id":"619be321464b5b2bd849f07e","condition":"contingent","relevant_dimensions":["wings","legs"],"bee_group":{"antennae":"X","wings":"1","pattern":"X","legs":"F"},"bonus":1.640000000000001},{"rt":6881.299999999814,"stimulus":"bees-with-color/bee-B1SM.svg","response":0,"trial_type":"image-button-response","trial_index":11,"time_elapsed":749489,"internal_node_id":"0.0-4.0-0.2","subject_id":"613c366feb00475071e752cb","study_id":"6197b3f67c2b5cd3b6d9596a","session_id":"619be321464b5b2bd849f07e","condition":"contingent","relevant_dimensions":["wings","legs"],"bee_group":{"antennae":"X","wings":"1","pattern":"X","legs":"F"},"action":"harvest","summary":"good-harvest","bonus":1.640000000000001},{"rt":5362.0999999996275,"stimulus":"\n                    <p><b>Action: <em>harvest</em></b></p>\n                    <p>This is the bee that you just saw.</p>\n                    <img src=\"bees-with-color/bee-B1SM.svg\" width=\"200\">\n                    <p><span class=\"greenText\"><b>Successful harvest!</b></span><br>Your pay has increased by $0.02. Your bonus pay is now $0.58.</p>\n            ","response":0,"trial_type":"html-button-response","trial_index":12,"time_elapsed":754853,"internal_node_id":"0.0-4.0-1.2","subject_id":"613c366feb00475071e752cb","study_id":"6197b3f67c2b5cd3b6d9596a","session_id":"619be321464b5b2bd849f07e","condition":"contingent","relevant_dimensions":["wings","legs"],"bee_group":{"antennae":"X","wings":"1","pattern":"X","legs":"F"},"bonus":1.640000000000001},{"rt":2387.100000000559,"stimulus":"bees-with-color/bee-B2DM.svg","response":0,"trial_type":"image-button-response","trial_index":13,"time_elapsed":757244,"internal_node_id":"0.0-4.0-0.3","subject_id":"613c366feb00475071e752cb","study_id":"6197b3f67c2b5cd3b6d9596a","session_id":"619be321464b5b2bd849f07e","condition":"contingent","relevant_dimensions":["wings","legs"],"bee_group":{"antennae":"X","wings":"1","pattern":"X","legs":"F"},"action":"harvest","summary":"good-harvest","bonus":1.640000000000001},{"rt":1317.4000000003725,"stimulus":"\n                    <p><b>Action: <em>harvest</em></b></p>\n                    <p>This is the bee that you just saw.</p>\n                    <img src=\"bees-with-color/bee-B2DM.svg\" width=\"200\">\n                    <p><span class=\"greenText\"><b>Successful harvest!</b></span><br>Your pay has increased by $0.02. Your bonus pay is now $0.60.</p>\n            ","response":0,"trial_type":"html-button-response","trial_index":14,"time_elapsed":758564,"internal_node_id":"0.0-4.0-1.3","subject_id":"613c366feb00475071e752cb","study_id":"6197b3f67c2b5cd3b6d9596a","session_id":"619be321464b5b2bd849f07e","condition":"contingent","relevant_dimensions":["wings","legs"],"bee_group":{"antennae":"X","wings":"1","pattern":"X","legs":"F"},"bonus":1.640000000000001},{"rt":6282.200000000186,"stimulus":"bees-with-color/bee-A1SM.svg","response":0,"trial_type":"image-button-response","trial_index":15,"time_elapsed":764849,"internal_node_id":"0.0-4.0-0.4","subject_id":"613c366feb00475071e752cb","study_id":"6197b3f67c2b5cd3b6d9596a","session_id":"619be321464b5b2bd849f07e","condition":"contingent","relevant_dimensions":["wings","legs"],"bee_group":{"antennae":"X","wings":"1","pattern":"X","legs":"F"},"action":"harvest","summary":"good-harvest","bonus":1.640000000000001},{"rt":1087.9000000003725,"stimulus":"\n                    <p><b>Action: <em>harvest</em></b></p>\n                    <p>This is the bee that you just saw.</p>\n                    <img src=\"bees-with-color/bee-A1SM.svg\" width=\"200\">\n                    <p><span class=\"greenText\"><b>Successful harvest!</b></span><br>Your pay has increased by $0.02. Your bonus pay is now $0.62.</p>\n            ","response":0,"trial_type":"html-button-response","trial_index":16,"time_elapsed":765939,"internal_node_id":"0.0-4.0-1.4","subject_id":"613c366feb00475071e752cb","study_id":"6197b3f67c2b5cd3b6d9596a","session_id":"619be321464b5b2bd849f07e","condition":"contingent","relevant_dimensions":["wings","legs"],"bee_group":{"antennae":"X","wings":"1","pattern":"X","legs":"F"},"bonus":1.640000000000001},{"rt":18948.800000000745,"stimulus":"bees-with-color/bee-B2SF.svg","response":1,"trial_type":"image-button-response","trial_index":17,"time_elapsed":784892,"internal_node_id":"0.0-4.0-0.5","subject_id":"613c366feb00475071e752cb","study_id":"6197b3f67c2b5cd3b6d9596a","session_id":"619be321464b5b2bd849f07e","condition":"contingent","relevant_dimensions":["wings","legs"],"bee_group":{"antennae":"X","wings":"1","pattern":"X","legs":"F"},"action":"avoid","summary":"bad-avoid","bonus":1.640000000000001},{"rt":993.2999999998137,"stimulus":"\n                    <p><b>Action: <em>avoid</em></b></p>\n                    <p>This is the bee that you just saw.</p>\n                    <img src=\"bees-with-color/bee-B2SF.svg\" width=\"200\">\n                    <p><br>Your bonus pay is unchanged, and remains at $0.62.</p>\n            ","response":0,"trial_type":"html-button-response","trial_index":18,"time_elapsed":785888,"internal_node_id":"0.0-4.0-1.5","subject_id":"613c366feb00475071e752cb","study_id":"6197b3f67c2b5cd3b6d9596a","session_id":"619be321464b5b2bd849f07e","condition":"contingent","relevant_dimensions":["wings","legs"],"bee_group":{"antennae":"X","wings":"1","pattern":"X","legs":"F"},"bonus":1.640000000000001},{"rt":1751.2999999998137,"stimulus":"bees-with-color/bee-A1SF.svg","response":1,"trial_type":"image-button-response","trial_index":19,"time_elapsed":787642,"internal_node_id":"0.0-4.0-0.6","subject_id":"613c366feb00475071e752cb","study_id":"6197b3f67c2b5cd3b6d9596a","session_id":"619be321464b5b2bd849f07e","condition":"contingent","relevant_dimensions":["wings","legs"],"bee_group":{"antennae":"X","wings":"1","pattern":"X","legs":"F"},"action":"avoid","summary":"good-avoid","bonus":1.640000000000001},{"rt":704.8999999994412,"stimulus":"\n                    <p><b>Action: <em>avoid</em></b></p>\n                    <p>This is the bee that you just saw.</p>\n                    <img src=\"bees-with-color/bee-A1SF.svg\" width=\"200\">\n                    <p><br>Your bonus pay is unchanged, and remains at $0.62.</p>\n            ","response":0,"trial_type":"html-button-response","trial_index":20,"time_elapsed":788350,"internal_node_id":"0.0-4.0-1.6","subject_id":"613c366feb00475071e752cb","study_id":"6197b3f67c2b5cd3b6d9596a","session_id":"619be321464b5b2bd849f07e","condition":"contingent","relevant_dimensions":["wings","legs"],"bee_group":{"antennae":"X","wings":"1","pattern":"X","legs":"F"},"bonus":1.640000000000001},{"rt":1841.699999999255,"stimulus":"bees-with-color/bee-A1DF.svg","response":0,"trial_type":"image-button-response","trial_index":21,"time_elapsed":790194,"internal_node_id":"0.0-4.0-0.7","subject_id":"613c366feb00475071e752cb","study_id":"6197b3f67c2b5cd3b6d9596a","session_id":"619be321464b5b2bd849f07e","condition":"contingent","relevant_dimensions":["wings","legs"],"bee_group":{"antennae":"X","wings":"1","pattern":"X","legs":"F"},"action":"harvest","summary":"bad-harvest","bonus":1.640000000000001},{"rt":2463.800000000745,"stimulus":"\n                    <p><b>Action: <em>harvest</em></b></p>\n                    <p>This is the bee that you just saw.</p>\n                    <img src=\"bees-with-color/bee-A1DF.svg\" width=\"200\">\n                    <p><span class=\"redText\">Bad choice, the bee was angry.</span><br><b>You have been stung!</b><br>Your pay has been decreased by $0.10. Your bonus pay is now $0.52.</p>\n            ","response":0,"trial_type":"html-button-response","trial_index":22,"time_elapsed":792660,"internal_node_id":"0.0-4.0-1.7","subject_id":"613c366feb00475071e752cb","study_id":"6197b3f67c2b5cd3b6d9596a","session_id":"619be321464b5b2bd849f07e","condition":"contingent","relevant_dimensions":["wings","legs"],"bee_group":{"antennae":"X","wings":"1","pattern":"X","legs":"F"},"bonus":1.640000000000001},{"rt":1566.6000000005588,"stimulus":"bees-with-color/bee-B2SM.svg","response":0,"trial_type":"image-button-response","trial_index":23,"time_elapsed":794230,"internal_node_id":"0.0-4.0-0.8","subject_id":"613c366feb00475071e752cb","study_id":"6197b3f67c2b5cd3b6d9596a","session_id":"619be321464b5b2bd849f07e","condition":"contingent","relevant_dimensions":["wings","legs"],"bee_group":{"antennae":"X","wings":"1","pattern":"X","legs":"F"},"action":"harvest","summary":"good-harvest","bonus":1.640000000000001},{"rt":1140.2999999998137,"stimulus":"\n                    <p><b>Action: <em>harvest</em></b></p>\n                    <p>This is the bee that you just saw.</p>\n                    <img src=\"bees-with-color/bee-B2SM.svg\" width=\"200\">\n                    <p><span class=\"greenText\"><b>Successful harvest!</b></span><br>Your pay has increased by $0.02. Your bonus pay is now $0.54.</p>\n            ","response":0,"trial_type":"html-button-response","trial_index":24,"time_elapsed":795372,"internal_node_id":"0.0-4.0-1.8","subject_id":"613c366feb00475071e752cb","study_id":"6197b3f67c2b5cd3b6d9596a","session_id":"619be321464b5b2bd849f07e","condition":"contingent","relevant_dimensions":["wings","legs"],"bee_group":{"antennae":"X","wings":"1","pattern":"X","legs":"F"},"bonus":1.640000000000001},{"rt":1754.0999999996275,"stimulus":"bees-with-color/bee-A1DM.svg","response":0,"trial_type":"image-button-response","trial_index":25,"time_elapsed":797128,"internal_node_id":"0.0-4.0-0.9","subject_id":"613c366feb00475071e752cb","study_id":"6197b3f67c2b5cd3b6d9596a","session_id":"619be321464b5b2bd849f07e","condition":"contingent","relevant_dimensions":["wings","legs"],"bee_group":{"antennae":"X","wings":"1","pattern":"X","legs":"F"},"action":"harvest","summary":"good-harvest","bonus":1.640000000000001},{"rt":764.1000000005588,"stimulus":"\n                    <p><b>Action: <em>harvest</em></b></p>\n                    <p>This is the bee that you just saw.</p>\n                    <img src=\"bees-with-color/bee-A1DM.svg\" width=\"200\">\n                    <p><span class=\"greenText\"><b>Successful harvest!</b></span><br>Your pay has increased by $0.02. Your bonus pay is now $0.56.</p>\n            ","response":0,"trial_type":"html-button-response","trial_index":26,"time_elapsed":797894,"internal_node_id":"0.0-4.0-1.9","subject_id":"613c366feb00475071e752cb","study_id":"6197b3f67c2b5cd3b6d9596a","session_id":"619be321464b5b2bd849f07e","condition":"contingent","relevant_dimensions":["wings","legs"],"bee_group":{"antennae":"X","wings":"1","pattern":"X","legs":"F"},"bonus":1.640000000000001},{"rt":1468.300000000745,"stimulus":"bees-with-color/bee-A2SM.svg","response":0,"trial_type":"image-button-response","trial_index":27,"time_elapsed":799364,"internal_node_id":"0.0-4.0-0.10","subject_id":"613c366feb00475071e752cb","study_id":"6197b3f67c2b5cd3b6d9596a","session_id":"619be321464b5b2bd849f07e","condition":"contingent","relevant_dimensions":["wings","legs"],"bee_group":{"antennae":"X","wings":"1","pattern":"X","legs":"F"},"action":"harvest","summary":"good-harvest","bonus":1.640000000000001},{"rt":859.5,"stimulus":"\n                    <p><b>Action: <em>harvest</em></b></p>\n                    <p>This is the bee that you just saw.</p>\n                    <img src=\"bees-with-color/bee-A2SM.svg\" width=\"200\">\n                    <p><span class=\"greenText\"><b>Successful harvest!</b></span><br>Your pay has increased by $0.02. Your bonus pay is now $0.58.</p>\n            ","response":0,"trial_type":"html-button-response","trial_index":28,"time_elapsed":800226,"internal_node_id":"0.0-4.0-1.10","subject_id":"613c366feb00475071e752cb","study_id":"6197b3f67c2b5cd3b6d9596a","session_id":"619be321464b5b2bd849f07e","condition":"contingent","relevant_dimensions":["wings","legs"],"bee_group":{"antennae":"X","wings":"1","pattern":"X","legs":"F"},"bonus":1.640000000000001},{"rt":1091.5999999996275,"stimulus":"bees-with-color/bee-A2SF.svg","response":0,"trial_type":"image-button-response","trial_index":29,"time_elapsed":801320,"internal_node_id":"0.0-4.0-0.11","subject_id":"613c366feb00475071e752cb","study_id":"6197b3f67c2b5cd3b6d9596a","session_id":"619be321464b5b2bd849f07e","condition":"contingent","relevant_dimensions":["wings","legs"],"bee_group":{"antennae":"X","wings":"1","pattern":"X","legs":"F"},"action":"harvest","summary":"good-harvest","bonus":1.640000000000001},{"rt":788.0999999996275,"stimulus":"\n                    <p><b>Action: <em>harvest</em></b></p>\n                    <p>This is the bee that you just saw.</p>\n                    <img src=\"bees-with-color/bee-A2SF.svg\" width=\"200\">\n                    <p><span class=\"greenText\"><b>Successful harvest!</b></span><br>Your pay has increased by $0.02. Your bonus pay is now $0.60.</p>\n            ","response":0,"trial_type":"html-button-response","trial_index":30,"time_elapsed":802110,"internal_node_id":"0.0-4.0-1.11","subject_id":"613c366feb00475071e752cb","study_id":"6197b3f67c2b5cd3b6d9596a","session_id":"619be321464b5b2bd849f07e","condition":"contingent","relevant_dimensions":["wings","legs"],"bee_group":{"antennae":"X","wings":"1","pattern":"X","legs":"F"},"bonus":1.640000000000001},{"rt":994.9000000003725,"stimulus":"bees-with-color/bee-B1SF.svg","response":1,"trial_type":"image-button-response","trial_index":31,"time_elapsed":803107,"internal_node_id":"0.0-4.0-0.12","subject_id":"613c366feb00475071e752cb","study_id":"6197b3f67c2b5cd3b6d9596a","session_id":"619be321464b5b2bd849f07e","condition":"contingent","relevant_dimensions":["wings","legs"],"bee_group":{"antennae":"X","wings":"1","pattern":"X","legs":"F"},"action":"avoid","summary":"good-avoid","bonus":1.640000000000001},{"rt":868.2999999998137,"stimulus":"\n                    <p><b>Action: <em>avoid</em></b></p>\n                    <p>This is the bee that you just saw.</p>\n                    <img src=\"bees-with-color/bee-B1SF.svg\" width=\"200\">\n                    <p><br>Your bonus pay is unchanged, and remains at $0.60.</p>\n            ","response":0,"trial_type":"html-button-response","trial_index":32,"time_elapsed":803979,"internal_node_id":"0.0-4.0-1.12","subject_id":"613c366feb00475071e752cb","study_id":"6197b3f67c2b5cd3b6d9596a","session_id":"619be321464b5b2bd849f07e","condition":"contingent","relevant_dimensions":["wings","legs"],"bee_group":{"antennae":"X","wings":"1","pattern":"X","legs":"F"},"bonus":1.640000000000001},{"rt":1244.2999999998137,"stimulus":"bees-with-color/bee-A2DM.svg","response":0,"trial_type":"image-button-response","trial_index":33,"time_elapsed":805225,"internal_node_id":"0.0-4.0-0.13","subject_id":"613c366feb00475071e752cb","study_id":"6197b3f67c2b5cd3b6d9596a","session_id":"619be321464b5b2bd849f07e","condition":"contingent","relevant_dimensions":["wings","legs"],"bee_group":{"antennae":"X","wings":"1","pattern":"X","legs":"F"},"action":"harvest","summary":"good-harvest","bonus":1.640000000000001},{"rt":675.6999999992549,"stimulus":"\n                    <p><b>Action: <em>harvest</em></b></p>\n                    <p>This is the bee that you just saw.</p>\n                    <img src=\"bees-with-color/bee-A2DM.svg\" width=\"200\">\n                    <p><span class=\"greenText\"><b>Successful harvest!</b></span><br>Your pay has increased by $0.02. Your bonus pay is now $0.62.</p>\n            ","response":0,"trial_type":"html-button-response","trial_index":34,"time_elapsed":805902,"internal_node_id":"0.0-4.0-1.13","subject_id":"613c366feb00475071e752cb","study_id":"6197b3f67c2b5cd3b6d9596a","session_id":"619be321464b5b2bd849f07e","condition":"contingent","relevant_dimensions":["wings","legs"],"bee_group":{"antennae":"X","wings":"1","pattern":"X","legs":"F"},"bonus":1.640000000000001},{"rt":1475.8999999994412,"stimulus":"bees-with-color/bee-B1DF.svg","response":1,"trial_type":"image-button-response","trial_index":35,"time_elapsed":807381,"internal_node_id":"0.0-4.0-0.14","subject_id":"613c366feb00475071e752cb","study_id":"6197b3f67c2b5cd3b6d9596a","session_id":"619be321464b5b2bd849f07e","condition":"contingent","relevant_dimensions":["wings","legs"],"bee_group":{"antennae":"X","wings":"1","pattern":"X","legs":"F"},"action":"avoid","summary":"good-avoid","bonus":1.640000000000001},{"rt":1350.0999999996275,"stimulus":"\n                    <p><b>Action: <em>avoid</em></b></p>\n                    <p>This is the bee that you just saw.</p>\n                    <img src=\"bees-with-color/bee-B1DF.svg\" width=\"200\">\n                    <p><br>Your bonus pay is unchanged, and remains at $0.62.</p>\n            ","response":0,"trial_type":"html-button-response","trial_index":36,"time_elapsed":808732,"internal_node_id":"0.0-4.0-1.14","subject_id":"613c366feb00475071e752cb","study_id":"6197b3f67c2b5cd3b6d9596a","session_id":"619be321464b5b2bd849f07e","condition":"contingent","relevant_dimensions":["wings","legs"],"bee_group":{"antennae":"X","wings":"1","pattern":"X","legs":"F"},"bonus":1.640000000000001},{"rt":11439.200000000186,"stimulus":"bees-with-color/bee-A2DF.svg","response":0,"trial_type":"image-button-response","trial_index":37,"time_elapsed":820175,"internal_node_id":"0.0-4.0-0.15","subject_id":"613c366feb00475071e752cb","study_id":"6197b3f67c2b5cd3b6d9596a","session_id":"619be321464b5b2bd849f07e","condition":"contingent","relevant_dimensions":["wings","legs"],"bee_group":{"antennae":"X","wings":"1","pattern":"X","legs":"F"},"action":"harvest","summary":"good-harvest","bonus":1.640000000000001},{"rt":8721.600000000559,"stimulus":"\n                    <p><b>Action: <em>harvest</em></b></p>\n                    <p>This is the bee that you just saw.</p>\n                    <img src=\"bees-with-color/bee-A2DF.svg\" width=\"200\">\n                    <p><span class=\"greenText\"><b>Successful harvest!</b></span><br>Your pay has increased by $0.02. Your bonus pay is now $0.64.</p>\n            ","response":0,"trial_type":"html-button-response","trial_index":38,"time_elapsed":828899,"internal_node_id":"0.0-4.0-1.15","subject_id":"613c366feb00475071e752cb","study_id":"6197b3f67c2b5cd3b6d9596a","session_id":"619be321464b5b2bd849f07e","condition":"contingent","relevant_dimensions":["wings","legs"],"bee_group":{"antennae":"X","wings":"1","pattern":"X","legs":"F"},"bonus":1.640000000000001},{"rt":25101.5,"stimulus":"bees-with-color/bee-A1DF.svg","response":1,"trial_type":"image-button-response","trial_index":39,"time_elapsed":854004,"internal_node_id":"0.0-4.0-0.16","subject_id":"613c366feb00475071e752cb","study_id":"6197b3f67c2b5cd3b6d9596a","session_id":"619be321464b5b2bd849f07e","condition":"contingent","relevant_dimensions":["wings","legs"],"bee_group":{"antennae":"X","wings":"1","pattern":"X","legs":"F"},"action":"avoid","summary":"good-avoid","bonus":1.640000000000001},{"rt":1457.2999999998137,"stimulus":"\n                    <p><b>Action: <em>avoid</em></b></p>\n                    <p>This is the bee that you just saw.</p>\n                    <img src=\"bees-with-color/bee-A1DF.svg\" width=\"200\">\n                    <p><br>Your bonus pay is unchanged, and remains at $0.64.</p>\n            ","response":0,"trial_type":"html-button-response","trial_index":40,"time_elapsed":855464,"internal_node_id":"0.0-4.0-1.16","subject_id":"613c366feb00475071e752cb","study_id":"6197b3f67c2b5cd3b6d9596a","session_id":"619be321464b5b2bd849f07e","condition":"contingent","relevant_dimensions":["wings","legs"],"bee_group":{"antennae":"X","wings":"1","pattern":"X","legs":"F"},"bonus":1.640000000000001},{"rt":1633.2000000001863,"stimulus":"bees-with-color/bee-B1SM.svg","response":0,"trial_type":"image-button-response","trial_index":41,"time_elapsed":857100,"internal_node_id":"0.0-4.0-0.17","subject_id":"613c366feb00475071e752cb","study_id":"6197b3f67c2b5cd3b6d9596a","session_id":"619be321464b5b2bd849f07e","condition":"contingent","relevant_dimensions":["wings","legs"],"bee_group":{"antennae":"X","wings":"1","pattern":"X","legs":"F"},"action":"harvest","summary":"good-harvest","bonus":1.640000000000001},{"rt":867.9000000003725,"stimulus":"\n                    <p><b>Action: <em>harvest</em></b></p>\n                    <p>This is the bee that you just saw.</p>\n                    <img src=\"bees-with-color/bee-B1SM.svg\" width=\"200\">\n                    <p><span class=\"greenText\"><b>Successful harvest!</b></span><br>Your pay has increased by $0.02. Your bonus pay is now $0.66.</p>\n            ","response":0,"trial_type":"html-button-response","trial_index":42,"time_elapsed":857970,"internal_node_id":"0.0-4.0-1.17","subject_id":"613c366feb00475071e752cb","study_id":"6197b3f67c2b5cd3b6d9596a","session_id":"619be321464b5b2bd849f07e","condition":"contingent","relevant_dimensions":["wings","legs"],"bee_group":{"antennae":"X","wings":"1","pattern":"X","legs":"F"},"bonus":1.640000000000001},{"rt":2427.5,"stimulus":"bees-with-color/bee-A2DF.svg","response":0,"trial_type":"image-button-response","trial_index":43,"time_elapsed":860400,"internal_node_id":"0.0-4.0-0.18","subject_id":"613c366feb00475071e752cb","study_id":"6197b3f67c2b5cd3b6d9596a","session_id":"619be321464b5b2bd849f07e","condition":"contingent","relevant_dimensions":["wings","legs"],"bee_group":{"antennae":"X","wings":"1","pattern":"X","legs":"F"},"action":"harvest","summary":"good-harvest","bonus":1.640000000000001},{"rt":761.8000000007451,"stimulus":"\n                    <p><b>Action: <em>harvest</em></b></p>\n                    <p>This is the bee that you just saw.</p>\n                    <img src=\"bees-with-color/bee-A2DF.svg\" width=\"200\">\n                    <p><span class=\"greenText\"><b>Successful harvest!</b></span><br>Your pay has increased by $0.02. Your bonus pay is now $0.68.</p>\n            ","response":0,"trial_type":"html-button-response","trial_index":44,"time_elapsed":861166,"internal_node_id":"0.0-4.0-1.18","subject_id":"613c366feb00475071e752cb","study_id":"6197b3f67c2b5cd3b6d9596a","session_id":"619be321464b5b2bd849f07e","condition":"contingent","relevant_dimensions":["wings","legs"],"bee_group":{"antennae":"X","wings":"1","pattern":"X","legs":"F"},"bonus":1.640000000000001},{"rt":2533.7999999998137,"stimulus":"bees-with-color/bee-A2SF.svg","response":1,"trial_type":"image-button-response","trial_index":45,"time_elapsed":863702,"internal_node_id":"0.0-4.0-0.19","subject_id":"613c366feb00475071e752cb","study_id":"6197b3f67c2b5cd3b6d9596a","session_id":"619be321464b5b2bd849f07e","condition":"contingent","relevant_dimensions":["wings","legs"],"bee_group":{"antennae":"X","wings":"1","pattern":"X","legs":"F"},"action":"avoid","summary":"bad-avoid","bonus":1.640000000000001},{"rt":861.5999999996275,"stimulus":"\n                    <p><b>Action: <em>avoid</em></b></p>\n                    <p>This is the bee that you just saw.</p>\n                    <img src=\"bees-with-color/bee-A2SF.svg\" width=\"200\">\n                    <p><br>Your bonus pay is unchanged, and remains at $0.68.</p>\n            ","response":0,"trial_type":"html-button-response","trial_index":46,"time_elapsed":864566,"internal_node_id":"0.0-4.0-1.19","subject_id":"613c366feb00475071e752cb","study_id":"6197b3f67c2b5cd3b6d9596a","session_id":"619be321464b5b2bd849f07e","condition":"contingent","relevant_dimensions":["wings","legs"],"bee_group":{"antennae":"X","wings":"1","pattern":"X","legs":"F"},"bonus":1.640000000000001},{"rt":1477.1000000005588,"stimulus":"bees-with-color/bee-A2SM.svg","response":0,"trial_type":"image-button-response","trial_index":47,"time_elapsed":866046,"internal_node_id":"0.0-4.0-0.20","subject_id":"613c366feb00475071e752cb","study_id":"6197b3f67c2b5cd3b6d9596a","session_id":"619be321464b5b2bd849f07e","condition":"contingent","relevant_dimensions":["wings","legs"],"bee_group":{"antennae":"X","wings":"1","pattern":"X","legs":"F"},"action":"harvest","summary":"good-harvest","bonus":1.640000000000001},{"rt":2341.7999999998137,"stimulus":"\n                    <p><b>Action: <em>harvest</em></b></p>\n                    <p>This is the bee that you just saw.</p>\n                    <img src=\"bees-with-color/bee-A2SM.svg\" width=\"200\">\n                    <p><span class=\"greenText\"><b>Successful harvest!</b></span><br>Your pay has increased by $0.02. Your bonus pay is now $0.70.</p>\n            ","response":0,"trial_type":"html-button-response","trial_index":48,"time_elapsed":868391,"internal_node_id":"0.0-4.0-1.20","subject_id":"613c366feb00475071e752cb","study_id":"6197b3f67c2b5cd3b6d9596a","session_id":"619be321464b5b2bd849f07e","condition":"contingent","relevant_dimensions":["wings","legs"],"bee_group":{"antennae":"X","wings":"1","pattern":"X","legs":"F"},"bonus":1.640000000000001},{"rt":25429.200000000186,"stimulus":"bees-with-color/bee-B1DF.svg","response":1,"trial_type":"image-button-response","trial_index":49,"time_elapsed":893823,"internal_node_id":"0.0-4.0-0.21","subject_id":"613c366feb00475071e752cb","study_id":"6197b3f67c2b5cd3b6d9596a","session_id":"619be321464b5b2bd849f07e","condition":"contingent","relevant_dimensions":["wings","legs"],"bee_group":{"antennae":"X","wings":"1","pattern":"X","legs":"F"},"action":"avoid","summary":"good-avoid","bonus":1.640000000000001},{"rt":921.7999999998137,"stimulus":"\n                    <p><b>Action: <em>avoid</em></b></p>\n                    <p>This is the bee that you just saw.</p>\n                    <img src=\"bees-with-color/bee-B1DF.svg\" width=\"200\">\n                    <p><br>Your bonus pay is unchanged, and remains at $0.70.</p>\n            ","response":0,"trial_type":"html-button-response","trial_index":50,"time_elapsed":894748,"internal_node_id":"0.0-4.0-1.21","subject_id":"613c366feb00475071e752cb","study_id":"6197b3f67c2b5cd3b6d9596a","session_id":"619be321464b5b2bd849f07e","condition":"contingent","relevant_dimensions":["wings","legs"],"bee_group":{"antennae":"X","wings":"1","pattern":"X","legs":"F"},"bonus":1.640000000000001},{"rt":1665.2000000001863,"stimulus":"bees-with-color/bee-B2SM.svg","response":0,"trial_type":"image-button-response","trial_index":51,"time_elapsed":896416,"internal_node_id":"0.0-4.0-0.22","subject_id":"613c366feb00475071e752cb","study_id":"6197b3f67c2b5cd3b6d9596a","session_id":"619be321464b5b2bd849f07e","condition":"contingent","relevant_dimensions":["wings","legs"],"bee_group":{"antennae":"X","wings":"1","pattern":"X","legs":"F"},"action":"harvest","summary":"good-harvest","bonus":1.640000000000001},{"rt":763.5,"stimulus":"\n                    <p><b>Action: <em>harvest</em></b></p>\n                    <p>This is the bee that you just saw.</p>\n                    <img src=\"bees-with-color/bee-B2SM.svg\" width=\"200\">\n                    <p><span class=\"greenText\"><b>Successful harvest!</b></span><br>Your pay has increased by $0.02. Your bonus pay is now $0.72.</p>\n            ","response":0,"trial_type":"html-button-response","trial_index":52,"time_elapsed":897182,"internal_node_id":"0.0-4.0-1.22","subject_id":"613c366feb00475071e752cb","study_id":"6197b3f67c2b5cd3b6d9596a","session_id":"619be321464b5b2bd849f07e","condition":"contingent","relevant_dimensions":["wings","legs"],"bee_group":{"antennae":"X","wings":"1","pattern":"X","legs":"F"},"bonus":1.640000000000001},{"rt":997.6000000005588,"stimulus":"bees-with-color/bee-B1DM.svg","response":0,"trial_type":"image-button-response","trial_index":53,"time_elapsed":898182,"internal_node_id":"0.0-4.0-0.23","subject_id":"613c366feb00475071e752cb","study_id":"6197b3f67c2b5cd3b6d9596a","session_id":"619be321464b5b2bd849f07e","condition":"contingent","relevant_dimensions":["wings","legs"],"bee_group":{"antennae":"X","wings":"1","pattern":"X","legs":"F"},"action":"harvest","summary":"good-harvest","bonus":1.640000000000001},{"rt":801.8000000007451,"stimulus":"\n                    <p><b>Action: <em>harvest</em></b></p>\n                    <p>This is the bee that you just saw.</p>\n                    <img src=\"bees-with-color/bee-B1DM.svg\" width=\"200\">\n                    <p><span class=\"greenText\"><b>Successful harvest!</b></span><br>Your pay has increased by $0.02. Your bonus pay is now $0.74.</p>\n            ","response":0,"trial_type":"html-button-response","trial_index":54,"time_elapsed":898986,"internal_node_id":"0.0-4.0-1.23","subject_id":"613c366feb00475071e752cb","study_id":"6197b3f67c2b5cd3b6d9596a","session_id":"619be321464b5b2bd849f07e","condition":"contingent","relevant_dimensions":["wings","legs"],"bee_group":{"antennae":"X","wings":"1","pattern":"X","legs":"F"},"bonus":1.640000000000001},{"rt":2076.100000000559,"stimulus":"bees-with-color/bee-A1SM.svg","response":0,"trial_type":"image-button-response","trial_index":55,"time_elapsed":901064,"internal_node_id":"0.0-4.0-0.24","subject_id":"613c366feb00475071e752cb","study_id":"6197b3f67c2b5cd3b6d9596a","session_id":"619be321464b5b2bd849f07e","condition":"contingent","relevant_dimensions":["wings","legs"],"bee_group":{"antennae":"X","wings":"1","pattern":"X","legs":"F"},"action":"harvest","summary":"good-harvest","bonus":1.640000000000001},{"rt":747.7999999998137,"stimulus":"\n                    <p><b>Action: <em>harvest</em></b></p>\n                    <p>This is the bee that you just saw.</p>\n                    <img src=\"bees-with-color/bee-A1SM.svg\" width=\"200\">\n                    <p><span class=\"greenText\"><b>Successful harvest!</b></span><br>Your pay has increased by $0.02. Your bonus pay is now $0.76.</p>\n            ","response":0,"trial_type":"html-button-response","trial_index":56,"time_elapsed":901814,"internal_node_id":"0.0-4.0-1.24","subject_id":"613c366feb00475071e752cb","study_id":"6197b3f67c2b5cd3b6d9596a","session_id":"619be321464b5b2bd849f07e","condition":"contingent","relevant_dimensions":["wings","legs"],"bee_group":{"antennae":"X","wings":"1","pattern":"X","legs":"F"},"bonus":1.640000000000001},{"rt":1246,"stimulus":"bees-with-color/bee-B2DM.svg","response":0,"trial_type":"image-button-response","trial_index":57,"time_elapsed":903062,"internal_node_id":"0.0-4.0-0.25","subject_id":"613c366feb00475071e752cb","study_id":"6197b3f67c2b5cd3b6d9596a","session_id":"619be321464b5b2bd849f07e","condition":"contingent","relevant_dimensions":["wings","legs"],"bee_group":{"antennae":"X","wings":"1","pattern":"X","legs":"F"},"action":"harvest","summary":"good-harvest","bonus":1.640000000000001},{"rt":755.7999999998137,"stimulus":"\n                    <p><b>Action: <em>harvest</em></b></p>\n                    <p>This is the bee that you just saw.</p>\n                    <img src=\"bees-with-color/bee-B2DM.svg\" width=\"200\">\n                    <p><span class=\"greenText\"><b>Successful harvest!</b></span><br>Your pay has increased by $0.02. Your bonus pay is now $0.78.</p>\n            ","response":0,"trial_type":"html-button-response","trial_index":58,"time_elapsed":903820,"internal_node_id":"0.0-4.0-1.25","subject_id":"613c366feb00475071e752cb","study_id":"6197b3f67c2b5cd3b6d9596a","session_id":"619be321464b5b2bd849f07e","condition":"contingent","relevant_dimensions":["wings","legs"],"bee_group":{"antennae":"X","wings":"1","pattern":"X","legs":"F"},"bonus":1.640000000000001},{"rt":1086.0999999996275,"stimulus":"bees-with-color/bee-A1SF.svg","response":1,"trial_type":"image-button-response","trial_index":59,"time_elapsed":904908,"internal_node_id":"0.0-4.0-0.26","subject_id":"613c366feb00475071e752cb","study_id":"6197b3f67c2b5cd3b6d9596a","session_id":"619be321464b5b2bd849f07e","condition":"contingent","relevant_dimensions":["wings","legs"],"bee_group":{"antennae":"X","wings":"1","pattern":"X","legs":"F"},"action":"avoid","summary":"good-avoid","bonus":1.640000000000001},{"rt":924.0999999996275,"stimulus":"\n                    <p><b>Action: <em>avoid</em></b></p>\n                    <p>This is the bee that you just saw.</p>\n                    <img src=\"bees-with-color/bee-A1SF.svg\" width=\"200\">\n                    <p><br>Your bonus pay is unchanged, and remains at $0.78.</p>\n            ","response":0,"trial_type":"html-button-response","trial_index":60,"time_elapsed":905835,"internal_node_id":"0.0-4.0-1.26","subject_id":"613c366feb00475071e752cb","study_id":"6197b3f67c2b5cd3b6d9596a","session_id":"619be321464b5b2bd849f07e","condition":"contingent","relevant_dimensions":["wings","legs"],"bee_group":{"antennae":"X","wings":"1","pattern":"X","legs":"F"},"bonus":1.640000000000001},{"rt":1124.2000000001863,"stimulus":"bees-with-color/bee-B2DF.svg","response":0,"trial_type":"image-button-response","trial_index":61,"time_elapsed":906960,"internal_node_id":"0.0-4.0-0.27","subject_id":"613c366feb00475071e752cb","study_id":"6197b3f67c2b5cd3b6d9596a","session_id":"619be321464b5b2bd849f07e","condition":"contingent","relevant_dimensions":["wings","legs"],"bee_group":{"antennae":"X","wings":"1","pattern":"X","legs":"F"},"action":"harvest","summary":"good-harvest","bonus":1.640000000000001},{"rt":908,"stimulus":"\n                    <p><b>Action: <em>harvest</em></b></p>\n                    <p>This is the bee that you just saw.</p>\n                    <img src=\"bees-with-color/bee-B2DF.svg\" width=\"200\">\n                    <p><span class=\"greenText\"><b>Successful harvest!</b></span><br>Your pay has increased by $0.02. Your bonus pay is now $0.80.</p>\n            ","response":0,"trial_type":"html-button-response","trial_index":62,"time_elapsed":907870,"internal_node_id":"0.0-4.0-1.27","subject_id":"613c366feb00475071e752cb","study_id":"6197b3f67c2b5cd3b6d9596a","session_id":"619be321464b5b2bd849f07e","condition":"contingent","relevant_dimensions":["wings","legs"],"bee_group":{"antennae":"X","wings":"1","pattern":"X","legs":"F"},"bonus":1.640000000000001},{"rt":1670.3999999994412,"stimulus":"bees-with-color/bee-B2SF.svg","response":0,"trial_type":"image-button-response","trial_index":63,"time_elapsed":909543,"internal_node_id":"0.0-4.0-0.28","subject_id":"613c366feb00475071e752cb","study_id":"6197b3f67c2b5cd3b6d9596a","session_id":"619be321464b5b2bd849f07e","condition":"contingent","relevant_dimensions":["wings","legs"],"bee_group":{"antennae":"X","wings":"1","pattern":"X","legs":"F"},"action":"harvest","summary":"good-harvest","bonus":1.640000000000001},{"rt":734.0999999996275,"stimulus":"\n                    <p><b>Action: <em>harvest</em></b></p>\n                    <p>This is the bee that you just saw.</p>\n                    <img src=\"bees-with-color/bee-B2SF.svg\" width=\"200\">\n                    <p><span class=\"greenText\"><b>Successful harvest!</b></span><br>Your pay has increased by $0.02. Your bonus pay is now $0.82.</p>\n            ","response":0,"trial_type":"html-button-response","trial_index":64,"time_elapsed":910279,"internal_node_id":"0.0-4.0-1.28","subject_id":"613c366feb00475071e752cb","study_id":"6197b3f67c2b5cd3b6d9596a","session_id":"619be321464b5b2bd849f07e","condition":"contingent","relevant_dimensions":["wings","legs"],"bee_group":{"antennae":"X","wings":"1","pattern":"X","legs":"F"},"bonus":1.640000000000001},{"rt":876.0999999996275,"stimulus":"bees-with-color/bee-B1SF.svg","response":1,"trial_type":"image-button-response","trial_index":65,"time_elapsed":911157,"internal_node_id":"0.0-4.0-0.29","subject_id":"613c366feb00475071e752cb","study_id":"6197b3f67c2b5cd3b6d9596a","session_id":"619be321464b5b2bd849f07e","condition":"contingent","relevant_dimensions":["wings","legs"],"bee_group":{"antennae":"X","wings":"1","pattern":"X","legs":"F"},"action":"avoid","summary":"good-avoid","bonus":1.640000000000001},{"rt":724,"stimulus":"\n                    <p><b>Action: <em>avoid</em></b></p>\n                    <p>This is the bee that you just saw.</p>\n                    <img src=\"bees-with-color/bee-B1SF.svg\" width=\"200\">\n                    <p><br>Your bonus pay is unchanged, and remains at $0.82.</p>\n            ","response":0,"trial_type":"html-button-response","trial_index":66,"time_elapsed":911883,"internal_node_id":"0.0-4.0-1.29","subject_id":"613c366feb00475071e752cb","study_id":"6197b3f67c2b5cd3b6d9596a","session_id":"619be321464b5b2bd849f07e","condition":"contingent","relevant_dimensions":["wings","legs"],"bee_group":{"antennae":"X","wings":"1","pattern":"X","legs":"F"},"bonus":1.640000000000001},{"rt":878.5,"stimulus":"bees-with-color/bee-A1DM.svg","response":0,"trial_type":"image-button-response","trial_index":67,"time_elapsed":912763,"internal_node_id":"0.0-4.0-0.30","subject_id":"613c366feb00475071e752cb","study_id":"6197b3f67c2b5cd3b6d9596a","session_id":"619be321464b5b2bd849f07e","condition":"contingent","relevant_dimensions":["wings","legs"],"bee_group":{"antennae":"X","wings":"1","pattern":"X","legs":"F"},"action":"harvest","summary":"good-harvest","bonus":1.640000000000001},{"rt":637.6000000005588,"stimulus":"\n                    <p><b>Action: <em>harvest</em></b></p>\n                    <p>This is the bee that you just saw.</p>\n                    <img src=\"bees-with-color/bee-A1DM.svg\" width=\"200\">\n                    <p><span class=\"greenText\"><b>Successful harvest!</b></span><br>Your pay has increased by $0.02. Your bonus pay is now $0.84.</p>\n            ","response":0,"trial_type":"html-button-response","trial_index":68,"time_elapsed":913403,"internal_node_id":"0.0-4.0-1.30","subject_id":"613c366feb00475071e752cb","study_id":"6197b3f67c2b5cd3b6d9596a","session_id":"619be321464b5b2bd849f07e","condition":"contingent","relevant_dimensions":["wings","legs"],"bee_group":{"antennae":"X","wings":"1","pattern":"X","legs":"F"},"bonus":1.640000000000001},{"rt":1011.8000000007451,"stimulus":"bees-with-color/bee-A2DM.svg","response":0,"trial_type":"image-button-response","trial_index":69,"time_elapsed":914416,"internal_node_id":"0.0-4.0-0.31","subject_id":"613c366feb00475071e752cb","study_id":"6197b3f67c2b5cd3b6d9596a","session_id":"619be321464b5b2bd849f07e","condition":"contingent","relevant_dimensions":["wings","legs"],"bee_group":{"antennae":"X","wings":"1","pattern":"X","legs":"F"},"action":"harvest","summary":"good-harvest","bonus":1.640000000000001},{"rt":644.4000000003725,"stimulus":"\n                    <p><b>Action: <em>harvest</em></b></p>\n                    <p>This is the bee that you just saw.</p>\n                    <img src=\"bees-with-color/bee-A2DM.svg\" width=\"200\">\n                    <p><span class=\"greenText\"><b>Successful harvest!</b></span><br>Your pay has increased by $0.02. Your bonus pay is now $0.86.</p>\n            ","response":0,"trial_type":"html-button-response","trial_index":70,"time_elapsed":915063,"internal_node_id":"0.0-4.0-1.31","subject_id":"613c366feb00475071e752cb","study_id":"6197b3f67c2b5cd3b6d9596a","session_id":"619be321464b5b2bd849f07e","condition":"contingent","relevant_dimensions":["wings","legs"],"bee_group":{"antennae":"X","wings":"1","pattern":"X","legs":"F"},"bonus":1.640000000000001},{"rt":2978.2999999998137,"stimulus":"bees-with-color/bee-A2DM.svg","response":0,"trial_type":"image-button-response","trial_index":71,"time_elapsed":918043,"internal_node_id":"0.0-4.0-0.32","subject_id":"613c366feb00475071e752cb","study_id":"6197b3f67c2b5cd3b6d9596a","session_id":"619be321464b5b2bd849f07e","condition":"contingent","relevant_dimensions":["wings","legs"],"bee_group":{"antennae":"X","wings":"1","pattern":"X","legs":"F"},"action":"harvest","summary":"good-harvest","bonus":1.640000000000001},{"rt":747.8999999994412,"stimulus":"\n                    <p><b>Action: <em>harvest</em></b></p>\n                    <p>This is the bee that you just saw.</p>\n                    <img src=\"bees-with-color/bee-A2DM.svg\" width=\"200\">\n                    <p><span class=\"greenText\"><b>Successful harvest!</b></span><br>Your pay has increased by $0.02. Your bonus pay is now $0.88.</p>\n            ","response":0,"trial_type":"html-button-response","trial_index":72,"time_elapsed":918793,"internal_node_id":"0.0-4.0-1.32","subject_id":"613c366feb00475071e752cb","study_id":"6197b3f67c2b5cd3b6d9596a","session_id":"619be321464b5b2bd849f07e","condition":"contingent","relevant_dimensions":["wings","legs"],"bee_group":{"antennae":"X","wings":"1","pattern":"X","legs":"F"},"bonus":1.640000000000001},{"rt":845.5999999996275,"stimulus":"bees-with-color/bee-A1DF.svg","response":1,"trial_type":"image-button-response","trial_index":73,"time_elapsed":919641,"internal_node_id":"0.0-4.0-0.33","subject_id":"613c366feb00475071e752cb","study_id":"6197b3f67c2b5cd3b6d9596a","session_id":"619be321464b5b2bd849f07e","condition":"contingent","relevant_dimensions":["wings","legs"],"bee_group":{"antennae":"X","wings":"1","pattern":"X","legs":"F"},"action":"avoid","summary":"good-avoid","bonus":1.640000000000001},{"rt":1511.4000000003725,"stimulus":"\n                    <p><b>Action: <em>avoid</em></b></p>\n                    <p>This is the bee that you just saw.</p>\n                    <img src=\"bees-with-color/bee-A1DF.svg\" width=\"200\">\n                    <p><br>Your bonus pay is unchanged, and remains at $0.88.</p>\n            ","response":0,"trial_type":"html-button-response","trial_index":74,"time_elapsed":921155,"internal_node_id":"0.0-4.0-1.33","subject_id":"613c366feb00475071e752cb","study_id":"6197b3f67c2b5cd3b6d9596a","session_id":"619be321464b5b2bd849f07e","condition":"contingent","relevant_dimensions":["wings","legs"],"bee_group":{"antennae":"X","wings":"1","pattern":"X","legs":"F"},"bonus":1.640000000000001},{"rt":1498.300000000745,"stimulus":"bees-with-color/bee-B2SF.svg","response":0,"trial_type":"image-button-response","trial_index":75,"time_elapsed":922655,"internal_node_id":"0.0-4.0-0.34","subject_id":"613c366feb00475071e752cb","study_id":"6197b3f67c2b5cd3b6d9596a","session_id":"619be321464b5b2bd849f07e","condition":"contingent","relevant_dimensions":["wings","legs"],"bee_group":{"antennae":"X","wings":"1","pattern":"X","legs":"F"},"action":"harvest","summary":"good-harvest","bonus":1.640000000000001},{"rt":702.2999999998137,"stimulus":"\n                    <p><b>Action: <em>harvest</em></b></p>\n                    <p>This is the bee that you just saw.</p>\n                    <img src=\"bees-with-color/bee-B2SF.svg\" width=\"200\">\n                    <p><span class=\"greenText\"><b>Successful harvest!</b></span><br>Your pay has increased by $0.02. Your bonus pay is now $0.90.</p>\n            ","response":0,"trial_type":"html-button-response","trial_index":76,"time_elapsed":923359,"internal_node_id":"0.0-4.0-1.34","subject_id":"613c366feb00475071e752cb","study_id":"6197b3f67c2b5cd3b6d9596a","session_id":"619be321464b5b2bd849f07e","condition":"contingent","relevant_dimensions":["wings","legs"],"bee_group":{"antennae":"X","wings":"1","pattern":"X","legs":"F"},"bonus":1.640000000000001},{"rt":1504.2000000001863,"stimulus":"bees-with-color/bee-B1SM.svg","response":0,"trial_type":"image-button-response","trial_index":77,"time_elapsed":924865,"internal_node_id":"0.0-4.0-0.35","subject_id":"613c366feb00475071e752cb","study_id":"6197b3f67c2b5cd3b6d9596a","session_id":"619be321464b5b2bd849f07e","condition":"contingent","relevant_dimensions":["wings","legs"],"bee_group":{"antennae":"X","wings":"1","pattern":"X","legs":"F"},"action":"harvest","summary":"good-harvest","bonus":1.640000000000001},{"rt":1181.7000000001863,"stimulus":"\n                    <p><b>Action: <em>harvest</em></b></p>\n                    <p>This is the bee that you just saw.</p>\n                    <img src=\"bees-with-color/bee-B1SM.svg\" width=\"200\">\n                    <p><span class=\"greenText\"><b>Successful harvest!</b></span><br>Your pay has increased by $0.02. Your bonus pay is now $0.92.</p>\n            ","response":0,"trial_type":"html-button-response","trial_index":78,"time_elapsed":926050,"internal_node_id":"0.0-4.0-1.35","subject_id":"613c366feb00475071e752cb","study_id":"6197b3f67c2b5cd3b6d9596a","session_id":"619be321464b5b2bd849f07e","condition":"contingent","relevant_dimensions":["wings","legs"],"bee_group":{"antennae":"X","wings":"1","pattern":"X","legs":"F"},"bonus":1.640000000000001},{"rt":1073.5999999996275,"stimulus":"bees-with-color/bee-B1DF.svg","response":1,"trial_type":"image-button-response","trial_index":79,"time_elapsed":927125,"internal_node_id":"0.0-4.0-0.36","subject_id":"613c366feb00475071e752cb","study_id":"6197b3f67c2b5cd3b6d9596a","session_id":"619be321464b5b2bd849f07e","condition":"contingent","relevant_dimensions":["wings","legs"],"bee_group":{"antennae":"X","wings":"1","pattern":"X","legs":"F"},"action":"avoid","summary":"good-avoid","bonus":1.640000000000001},{"rt":660.0999999996275,"stimulus":"\n                    <p><b>Action: <em>avoid</em></b></p>\n                    <p>This is the bee that you just saw.</p>\n                    <img src=\"bees-with-color/bee-B1DF.svg\" width=\"200\">\n                    <p><br>Your bonus pay is unchanged, and remains at $0.92.</p>\n            ","response":0,"trial_type":"html-button-response","trial_index":80,"time_elapsed":927787,"internal_node_id":"0.0-4.0-1.36","subject_id":"613c366feb00475071e752cb","study_id":"6197b3f67c2b5cd3b6d9596a","session_id":"619be321464b5b2bd849f07e","condition":"contingent","relevant_dimensions":["wings","legs"],"bee_group":{"antennae":"X","wings":"1","pattern":"X","legs":"F"},"bonus":1.640000000000001},{"rt":1002,"stimulus":"bees-with-color/bee-A2SF.svg","response":0,"trial_type":"image-button-response","trial_index":81,"time_elapsed":928791,"internal_node_id":"0.0-4.0-0.37","subject_id":"613c366feb00475071e752cb","study_id":"6197b3f67c2b5cd3b6d9596a","session_id":"619be321464b5b2bd849f07e","condition":"contingent","relevant_dimensions":["wings","legs"],"bee_group":{"antennae":"X","wings":"1","pattern":"X","legs":"F"},"action":"harvest","summary":"good-harvest","bonus":1.640000000000001},{"rt":637.7000000001863,"stimulus":"\n                    <p><b>Action: <em>harvest</em></b></p>\n                    <p>This is the bee that you just saw.</p>\n                    <img src=\"bees-with-color/bee-A2SF.svg\" width=\"200\">\n                    <p><span class=\"greenText\"><b>Successful harvest!</b></span><br>Your pay has increased by $0.02. Your bonus pay is now $0.94.</p>\n            ","response":0,"trial_type":"html-button-response","trial_index":82,"time_elapsed":929431,"internal_node_id":"0.0-4.0-1.37","subject_id":"613c366feb00475071e752cb","study_id":"6197b3f67c2b5cd3b6d9596a","session_id":"619be321464b5b2bd849f07e","condition":"contingent","relevant_dimensions":["wings","legs"],"bee_group":{"antennae":"X","wings":"1","pattern":"X","legs":"F"},"bonus":1.640000000000001},{"rt":1234,"stimulus":"bees-with-color/bee-A2DF.svg","response":0,"trial_type":"image-button-response","trial_index":83,"time_elapsed":930668,"internal_node_id":"0.0-4.0-0.38","subject_id":"613c366feb00475071e752cb","study_id":"6197b3f67c2b5cd3b6d9596a","session_id":"619be321464b5b2bd849f07e","condition":"contingent","relevant_dimensions":["wings","legs"],"bee_group":{"antennae":"X","wings":"1","pattern":"X","legs":"F"},"action":"harvest","summary":"good-harvest","bonus":1.640000000000001},{"rt":662.3999999994412,"stimulus":"\n                    <p><b>Action: <em>harvest</em></b></p>\n                    <p>This is the bee that you just saw.</p>\n                    <img src=\"bees-with-color/bee-A2DF.svg\" width=\"200\">\n                    <p><span class=\"greenText\"><b>Successful harvest!</b></span><br>Your pay has increased by $0.02. Your bonus pay is now $0.96.</p>\n            ","response":0,"trial_type":"html-button-response","trial_index":84,"time_elapsed":931333,"internal_node_id":"0.0-4.0-1.38","subject_id":"613c366feb00475071e752cb","study_id":"6197b3f67c2b5cd3b6d9596a","session_id":"619be321464b5b2bd849f07e","condition":"contingent","relevant_dimensions":["wings","legs"],"bee_group":{"antennae":"X","wings":"1","pattern":"X","legs":"F"},"bonus":1.640000000000001},{"rt":1015.5,"stimulus":"bees-with-color/bee-B2DM.svg","response":0,"trial_type":"image-button-response","trial_index":85,"time_elapsed":932352,"internal_node_id":"0.0-4.0-0.39","subject_id":"613c366feb00475071e752cb","study_id":"6197b3f67c2b5cd3b6d9596a","session_id":"619be321464b5b2bd849f07e","condition":"contingent","relevant_dimensions":["wings","legs"],"bee_group":{"antennae":"X","wings":"1","pattern":"X","legs":"F"},"action":"harvest","summary":"good-harvest","bonus":1.640000000000001},{"rt":675,"stimulus":"\n                    <p><b>Action: <em>harvest</em></b></p>\n                    <p>This is the bee that you just saw.</p>\n                    <img src=\"bees-with-color/bee-B2DM.svg\" width=\"200\">\n                    <p><span class=\"greenText\"><b>Successful harvest!</b></span><br>Your pay has increased by $0.02. Your bonus pay is now $0.98.</p>\n            ","response":0,"trial_type":"html-button-response","trial_index":86,"time_elapsed":933030,"internal_node_id":"0.0-4.0-1.39","subject_id":"613c366feb00475071e752cb","study_id":"6197b3f67c2b5cd3b6d9596a","session_id":"619be321464b5b2bd849f07e","condition":"contingent","relevant_dimensions":["wings","legs"],"bee_group":{"antennae":"X","wings":"1","pattern":"X","legs":"F"},"bonus":1.640000000000001},{"rt":1403.800000000745,"stimulus":"bees-with-color/bee-B2DF.svg","response":0,"trial_type":"image-button-response","trial_index":87,"time_elapsed":934435,"internal_node_id":"0.0-4.0-0.40","subject_id":"613c366feb00475071e752cb","study_id":"6197b3f67c2b5cd3b6d9596a","session_id":"619be321464b5b2bd849f07e","condition":"contingent","relevant_dimensions":["wings","legs"],"bee_group":{"antennae":"X","wings":"1","pattern":"X","legs":"F"},"action":"harvest","summary":"good-harvest","bonus":1.640000000000001},{"rt":612,"stimulus":"\n                    <p><b>Action: <em>harvest</em></b></p>\n                    <p>This is the bee that you just saw.</p>\n                    <img src=\"bees-with-color/bee-B2DF.svg\" width=\"200\">\n                    <p><span class=\"greenText\"><b>Successful harvest!</b></span><br>Your pay has increased by $0.02. Your bonus pay is now $1.00.</p>\n            ","response":0,"trial_type":"html-button-response","trial_index":88,"time_elapsed":935050,"internal_node_id":"0.0-4.0-1.40","subject_id":"613c366feb00475071e752cb","study_id":"6197b3f67c2b5cd3b6d9596a","session_id":"619be321464b5b2bd849f07e","condition":"contingent","relevant_dimensions":["wings","legs"],"bee_group":{"antennae":"X","wings":"1","pattern":"X","legs":"F"},"bonus":1.640000000000001},{"rt":877.7000000001863,"stimulus":"bees-with-color/bee-A1SF.svg","response":1,"trial_type":"image-button-response","trial_index":89,"time_elapsed":935930,"internal_node_id":"0.0-4.0-0.41","subject_id":"613c366feb00475071e752cb","study_id":"6197b3f67c2b5cd3b6d9596a","session_id":"619be321464b5b2bd849f07e","condition":"contingent","relevant_dimensions":["wings","legs"],"bee_group":{"antennae":"X","wings":"1","pattern":"X","legs":"F"},"action":"avoid","summary":"good-avoid","bonus":1.640000000000001},{"rt":603.5,"stimulus":"\n                    <p><b>Action: <em>avoid</em></b></p>\n                    <p>This is the bee that you just saw.</p>\n                    <img src=\"bees-with-color/bee-A1SF.svg\" width=\"200\">\n                    <p><br>Your bonus pay is unchanged, and remains at $1.00.</p>\n            ","response":0,"trial_type":"html-button-response","trial_index":90,"time_elapsed":936536,"internal_node_id":"0.0-4.0-1.41","subject_id":"613c366feb00475071e752cb","study_id":"6197b3f67c2b5cd3b6d9596a","session_id":"619be321464b5b2bd849f07e","condition":"contingent","relevant_dimensions":["wings","legs"],"bee_group":{"antennae":"X","wings":"1","pattern":"X","legs":"F"},"bonus":1.640000000000001},{"rt":1067.7999999998137,"stimulus":"bees-with-color/bee-A1SM.svg","response":0,"trial_type":"image-button-response","trial_index":91,"time_elapsed":937606,"internal_node_id":"0.0-4.0-0.42","subject_id":"613c366feb00475071e752cb","study_id":"6197b3f67c2b5cd3b6d9596a","session_id":"619be321464b5b2bd849f07e","condition":"contingent","relevant_dimensions":["wings","legs"],"bee_group":{"antennae":"X","wings":"1","pattern":"X","legs":"F"},"action":"harvest","summary":"good-harvest","bonus":1.640000000000001},{"rt":1075.5,"stimulus":"\n                    <p><b>Action: <em>harvest</em></b></p>\n                    <p>This is the bee that you just saw.</p>\n                    <img src=\"bees-with-color/bee-A1SM.svg\" width=\"200\">\n                    <p><span class=\"greenText\"><b>Successful harvest!</b></span><br>Your pay has increased by $0.02. Your bonus pay is now $1.02.</p>\n            ","response":0,"trial_type":"html-button-response","trial_index":92,"time_elapsed":938684,"internal_node_id":"0.0-4.0-1.42","subject_id":"613c366feb00475071e752cb","study_id":"6197b3f67c2b5cd3b6d9596a","session_id":"619be321464b5b2bd849f07e","condition":"contingent","relevant_dimensions":["wings","legs"],"bee_group":{"antennae":"X","wings":"1","pattern":"X","legs":"F"},"bonus":1.640000000000001},{"rt":1067.7999999998137,"stimulus":"bees-with-color/bee-B1SF.svg","response":1,"trial_type":"image-button-response","trial_index":93,"time_elapsed":939754,"internal_node_id":"0.0-4.0-0.43","subject_id":"613c366feb00475071e752cb","study_id":"6197b3f67c2b5cd3b6d9596a","session_id":"619be321464b5b2bd849f07e","condition":"contingent","relevant_dimensions":["wings","legs"],"bee_group":{"antennae":"X","wings":"1","pattern":"X","legs":"F"},"action":"avoid","summary":"good-avoid","bonus":1.640000000000001},{"rt":805.2999999998137,"stimulus":"\n                    <p><b>Action: <em>avoid</em></b></p>\n                    <p>This is the bee that you just saw.</p>\n                    <img src=\"bees-with-color/bee-B1SF.svg\" width=\"200\">\n                    <p><br>Your bonus pay is unchanged, and remains at $1.02.</p>\n            ","response":0,"trial_type":"html-button-response","trial_index":94,"time_elapsed":940562,"internal_node_id":"0.0-4.0-1.43","subject_id":"613c366feb00475071e752cb","study_id":"6197b3f67c2b5cd3b6d9596a","session_id":"619be321464b5b2bd849f07e","condition":"contingent","relevant_dimensions":["wings","legs"],"bee_group":{"antennae":"X","wings":"1","pattern":"X","legs":"F"},"bonus":1.640000000000001},{"rt":1112.8999999994412,"stimulus":"bees-with-color/bee-A1DM.svg","response":0,"trial_type":"image-button-response","trial_index":95,"time_elapsed":941678,"internal_node_id":"0.0-4.0-0.44","subject_id":"613c366feb00475071e752cb","study_id":"6197b3f67c2b5cd3b6d9596a","session_id":"619be321464b5b2bd849f07e","condition":"contingent","relevant_dimensions":["wings","legs"],"bee_group":{"antennae":"X","wings":"1","pattern":"X","legs":"F"},"action":"harvest","summary":"good-harvest","bonus":1.640000000000001},{"rt":635.5,"stimulus":"\n                    <p><b>Action: <em>harvest</em></b></p>\n                    <p>This is the bee that you just saw.</p>\n                    <img src=\"bees-with-color/bee-A1DM.svg\" width=\"200\">\n                    <p><span class=\"greenText\"><b>Successful harvest!</b></span><br>Your pay has increased by $0.02. Your bonus pay is now $1.04.</p>\n            ","response":0,"trial_type":"html-button-response","trial_index":96,"time_elapsed":942316,"internal_node_id":"0.0-4.0-1.44","subject_id":"613c366feb00475071e752cb","study_id":"6197b3f67c2b5cd3b6d9596a","session_id":"619be321464b5b2bd849f07e","condition":"contingent","relevant_dimensions":["wings","legs"],"bee_group":{"antennae":"X","wings":"1","pattern":"X","legs":"F"},"bonus":1.640000000000001},{"rt":957.1999999992549,"stimulus":"bees-with-color/bee-B1DM.svg","response":0,"trial_type":"image-button-response","trial_index":97,"time_elapsed":943276,"internal_node_id":"0.0-4.0-0.45","subject_id":"613c366feb00475071e752cb","study_id":"6197b3f67c2b5cd3b6d9596a","session_id":"619be321464b5b2bd849f07e","condition":"contingent","relevant_dimensions":["wings","legs"],"bee_group":{"antennae":"X","wings":"1","pattern":"X","legs":"F"},"action":"harvest","summary":"good-harvest","bonus":1.640000000000001},{"rt":614.2999999998137,"stimulus":"\n                    <p><b>Action: <em>harvest</em></b></p>\n                    <p>This is the bee that you just saw.</p>\n                    <img src=\"bees-with-color/bee-B1DM.svg\" width=\"200\">\n                    <p><span class=\"greenText\"><b>Successful harvest!</b></span><br>Your pay has increased by $0.02. Your bonus pay is now $1.06.</p>\n            ","response":0,"trial_type":"html-button-response","trial_index":98,"time_elapsed":943892,"internal_node_id":"0.0-4.0-1.45","subject_id":"613c366feb00475071e752cb","study_id":"6197b3f67c2b5cd3b6d9596a","session_id":"619be321464b5b2bd849f07e","condition":"contingent","relevant_dimensions":["wings","legs"],"bee_group":{"antennae":"X","wings":"1","pattern":"X","legs":"F"},"bonus":1.640000000000001},{"rt":1346.5,"stimulus":"bees-with-color/bee-A2SM.svg","response":0,"trial_type":"image-button-response","trial_index":99,"time_elapsed":945240,"internal_node_id":"0.0-4.0-0.46","subject_id":"613c366feb00475071e752cb","study_id":"6197b3f67c2b5cd3b6d9596a","session_id":"619be321464b5b2bd849f07e","condition":"contingent","relevant_dimensions":["wings","legs"],"bee_group":{"antennae":"X","wings":"1","pattern":"X","legs":"F"},"action":"harvest","summary":"good-harvest","bonus":1.640000000000001},{"rt":629.9000000003725,"stimulus":"\n                    <p><b>Action: <em>harvest</em></b></p>\n                    <p>This is the bee that you just saw.</p>\n                    <img src=\"bees-with-color/bee-A2SM.svg\" width=\"200\">\n                    <p><span class=\"greenText\"><b>Successful harvest!</b></span><br>Your pay has increased by $0.02. Your bonus pay is now $1.08.</p>\n            ","response":0,"trial_type":"html-button-response","trial_index":100,"time_elapsed":945872,"internal_node_id":"0.0-4.0-1.46","subject_id":"613c366feb00475071e752cb","study_id":"6197b3f67c2b5cd3b6d9596a","session_id":"619be321464b5b2bd849f07e","condition":"contingent","relevant_dimensions":["wings","legs"],"bee_group":{"antennae":"X","wings":"1","pattern":"X","legs":"F"},"bonus":1.640000000000001},{"rt":742.6000000005588,"stimulus":"bees-with-color/bee-B2SM.svg","response":0,"trial_type":"image-button-response","trial_index":101,"time_elapsed":946616,"internal_node_id":"0.0-4.0-0.47","subject_id":"613c366feb00475071e752cb","study_id":"6197b3f67c2b5cd3b6d9596a","session_id":"619be321464b5b2bd849f07e","condition":"contingent","relevant_dimensions":["wings","legs"],"bee_group":{"antennae":"X","wings":"1","pattern":"X","legs":"F"},"action":"harvest","summary":"good-harvest","bonus":1.640000000000001},{"rt":645.8000000007451,"stimulus":"\n                    <p><b>Action: <em>harvest</em></b></p>\n                    <p>This is the bee that you just saw.</p>\n                    <img src=\"bees-with-color/bee-B2SM.svg\" width=\"200\">\n                    <p><span class=\"greenText\"><b>Successful harvest!</b></span><br>Your pay has increased by $0.02. Your bonus pay is now $1.10.</p>\n            ","response":0,"trial_type":"html-button-response","trial_index":102,"time_elapsed":947264,"internal_node_id":"0.0-4.0-1.47","subject_id":"613c366feb00475071e752cb","study_id":"6197b3f67c2b5cd3b6d9596a","session_id":"619be321464b5b2bd849f07e","condition":"contingent","relevant_dimensions":["wings","legs"],"bee_group":{"antennae":"X","wings":"1","pattern":"X","legs":"F"},"bonus":1.640000000000001},{"rt":906,"stimulus":"bees-with-color/bee-A1SM.svg","response":1,"trial_type":"image-button-response","trial_index":103,"time_elapsed":948172,"internal_node_id":"0.0-4.0-0.48","subject_id":"613c366feb00475071e752cb","study_id":"6197b3f67c2b5cd3b6d9596a","session_id":"619be321464b5b2bd849f07e","condition":"contingent","relevant_dimensions":["wings","legs"],"bee_group":{"antennae":"X","wings":"1","pattern":"X","legs":"F"},"action":"avoid","summary":"bad-avoid","bonus":1.640000000000001},{"rt":789.8000000007451,"stimulus":"\n                    <p><b>Action: <em>avoid</em></b></p>\n                    <p>This is the bee that you just saw.</p>\n                    <img src=\"bees-with-color/bee-A1SM.svg\" width=\"200\">\n                    <p><br>Your bonus pay is unchanged, and remains at $1.10.</p>\n            ","response":0,"trial_type":"html-button-response","trial_index":104,"time_elapsed":948964,"internal_node_id":"0.0-4.0-1.48","subject_id":"613c366feb00475071e752cb","study_id":"6197b3f67c2b5cd3b6d9596a","session_id":"619be321464b5b2bd849f07e","condition":"contingent","relevant_dimensions":["wings","legs"],"bee_group":{"antennae":"X","wings":"1","pattern":"X","legs":"F"},"bonus":1.640000000000001},{"rt":2228.2999999998137,"stimulus":"bees-with-color/bee-A2DF.svg","response":1,"trial_type":"image-button-response","trial_index":105,"time_elapsed":951194,"internal_node_id":"0.0-4.0-0.49","subject_id":"613c366feb00475071e752cb","study_id":"6197b3f67c2b5cd3b6d9596a","session_id":"619be321464b5b2bd849f07e","condition":"contingent","relevant_dimensions":["wings","legs"],"bee_group":{"antennae":"X","wings":"1","pattern":"X","legs":"F"},"action":"avoid","summary":"bad-avoid","bonus":1.640000000000001},{"rt":588.9000000003725,"stimulus":"\n                    <p><b>Action: <em>avoid</em></b></p>\n                    <p>This is the bee that you just saw.</p>\n                    <img src=\"bees-with-color/bee-A2DF.svg\" width=\"200\">\n                    <p><br>Your bonus pay is unchanged, and remains at $1.10.</p>\n            ","response":0,"trial_type":"html-button-response","trial_index":106,"time_elapsed":951786,"internal_node_id":"0.0-4.0-1.49","subject_id":"613c366feb00475071e752cb","study_id":"6197b3f67c2b5cd3b6d9596a","session_id":"619be321464b5b2bd849f07e","condition":"contingent","relevant_dimensions":["wings","legs"],"bee_group":{"antennae":"X","wings":"1","pattern":"X","legs":"F"},"bonus":1.640000000000001},{"rt":1228.5,"stimulus":"bees-with-color/bee-B1SF.svg","response":1,"trial_type":"image-button-response","trial_index":107,"time_elapsed":953017,"internal_node_id":"0.0-4.0-0.50","subject_id":"613c366feb00475071e752cb","study_id":"6197b3f67c2b5cd3b6d9596a","session_id":"619be321464b5b2bd849f07e","condition":"contingent","relevant_dimensions":["wings","legs"],"bee_group":{"antennae":"X","wings":"1","pattern":"X","legs":"F"},"action":"avoid","summary":"good-avoid","bonus":1.640000000000001},{"rt":581.7000000001863,"stimulus":"\n                    <p><b>Action: <em>avoid</em></b></p>\n                    <p>This is the bee that you just saw.</p>\n                    <img src=\"bees-with-color/bee-B1SF.svg\" width=\"200\">\n                    <p><br>Your bonus pay is unchanged, and remains at $1.10.</p>\n            ","response":0,"trial_type":"html-button-response","trial_index":108,"time_elapsed":953601,"internal_node_id":"0.0-4.0-1.50","subject_id":"613c366feb00475071e752cb","study_id":"6197b3f67c2b5cd3b6d9596a","session_id":"619be321464b5b2bd849f07e","condition":"contingent","relevant_dimensions":["wings","legs"],"bee_group":{"antennae":"X","wings":"1","pattern":"X","legs":"F"},"bonus":1.640000000000001},{"rt":1297.3999999994412,"stimulus":"bees-with-color/bee-A2SF.svg","response":0,"trial_type":"image-button-response","trial_index":109,"time_elapsed":954900,"internal_node_id":"0.0-4.0-0.51","subject_id":"613c366feb00475071e752cb","study_id":"6197b3f67c2b5cd3b6d9596a","session_id":"619be321464b5b2bd849f07e","condition":"contingent","relevant_dimensions":["wings","legs"],"bee_group":{"antennae":"X","wings":"1","pattern":"X","legs":"F"},"action":"harvest","summary":"good-harvest","bonus":1.640000000000001},{"rt":852.0999999996275,"stimulus":"\n                    <p><b>Action: <em>harvest</em></b></p>\n                    <p>This is the bee that you just saw.</p>\n                    <img src=\"bees-with-color/bee-A2SF.svg\" width=\"200\">\n                    <p><span class=\"greenText\"><b>Successful harvest!</b></span><br>Your pay has increased by $0.02. Your bonus pay is now $1.12.</p>\n            ","response":0,"trial_type":"html-button-response","trial_index":110,"time_elapsed":955755,"internal_node_id":"0.0-4.0-1.51","subject_id":"613c366feb00475071e752cb","study_id":"6197b3f67c2b5cd3b6d9596a","session_id":"619be321464b5b2bd849f07e","condition":"contingent","relevant_dimensions":["wings","legs"],"bee_group":{"antennae":"X","wings":"1","pattern":"X","legs":"F"},"bonus":1.640000000000001},{"rt":1132.1000000005588,"stimulus":"bees-with-color/bee-B1SM.svg","response":0,"trial_type":"image-button-response","trial_index":111,"time_elapsed":956889,"internal_node_id":"0.0-4.0-0.52","subject_id":"613c366feb00475071e752cb","study_id":"6197b3f67c2b5cd3b6d9596a","session_id":"619be321464b5b2bd849f07e","condition":"contingent","relevant_dimensions":["wings","legs"],"bee_group":{"antennae":"X","wings":"1","pattern":"X","legs":"F"},"action":"harvest","summary":"good-harvest","bonus":1.640000000000001},{"rt":843.9000000003725,"stimulus":"\n                    <p><b>Action: <em>harvest</em></b></p>\n                    <p>This is the bee that you just saw.</p>\n                    <img src=\"bees-with-color/bee-B1SM.svg\" width=\"200\">\n                    <p><span class=\"greenText\"><b>Successful harvest!</b></span><br>Your pay has increased by $0.02. Your bonus pay is now $1.14.</p>\n            ","response":0,"trial_type":"html-button-response","trial_index":112,"time_elapsed":957734,"internal_node_id":"0.0-4.0-1.52","subject_id":"613c366feb00475071e752cb","study_id":"6197b3f67c2b5cd3b6d9596a","session_id":"619be321464b5b2bd849f07e","condition":"contingent","relevant_dimensions":["wings","legs"],"bee_group":{"antennae":"X","wings":"1","pattern":"X","legs":"F"},"bonus":1.640000000000001},{"rt":980.2999999998137,"stimulus":"bees-with-color/bee-B2DF.svg","response":0,"trial_type":"image-button-response","trial_index":113,"time_elapsed":958717,"internal_node_id":"0.0-4.0-0.53","subject_id":"613c366feb00475071e752cb","study_id":"6197b3f67c2b5cd3b6d9596a","session_id":"619be321464b5b2bd849f07e","condition":"contingent","relevant_dimensions":["wings","legs"],"bee_group":{"antennae":"X","wings":"1","pattern":"X","legs":"F"},"action":"harvest","summary":"good-harvest","bonus":1.640000000000001},{"rt":708,"stimulus":"\n                    <p><b>Action: <em>harvest</em></b></p>\n                    <p>This is the bee that you just saw.</p>\n                    <img src=\"bees-with-color/bee-B2DF.svg\" width=\"200\">\n                    <p><span class=\"greenText\"><b>Successful harvest!</b></span><br>Your pay has increased by $0.02. Your bonus pay is now $1.16.</p>\n            ","response":0,"trial_type":"html-button-response","trial_index":114,"time_elapsed":959426,"internal_node_id":"0.0-4.0-1.53","subject_id":"613c366feb00475071e752cb","study_id":"6197b3f67c2b5cd3b6d9596a","session_id":"619be321464b5b2bd849f07e","condition":"contingent","relevant_dimensions":["wings","legs"],"bee_group":{"antennae":"X","wings":"1","pattern":"X","legs":"F"},"bonus":1.640000000000001},{"rt":1426.3999999994412,"stimulus":"bees-with-color/bee-A1DF.svg","response":1,"trial_type":"image-button-response","trial_index":115,"time_elapsed":960855,"internal_node_id":"0.0-4.0-0.54","subject_id":"613c366feb00475071e752cb","study_id":"6197b3f67c2b5cd3b6d9596a","session_id":"619be321464b5b2bd849f07e","condition":"contingent","relevant_dimensions":["wings","legs"],"bee_group":{"antennae":"X","wings":"1","pattern":"X","legs":"F"},"action":"avoid","summary":"good-avoid","bonus":1.640000000000001},{"rt":854.5,"stimulus":"\n                    <p><b>Action: <em>avoid</em></b></p>\n                    <p>This is the bee that you just saw.</p>\n                    <img src=\"bees-with-color/bee-A1DF.svg\" width=\"200\">\n                    <p><br>Your bonus pay is unchanged, and remains at $1.16.</p>\n            ","response":0,"trial_type":"html-button-response","trial_index":116,"time_elapsed":961711,"internal_node_id":"0.0-4.0-1.54","subject_id":"613c366feb00475071e752cb","study_id":"6197b3f67c2b5cd3b6d9596a","session_id":"619be321464b5b2bd849f07e","condition":"contingent","relevant_dimensions":["wings","legs"],"bee_group":{"antennae":"X","wings":"1","pattern":"X","legs":"F"},"bonus":1.640000000000001},{"rt":4704.4000000003725,"stimulus":"bees-with-color/bee-A2DM.svg","response":0,"trial_type":"image-button-response","trial_index":117,"time_elapsed":966417,"internal_node_id":"0.0-4.0-0.55","subject_id":"613c366feb00475071e752cb","study_id":"6197b3f67c2b5cd3b6d9596a","session_id":"619be321464b5b2bd849f07e","condition":"contingent","relevant_dimensions":["wings","legs"],"bee_group":{"antennae":"X","wings":"1","pattern":"X","legs":"F"},"action":"harvest","summary":"good-harvest","bonus":1.640000000000001},{"rt":900,"stimulus":"\n                    <p><b>Action: <em>harvest</em></b></p>\n                    <p>This is the bee that you just saw.</p>\n                    <img src=\"bees-with-color/bee-A2DM.svg\" width=\"200\">\n                    <p><span class=\"greenText\"><b>Successful harvest!</b></span><br>Your pay has increased by $0.02. Your bonus pay is now $1.18.</p>\n            ","response":0,"trial_type":"html-button-response","trial_index":118,"time_elapsed":967319,"internal_node_id":"0.0-4.0-1.55","subject_id":"613c366feb00475071e752cb","study_id":"6197b3f67c2b5cd3b6d9596a","session_id":"619be321464b5b2bd849f07e","condition":"contingent","relevant_dimensions":["wings","legs"],"bee_group":{"antennae":"X","wings":"1","pattern":"X","legs":"F"},"bonus":1.640000000000001},{"rt":8579.400000000373,"stimulus":"bees-with-color/bee-A1SF.svg","response":1,"trial_type":"image-button-response","trial_index":119,"time_elapsed":975902,"internal_node_id":"0.0-4.0-0.56","subject_id":"613c366feb00475071e752cb","study_id":"6197b3f67c2b5cd3b6d9596a","session_id":"619be321464b5b2bd849f07e","condition":"contingent","relevant_dimensions":["wings","legs"],"bee_group":{"antennae":"X","wings":"1","pattern":"X","legs":"F"},"action":"avoid","summary":"good-avoid","bonus":1.640000000000001},{"rt":4885.700000000186,"stimulus":"\n                    <p><b>Action: <em>avoid</em></b></p>\n                    <p>This is the bee that you just saw.</p>\n                    <img src=\"bees-with-color/bee-A1SF.svg\" width=\"200\">\n                    <p><br>Your bonus pay is unchanged, and remains at $1.18.</p>\n            ","response":0,"trial_type":"html-button-response","trial_index":120,"time_elapsed":980790,"internal_node_id":"0.0-4.0-1.56","subject_id":"613c366feb00475071e752cb","study_id":"6197b3f67c2b5cd3b6d9596a","session_id":"619be321464b5b2bd849f07e","condition":"contingent","relevant_dimensions":["wings","legs"],"bee_group":{"antennae":"X","wings":"1","pattern":"X","legs":"F"},"bonus":1.640000000000001},{"rt":1209.699999999255,"stimulus":"bees-with-color/bee-B1DF.svg","response":1,"trial_type":"image-button-response","trial_index":121,"time_elapsed":982002,"internal_node_id":"0.0-4.0-0.57","subject_id":"613c366feb00475071e752cb","study_id":"6197b3f67c2b5cd3b6d9596a","session_id":"619be321464b5b2bd849f07e","condition":"contingent","relevant_dimensions":["wings","legs"],"bee_group":{"antennae":"X","wings":"1","pattern":"X","legs":"F"},"action":"avoid","summary":"good-avoid","bonus":1.640000000000001},{"rt":1592,"stimulus":"\n                    <p><b>Action: <em>avoid</em></b></p>\n                    <p>This is the bee that you just saw.</p>\n                    <img src=\"bees-with-color/bee-B1DF.svg\" width=\"200\">\n                    <p><br>Your bonus pay is unchanged, and remains at $1.18.</p>\n            ","response":0,"trial_type":"html-button-response","trial_index":122,"time_elapsed":983596,"internal_node_id":"0.0-4.0-1.57","subject_id":"613c366feb00475071e752cb","study_id":"6197b3f67c2b5cd3b6d9596a","session_id":"619be321464b5b2bd849f07e","condition":"contingent","relevant_dimensions":["wings","legs"],"bee_group":{"antennae":"X","wings":"1","pattern":"X","legs":"F"},"bonus":1.640000000000001},{"rt":51727.39999999944,"stimulus":"bees-with-color/bee-B2SM.svg","response":0,"trial_type":"image-button-response","trial_index":123,"time_elapsed":1035328,"internal_node_id":"0.0-4.0-0.58","subject_id":"613c366feb00475071e752cb","study_id":"6197b3f67c2b5cd3b6d9596a","session_id":"619be321464b5b2bd849f07e","condition":"contingent","relevant_dimensions":["wings","legs"],"bee_group":{"antennae":"X","wings":"1","pattern":"X","legs":"F"},"action":"harvest","summary":"good-harvest","bonus":1.640000000000001},{"rt":813.7000000001863,"stimulus":"\n                    <p><b>Action: <em>harvest</em></b></p>\n                    <p>This is the bee that you just saw.</p>\n                    <img src=\"bees-with-color/bee-B2SM.svg\" width=\"200\">\n                    <p><span class=\"greenText\"><b>Successful harvest!</b></span><br>Your pay has increased by $0.02. Your bonus pay is now $1.20.</p>\n            ","response":0,"trial_type":"html-button-response","trial_index":124,"time_elapsed":1036144,"internal_node_id":"0.0-4.0-1.58","subject_id":"613c366feb00475071e752cb","study_id":"6197b3f67c2b5cd3b6d9596a","session_id":"619be321464b5b2bd849f07e","condition":"contingent","relevant_dimensions":["wings","legs"],"bee_group":{"antennae":"X","wings":"1","pattern":"X","legs":"F"},"bonus":1.640000000000001},{"rt":1465.2999999998137,"stimulus":"bees-with-color/bee-B2SF.svg","response":0,"trial_type":"image-button-response","trial_index":125,"time_elapsed":1037612,"internal_node_id":"0.0-4.0-0.59","subject_id":"613c366feb00475071e752cb","study_id":"6197b3f67c2b5cd3b6d9596a","session_id":"619be321464b5b2bd849f07e","condition":"contingent","relevant_dimensions":["wings","legs"],"bee_group":{"antennae":"X","wings":"1","pattern":"X","legs":"F"},"action":"harvest","summary":"good-harvest","bonus":1.640000000000001},{"rt":869.9000000003725,"stimulus":"\n                    <p><b>Action: <em>harvest</em></b></p>\n                    <p>This is the bee that you just saw.</p>\n                    <img src=\"bees-with-color/bee-B2SF.svg\" width=\"200\">\n                    <p><span class=\"greenText\"><b>Successful harvest!</b></span><br>Your pay has increased by $0.02. Your bonus pay is now $1.22.</p>\n            ","response":0,"trial_type":"html-button-response","trial_index":126,"time_elapsed":1038484,"internal_node_id":"0.0-4.0-1.59","subject_id":"613c366feb00475071e752cb","study_id":"6197b3f67c2b5cd3b6d9596a","session_id":"619be321464b5b2bd849f07e","condition":"contingent","relevant_dimensions":["wings","legs"],"bee_group":{"antennae":"X","wings":"1","pattern":"X","legs":"F"},"bonus":1.640000000000001},{"rt":1866,"stimulus":"bees-with-color/bee-A1DM.svg","response":0,"trial_type":"image-button-response","trial_index":127,"time_elapsed":1040352,"internal_node_id":"0.0-4.0-0.60","subject_id":"613c366feb00475071e752cb","study_id":"6197b3f67c2b5cd3b6d9596a","session_id":"619be321464b5b2bd849f07e","condition":"contingent","relevant_dimensions":["wings","legs"],"bee_group":{"antennae":"X","wings":"1","pattern":"X","legs":"F"},"action":"harvest","summary":"good-harvest","bonus":1.640000000000001},{"rt":813.5999999996275,"stimulus":"\n                    <p><b>Action: <em>harvest</em></b></p>\n                    <p>This is the bee that you just saw.</p>\n                    <img src=\"bees-with-color/bee-A1DM.svg\" width=\"200\">\n                    <p><span class=\"greenText\"><b>Successful harvest!</b></span><br>Your pay has increased by $0.02. Your bonus pay is now $1.24.</p>\n            ","response":0,"trial_type":"html-button-response","trial_index":128,"time_elapsed":1041168,"internal_node_id":"0.0-4.0-1.60","subject_id":"613c366feb00475071e752cb","study_id":"6197b3f67c2b5cd3b6d9596a","session_id":"619be321464b5b2bd849f07e","condition":"contingent","relevant_dimensions":["wings","legs"],"bee_group":{"antennae":"X","wings":"1","pattern":"X","legs":"F"},"bonus":1.640000000000001},{"rt":1393.5999999996275,"stimulus":"bees-with-color/bee-A2SM.svg","response":0,"trial_type":"image-button-response","trial_index":129,"time_elapsed":1042564,"internal_node_id":"0.0-4.0-0.61","subject_id":"613c366feb00475071e752cb","study_id":"6197b3f67c2b5cd3b6d9596a","session_id":"619be321464b5b2bd849f07e","condition":"contingent","relevant_dimensions":["wings","legs"],"bee_group":{"antennae":"X","wings":"1","pattern":"X","legs":"F"},"action":"harvest","summary":"good-harvest","bonus":1.640000000000001},{"rt":651.6000000005588,"stimulus":"\n                    <p><b>Action: <em>harvest</em></b></p>\n                    <p>This is the bee that you just saw.</p>\n                    <img src=\"bees-with-color/bee-A2SM.svg\" width=\"200\">\n                    <p><span class=\"greenText\"><b>Successful harvest!</b></span><br>Your pay has increased by $0.02. Your bonus pay is now $1.26.</p>\n            ","response":0,"trial_type":"html-button-response","trial_index":130,"time_elapsed":1043218,"internal_node_id":"0.0-4.0-1.61","subject_id":"613c366feb00475071e752cb","study_id":"6197b3f67c2b5cd3b6d9596a","session_id":"619be321464b5b2bd849f07e","condition":"contingent","relevant_dimensions":["wings","legs"],"bee_group":{"antennae":"X","wings":"1","pattern":"X","legs":"F"},"bonus":1.640000000000001},{"rt":3007.9000000003725,"stimulus":"bees-with-color/bee-B1DM.svg","response":1,"trial_type":"image-button-response","trial_index":131,"time_elapsed":1046228,"internal_node_id":"0.0-4.0-0.62","subject_id":"613c366feb00475071e752cb","study_id":"6197b3f67c2b5cd3b6d9596a","session_id":"619be321464b5b2bd849f07e","condition":"contingent","relevant_dimensions":["wings","legs"],"bee_group":{"antennae":"X","wings":"1","pattern":"X","legs":"F"},"action":"avoid","summary":"bad-avoid","bonus":1.640000000000001},{"rt":931.5999999996275,"stimulus":"\n                    <p><b>Action: <em>avoid</em></b></p>\n                    <p>This is the bee that you just saw.</p>\n                    <img src=\"bees-with-color/bee-B1DM.svg\" width=\"200\">\n                    <p><br>Your bonus pay is unchanged, and remains at $1.26.</p>\n            ","response":0,"trial_type":"html-button-response","trial_index":132,"time_elapsed":1047162,"internal_node_id":"0.0-4.0-1.62","subject_id":"613c366feb00475071e752cb","study_id":"6197b3f67c2b5cd3b6d9596a","session_id":"619be321464b5b2bd849f07e","condition":"contingent","relevant_dimensions":["wings","legs"],"bee_group":{"antennae":"X","wings":"1","pattern":"X","legs":"F"},"bonus":1.640000000000001},{"rt":9271,"stimulus":"bees-with-color/bee-B2DM.svg","response":0,"trial_type":"image-button-response","trial_index":133,"time_elapsed":1056436,"internal_node_id":"0.0-4.0-0.63","subject_id":"613c366feb00475071e752cb","study_id":"6197b3f67c2b5cd3b6d9596a","session_id":"619be321464b5b2bd849f07e","condition":"contingent","relevant_dimensions":["wings","legs"],"bee_group":{"antennae":"X","wings":"1","pattern":"X","legs":"F"},"action":"harvest","summary":"good-harvest","bonus":1.640000000000001},{"rt":788,"stimulus":"\n                    <p><b>Action: <em>harvest</em></b></p>\n                    <p>This is the bee that you just saw.</p>\n                    <img src=\"bees-with-color/bee-B2DM.svg\" width=\"200\">\n                    <p><span class=\"greenText\"><b>Successful harvest!</b></span><br>Your pay has increased by $0.02. Your bonus pay is now $1.28.</p>\n            ","response":0,"trial_type":"html-button-response","trial_index":134,"time_elapsed":1057227,"internal_node_id":"0.0-4.0-1.63","subject_id":"613c366feb00475071e752cb","study_id":"6197b3f67c2b5cd3b6d9596a","session_id":"619be321464b5b2bd849f07e","condition":"contingent","relevant_dimensions":["wings","legs"],"bee_group":{"antennae":"X","wings":"1","pattern":"X","legs":"F"},"bonus":1.640000000000001},{"rt":51091.09999999963,"stimulus":"You have completed the first part of this experiment.<br><br>You will now begin a shorter second part, in which you will receive no feedback.<br>The same rules regarding bonus pay apply.<br><br>Press any key to begin.","response":" ","trial_type":"html-keyboard-response","trial_index":135,"time_elapsed":1108322,"internal_node_id":"0.0-5.0","subject_id":"613c366feb00475071e752cb","study_id":"6197b3f67c2b5cd3b6d9596a","session_id":"619be321464b5b2bd849f07e","condition":"contingent","relevant_dimensions":["wings","legs"],"bee_group":{"antennae":"X","wings":"1","pattern":"X","legs":"F"},"bonus":1.640000000000001},{"rt":2507.399999999441,"stimulus":"bees-with-color/bee-B1DM.svg","response":1,"trial_type":"image-button-response","trial_index":136,"time_elapsed":1110837,"internal_node_id":"0.0-6.0-0.0","subject_id":"613c366feb00475071e752cb","study_id":"6197b3f67c2b5cd3b6d9596a","session_id":"619be321464b5b2bd849f07e","condition":"contingent","relevant_dimensions":["wings","legs"],"bee_group":{"antennae":"X","wings":"1","pattern":"X","legs":"F"},"bonus":1.640000000000001},{"rt":914.7000000001863,"stimulus":"bees-with-color/bee-B2SM.svg","response":0,"trial_type":"image-button-response","trial_index":137,"time_elapsed":1111755,"internal_node_id":"0.0-6.0-0.1","subject_id":"613c366feb00475071e752cb","study_id":"6197b3f67c2b5cd3b6d9596a","session_id":"619be321464b5b2bd849f07e","condition":"contingent","relevant_dimensions":["wings","legs"],"bee_group":{"antennae":"X","wings":"1","pattern":"X","legs":"F"},"bonus":1.640000000000001},{"rt":5745.200000000186,"stimulus":"bees-with-color/bee-A1SF.svg","response":1,"trial_type":"image-button-response","trial_index":138,"time_elapsed":1117503,"internal_node_id":"0.0-6.0-0.2","subject_id":"613c366feb00475071e752cb","study_id":"6197b3f67c2b5cd3b6d9596a","session_id":"619be321464b5b2bd849f07e","condition":"contingent","relevant_dimensions":["wings","legs"],"bee_group":{"antennae":"X","wings":"1","pattern":"X","legs":"F"},"bonus":1.640000000000001},{"rt":1034.9000000003725,"stimulus":"bees-with-color/bee-A1DM.svg","response":0,"trial_type":"image-button-response","trial_index":139,"time_elapsed":1118541,"internal_node_id":"0.0-6.0-0.3","subject_id":"613c366feb00475071e752cb","study_id":"6197b3f67c2b5cd3b6d9596a","session_id":"619be321464b5b2bd849f07e","condition":"contingent","relevant_dimensions":["wings","legs"],"bee_group":{"antennae":"X","wings":"1","pattern":"X","legs":"F"},"bonus":1.640000000000001},{"rt":867.5,"stimulus":"bees-with-color/bee-B1SF.svg","response":1,"trial_type":"image-button-response","trial_index":140,"time_elapsed":1119411,"internal_node_id":"0.0-6.0-0.4","subject_id":"613c366feb00475071e752cb","study_id":"6197b3f67c2b5cd3b6d9596a","session_id":"619be321464b5b2bd849f07e","condition":"contingent","relevant_dimensions":["wings","legs"],"bee_group":{"antennae":"X","wings":"1","pattern":"X","legs":"F"},"bonus":1.640000000000001},{"rt":741.5,"stimulus":"bees-with-color/bee-A1SM.svg","response":0,"trial_type":"image-button-response","trial_index":141,"time_elapsed":1120155,"internal_node_id":"0.0-6.0-0.5","subject_id":"613c366feb00475071e752cb","study_id":"6197b3f67c2b5cd3b6d9596a","session_id":"619be321464b5b2bd849f07e","condition":"contingent","relevant_dimensions":["wings","legs"],"bee_group":{"antennae":"X","wings":"1","pattern":"X","legs":"F"},"bonus":1.640000000000001},{"rt":603.2000000001863,"stimulus":"bees-with-color/bee-A2DM.svg","response":0,"trial_type":"image-button-response","trial_index":142,"time_elapsed":1120762,"internal_node_id":"0.0-6.0-0.6","subject_id":"613c366feb00475071e752cb","study_id":"6197b3f67c2b5cd3b6d9596a","session_id":"619be321464b5b2bd849f07e","condition":"contingent","relevant_dimensions":["wings","legs"],"bee_group":{"antennae":"X","wings":"1","pattern":"X","legs":"F"},"bonus":1.640000000000001},{"rt":739.3000000007451,"stimulus":"bees-with-color/bee-A2SM.svg","response":0,"trial_type":"image-button-response","trial_index":143,"time_elapsed":1121505,"internal_node_id":"0.0-6.0-0.7","subject_id":"613c366feb00475071e752cb","study_id":"6197b3f67c2b5cd3b6d9596a","session_id":"619be321464b5b2bd849f07e","condition":"contingent","relevant_dimensions":["wings","legs"],"bee_group":{"antennae":"X","wings":"1","pattern":"X","legs":"F"},"bonus":1.640000000000001},{"rt":795.0999999996275,"stimulus":"bees-with-color/bee-A1DF.svg","response":1,"trial_type":"image-button-response","trial_index":144,"time_elapsed":1122303,"internal_node_id":"0.0-6.0-0.8","subject_id":"613c366feb00475071e752cb","study_id":"6197b3f67c2b5cd3b6d9596a","session_id":"619be321464b5b2bd849f07e","condition":"contingent","relevant_dimensions":["wings","legs"],"bee_group":{"antennae":"X","wings":"1","pattern":"X","legs":"F"},"bonus":1.640000000000001},{"rt":707,"stimulus":"bees-with-color/bee-B2DM.svg","response":0,"trial_type":"image-button-response","trial_index":145,"time_elapsed":1123013,"internal_node_id":"0.0-6.0-0.9","subject_id":"613c366feb00475071e752cb","study_id":"6197b3f67c2b5cd3b6d9596a","session_id":"619be321464b5b2bd849f07e","condition":"contingent","relevant_dimensions":["wings","legs"],"bee_group":{"antennae":"X","wings":"1","pattern":"X","legs":"F"},"bonus":1.640000000000001},{"rt":2459.2999999998137,"stimulus":"bees-with-color/bee-B2DF.svg","response":1,"trial_type":"image-button-response","trial_index":146,"time_elapsed":1125475,"internal_node_id":"0.0-6.0-0.10","subject_id":"613c366feb00475071e752cb","study_id":"6197b3f67c2b5cd3b6d9596a","session_id":"619be321464b5b2bd849f07e","condition":"contingent","relevant_dimensions":["wings","legs"],"bee_group":{"antennae":"X","wings":"1","pattern":"X","legs":"F"},"bonus":1.640000000000001},{"rt":939,"stimulus":"bees-with-color/bee-B2SF.svg","response":1,"trial_type":"image-button-response","trial_index":147,"time_elapsed":1126417,"internal_node_id":"0.0-6.0-0.11","subject_id":"613c366feb00475071e752cb","study_id":"6197b3f67c2b5cd3b6d9596a","session_id":"619be321464b5b2bd849f07e","condition":"contingent","relevant_dimensions":["wings","legs"],"bee_group":{"antennae":"X","wings":"1","pattern":"X","legs":"F"},"bonus":1.640000000000001},{"rt":914.7000000001863,"stimulus":"bees-with-color/bee-B1DF.svg","response":1,"trial_type":"image-button-response","trial_index":148,"time_elapsed":1127335,"internal_node_id":"0.0-6.0-0.12","subject_id":"613c366feb00475071e752cb","study_id":"6197b3f67c2b5cd3b6d9596a","session_id":"619be321464b5b2bd849f07e","condition":"contingent","relevant_dimensions":["wings","legs"],"bee_group":{"antennae":"X","wings":"1","pattern":"X","legs":"F"},"bonus":1.640000000000001},{"rt":691.4000000003725,"stimulus":"bees-with-color/bee-B1SM.svg","response":0,"trial_type":"image-button-response","trial_index":149,"time_elapsed":1128031,"internal_node_id":"0.0-6.0-0.13","subject_id":"613c366feb00475071e752cb","study_id":"6197b3f67c2b5cd3b6d9596a","session_id":"619be321464b5b2bd849f07e","condition":"contingent","relevant_dimensions":["wings","legs"],"bee_group":{"antennae":"X","wings":"1","pattern":"X","legs":"F"},"bonus":1.640000000000001},{"rt":834.0999999996275,"stimulus":"bees-with-color/bee-A2SF.svg","response":0,"trial_type":"image-button-response","trial_index":150,"time_elapsed":1128869,"internal_node_id":"0.0-6.0-0.14","subject_id":"613c366feb00475071e752cb","study_id":"6197b3f67c2b5cd3b6d9596a","session_id":"619be321464b5b2bd849f07e","condition":"contingent","relevant_dimensions":["wings","legs"],"bee_group":{"antennae":"X","wings":"1","pattern":"X","legs":"F"},"bonus":1.640000000000001},{"rt":576.8999999994412,"stimulus":"bees-with-color/bee-A2DF.svg","response":0,"trial_type":"image-button-response","trial_index":151,"time_elapsed":1129449,"internal_node_id":"0.0-6.0-0.15","subject_id":"613c366feb00475071e752cb","study_id":"6197b3f67c2b5cd3b6d9596a","session_id":"619be321464b5b2bd849f07e","condition":"contingent","relevant_dimensions":["wings","legs"],"bee_group":{"antennae":"X","wings":"1","pattern":"X","legs":"F"},"bonus":1.640000000000001},{"rt":669.5,"stimulus":"bees-with-color/bee-A2SM.svg","response":0,"trial_type":"image-button-response","trial_index":152,"time_elapsed":1130121,"internal_node_id":"0.0-6.0-0.16","subject_id":"613c366feb00475071e752cb","study_id":"6197b3f67c2b5cd3b6d9596a","session_id":"619be321464b5b2bd849f07e","condition":"contingent","relevant_dimensions":["wings","legs"],"bee_group":{"antennae":"X","wings":"1","pattern":"X","legs":"F"},"bonus":1.640000000000001},{"rt":1081.699999999255,"stimulus":"bees-with-color/bee-A1SM.svg","response":1,"trial_type":"image-button-response","trial_index":153,"time_elapsed":1131206,"internal_node_id":"0.0-6.0-0.17","subject_id":"613c366feb00475071e752cb","study_id":"6197b3f67c2b5cd3b6d9596a","session_id":"619be321464b5b2bd849f07e","condition":"contingent","relevant_dimensions":["wings","legs"],"bee_group":{"antennae":"X","wings":"1","pattern":"X","legs":"F"},"bonus":1.640000000000001},{"rt":819,"stimulus":"bees-with-color/bee-A1DM.svg","response":0,"trial_type":"image-button-response","trial_index":154,"time_elapsed":1132027,"internal_node_id":"0.0-6.0-0.18","subject_id":"613c366feb00475071e752cb","study_id":"6197b3f67c2b5cd3b6d9596a","session_id":"619be321464b5b2bd849f07e","condition":"contingent","relevant_dimensions":["wings","legs"],"bee_group":{"antennae":"X","wings":"1","pattern":"X","legs":"F"},"bonus":1.640000000000001},{"rt":1338.6000000005588,"stimulus":"bees-with-color/bee-A2SF.svg","response":0,"trial_type":"image-button-response","trial_index":155,"time_elapsed":1133368,"internal_node_id":"0.0-6.0-0.19","subject_id":"613c366feb00475071e752cb","study_id":"6197b3f67c2b5cd3b6d9596a","session_id":"619be321464b5b2bd849f07e","condition":"contingent","relevant_dimensions":["wings","legs"],"bee_group":{"antennae":"X","wings":"1","pattern":"X","legs":"F"},"bonus":1.640000000000001},{"rt":1582.5,"stimulus":"bees-with-color/bee-B2SF.svg","response":1,"trial_type":"image-button-response","trial_index":156,"time_elapsed":1134954,"internal_node_id":"0.0-6.0-0.20","subject_id":"613c366feb00475071e752cb","study_id":"6197b3f67c2b5cd3b6d9596a","session_id":"619be321464b5b2bd849f07e","condition":"contingent","relevant_dimensions":["wings","legs"],"bee_group":{"antennae":"X","wings":"1","pattern":"X","legs":"F"},"bonus":1.640000000000001},{"rt":2279.199999999255,"stimulus":"bees-with-color/bee-B1DF.svg","response":1,"trial_type":"image-button-response","trial_index":157,"time_elapsed":1137236,"internal_node_id":"0.0-6.0-0.21","subject_id":"613c366feb00475071e752cb","study_id":"6197b3f67c2b5cd3b6d9596a","session_id":"619be321464b5b2bd849f07e","condition":"contingent","relevant_dimensions":["wings","legs"],"bee_group":{"antennae":"X","wings":"1","pattern":"X","legs":"F"},"bonus":1.640000000000001},{"rt":1075,"stimulus":"bees-with-color/bee-A2DF.svg","response":0,"trial_type":"image-button-response","trial_index":158,"time_elapsed":1138314,"internal_node_id":"0.0-6.0-0.22","subject_id":"613c366feb00475071e752cb","study_id":"6197b3f67c2b5cd3b6d9596a","session_id":"619be321464b5b2bd849f07e","condition":"contingent","relevant_dimensions":["wings","legs"],"bee_group":{"antennae":"X","wings":"1","pattern":"X","legs":"F"},"bonus":1.640000000000001},{"rt":1017.7000000001863,"stimulus":"bees-with-color/bee-A1DF.svg","response":1,"trial_type":"image-button-response","trial_index":159,"time_elapsed":1139334,"internal_node_id":"0.0-6.0-0.23","subject_id":"613c366feb00475071e752cb","study_id":"6197b3f67c2b5cd3b6d9596a","session_id":"619be321464b5b2bd849f07e","condition":"contingent","relevant_dimensions":["wings","legs"],"bee_group":{"antennae":"X","wings":"1","pattern":"X","legs":"F"},"bonus":1.640000000000001},{"rt":1123.5999999996275,"stimulus":"bees-with-color/bee-B2SM.svg","response":0,"trial_type":"image-button-response","trial_index":160,"time_elapsed":1140460,"internal_node_id":"0.0-6.0-0.24","subject_id":"613c366feb00475071e752cb","study_id":"6197b3f67c2b5cd3b6d9596a","session_id":"619be321464b5b2bd849f07e","condition":"contingent","relevant_dimensions":["wings","legs"],"bee_group":{"antennae":"X","wings":"1","pattern":"X","legs":"F"},"bonus":1.640000000000001},{"rt":941.5,"stimulus":"bees-with-color/bee-B2DM.svg","response":0,"trial_type":"image-button-response","trial_index":161,"time_elapsed":1141404,"internal_node_id":"0.0-6.0-0.25","subject_id":"613c366feb00475071e752cb","study_id":"6197b3f67c2b5cd3b6d9596a","session_id":"619be321464b5b2bd849f07e","condition":"contingent","relevant_dimensions":["wings","legs"],"bee_group":{"antennae":"X","wings":"1","pattern":"X","legs":"F"},"bonus":1.640000000000001},{"rt":1731.4000000003725,"stimulus":"bees-with-color/bee-B2DF.svg","response":1,"trial_type":"image-button-response","trial_index":162,"time_elapsed":1143138,"internal_node_id":"0.0-6.0-0.26","subject_id":"613c366feb00475071e752cb","study_id":"6197b3f67c2b5cd3b6d9596a","session_id":"619be321464b5b2bd849f07e","condition":"contingent","relevant_dimensions":["wings","legs"],"bee_group":{"antennae":"X","wings":"1","pattern":"X","legs":"F"},"bonus":1.640000000000001},{"rt":778.9000000003725,"stimulus":"bees-with-color/bee-B1SF.svg","response":1,"trial_type":"image-button-response","trial_index":163,"time_elapsed":1143920,"internal_node_id":"0.0-6.0-0.27","subject_id":"613c366feb00475071e752cb","study_id":"6197b3f67c2b5cd3b6d9596a","session_id":"619be321464b5b2bd849f07e","condition":"contingent","relevant_dimensions":["wings","legs"],"bee_group":{"antennae":"X","wings":"1","pattern":"X","legs":"F"},"bonus":1.640000000000001},{"rt":732.2999999998137,"stimulus":"bees-with-color/bee-A2DM.svg","response":0,"trial_type":"image-button-response","trial_index":164,"time_elapsed":1144656,"internal_node_id":"0.0-6.0-0.28","subject_id":"613c366feb0047507