[{"success":true,"trial_type":"fullscreen","trial_index":0,"time_elapsed":2352,"internal_node_id":"0.0-0.0","subject_id":"613821b4edc8fbcf2726c6ed","study_id":"6197b3f67c2b5cd3b6d9596a","session_id":"619be78a0bb6221811f3187e","condition":"full-information","relevant_dimensions":["antennae","pattern"],"bee_group":{"antennae":"B","wings":"X","pattern":"D","legs":"X"},"bonus":0.12000000000000001},{"success":true,"timeout":false,"failed_images":[],"failed_audio":[],"failed_video":[],"trial_type":"preload","trial_index":1,"time_elapsed":3301,"internal_node_id":"0.0-1.0","subject_id":"613821b4edc8fbcf2726c6ed","study_id":"6197b3f67c2b5cd3b6d9596a","session_id":"619be78a0bb6221811f3187e","condition":"full-information","relevant_dimensions":["antennae","pattern"],"bee_group":{"antennae":"B","wings":"X","pattern":"D","legs":"X"},"bonus":0.12000000000000001},{"rt":795.9000000003725,"stimulus":"Welcome! Press any key to begin.","response":" ","trial_type":"html-keyboard-response","trial_index":2,"time_elapsed":4099,"internal_node_id":"0.0-2.0","subject_id":"613821b4edc8fbcf2726c6ed","study_id":"6197b3f67c2b5cd3b6d9596a","session_id":"619be78a0bb6221811f3187e","condition":"full-information","relevant_dimensions":["antennae","pattern"],"bee_group":{"antennae":"B","wings":"X","pattern":"D","legs":"X"},"bonus":0.12000000000000001},{"view_history":[{"page_index":0,"viewing_time":3029.4000000003725},{"page_index":1,"viewing_time":7186.5},{"page_index":2,"viewing_time":11443},{"page_index":3,"viewing_time":11398},{"page_index":4,"viewing_time":7187.4000000003725},{"page_index":5,"viewing_time":3424.7999999988824},{"page_index":6,"viewing_time":8958.300000000745},{"page_index":7,"viewing_time":3029},{"page_index":8,"viewing_time":2841.199999999255},{"page_index":9,"viewing_time":1795.800000000745},{"page_index":10,"viewing_time":1413},{"page_index":11,"viewing_time":4314.5},{"page_index":12,"viewing_time":12403},{"page_index":13,"viewing_time":1129.199999999255},{"page_index":14,"viewing_time":1128.5}],"rt":80682.40000000037,"trial_type":"instructions","trial_index":3,"time_elapsed":84781,"internal_node_id":"0.0-3.0-0.0","subject_id":"613821b4edc8fbcf2726c6ed","study_id":"6197b3f67c2b5cd3b6d9596a","session_id":"619be78a0bb6221811f3187e","condition":"full-information","relevant_dimensions":["antennae","pattern"],"bee_group":{"antennae":"B","wings":"X","pattern":"D","legs":"X"},"bonus":0.12000000000000001},{"rt":13604.200000001118,"response":{"Q0":["Two or six legs","Stripes or spots on body","Single or double wings","Antennae or no antennae"]},"question_order":[0],"trial_type":"survey-multi-select","trial_index":4,"time_elapsed":98391,"internal_node_id":"0.0-3.0-1.0","subject_id":"613821b4edc8fbcf2726c6ed","study_id":"6197b3f67c2b5cd3b6d9596a","session_id":"619be78a0bb6221811f3187e","condition":"full-information","relevant_dimensions":["antennae","pattern"],"bee_group":{"antennae":"B","wings":"X","pattern":"D","legs":"X"},"correct":true,"bonus":0.12000000000000001},{"rt":22032.900000000373,"response":{"Q1":"No.","Q2":"Based on the four features of the bee.","Q3":"You do not learn if it was friendly or dangerous, and do not alter your bonus."},"question_order":[0,1,2],"trial_type":"survey-multi-choice","trial_index":5,"time_elapsed":120427,"internal_node_id":"0.0-3.0-2.0","subject_id":"613821b4edc8fbcf2726c6ed","study_id":"6197b3f67c2b5cd3b6d9596a","session_id":"619be78a0bb6221811f3187e","condition":"full-information","relevant_dimensions":["antennae","pattern"],"bee_group":{"antennae":"B","wings":"X","pattern":"D","legs":"X"},"correct":false,"bonus":0.12000000000000001},{"rt":2560.7000000011176,"stimulus":"<p>You did not answer all comprehension questions correctly.<br>Press <b>continue</b> to review the instructions again.</p>","response":0,"trial_type":"html-button-response","trial_index":6,"time_elapsed":122991,"internal_node_id":"0.0-3.0-3.0","subject_id":"613821b4edc8fbcf2726c6ed","study_id":"6197b3f67c2b5cd3b6d9596a","session_id":"619be78a0bb6221811f3187e","condition":"full-information","relevant_dimensions":["antennae","pattern"],"bee_group":{"antennae":"B","wings":"X","pattern":"D","legs":"X"},"bonus":0.12000000000000001},{"view_history":[{"page_index":0,"viewing_time":1481.800000000745},{"page_index":1,"viewing_time":2045.699999999255},{"page_index":2,"viewing_time":1989.5},{"page_index":3,"viewing_time":1235},{"page_index":4,"viewing_time":4513.800000000745},{"page_index":5,"viewing_time":1129},{"page_index":6,"viewing_time":3377.0999999996275},{"page_index":7,"viewing_time":1193.9000000003725},{"page_index":8,"viewing_time":941.3000000007451},{"page_index":9,"viewing_time":925.8999999985099},{"page_index":10,"viewing_time":892.7000000011176},{"page_index":11,"viewing_time":2873.9000000003725},{"page_index":12,"viewing_time":1152.7999999988824},{"page_index":13,"viewing_time":1313.7000000011176},{"page_index":14,"viewing_time":796.5999999996275}],"rt":25863.400000000373,"trial_type":"instructions","trial_index":7,"time_elapsed":148855,"internal_node_id":"0.0-3.0-4.0-0.0","subject_id":"613821b4edc8fbcf2726c6ed","study_id":"6197b3f67c2b5cd3b6d9596a","session_id":"619be78a0bb6221811f3187e","condition":"full-information","relevant_dimensions":["antennae","pattern"],"bee_group":{"antennae":"B","wings":"X","pattern":"D","legs":"X"},"bonus":0.12000000000000001},{"rt":6771.4000000003725,"response":{"Q0":["Two or six legs","Stripes or spots on body","Single or double wings","Antennae or no antennae"]},"question_order":[0],"trial_type":"survey-multi-select","trial_index":8,"time_elapsed":155635,"internal_node_id":"0.0-3.0-4.0-1.0","subject_id":"613821b4edc8fbcf2726c6ed","study_id":"6197b3f67c2b5cd3b6d9596a","session_id":"619be78a0bb6221811f3187e","condition":"full-information","relevant_dimensions":["antennae","pattern"],"bee_group":{"antennae":"B","wings":"X","pattern":"D","legs":"X"},"correct":true,"bonus":0.12000000000000001},{"rt":6563.89999999851,"response":{"Q1":"No.","Q2":"Based on the four features of the bee.","Q3":"You learn if it was friendly or dangerous, but do not alter your bonus."},"question_order":[0,1,2],"trial_type":"survey-multi-choice","trial_index":9,"time_elapsed":162202,"internal_node_id":"0.0-3.0-4.0-2.0","subject_id":"613821b4edc8fbcf2726c6ed","study_id":"6197b3f67c2b5cd3b6d9596a","session_id":"619be78a0bb6221811f3187e","condition":"full-information","relevant_dimensions":["antennae","pattern"],"bee_group":{"antennae":"B","wings":"X","pattern":"D","legs":"X"},"correct":true,"bonus":0.12000000000000001},{"rt":1391,"stimulus":"<p>Congrats, you got everything right<br>When you're ready, click the button below to continue to the experiment.</p>","response":0,"trial_type":"html-button-response","trial_index":10,"time_elapsed":163597,"internal_node_id":"0.0-3.0-4.0-3.0","subject_id":"613821b4edc8fbcf2726c6ed","study_id":"6197b3f67c2b5cd3b6d9596a","session_id":"619be78a0bb6221811f3187e","condition":"full-information","relevant_dimensions":["antennae","pattern"],"bee_group":{"antennae":"B","wings":"X","pattern":"D","legs":"X"},"bonus":0.12000000000000001},{"rt":5256.699999999255,"stimulus":"bees-with-color/bee-A1DF.svg","response":1,"trial_type":"image-button-response","trial_index":11,"time_elapsed":168859,"internal_node_id":"0.0-4.0-0.0","subject_id":"613821b4edc8fbcf2726c6ed","study_id":"6197b3f67c2b5cd3b6d9596a","session_id":"619be78a0bb6221811f3187e","condition":"full-information","relevant_dimensions":["antennae","pattern"],"bee_group":{"antennae":"B","wings":"X","pattern":"D","legs":"X"},"action":"avoid","summary":"bad-avoid","bonus":0.12000000000000001},{"rt":5640.4000000003725,"stimulus":"\n                    <p><b>Action: <em>avoid</em></b></p>\n                    <p>This is the bee that you just saw.</p>\n                    <img src=\"bees-with-color/bee-A1DF.svg\" width=\"200\">\n                    <p><span class=\"redText\">Bad choice,</span> the bee was friendly.<br>Your bonus pay is unchanged, and remains at $0.54.</p>\n            ","response":0,"trial_type":"html-button-response","trial_index":12,"time_elapsed":174506,"internal_node_id":"0.0-4.0-1.0","subject_id":"613821b4edc8fbcf2726c6ed","study_id":"6197b3f67c2b5cd3b6d9596a","session_id":"619be78a0bb6221811f3187e","condition":"full-information","relevant_dimensions":["antennae","pattern"],"bee_group":{"antennae":"B","wings":"X","pattern":"D","legs":"X"},"bonus":0.12000000000000001},{"rt":1888.5999999996275,"stimulus":"bees-with-color/bee-B1DF.svg","response":0,"trial_type":"image-button-response","trial_index":13,"time_elapsed":176398,"internal_node_id":"0.0-4.0-0.1","subject_id":"613821b4edc8fbcf2726c6ed","study_id":"6197b3f67c2b5cd3b6d9596a","session_id":"619be78a0bb6221811f3187e","condition":"full-information","relevant_dimensions":["antennae","pattern"],"bee_group":{"antennae":"B","wings":"X","pattern":"D","legs":"X"},"action":"harvest","summary":"bad-harvest","bonus":0.12000000000000001},{"rt":6336.199999999255,"stimulus":"\n                    <p><b>Action: <em>harvest</em></b></p>\n                    <p>This is the bee that you just saw.</p>\n                    <img src=\"bees-with-color/bee-B1DF.svg\" width=\"200\">\n                    <p><span class=\"redText\">Bad choice, the bee was angry.</span><br><b>You have been stung!</b><br>Your pay has been decreased by $0.10. Your bonus pay is now $0.44.</p>\n            ","response":0,"trial_type":"html-button-response","trial_index":14,"time_elapsed":182738,"internal_node_id":"0.0-4.0-1.1","subject_id":"613821b4edc8fbcf2726c6ed","study_id":"6197b3f67c2b5cd3b6d9596a","session_id":"619be78a0bb6221811f3187e","condition":"full-information","relevant_dimensions":["antennae","pattern"],"bee_group":{"antennae":"B","wings":"X","pattern":"D","legs":"X"},"bonus":0.12000000000000001},{"rt":3538.60000000149,"stimulus":"bees-with-color/bee-A1DM.svg","response":0,"trial_type":"image-button-response","trial_index":15,"time_elapsed":186279,"internal_node_id":"0.0-4.0-0.2","subject_id":"613821b4edc8fbcf2726c6ed","study_id":"6197b3f67c2b5cd3b6d9596a","session_id":"619be78a0bb6221811f3187e","condition":"full-information","relevant_dimensions":["antennae","pattern"],"bee_group":{"antennae":"B","wings":"X","pattern":"D","legs":"X"},"action":"harvest","summary":"good-harvest","bonus":0.12000000000000001},{"rt":2123.0999999996275,"stimulus":"\n                    <p><b>Action: <em>harvest</em></b></p>\n                    <p>This is the bee that you just saw.</p>\n                    <img src=\"bees-with-color/bee-A1DM.svg\" width=\"200\">\n                    <p><span class=\"greenText\"><b>Successful harvest!</b></span><br>Your pay has increased by $0.02. Your bonus pay is now $0.46.</p>\n            ","response":0,"trial_type":"html-button-response","trial_index":16,"time_elapsed":188405,"internal_node_id":"0.0-4.0-1.2","subject_id":"613821b4edc8fbcf2726c6ed","study_id":"6197b3f67c2b5cd3b6d9596a","session_id":"619be78a0bb6221811f3187e","condition":"full-information","relevant_dimensions":["antennae","pattern"],"bee_group":{"antennae":"B","wings":"X","pattern":"D","legs":"X"},"bonus":0.12000000000000001},{"rt":1580.6000000014901,"stimulus":"bees-with-color/bee-A1SF.svg","response":1,"trial_type":"image-button-response","trial_index":17,"time_elapsed":189989,"internal_node_id":"0.0-4.0-0.3","subject_id":"613821b4edc8fbcf2726c6ed","study_id":"6197b3f67c2b5cd3b6d9596a","session_id":"619be78a0bb6221811f3187e","condition":"full-information","relevant_dimensions":["antennae","pattern"],"bee_group":{"antennae":"B","wings":"X","pattern":"D","legs":"X"},"action":"avoid","summary":"bad-avoid","bonus":0.12000000000000001},{"rt":1376.0999999996275,"stimulus":"\n                    <p><b>Action: <em>avoid</em></b></p>\n                    <p>This is the bee that you just saw.</p>\n                    <img src=\"bees-with-color/bee-A1SF.svg\" width=\"200\">\n                    <p><span class=\"redText\">Bad choice,</span> the bee was friendly.<br>Your bonus pay is unchanged, and remains at $0.46.</p>\n            ","response":0,"trial_type":"html-button-response","trial_index":18,"time_elapsed":191369,"internal_node_id":"0.0-4.0-1.3","subject_id":"613821b4edc8fbcf2726c6ed","study_id":"6197b3f67c2b5cd3b6d9596a","session_id":"619be78a0bb6221811f3187e","condition":"full-information","relevant_dimensions":["antennae","pattern"],"bee_group":{"antennae":"B","wings":"X","pattern":"D","legs":"X"},"bonus":0.12000000000000001},{"rt":1523,"stimulus":"bees-with-color/bee-B2SF.svg","response":1,"trial_type":"image-button-response","trial_index":19,"time_elapsed":192895,"internal_node_id":"0.0-4.0-0.4","subject_id":"613821b4edc8fbcf2726c6ed","study_id":"6197b3f67c2b5cd3b6d9596a","session_id":"619be78a0bb6221811f3187e","condition":"full-information","relevant_dimensions":["antennae","pattern"],"bee_group":{"antennae":"B","wings":"X","pattern":"D","legs":"X"},"action":"avoid","summary":"bad-avoid","bonus":0.12000000000000001},{"rt":1238.5,"stimulus":"\n                    <p><b>Action: <em>avoid</em></b></p>\n                    <p>This is the bee that you just saw.</p>\n                    <img src=\"bees-with-color/bee-B2SF.svg\" width=\"200\">\n                    <p><span class=\"redText\">Bad choice,</span> the bee was friendly.<br>Your bonus pay is unchanged, and remains at $0.46.</p>\n            ","response":0,"trial_type":"html-button-response","trial_index":20,"time_elapsed":194137,"internal_node_id":"0.0-4.0-1.4","subject_id":"613821b4edc8fbcf2726c6ed","study_id":"6197b3f67c2b5cd3b6d9596a","session_id":"619be78a0bb6221811f3187e","condition":"full-information","relevant_dimensions":["antennae","pattern"],"bee_group":{"antennae":"B","wings":"X","pattern":"D","legs":"X"},"bonus":0.12000000000000001},{"rt":1189.199999999255,"stimulus":"bees-with-color/bee-B2DM.svg","response":0,"trial_type":"image-button-response","trial_index":21,"time_elapsed":195330,"internal_node_id":"0.0-4.0-0.5","subject_id":"613821b4edc8fbcf2726c6ed","study_id":"6197b3f67c2b5cd3b6d9596a","session_id":"619be78a0bb6221811f3187e","condition":"full-information","relevant_dimensions":["antennae","pattern"],"bee_group":{"antennae":"B","wings":"X","pattern":"D","legs":"X"},"action":"harvest","summary":"bad-harvest","bonus":0.12000000000000001},{"rt":734.7999999988824,"stimulus":"\n                    <p><b>Action: <em>harvest</em></b></p>\n                    <p>This is the bee that you just saw.</p>\n                    <img src=\"bees-with-color/bee-B2DM.svg\" width=\"200\">\n                    <p><span class=\"redText\">Bad choice, the bee was angry.</span><br><b>You have been stung!</b><br>Your pay has been decreased by $0.10. Your bonus pay is now $0.36.</p>\n            ","response":0,"trial_type":"html-button-response","trial_index":22,"time_elapsed":196069,"internal_node_id":"0.0-4.0-1.5","subject_id":"613821b4edc8fbcf2726c6ed","study_id":"6197b3f67c2b5cd3b6d9596a","session_id":"619be78a0bb6221811f3187e","condition":"full-information","relevant_dimensions":["antennae","pattern"],"bee_group":{"antennae":"B","wings":"X","pattern":"D","legs":"X"},"bonus":0.12000000000000001},{"rt":564.1999999992549,"stimulus":"bees-with-color/bee-A2DM.svg","response":1,"trial_type":"image-button-response","trial_index":23,"time_elapsed":196636,"internal_node_id":"0.0-4.0-0.6","subject_id":"613821b4edc8fbcf2726c6ed","study_id":"6197b3f67c2b5cd3b6d9596a","session_id":"619be78a0bb6221811f3187e","condition":"full-information","relevant_dimensions":["antennae","pattern"],"bee_group":{"antennae":"B","wings":"X","pattern":"D","legs":"X"},"action":"avoid","summary":"bad-avoid","bonus":0.12000000000000001},{"rt":583.5999999996275,"stimulus":"\n                    <p><b>Action: <em>avoid</em></b></p>\n                    <p>This is the bee that you just saw.</p>\n                    <img src=\"bees-with-color/bee-A2DM.svg\" width=\"200\">\n                    <p><span class=\"redText\">Bad choice,</span> the bee was friendly.<br>Your bonus pay is unchanged, and remains at $0.36.</p>\n            ","response":0,"trial_type":"html-button-response","trial_index":24,"time_elapsed":197222,"internal_node_id":"0.0-4.0-1.6","subject_id":"613821b4edc8fbcf2726c6ed","study_id":"6197b3f67c2b5cd3b6d9596a","session_id":"619be78a0bb6221811f3187e","condition":"full-information","relevant_dimensions":["antennae","pattern"],"bee_group":{"antennae":"B","wings":"X","pattern":"D","legs":"X"},"bonus":0.12000000000000001},{"rt":629.5,"stimulus":"bees-with-color/bee-B1SM.svg","response":0,"trial_type":"image-button-response","trial_index":25,"time_elapsed":197855,"internal_node_id":"0.0-4.0-0.7","subject_id":"613821b4edc8fbcf2726c6ed","study_id":"6197b3f67c2b5cd3b6d9596a","session_id":"619be78a0bb6221811f3187e","condition":"full-information","relevant_dimensions":["antennae","pattern"],"bee_group":{"antennae":"B","wings":"X","pattern":"D","legs":"X"},"action":"harvest","summary":"good-harvest","bonus":0.12000000000000001},{"rt":636.5999999996275,"stimulus":"\n                    <p><b>Action: <em>harvest</em></b></p>\n                    <p>This is the bee that you just saw.</p>\n                    <img src=\"bees-with-color/bee-B1SM.svg\" width=\"200\">\n                    <p><span class=\"greenText\"><b>Successful harvest!</b></span><br>Your pay has increased by $0.02. Your bonus pay is now $0.38.</p>\n            ","response":0,"trial_type":"html-button-response","trial_index":26,"time_elapsed":198495,"internal_node_id":"0.0-4.0-1.7","subject_id":"613821b4edc8fbcf2726c6ed","study_id":"6197b3f67c2b5cd3b6d9596a","session_id":"619be78a0bb6221811f3187e","condition":"full-information","relevant_dimensions":["antennae","pattern"],"bee_group":{"antennae":"B","wings":"X","pattern":"D","legs":"X"},"bonus":0.12000000000000001},{"rt":736.6999999992549,"stimulus":"bees-with-color/bee-B1SF.svg","response":0,"trial_type":"image-button-response","trial_index":27,"time_elapsed":199235,"internal_node_id":"0.0-4.0-0.8","subject_id":"613821b4edc8fbcf2726c6ed","study_id":"6197b3f67c2b5cd3b6d9596a","session_id":"619be78a0bb6221811f3187e","condition":"full-information","relevant_dimensions":["antennae","pattern"],"bee_group":{"antennae":"B","wings":"X","pattern":"D","legs":"X"},"action":"harvest","summary":"good-harvest","bonus":0.12000000000000001},{"rt":994.6999999992549,"stimulus":"\n                    <p><b>Action: <em>harvest</em></b></p>\n                    <p>This is the bee that you just saw.</p>\n                    <img src=\"bees-with-color/bee-B1SF.svg\" width=\"200\">\n                    <p><span class=\"greenText\"><b>Successful harvest!</b></span><br>Your pay has increased by $0.02. Your bonus pay is now $0.40.</p>\n            ","response":0,"trial_type":"html-button-response","trial_index":28,"time_elapsed":200233,"internal_node_id":"0.0-4.0-1.8","subject_id":"613821b4edc8fbcf2726c6ed","study_id":"6197b3f67c2b5cd3b6d9596a","session_id":"619be78a0bb6221811f3187e","condition":"full-information","relevant_dimensions":["antennae","pattern"],"bee_group":{"antennae":"B","wings":"X","pattern":"D","legs":"X"},"bonus":0.12000000000000001},{"rt":864.5999999996275,"stimulus":"bees-with-color/bee-B1DM.svg","response":1,"trial_type":"image-button-response","trial_index":29,"time_elapsed":201101,"internal_node_id":"0.0-4.0-0.9","subject_id":"613821b4edc8fbcf2726c6ed","study_id":"6197b3f67c2b5cd3b6d9596a","session_id":"619be78a0bb6221811f3187e","condition":"full-information","relevant_dimensions":["antennae","pattern"],"bee_group":{"antennae":"B","wings":"X","pattern":"D","legs":"X"},"action":"avoid","summary":"good-avoid","bonus":0.12000000000000001},{"rt":670,"stimulus":"\n                    <p><b>Action: <em>avoid</em></b></p>\n                    <p>This is the bee that you just saw.</p>\n                    <img src=\"bees-with-color/bee-B1DM.svg\" width=\"200\">\n                    <p><span class=\"greenText\">Good choice!</span>  This bee would have stung you.<br>Your bonus pay is unchanged, and remains at $0.40.</p>\n            ","response":0,"trial_type":"html-button-response","trial_index":30,"time_elapsed":201775,"internal_node_id":"0.0-4.0-1.9","subject_id":"613821b4edc8fbcf2726c6ed","study_id":"6197b3f67c2b5cd3b6d9596a","session_id":"619be78a0bb6221811f3187e","condition":"full-information","relevant_dimensions":["antennae","pattern"],"bee_group":{"antennae":"B","wings":"X","pattern":"D","legs":"X"},"bonus":0.12000000000000001},{"rt":1036.5999999996275,"stimulus":"bees-with-color/bee-B2SM.svg","response":0,"trial_type":"image-button-response","trial_index":31,"time_elapsed":202815,"internal_node_id":"0.0-4.0-0.10","subject_id":"613821b4edc8fbcf2726c6ed","study_id":"6197b3f67c2b5cd3b6d9596a","session_id":"619be78a0bb6221811f3187e","condition":"full-information","relevant_dimensions":["antennae","pattern"],"bee_group":{"antennae":"B","wings":"X","pattern":"D","legs":"X"},"action":"harvest","summary":"good-harvest","bonus":0.12000000000000001},{"rt":1214.3999999985099,"stimulus":"\n                    <p><b>Action: <em>harvest</em></b></p>\n                    <p>This is the bee that you just saw.</p>\n                    <img src=\"bees-with-color/bee-B2SM.svg\" width=\"200\">\n                    <p><span class=\"greenText\"><b>Successful harvest!</b></span><br>Your pay has increased by $0.02. Your bonus pay is now $0.42.</p>\n            ","response":0,"trial_type":"html-button-response","trial_index":32,"time_elapsed":204033,"internal_node_id":"0.0-4.0-1.10","subject_id":"613821b4edc8fbcf2726c6ed","study_id":"6197b3f67c2b5cd3b6d9596a","session_id":"619be78a0bb6221811f3187e","condition":"full-information","relevant_dimensions":["antennae","pattern"],"bee_group":{"antennae":"B","wings":"X","pattern":"D","legs":"X"},"bonus":0.12000000000000001},{"rt":2269.2000000011176,"stimulus":"bees-with-color/bee-A2DF.svg","response":1,"trial_type":"image-button-response","trial_index":33,"time_elapsed":206306,"internal_node_id":"0.0-4.0-0.11","subject_id":"613821b4edc8fbcf2726c6ed","study_id":"6197b3f67c2b5cd3b6d9596a","session_id":"619be78a0bb6221811f3187e","condition":"full-information","relevant_dimensions":["antennae","pattern"],"bee_group":{"antennae":"B","wings":"X","pattern":"D","legs":"X"},"action":"avoid","summary":"bad-avoid","bonus":0.12000000000000001},{"rt":710.5,"stimulus":"\n                    <p><b>Action: <em>avoid</em></b></p>\n                    <p>This is the bee that you just saw.</p>\n                    <img src=\"bees-with-color/bee-A2DF.svg\" width=\"200\">\n                    <p><span class=\"redText\">Bad choice,</span> the bee was friendly.<br>Your bonus pay is unchanged, and remains at $0.42.</p>\n            ","response":0,"trial_type":"html-button-response","trial_index":34,"time_elapsed":207020,"internal_node_id":"0.0-4.0-1.11","subject_id":"613821b4edc8fbcf2726c6ed","study_id":"6197b3f67c2b5cd3b6d9596a","session_id":"619be78a0bb6221811f3187e","condition":"full-information","relevant_dimensions":["antennae","pattern"],"bee_group":{"antennae":"B","wings":"X","pattern":"D","legs":"X"},"bonus":0.12000000000000001},{"rt":491.5,"stimulus":"bees-with-color/bee-A2SM.svg","response":0,"trial_type":"image-button-response","trial_index":35,"time_elapsed":207515,"internal_node_id":"0.0-4.0-0.12","subject_id":"613821b4edc8fbcf2726c6ed","study_id":"6197b3f67c2b5cd3b6d9596a","session_id":"619be78a0bb6221811f3187e","condition":"full-information","relevant_dimensions":["antennae","pattern"],"bee_group":{"antennae":"B","wings":"X","pattern":"D","legs":"X"},"action":"harvest","summary":"good-harvest","bonus":0.12000000000000001},{"rt":628.2000000011176,"stimulus":"\n                    <p><b>Action: <em>harvest</em></b></p>\n                    <p>This is the bee that you just saw.</p>\n                    <img src=\"bees-with-color/bee-A2SM.svg\" width=\"200\">\n                    <p><span class=\"greenText\"><b>Successful harvest!</b></span><br>Your pay has increased by $0.02. Your bonus pay is now $0.44.</p>\n            ","response":0,"trial_type":"html-button-response","trial_index":36,"time_elapsed":208146,"internal_node_id":"0.0-4.0-1.12","subject_id":"613821b4edc8fbcf2726c6ed","study_id":"6197b3f67c2b5cd3b6d9596a","session_id":"619be78a0bb6221811f3187e","condition":"full-information","relevant_dimensions":["antennae","pattern"],"bee_group":{"antennae":"B","wings":"X","pattern":"D","legs":"X"},"bonus":0.12000000000000001},{"rt":754.8999999985099,"stimulus":"bees-with-color/bee-B2DF.svg","response":0,"trial_type":"image-button-response","trial_index":37,"time_elapsed":208903,"internal_node_id":"0.0-4.0-0.13","subject_id":"613821b4edc8fbcf2726c6ed","study_id":"6197b3f67c2b5cd3b6d9596a","session_id":"619be78a0bb6221811f3187e","condition":"full-information","relevant_dimensions":["antennae","pattern"],"bee_group":{"antennae":"B","wings":"X","pattern":"D","legs":"X"},"action":"harvest","summary":"bad-harvest","bonus":0.12000000000000001},{"rt":703,"stimulus":"\n                    <p><b>Action: <em>harvest</em></b></p>\n                    <p>This is the bee that you just saw.</p>\n                    <img src=\"bees-with-color/bee-B2DF.svg\" width=\"200\">\n                    <p><span class=\"redText\">Bad choice, the bee was angry.</span><br><b>You have been stung!</b><br>Your pay has been decreased by $0.10. Your bonus pay is now $0.34.</p>\n            ","response":0,"trial_type":"html-button-response","trial_index":38,"time_elapsed":209609,"internal_node_id":"0.0-4.0-1.13","subject_id":"613821b4edc8fbcf2726c6ed","study_id":"6197b3f67c2b5cd3b6d9596a","session_id":"619be78a0bb6221811f3187e","condition":"full-information","relevant_dimensions":["antennae","pattern"],"bee_group":{"antennae":"B","wings":"X","pattern":"D","legs":"X"},"bonus":0.12000000000000001},{"rt":784.1000000014901,"stimulus":"bees-with-color/bee-A2SF.svg","response":0,"trial_type":"image-button-response","trial_index":39,"time_elapsed":210397,"internal_node_id":"0.0-4.0-0.14","subject_id":"613821b4edc8fbcf2726c6ed","study_id":"6197b3f67c2b5cd3b6d9596a","session_id":"619be78a0bb6221811f3187e","condition":"full-information","relevant_dimensions":["antennae","pattern"],"bee_group":{"antennae":"B","wings":"X","pattern":"D","legs":"X"},"action":"harvest","summary":"good-harvest","bonus":0.12000000000000001},{"rt":548.5999999996275,"stimulus":"\n                    <p><b>Action: <em>harvest</em></b></p>\n                    <p>This is the bee that you just saw.</p>\n                    <img src=\"bees-with-color/bee-A2SF.svg\" width=\"200\">\n                    <p><span class=\"greenText\"><b>Successful harvest!</b></span><br>Your pay has increased by $0.02. Your bonus pay is now $0.36.</p>\n            ","response":0,"trial_type":"html-button-response","trial_index":40,"time_elapsed":210949,"internal_node_id":"0.0-4.0-1.14","subject_id":"613821b4edc8fbcf2726c6ed","study_id":"6197b3f67c2b5cd3b6d9596a","session_id":"619be78a0bb6221811f3187e","condition":"full-information","relevant_dimensions":["antennae","pattern"],"bee_group":{"antennae":"B","wings":"X","pattern":"D","legs":"X"},"bonus":0.12000000000000001},{"rt":856.5,"stimulus":"bees-with-color/bee-A1SM.svg","response":1,"trial_type":"image-button-response","trial_index":41,"time_elapsed":211809,"internal_node_id":"0.0-4.0-0.15","subject_id":"613821b4edc8fbcf2726c6ed","study_id":"6197b3f67c2b5cd3b6d9596a","session_id":"619be78a0bb6221811f3187e","condition":"full-information","relevant_dimensions":["antennae","pattern"],"bee_group":{"antennae":"B","wings":"X","pattern":"D","legs":"X"},"action":"avoid","summary":"bad-avoid","bonus":0.12000000000000001},{"rt":540.2000000011176,"stimulus":"\n                    <p><b>Action: <em>avoid</em></b></p>\n                    <p>This is the bee that you just saw.</p>\n                    <img src=\"bees-with-color/bee-A1SM.svg\" width=\"200\">\n                    <p><span class=\"redText\">Bad choice,</span> the bee was friendly.<br>Your bonus pay is unchanged, and remains at $0.36.</p>\n            ","response":0,"trial_type":"html-button-response","trial_index":42,"time_elapsed":212353,"internal_node_id":"0.0-4.0-1.15","subject_id":"613821b4edc8fbcf2726c6ed","study_id":"6197b3f67c2b5cd3b6d9596a","session_id":"619be78a0bb6221811f3187e","condition":"full-information","relevant_dimensions":["antennae","pattern"],"bee_group":{"antennae":"B","wings":"X","pattern":"D","legs":"X"},"bonus":0.12000000000000001},{"rt":889.8000000007451,"stimulus":"bees-with-color/bee-A2DF.svg","response":1,"trial_type":"image-button-response","trial_index":43,"time_elapsed":213246,"internal_node_id":"0.0-4.0-0.16","subject_id":"613821b4edc8fbcf2726c6ed","study_id":"6197b3f67c2b5cd3b6d9596a","session_id":"619be78a0bb6221811f3187e","condition":"full-information","relevant_dimensions":["antennae","pattern"],"bee_group":{"antennae":"B","wings":"X","pattern":"D","legs":"X"},"action":"avoid","summary":"bad-avoid","bonus":0.12000000000000001},{"rt":524.8000000007451,"stimulus":"\n                    <p><b>Action: <em>avoid</em></b></p>\n                    <p>This is the bee that you just saw.</p>\n                    <img src=\"bees-with-color/bee-A2DF.svg\" width=\"200\">\n                    <p><span class=\"redText\">Bad choice,</span> the bee was friendly.<br>Your bonus pay is unchanged, and remains at $0.36.</p>\n            ","response":0,"trial_type":"html-button-response","trial_index":44,"time_elapsed":213773,"internal_node_id":"0.0-4.0-1.16","subject_id":"613821b4edc8fbcf2726c6ed","study_id":"6197b3f67c2b5cd3b6d9596a","session_id":"619be78a0bb6221811f3187e","condition":"full-information","relevant_dimensions":["antennae","pattern"],"bee_group":{"antennae":"B","wings":"X","pattern":"D","legs":"X"},"bonus":0.12000000000000001},{"rt":443.80000000074506,"stimulus":"bees-with-color/bee-B2DM.svg","response":0,"trial_type":"image-button-response","trial_index":45,"time_elapsed":214220,"internal_node_id":"0.0-4.0-0.17","subject_id":"613821b4edc8fbcf2726c6ed","study_id":"6197b3f67c2b5cd3b6d9596a","session_id":"619be78a0bb6221811f3187e","condition":"full-information","relevant_dimensions":["antennae","pattern"],"bee_group":{"antennae":"B","wings":"X","pattern":"D","legs":"X"},"action":"harvest","summary":"bad-harvest","bonus":0.12000000000000001},{"rt":541,"stimulus":"\n                    <p><b>Action: <em>harvest</em></b></p>\n                    <p>This is the bee that you just saw.</p>\n                    <img src=\"bees-with-color/bee-B2DM.svg\" width=\"200\">\n                    <p><span class=\"redText\">Bad choice, the bee was angry.</span><br><b>You have been stung!</b><br>Your pay has been decreased by $0.10. Your bonus pay is now $0.26.</p>\n            ","response":0,"trial_type":"html-button-response","trial_index":46,"time_elapsed":214764,"internal_node_id":"0.0-4.0-1.17","subject_id":"613821b4edc8fbcf2726c6ed","study_id":"6197b3f67c2b5cd3b6d9596a","session_id":"619be78a0bb6221811f3187e","condition":"full-information","relevant_dimensions":["antennae","pattern"],"bee_group":{"antennae":"B","wings":"X","pattern":"D","legs":"X"},"bonus":0.12000000000000001},{"rt":443.5,"stimulus":"bees-with-color/bee-A2SM.svg","response":0,"trial_type":"image-button-response","trial_index":47,"time_elapsed":215210,"internal_node_id":"0.0-4.0-0.18","subject_id":"613821b4edc8fbcf2726c6ed","study_id":"6197b3f67c2b5cd3b6d9596a","session_id":"619be78a0bb6221811f3187e","condition":"full-information","relevant_dimensions":["antennae","pattern"],"bee_group":{"antennae":"B","wings":"X","pattern":"D","legs":"X"},"action":"harvest","summary":"good-harvest","bonus":0.12000000000000001},{"rt":516.0999999996275,"stimulus":"\n                    <p><b>Action: <em>harvest</em></b></p>\n                    <p>This is the bee that you just saw.</p>\n                    <img src=\"bees-with-color/bee-A2SM.svg\" width=\"200\">\n                    <p><span class=\"greenText\"><b>Successful harvest!</b></span><br>Your pay has increased by $0.02. Your bonus pay is now $0.28.</p>\n            ","response":0,"trial_type":"html-button-response","trial_index":48,"time_elapsed":215730,"internal_node_id":"0.0-4.0-1.18","subject_id":"613821b4edc8fbcf2726c6ed","study_id":"6197b3f67c2b5cd3b6d9596a","session_id":"619be78a0bb6221811f3187e","condition":"full-information","relevant_dimensions":["antennae","pattern"],"bee_group":{"antennae":"B","wings":"X","pattern":"D","legs":"X"},"bonus":0.12000000000000001},{"rt":484.30000000074506,"stimulus":"bees-with-color/bee-B1SF.svg","response":0,"trial_type":"image-button-response","trial_index":49,"time_elapsed":216217,"internal_node_id":"0.0-4.0-0.19","subject_id":"613821b4edc8fbcf2726c6ed","study_id":"6197b3f67c2b5cd3b6d9596a","session_id":"619be78a0bb6221811f3187e","condition":"full-information","relevant_dimensions":["antennae","pattern"],"bee_group":{"antennae":"B","wings":"X","pattern":"D","legs":"X"},"action":"harvest","summary":"good-harvest","bonus":0.12000000000000001},{"rt":588,"stimulus":"\n                    <p><b>Action: <em>harvest</em></b></p>\n                    <p>This is the bee that you just saw.</p>\n                    <img src=\"bees-with-color/bee-B1SF.svg\" width=\"200\">\n                    <p><span class=\"greenText\"><b>Successful harvest!</b></span><br>Your pay has increased by $0.02. Your bonus pay is now $0.30.</p>\n            ","response":0,"trial_type":"html-button-response","trial_index":50,"time_elapsed":216807,"internal_node_id":"0.0-4.0-1.19","subject_id":"613821b4edc8fbcf2726c6ed","study_id":"6197b3f67c2b5cd3b6d9596a","session_id":"619be78a0bb6221811f3187e","condition":"full-information","relevant_dimensions":["antennae","pattern"],"bee_group":{"antennae":"B","wings":"X","pattern":"D","legs":"X"},"bonus":0.12000000000000001},{"rt":1047.800000000745,"stimulus":"bees-with-color/bee-B1DM.svg","response":1,"trial_type":"image-button-response","trial_index":51,"time_elapsed":217856,"internal_node_id":"0.0-4.0-0.20","subject_id":"613821b4edc8fbcf2726c6ed","study_id":"6197b3f67c2b5cd3b6d9596a","session_id":"619be78a0bb6221811f3187e","condition":"full-information","relevant_dimensions":["antennae","pattern"],"bee_group":{"antennae":"B","wings":"X","pattern":"D","legs":"X"},"action":"avoid","summary":"good-avoid","bonus":0.12000000000000001},{"rt":476.09999999962747,"stimulus":"\n                    <p><b>Action: <em>avoid</em></b></p>\n                    <p>This is the bee that you just saw.</p>\n                    <img src=\"bees-with-color/bee-B1DM.svg\" width=\"200\">\n                    <p><span class=\"greenText\">Good choice!</span>  This bee would have stung you.<br>Your bonus pay is unchanged, and remains at $0.30.</p>\n            ","response":0,"trial_type":"html-button-response","trial_index":52,"time_elapsed":218336,"internal_node_id":"0.0-4.0-1.20","subject_id":"613821b4edc8fbcf2726c6ed","study_id":"6197b3f67c2b5cd3b6d9596a","session_id":"619be78a0bb6221811f3187e","condition":"full-information","relevant_dimensions":["antennae","pattern"],"bee_group":{"antennae":"B","wings":"X","pattern":"D","legs":"X"},"bonus":0.12000000000000001},{"rt":1198.0999999996275,"stimulus":"bees-with-color/bee-B2SF.svg","response":0,"trial_type":"image-button-response","trial_index":53,"time_elapsed":219537,"internal_node_id":"0.0-4.0-0.21","subject_id":"613821b4edc8fbcf2726c6ed","study_id":"6197b3f67c2b5cd3b6d9596a","session_id":"619be78a0bb6221811f3187e","condition":"full-information","relevant_dimensions":["antennae","pattern"],"bee_group":{"antennae":"B","wings":"X","pattern":"D","legs":"X"},"action":"harvest","summary":"good-harvest","bonus":0.12000000000000001},{"rt":564.8999999985099,"stimulus":"\n                    <p><b>Action: <em>harvest</em></b></p>\n                    <p>This is the bee that you just saw.</p>\n                    <img src=\"bees-with-color/bee-B2SF.svg\" width=\"200\">\n                    <p><span class=\"greenText\"><b>Successful harvest!</b></span><br>Your pay has increased by $0.02. Your bonus pay is now $0.32.</p>\n            ","response":0,"trial_type":"html-button-response","trial_index":54,"time_elapsed":220105,"internal_node_id":"0.0-4.0-1.21","subject_id":"613821b4edc8fbcf2726c6ed","study_id":"6197b3f67c2b5cd3b6d9596a","session_id":"619be78a0bb6221811f3187e","condition":"full-information","relevant_dimensions":["antennae","pattern"],"bee_group":{"antennae":"B","wings":"X","pattern":"D","legs":"X"},"bonus":0.12000000000000001},{"rt":1694.2999999988824,"stimulus":"bees-with-color/bee-A1SM.svg","response":0,"trial_type":"image-button-response","trial_index":55,"time_elapsed":221802,"internal_node_id":"0.0-4.0-0.22","subject_id":"613821b4edc8fbcf2726c6ed","study_id":"6197b3f67c2b5cd3b6d9596a","session_id":"619be78a0bb6221811f3187e","condition":"full-information","relevant_dimensions":["antennae","pattern"],"bee_group":{"antennae":"B","wings":"X","pattern":"D","legs":"X"},"action":"harvest","summary":"good-harvest","bonus":0.12000000000000001},{"rt":548.8000000007451,"stimulus":"\n                    <p><b>Action: <em>harvest</em></b></p>\n                    <p>This is the bee that you just saw.</p>\n                    <img src=\"bees-with-color/bee-A1SM.svg\" width=\"200\">\n                    <p><span class=\"greenText\"><b>Successful harvest!</b></span><br>Your pay has increased by $0.02. Your bonus pay is now $0.34.</p>\n            ","response":0,"trial_type":"html-button-response","trial_index":56,"time_elapsed":222354,"internal_node_id":"0.0-4.0-1.22","subject_id":"613821b4edc8fbcf2726c6ed","study_id":"6197b3f67c2b5cd3b6d9596a","session_id":"619be78a0bb6221811f3187e","condition":"full-information","relevant_dimensions":["antennae","pattern"],"bee_group":{"antennae":"B","wings":"X","pattern":"D","legs":"X"},"bonus":0.12000000000000001},{"rt":889.6999999992549,"stimulus":"bees-with-color/bee-A1DF.svg","response":1,"trial_type":"image-button-response","trial_index":57,"time_elapsed":223247,"internal_node_id":"0.0-4.0-0.23","subject_id":"613821b4edc8fbcf2726c6ed","study_id":"6197b3f67c2b5cd3b6d9596a","session_id":"619be78a0bb6221811f3187e","condition":"full-information","relevant_dimensions":["antennae","pattern"],"bee_group":{"antennae":"B","wings":"X","pattern":"D","legs":"X"},"action":"avoid","summary":"bad-avoid","bonus":0.12000000000000001},{"rt":572.3999999985099,"stimulus":"\n                    <p><b>Action: <em>avoid</em></b></p>\n                    <p>This is the bee that you just saw.</p>\n                    <img src=\"bees-with-color/bee-A1DF.svg\" width=\"200\">\n                    <p><span class=\"redText\">Bad choice,</span> the bee was friendly.<br>Your bonus pay is unchanged, and remains at $0.34.</p>\n            ","response":0,"trial_type":"html-button-response","trial_index":58,"time_elapsed":223823,"internal_node_id":"0.0-4.0-1.23","subject_id":"613821b4edc8fbcf2726c6ed","study_id":"6197b3f67c2b5cd3b6d9596a","session_id":"619be78a0bb6221811f3187e","condition":"full-information","relevant_dimensions":["antennae","pattern"],"bee_group":{"antennae":"B","wings":"X","pattern":"D","legs":"X"},"bonus":0.12000000000000001},{"rt":1085.199999999255,"stimulus":"bees-with-color/bee-B2DF.svg","response":0,"trial_type":"image-button-response","trial_index":59,"time_elapsed":224911,"internal_node_id":"0.0-4.0-0.24","subject_id":"613821b4edc8fbcf2726c6ed","study_id":"6197b3f67c2b5cd3b6d9596a","session_id":"619be78a0bb6221811f3187e","condition":"full-information","relevant_dimensions":["antennae","pattern"],"bee_group":{"antennae":"B","wings":"X","pattern":"D","legs":"X"},"action":"harvest","summary":"bad-harvest","bonus":0.12000000000000001},{"rt":500.1000000014901,"stimulus":"\n                    <p><b>Action: <em>harvest</em></b></p>\n                    <p>This is the bee that you just saw.</p>\n                    <img src=\"bees-with-color/bee-B2DF.svg\" width=\"200\">\n                    <p><span class=\"redText\">Bad choice, the bee was angry.</span><br><b>You have been stung!</b><br>Your pay has been decreased by $0.10. Your bonus pay is now $0.24.</p>\n            ","response":0,"trial_type":"html-button-response","trial_index":60,"time_elapsed":225415,"internal_node_id":"0.0-4.0-1.24","subject_id":"613821b4edc8fbcf2726c6ed","study_id":"6197b3f67c2b5cd3b6d9596a","session_id":"619be78a0bb6221811f3187e","condition":"full-information","relevant_dimensions":["antennae","pattern"],"bee_group":{"antennae":"B","wings":"X","pattern":"D","legs":"X"},"bonus":0.12000000000000001},{"rt":840.2000000011176,"stimulus":"bees-with-color/bee-B1SM.svg","response":0,"trial_type":"image-button-response","trial_index":61,"time_elapsed":226258,"internal_node_id":"0.0-4.0-0.25","subject_id":"613821b4edc8fbcf2726c6ed","study_id":"6197b3f67c2b5cd3b6d9596a","session_id":"619be78a0bb6221811f3187e","condition":"full-information","relevant_dimensions":["antennae","pattern"],"bee_group":{"antennae":"B","wings":"X","pattern":"D","legs":"X"},"action":"harvest","summary":"good-harvest","bonus":0.12000000000000001},{"rt":500,"stimulus":"\n                    <p><b>Action: <em>harvest</em></b></p>\n                    <p>This is the bee that you just saw.</p>\n                    <img src=\"bees-with-color/bee-B1SM.svg\" width=\"200\">\n                    <p><span class=\"greenText\"><b>Successful harvest!</b></span><br>Your pay has increased by $0.02. Your bonus pay is now $0.26.</p>\n            ","response":0,"trial_type":"html-button-response","trial_index":62,"time_elapsed":226761,"internal_node_id":"0.0-4.0-1.25","subject_id":"613821b4edc8fbcf2726c6ed","study_id":"6197b3f67c2b5cd3b6d9596a","session_id":"619be78a0bb6221811f3187e","condition":"full-information","relevant_dimensions":["antennae","pattern"],"bee_group":{"antennae":"B","wings":"X","pattern":"D","legs":"X"},"bonus":0.12000000000000001},{"rt":597.8000000007451,"stimulus":"bees-with-color/bee-B1DF.svg","response":0,"trial_type":"image-button-response","trial_index":63,"time_elapsed":227362,"internal_node_id":"0.0-4.0-0.26","subject_id":"613821b4edc8fbcf2726c6ed","study_id":"6197b3f67c2b5cd3b6d9596a","session_id":"619be78a0bb6221811f3187e","condition":"full-information","relevant_dimensions":["antennae","pattern"],"bee_group":{"antennae":"B","wings":"X","pattern":"D","legs":"X"},"action":"harvest","summary":"bad-harvest","bonus":0.12000000000000001},{"rt":970.7999999988824,"stimulus":"\n                    <p><b>Action: <em>harvest</em></b></p>\n                    <p>This is the bee that you just saw.</p>\n                    <img src=\"bees-with-color/bee-B1DF.svg\" width=\"200\">\n                    <p><span class=\"redText\">Bad choice, the bee was angry.</span><br><b>You have been stung!</b><br>Your pay has been decreased by $0.10. Your bonus pay is now $0.16.</p>\n            ","response":0,"trial_type":"html-button-response","trial_index":64,"time_elapsed":228395,"internal_node_id":"0.0-4.0-1.26","subject_id":"613821b4edc8fbcf2726c6ed","study_id":"6197b3f67c2b5cd3b6d9596a","session_id":"619be78a0bb6221811f3187e","condition":"full-information","relevant_dimensions":["antennae","pattern"],"bee_group":{"antennae":"B","wings":"X","pattern":"D","legs":"X"},"bonus":0.12000000000000001},{"rt":467.40000000037253,"stimulus":"bees-with-color/bee-B2SM.svg","response":0,"trial_type":"image-button-response","trial_index":65,"time_elapsed":228866,"internal_node_id":"0.0-4.0-0.27","subject_id":"613821b4edc8fbcf2726c6ed","study_id":"6197b3f67c2b5cd3b6d9596a","session_id":"619be78a0bb6221811f3187e","condition":"full-information","relevant_dimensions":["antennae","pattern"],"bee_group":{"antennae":"B","wings":"X","pattern":"D","legs":"X"},"action":"harvest","summary":"good-harvest","bonus":0.12000000000000001},{"rt":507.09999999962747,"stimulus":"\n                    <p><b>Action: <em>harvest</em></b></p>\n                    <p>This is the bee that you just saw.</p>\n                    <img src=\"bees-with-color/bee-B2SM.svg\" width=\"200\">\n                    <p><span class=\"greenText\"><b>Successful harvest!</b></span><br>Your pay has increased by $0.02. Your bonus pay is now $0.18.</p>\n            ","response":0,"trial_type":"html-button-response","trial_index":66,"time_elapsed":229376,"internal_node_id":"0.0-4.0-1.27","subject_id":"613821b4edc8fbcf2726c6ed","study_id":"6197b3f67c2b5cd3b6d9596a","session_id":"619be78a0bb6221811f3187e","condition":"full-information","relevant_dimensions":["antennae","pattern"],"bee_group":{"antennae":"B","wings":"X","pattern":"D","legs":"X"},"bonus":0.12000000000000001},{"rt":1215.9000000003725,"stimulus":"bees-with-color/bee-A1SF.svg","response":1,"trial_type":"image-button-response","trial_index":67,"time_elapsed":230595,"internal_node_id":"0.0-4.0-0.28","subject_id":"613821b4edc8fbcf2726c6ed","study_id":"6197b3f67c2b5cd3b6d9596a","session_id":"619be78a0bb6221811f3187e","condition":"full-information","relevant_dimensions":["antennae","pattern"],"bee_group":{"antennae":"B","wings":"X","pattern":"D","legs":"X"},"action":"avoid","summary":"bad-avoid","bonus":0.12000000000000001},{"rt":492,"stimulus":"\n                    <p><b>Action: <em>avoid</em></b></p>\n                    <p>This is the bee that you just saw.</p>\n                    <img src=\"bees-with-color/bee-A1SF.svg\" width=\"200\">\n                    <p><span class=\"redText\">Bad choice,</span> the bee was friendly.<br>Your bonus pay is unchanged, and remains at $0.18.</p>\n            ","response":0,"trial_type":"html-button-response","trial_index":68,"time_elapsed":231091,"internal_node_id":"0.0-4.0-1.28","subject_id":"613821b4edc8fbcf2726c6ed","study_id":"6197b3f67c2b5cd3b6d9596a","session_id":"619be78a0bb6221811f3187e","condition":"full-information","relevant_dimensions":["antennae","pattern"],"bee_group":{"antennae":"B","wings":"X","pattern":"D","legs":"X"},"bonus":0.12000000000000001},{"rt":1109,"stimulus":"bees-with-color/bee-A2DM.svg","response":0,"trial_type":"image-button-response","trial_index":69,"time_elapsed":232203,"internal_node_id":"0.0-4.0-0.29","subject_id":"613821b4edc8fbcf2726c6ed","study_id":"6197b3f67c2b5cd3b6d9596a","session_id":"619be78a0bb6221811f3187e","condition":"full-information","relevant_dimensions":["antennae","pattern"],"bee_group":{"antennae":"B","wings":"X","pattern":"D","legs":"X"},"action":"harvest","summary":"good-harvest","bonus":0.12000000000000001},{"rt":523.5999999996275,"stimulus":"\n                    <p><b>Action: <em>harvest</em></b></p>\n                    <p>This is the bee that you just saw.</p>\n                    <img src=\"bees-with-color/bee-A2DM.svg\" width=\"200\">\n                    <p><span class=\"greenText\"><b>Successful harvest!</b></span><br>Your pay has increased by $0.02. Your bonus pay is now $0.20.</p>\n            ","response":0,"trial_type":"html-button-response","trial_index":70,"time_elapsed":232730,"internal_node_id":"0.0-4.0-1.29","subject_id":"613821b4edc8fbcf2726c6ed","study_id":"6197b3f67c2b5cd3b6d9596a","session_id":"619be78a0bb6221811f3187e","condition":"full-information","relevant_dimensions":["antennae","pattern"],"bee_group":{"antennae":"B","wings":"X","pattern":"D","legs":"X"},"bonus":0.12000000000000001},{"rt":1189.5999999996275,"stimulus":"bees-with-color/bee-A2SF.svg","response":1,"trial_type":"image-button-response","trial_index":71,"time_elapsed":233924,"internal_node_id":"0.0-4.0-0.30","subject_id":"613821b4edc8fbcf2726c6ed","study_id":"6197b3f67c2b5cd3b6d9596a","session_id":"619be78a0bb6221811f3187e","condition":"full-information","relevant_dimensions":["antennae","pattern"],"bee_group":{"antennae":"B","wings":"X","pattern":"D","legs":"X"},"action":"avoid","summary":"bad-avoid","bonus":0.12000000000000001},{"rt":507.19999999925494,"stimulus":"\n                    <p><b>Action: <em>avoid</em></b></p>\n                    <p>This is the bee that you just saw.</p>\n                    <img src=\"bees-with-color/bee-A2SF.svg\" width=\"200\">\n                    <p><span class=\"redText\">Bad choice,</span> the bee was friendly.<br>Your bonus pay is unchanged, and remains at $0.20.</p>\n            ","response":0,"trial_type":"html-button-response","trial_index":72,"time_elapsed":234435,"internal_node_id":"0.0-4.0-1.30","subject_id":"613821b4edc8fbcf2726c6ed","study_id":"6197b3f67c2b5cd3b6d9596a","session_id":"619be78a0bb6221811f3187e","condition":"full-information","relevant_dimensions":["antennae","pattern"],"bee_group":{"antennae":"B","wings":"X","pattern":"D","legs":"X"},"bonus":0.12000000000000001},{"rt":1067.9000000003725,"stimulus":"bees-with-color/bee-A1DM.svg","response":0,"trial_type":"image-button-response","trial_index":73,"time_elapsed":235507,"internal_node_id":"0.0-4.0-0.31","subject_id":"613821b4edc8fbcf2726c6ed","study_id":"6197b3f67c2b5cd3b6d9596a","session_id":"619be78a0bb6221811f3187e","condition":"full-information","relevant_dimensions":["antennae","pattern"],"bee_group":{"antennae":"B","wings":"X","pattern":"D","legs":"X"},"action":"harvest","summary":"good-harvest","bonus":0.12000000000000001},{"rt":458.30000000074506,"stimulus":"\n                    <p><b>Action: <em>harvest</em></b></p>\n                    <p>This is the bee that you just saw.</p>\n                    <img src=\"bees-with-color/bee-A1DM.svg\" width=\"200\">\n                    <p><span class=\"greenText\"><b>Successful harvest!</b></span><br>Your pay has increased by $0.02. Your bonus pay is now $0.22.</p>\n            ","response":0,"trial_type":"html-button-response","trial_index":74,"time_elapsed":235968,"internal_node_id":"0.0-4.0-1.31","subject_id":"613821b4edc8fbcf2726c6ed","study_id":"6197b3f67c2b5cd3b6d9596a","session_id":"619be78a0bb6221811f3187e","condition":"full-information","relevant_dimensions":["antennae","pattern"],"bee_group":{"antennae":"B","wings":"X","pattern":"D","legs":"X"},"bonus":0.12000000000000001},{"rt":870.5999999996275,"stimulus":"bees-with-color/bee-A2DM.svg","response":0,"trial_type":"image-button-response","trial_index":75,"time_elapsed":236842,"internal_node_id":"0.0-4.0-0.32","subject_id":"613821b4edc8fbcf2726c6ed","study_id":"6197b3f67c2b5cd3b6d9596a","session_id":"619be78a0bb6221811f3187e","condition":"full-information","relevant_dimensions":["antennae","pattern"],"bee_group":{"antennae":"B","wings":"X","pattern":"D","legs":"X"},"action":"harvest","summary":"good-harvest","bonus":0.12000000000000001},{"rt":518.7999999988824,"stimulus":"\n                    <p><b>Action: <em>harvest</em></b></p>\n                    <p>This is the bee that you just saw.</p>\n                    <img src=\"bees-with-color/bee-A2DM.svg\" width=\"200\">\n                    <p><span class=\"greenText\"><b>Successful harvest!</b></span><br>Your pay has increased by $0.02. Your bonus pay is now $0.24.</p>\n            ","response":0,"trial_type":"html-button-response","trial_index":76,"time_elapsed":237365,"internal_node_id":"0.0-4.0-1.32","subject_id":"613821b4edc8fbcf2726c6ed","study_id":"6197b3f67c2b5cd3b6d9596a","session_id":"619be78a0bb6221811f3187e","condition":"full-information","relevant_dimensions":["antennae","pattern"],"bee_group":{"antennae":"B","wings":"X","pattern":"D","legs":"X"},"bonus":0.12000000000000001},{"rt":2245.4000000003725,"stimulus":"bees-with-color/bee-A1SF.svg","response":1,"trial_type":"image-button-response","trial_index":77,"time_elapsed":239613,"internal_node_id":"0.0-4.0-0.33","subject_id":"613821b4edc8fbcf2726c6ed","study_id":"6197b3f67c2b5cd3b6d9596a","session_id":"619be78a0bb6221811f3187e","condition":"full-information","relevant_dimensions":["antennae","pattern"],"bee_group":{"antennae":"B","wings":"X","pattern":"D","legs":"X"},"action":"avoid","summary":"bad-avoid","bonus":0.12000000000000001},{"rt":524.5,"stimulus":"\n                    <p><b>Action: <em>avoid</em></b></p>\n                    <p>This is the bee that you just saw.</p>\n                    <img src=\"bees-with-color/bee-A1SF.svg\" width=\"200\">\n                    <p><span class=\"redText\">Bad choice,</span> the bee was friendly.<br>Your bonus pay is unchanged, and remains at $0.24.</p>\n            ","response":0,"trial_type":"html-button-response","trial_index":78,"time_elapsed":240141,"internal_node_id":"0.0-4.0-1.33","subject_id":"613821b4edc8fbcf2726c6ed","study_id":"6197b3f67c2b5cd3b6d9596a","session_id":"619be78a0bb6221811f3187e","condition":"full-information","relevant_dimensions":["antennae","pattern"],"bee_group":{"antennae":"B","wings":"X","pattern":"D","legs":"X"},"bonus":0.12000000000000001},{"rt":873.2999999988824,"stimulus":"bees-with-color/bee-A1DF.svg","response":1,"trial_type":"image-button-response","trial_index":79,"time_elapsed":241018,"internal_node_id":"0.0-4.0-0.34","subject_id":"613821b4edc8fbcf2726c6ed","study_id":"6197b3f67c2b5cd3b6d9596a","session_id":"619be78a0bb6221811f3187e","condition":"full-information","relevant_dimensions":["antennae","pattern"],"bee_group":{"antennae":"B","wings":"X","pattern":"D","legs":"X"},"action":"avoid","summary":"bad-avoid","bonus":0.12000000000000001},{"rt":671.2000000011176,"stimulus":"\n                    <p><b>Action: <em>avoid</em></b></p>\n                    <p>This is the bee that you just saw.</p>\n                    <img src=\"bees-with-color/bee-A1DF.svg\" width=\"200\">\n                    <p><span class=\"redText\">Bad choice,</span> the bee was friendly.<br>Your bonus pay is unchanged, and remains at $0.24.</p>\n            ","response":0,"trial_type":"html-button-response","trial_index":80,"time_elapsed":241692,"internal_node_id":"0.0-4.0-1.34","subject_id":"613821b4edc8fbcf2726c6ed","study_id":"6197b3f67c2b5cd3b6d9596a","session_id":"619be78a0bb6221811f3187e","condition":"full-information","relevant_dimensions":["antennae","pattern"],"bee_group":{"antennae":"B","wings":"X","pattern":"D","legs":"X"},"bonus":0.12000000000000001},{"rt":638,"stimulus":"bees-with-color/bee-B2SF.svg","response":1,"trial_type":"image-button-response","trial_index":81,"time_elapsed":242333,"internal_node_id":"0.0-4.0-0.35","subject_id":"613821b4edc8fbcf2726c6ed","study_id":"6197b3f67c2b5cd3b6d9596a","session_id":"619be78a0bb6221811f3187e","condition":"full-information","relevant_dimensions":["antennae","pattern"],"bee_group":{"antennae":"B","wings":"X","pattern":"D","legs":"X"},"action":"avoid","summary":"bad-avoid","bonus":0.12000000000000001},{"rt":866.0999999996275,"stimulus":"\n                    <p><b>Action: <em>avoid</em></b></p>\n                    <p>This is the bee that you just saw.</p>\n                    <img src=\"bees-with-color/bee-B2SF.svg\" width=\"200\">\n                    <p><span class=\"redText\">Bad choice,</span> the bee was friendly.<br>Your bonus pay is unchanged, and remains at $0.24.</p>\n            ","response":0,"trial_type":"html-button-response","trial_index":82,"time_elapsed":243202,"internal_node_id":"0.0-4.0-1.35","subject_id":"613821b4edc8fbcf2726c6ed","study_id":"6197b3f67c2b5cd3b6d9596a","session_id":"619be78a0bb6221811f3187e","condition":"full-information","relevant_dimensions":["antennae","pattern"],"bee_group":{"antennae":"B","wings":"X","pattern":"D","legs":"X"},"bonus":0.12000000000000001},{"rt":865.0999999996275,"stimulus":"bees-with-color/bee-B2DM.svg","response":0,"trial_type":"image-button-response","trial_index":83,"time_elapsed":244070,"internal_node_id":"0.0-4.0-0.36","subject_id":"613821b4edc8fbcf2726c6ed","study_id":"6197b3f67c2b5cd3b6d9596a","session_id":"619be78a0bb6221811f3187e","condition":"full-information","relevant_dimensions":["antennae","pattern"],"bee_group":{"antennae":"B","wings":"X","pattern":"D","legs":"X"},"action":"harvest","summary":"bad-harvest","bonus":0.12000000000000001},{"rt":557.1999999992549,"stimulus":"\n                    <p><b>Action: <em>harvest</em></b></p>\n                    <p>This is the bee that you just saw.</p>\n                    <img src=\"bees-with-color/bee-B2DM.svg\" width=\"200\">\n                    <p><span class=\"redText\">Bad choice, the bee was angry.</span><br><b>You have been stung!</b><br>Your pay has been decreased by $0.10. Your bonus pay is now $0.14.</p>\n            ","response":0,"trial_type":"html-button-response","trial_index":84,"time_elapsed":244630,"internal_node_id":"0.0-4.0-1.36","subject_id":"613821b4edc8fbcf2726c6ed","study_id":"6197b3f67c2b5cd3b6d9596a","session_id":"619be78a0bb6221811f3187e","condition":"full-information","relevant_dimensions":["antennae","pattern"],"bee_group":{"antennae":"B","wings":"X","pattern":"D","legs":"X"},"bonus":0.12000000000000001},{"rt":459.5,"stimulus":"bees-with-color/bee-B1DF.svg","response":0,"trial_type":"image-button-response","trial_index":85,"time_elapsed":245093,"internal_node_id":"0.0-4.0-0.37","subject_id":"613821b4edc8fbcf2726c6ed","study_id":"6197b3f67c2b5cd3b6d9596a","session_id":"619be78a0bb6221811f3187e","condition":"full-information","relevant_dimensions":["antennae","pattern"],"bee_group":{"antennae":"B","wings":"X","pattern":"D","legs":"X"},"action":"harvest","summary":"bad-harvest","bonus":0.12000000000000001},{"rt":532.7000000011176,"stimulus":"\n                    <p><b>Action: <em>harvest</em></b></p>\n                    <p>This is the bee that you just saw.</p>\n                    <img src=\"bees-with-color/bee-B1DF.svg\" width=\"200\">\n                    <p><span class=\"redText\">Bad choice, the bee was angry.</span><br><b>You have been stung!</b><br>Your pay has been decreased by $0.10. Your bonus pay is now $0.04.</p>\n            ","response":0,"trial_type":"html-button-response","trial_index":86,"time_elapsed":245629,"internal_node_id":"0.0-4.0-1.37","subject_id":"613821b4edc8fbcf2726c6ed","study_id":"6197b3f67c2b5cd3b6d9596a","session_id":"619be78a0bb6221811f3187e","condition":"full-information","relevant_dimensions":["antennae","pattern"],"bee_group":{"antennae":"B","wings":"X","pattern":"D","legs":"X"},"bonus":0.12000000000000001},{"rt":435.5,"stimulus":"bees-with-color/bee-B1SM.svg","response":0,"trial_type":"image-button-response","trial_index":87,"time_elapsed":246067,"internal_node_id":"0.0-4.0-0.38","subject_id":"613821b4edc8fbcf2726c6ed","study_id":"6197b3f67c2b5cd3b6d9596a","session_id":"619be78a0bb6221811f3187e","condition":"full-information","relevant_dimensions":["antennae","pattern"],"bee_group":{"antennae":"B","wings":"X","pattern":"D","legs":"X"},"action":"harvest","summary":"good-harvest","bonus":0.12000000000000001},{"rt":467.5,"stimulus":"\n                    <p><b>Action: <em>harvest</em></b></p>\n                    <p>This is the bee that you just saw.</p>\n                    <img src=\"bees-with-color/bee-B1SM.svg\" width=\"200\">\n                    <p><span class=\"greenText\"><b>Successful harvest!</b></span><br>Your pay has increased by $0.02. Your bonus pay is now $0.06.</p>\n            ","response":0,"trial_type":"html-button-response","trial_index":88,"time_elapsed":246538,"internal_node_id":"0.0-4.0-1.38","subject_id":"613821b4edc8fbcf2726c6ed","study_id":"6197b3f67c2b5cd3b6d9596a","session_id":"619be78a0bb6221811f3187e","condition":"full-information","relevant_dimensions":["antennae","pattern"],"bee_group":{"antennae":"B","wings":"X","pattern":"D","legs":"X"},"bonus":0.12000000000000001},{"rt":426.59999999962747,"stimulus":"bees-with-color/bee-B1SF.svg","response":0,"trial_type":"image-button-response","trial_index":89,"time_elapsed":246968,"internal_node_id":"0.0-4.0-0.39","subject_id":"613821b4edc8fbcf2726c6ed","study_id":"6197b3f67c2b5cd3b6d9596a","session_id":"619be78a0bb6221811f3187e","condition":"full-information","relevant_dimensions":["antennae","pattern"],"bee_group":{"antennae":"B","wings":"X","pattern":"D","legs":"X"},"action":"harvest","summary":"good-harvest","bonus":0.12000000000000001},{"rt":467.7000000011176,"stimulus":"\n                    <p><b>Action: <em>harvest</em></b></p>\n                    <p>This is the bee that you just saw.</p>\n                    <img src=\"bees-with-color/bee-B1SF.svg\" width=\"200\">\n                    <p><span class=\"greenText\"><b>Successful harvest!</b></span><br>Your pay has increased by $0.02. Your bonus pay is now $0.08.</p>\n            ","response":0,"trial_type":"html-button-response","trial_index":90,"time_elapsed":247439,"internal_node_id":"0.0-4.0-1.39","subject_id":"613821b4edc8fbcf2726c6ed","study_id":"6197b3f67c2b5cd3b6d9596a","session_id":"619be78a0bb6221811f3187e","condition":"full-information","relevant_dimensions":["antennae","pattern"],"bee_group":{"antennae":"B","wings":"X","pattern":"D","legs":"X"},"bonus":0.12000000000000001},{"rt":532.5,"stimulus":"bees-with-color/bee-B1DM.svg","response":0,"trial_type":"image-button-response","trial_index":91,"time_elapsed":247974,"internal_node_id":"0.0-4.0-0.40","subject_id":"613821b4edc8fbcf2726c6ed","study_id":"6197b3f67c2b5cd3b6d9596a","session_id":"619be78a0bb6221811f3187e","condition":"full-information","relevant_dimensions":["antennae","pattern"],"bee_group":{"antennae":"B","wings":"X","pattern":"D","legs":"X"},"action":"harvest","summary":"bad-harvest","bonus":0.12000000000000001},{"rt":500,"stimulus":"\n                    <p><b>Action: <em>harvest</em></b></p>\n                    <p>This is the bee that you just saw.</p>\n                    <img src=\"bees-with-color/bee-B1DM.svg\" width=\"200\">\n                    <p><span class=\"redText\">Bad choice, the bee was angry.</span><br><b>You have been stung!</b><br>Your pay has been decreased by $0.10. Your bonus pay is now $0.00.</p>\n            ","response":0,"trial_type":"html-button-response","trial_index":92,"time_elapsed":248478,"internal_node_id":"0.0-4.0-1.40","subject_id":"613821b4edc8fbcf2726c6ed","study_id":"6197b3f67c2b5cd3b6d9596a","session_id":"619be78a0bb6221811f3187e","condition":"full-information","relevant_dimensions":["antennae","pattern"],"bee_group":{"antennae":"B","wings":"X","pattern":"D","legs":"X"},"bonus":0.12000000000000001},{"rt":459.90000000037253,"stimulus":"bees-with-color/bee-A2SF.svg","response":0,"trial_type":"image-button-response","trial_index":93,"time_elapsed":248941,"internal_node_id":"0.0-4.0-0.41","subject_id":"613821b4edc8fbcf2726c6ed","study_id":"6197b3f67c2b5cd3b6d9596a","session_id":"619be78a0bb6221811f3187e","condition":"full-information","relevant_dimensions":["antennae","pattern"],"bee_group":{"antennae":"B","wings":"X","pattern":"D","legs":"X"},"action":"harvest","summary":"good-harvest","bonus":0.12000000000000001},{"rt":419.30000000074506,"stimulus":"\n                    <p><b>Action: <em>harvest</em></b></p>\n                    <p>This is the bee that you just saw.</p>\n                    <img src=\"bees-with-color/bee-A2SF.svg\" width=\"200\">\n                    <p><span class=\"greenText\"><b>Successful harvest!</b></span><br>Your pay has increased by $0.02. Your bonus pay is now $0.02.</p>\n            ","response":0,"trial_type":"html-button-response","trial_index":94,"time_elapsed":249363,"internal_node_id":"0.0-4.0-1.41","subject_id":"613821b4edc8fbcf2726c6ed","study_id":"6197b3f67c2b5cd3b6d9596a","session_id":"619be78a0bb6221811f3187e","condition":"full-information","relevant_dimensions":["antennae","pattern"],"bee_group":{"antennae":"B","wings":"X","pattern":"D","legs":"X"},"bonus":0.12000000000000001},{"rt":459.90000000037253,"stimulus":"bees-with-color/bee-A2DF.svg","response":0,"trial_type":"image-button-response","trial_index":95,"time_elapsed":249826,"internal_node_id":"0.0-4.0-0.42","subject_id":"613821b4edc8fbcf2726c6ed","study_id":"6197b3f67c2b5cd3b6d9596a","session_id":"619be78a0bb6221811f3187e","condition":"full-information","relevant_dimensions":["antennae","pattern"],"bee_group":{"antennae":"B","wings":"X","pattern":"D","legs":"X"},"action":"harvest","summary":"good-harvest","bonus":0.12000000000000001},{"rt":815.9000000003725,"stimulus":"\n                    <p><b>Action: <em>harvest</em></b></p>\n                    <p>This is the bee that you just saw.</p>\n                    <img src=\"bees-with-color/bee-A2DF.svg\" width=\"200\">\n                    <p><span class=\"greenText\"><b>Successful harvest!</b></span><br>Your pay has increased by $0.02. Your bonus pay is now $0.04.</p>\n            ","response":0,"trial_type":"html-button-response","trial_index":96,"time_elapsed":250646,"internal_node_id":"0.0-4.0-1.42","subject_id":"613821b4edc8fbcf2726c6ed","study_id":"6197b3f67c2b5cd3b6d9596a","session_id":"619be78a0bb6221811f3187e","condition":"full-information","relevant_dimensions":["antennae","pattern"],"bee_group":{"antennae":"B","wings":"X","pattern":"D","legs":"X"},"bonus":0.12000000000000001},{"rt":443.30000000074506,"stimulus":"bees-with-color/bee-B2DF.svg","response":0,"trial_type":"image-button-response","trial_index":97,"time_elapsed":251092,"internal_node_id":"0.0-4.0-0.43","subject_id":"613821b4edc8fbcf2726c6ed","study_id":"6197b3f67c2b5cd3b6d9596a","session_id":"619be78a0bb6221811f3187e","condition":"full-information","relevant_dimensions":["antennae","pattern"],"bee_group":{"antennae":"B","wings":"X","pattern":"D","legs":"X"},"action":"harvest","summary":"bad-harvest","bonus":0.12000000000000001},{"rt":662.5999999996275,"stimulus":"\n                    <p><b>Action: <em>harvest</em></b></p>\n                    <p>This is the bee that you just saw.</p>\n                    <img src=\"bees-with-color/bee-B2DF.svg\" width=\"200\">\n                    <p><span class=\"redText\">Bad choice, the bee was angry.</span><br><b>You have been stung!</b><br>Your pay has been decreased by $0.10. Your bonus pay is now $0.00.</p>\n            ","response":0,"trial_type":"html-button-response","trial_index":98,"time_elapsed":251758,"internal_node_id":"0.0-4.0-1.43","subject_id":"613821b4edc8fbcf2726c6ed","study_id":"6197b3f67c2b5cd3b6d9596a","session_id":"619be78a0bb6221811f3187e","condition":"full-information","relevant_dimensions":["antennae","pattern"],"bee_group":{"antennae":"B","wings":"X","pattern":"D","legs":"X"},"bonus":0.12000000000000001},{"rt":759,"stimulus":"bees-with-color/bee-B2SM.svg","response":1,"trial_type":"image-button-response","trial_index":99,"time_elapsed":252521,"internal_node_id":"0.0-4.0-0.44","subject_id":"613821b4edc8fbcf2726c6ed","study_id":"6197b3f67c2b5cd3b6d9596a","session_id":"619be78a0bb6221811f3187e","condition":"full-information","relevant_dimensions":["antennae","pattern"],"bee_group":{"antennae":"B","wings":"X","pattern":"D","legs":"X"},"action":"avoid","summary":"bad-avoid","bonus":0.12000000000000001},{"rt":393.5,"stimulus":"\n                    <p><b>Action: <em>avoid</em></b></p>\n                    <p>This is the bee that you just saw.</p>\n                    <img src=\"bees-with-color/bee-B2SM.svg\" width=\"200\">\n                    <p><span class=\"redText\">Bad choice,</span> the bee was friendly.<br>Your bonus pay is unchanged, and remains at $0.00.</p>\n            ","response":0,"trial_type":"html-button-response","trial_index":100,"time_elapsed":252918,"internal_node_id":"0.0-4.0-1.44","subject_id":"613821b4edc8fbcf2726c6ed","study_id":"6197b3f67c2b5cd3b6d9596a","session_id":"619be78a0bb6221811f3187e","condition":"full-information","relevant_dimensions":["antennae","pattern"],"bee_group":{"antennae":"B","wings":"X","pattern":"D","legs":"X"},"bonus":0.12000000000000001},{"rt":427.90000000037253,"stimulus":"bees-with-color/bee-A2SM.svg","response":0,"trial_type":"image-button-response","trial_index":101,"time_elapsed":253349,"internal_node_id":"0.0-4.0-0.45","subject_id":"613821b4edc8fbcf2726c6ed","study_id":"6197b3f67c2b5cd3b6d9596a","session_id":"619be78a0bb6221811f3187e","condition":"full-information","relevant_dimensions":["antennae","pattern"],"bee_group":{"antennae":"B","wings":"X","pattern":"D","legs":"X"},"action":"harvest","summary":"good-harvest","bonus":0.12000000000000001},{"rt":426.7000000011176,"stimulus":"\n                    <p><b>Action: <em>harvest</em></b></p>\n                    <p>This is the bee that you just saw.</p>\n                    <img src=\"bees-with-color/bee-A2SM.svg\" width=\"200\">\n                    <p><span class=\"greenText\"><b>Successful harvest!</b></span><br>Your pay has increased by $0.02. Your bonus pay is now $0.02.</p>\n            ","response":0,"trial_type":"html-button-response","trial_index":102,"time_elapsed":253779,"internal_node_id":"0.0-4.0-1.45","subject_id":"613821b4edc8fbcf2726c6ed","study_id":"6197b3f67c2b5cd3b6d9596a","session_id":"619be78a0bb6221811f3187e","condition":"full-information","relevant_dimensions":["antennae","pattern"],"bee_group":{"antennae":"B","wings":"X","pattern":"D","legs":"X"},"bonus":0.12000000000000001},{"rt":451.40000000037253,"stimulus":"bees-with-color/bee-A1SM.svg","response":0,"trial_type":"image-button-response","trial_index":103,"time_elapsed":254234,"internal_node_id":"0.0-4.0-0.46","subject_id":"613821b4edc8fbcf2726c6ed","study_id":"6197b3f67c2b5cd3b6d9596a","session_id":"619be78a0bb6221811f3187e","condition":"full-information","relevant_dimensions":["antennae","pattern"],"bee_group":{"antennae":"B","wings":"X","pattern":"D","legs":"X"},"action":"harvest","summary":"good-harvest","bonus":0.12000000000000001},{"rt":410.19999999925494,"stimulus":"\n                    <p><b>Action: <em>harvest</em></b></p>\n                    <p>This is the bee that you just saw.</p>\n                    <img src=\"bees-with-color/bee-A1SM.svg\" width=\"200\">\n                    <p><span class=\"greenText\"><b>Successful harvest!</b></span><br>Your pay has increased by $0.02. Your bonus pay is now $0.04.</p>\n            ","response":0,"trial_type":"html-button-response","trial_index":104,"time_elapsed":254648,"internal_node_id":"0.0-4.0-1.46","subject_id":"613821b4edc8fbcf2726c6ed","study_id":"6197b3f67c2b5cd3b6d9596a","session_id":"619be78a0bb6221811f3187e","condition":"full-information","relevant_dimensions":["antennae","pattern"],"bee_group":{"antennae":"B","wings":"X","pattern":"D","legs":"X"},"bonus":0.12000000000000001},{"rt":418.5,"stimulus":"bees-with-color/bee-A1DM.svg","response":0,"trial_type":"image-button-response","trial_index":105,"time_elapsed":255069,"internal_node_id":"0.0-4.0-0.47","subject_id":"613821b4edc8fbcf2726c6ed","study_id":"6197b3f67c2b5cd3b6d9596a","session_id":"619be78a0bb6221811f3187e","condition":"full-information","relevant_dimensions":["antennae","pattern"],"bee_group":{"antennae":"B","wings":"X","pattern":"D","legs":"X"},"action":"harvest","summary":"good-harvest","bonus":0.12000000000000001},{"rt":426.80000000074506,"stimulus":"\n                    <p><b>Action: <em>harvest</em></b></p>\n                    <p>This is the bee that you just saw.</p>\n                    <img src=\"bees-with-color/bee-A1DM.svg\" width=\"200\">\n                    <p><span class=\"greenText\"><b>Successful harvest!</b></span><br>Your pay has increased by $0.02. Your bonus pay is now $0.06.</p>\n            ","response":0,"trial_type":"html-button-response","trial_index":106,"time_elapsed":255500,"internal_node_id":"0.0-4.0-1.47","subject_id":"613821b4edc8fbcf2726c6ed","study_id":"6197b3f67c2b5cd3b6d9596a","session_id":"619be78a0bb6221811f3187e","condition":"full-information","relevant_dimensions":["antennae","pattern"],"bee_group":{"antennae":"B","wings":"X","pattern":"D","legs":"X"},"bonus":0.12000000000000001},{"rt":426.69999999925494,"stimulus":"bees-with-color/bee-B1SF.svg","response":0,"trial_type":"image-button-response","trial_index":107,"time_elapsed":255930,"internal_node_id":"0.0-4.0-0.48","subject_id":"613821b4edc8fbcf2726c6ed","study_id":"6197b3f67c2b5cd3b6d9596a","session_id":"619be78a0bb6221811f3187e","condition":"full-information","relevant_dimensions":["antennae","pattern"],"bee_group":{"antennae":"B","wings":"X","pattern":"D","legs":"X"},"action":"harvest","summary":"good-harvest","bonus":0.12000000000000001},{"rt":425.59999999962747,"stimulus":"\n                    <p><b>Action: <em>harvest</em></b></p>\n                    <p>This is the bee that you just saw.</p>\n                    <img src=\"bees-with-color/bee-B1SF.svg\" width=\"200\">\n                    <p><span class=\"greenText\"><b>Successful harvest!</b></span><br>Your pay has increased by $0.02. Your bonus pay is now $0.08.</p>\n            ","response":0,"trial_type":"html-button-response","trial_index":108,"time_elapsed":256359,"internal_node_id":"0.0-4.0-1.48","subject_id":"613821b4edc8fbcf2726c6ed","study_id":"6197b3f67c2b5cd3b6d9596a","session_id":"619be78a0bb6221811f3187e","condition":"full-information","relevant_dimensions":["antennae","pattern"],"bee_group":{"antennae":"B","wings":"X","pattern":"D","legs":"X"},"bonus":0.12000000000000001},{"rt":411.69999999925494,"stimulus":"bees-with-color/bee-B1DM.svg","response":0,"trial_type":"image-button-response","trial_index":109,"time_elapsed":256774,"internal_node_id":"0.0-4.0-0.49","subject_id":"613821b4edc8fbcf2726c6ed","study_id":"6197b3f67c2b5cd3b6d9596a","session_id":"619be78a0bb6221811f3187e","condition":"full-information","relevant_dimensions":["antennae","pattern"],"bee_group":{"antennae":"B","wings":"X","pattern":"D","legs":"X"},"action":"harvest","summary":"bad-harvest","bonus":0.12000000000000001},{"rt":808.5,"stimulus":"\n                    <p><b>Action: <em>harvest</em></b></p>\n                    <p>This is the bee that you just saw.</p>\n                    <img src=\"bees-with-color/bee-B1DM.svg\" width=\"200\">\n                    <p><span class=\"redText\">Bad choice, the bee was angry.</span><br><b>You have been stung!</b><br>Your pay has been decreased by $0.10. Your bonus pay is now $0.00.</p>\n            ","response":0,"trial_type":"html-button-response","trial_index":110,"time_elapsed":257586,"internal_node_id":"0.0-4.0-1.49","subject_id":"613821b4edc8fbcf2726c6ed","study_id":"6197b3f67c2b5cd3b6d9596a","session_id":"619be78a0bb6221811f3187e","condition":"full-information","relevant_dimensions":["antennae","pattern"],"bee_group":{"antennae":"B","wings":"X","pattern":"D","legs":"X"},"bonus":0.12000000000000001},{"rt":2091.300000000745,"stimulus":"bees-with-color/bee-B2DF.svg","response":1,"trial_type":"image-button-response","trial_index":111,"time_elapsed":259681,"internal_node_id":"0.0-4.0-0.50","subject_id":"613821b4edc8fbcf2726c6ed","study_id":"6197b3f67c2b5cd3b6d9596a","session_id":"619be78a0bb6221811f3187e","condition":"full-information","relevant_dimensions":["antennae","pattern"],"bee_group":{"antennae":"B","wings":"X","pattern":"D","legs":"X"},"action":"avoid","summary":"good-avoid","bonus":0.12000000000000001},{"rt":515.5999999996275,"stimulus":"\n                    <p><b>Action: <em>avoid</em></b></p>\n                    <p>This is the bee that you just saw.</p>\n                    <img src=\"bees-with-color/bee-B2DF.svg\" width=\"200\">\n                    <p><span class=\"greenText\">Good choice!</span>  This bee would have stung you.<br>Your bonus pay is unchanged, and remains at $0.00.</p>\n            ","response":0,"trial_type":"html-button-response","trial_index":112,"time_elapsed":260201,"internal_node_id":"0.0-4.0-1.50","subject_id":"613821b4edc8fbcf2726c6ed","study_id":"6197b3f67c2b5cd3b6d9596a","session_id":"619be78a0bb6221811f3187e","condition":"full-information","relevant_dimensions":["antennae","pattern"],"bee_group":{"antennae":"B","wings":"X","pattern":"D","legs":"X"},"bonus":0.12000000000000001},{"rt":417.90000000037253,"stimulus":"bees-with-color/bee-A2DM.svg","response":0,"trial_type":"image-button-response","trial_index":113,"time_elapsed":260623,"internal_node_id":"0.0-4.0-0.51","subject_id":"613821b4edc8fbcf2726c6ed","study_id":"6197b3f67c2b5cd3b6d9596a","session_id":"619be78a0bb6221811f3187e","condition":"full-information","relevant_dimensions":["antennae","pattern"],"bee_group":{"antennae":"B","wings":"X","pattern":"D","legs":"X"},"action":"harvest","summary":"good-harvest","bonus":0.12000000000000001},{"rt":393.5,"stimulus":"\n                    <p><b>Action: <em>harvest</em></b></p>\n                    <p>This is the bee that you just saw.</p>\n                    <img src=\"bees-with-color/bee-A2DM.svg\" width=\"200\">\n                    <p><span class=\"greenText\"><b>Successful harvest!</b></span><br>Your pay has increased by $0.02. Your bonus pay is now $0.02.</p>\n            ","response":0,"trial_type":"html-button-response","trial_index":114,"time_elapsed":261020,"internal_node_id":"0.0-4.0-1.51","subject_id":"613821b4edc8fbcf2726c6ed","study_id":"6197b3f67c2b5cd3b6d9596a","session_id":"619be78a0bb6221811f3187e","condition":"full-information","relevant_dimensions":["antennae","pattern"],"bee_group":{"antennae":"B","wings":"X","pattern":"D","legs":"X"},"bonus":0.12000000000000001},{"rt":370,"stimulus":"bees-with-color/bee-B2SF.svg","response":0,"trial_type":"image-button-response","trial_index":115,"time_elapsed":261394,"internal_node_id":"0.0-4.0-0.52","subject_id":"613821b4edc8fbcf2726c6ed","study_id":"6197b3f67c2b5cd3b6d9596a","session_id":"619be78a0bb6221811f3187e","condition":"full-information","relevant_dimensions":["antennae","pattern"],"bee_group":{"antennae":"B","wings":"X","pattern":"D","legs":"X"},"action":"harvest","summary":"good-harvest","bonus":0.12000000000000001},{"rt":418.40000000037253,"stimulus":"\n                    <p><b>Action: <em>harvest</em></b></p>\n                    <p>This is the bee that you just saw.</p>\n                    <img src=\"bees-with-color/bee-B2SF.svg\" width=\"200\">\n                    <p><span class=\"greenText\"><b>Successful harvest!</b></span><br>Your pay has increased by $0.02. Your bonus pay is now $0.04.</p>\n            ","response":0,"trial_type":"html-button-response","trial_index":116,"time_elapsed":261816,"internal_node_id":"0.0-4.0-1.52","subject_id":"613821b4edc8fbcf2726c6ed","study_id":"6197b3f67c2b5cd3b6d9596a","session_id":"619be78a0bb6221811f3187e","condition":"full-information","relevant_dimensions":["antennae","pattern"],"bee_group":{"antennae":"B","wings":"X","pattern":"D","legs":"X"},"bonus":0.12000000000000001},{"rt":499.69999999925494,"stimulus":"bees-with-color/bee-A2DF.svg","response":1,"trial_type":"image-button-response","trial_index":117,"time_elapsed":262319,"internal_node_id":"0.0-4.0-0.53","subject_id":"613821b4edc8fbcf2726c6ed","study_id":"6197b3f67c2b5cd3b6d9596a","session_id":"619be78a0bb6221811f3187e","condition":"full-information","relevant_dimensions":["antennae","pattern"],"bee_group":{"antennae":"B","wings":"X","pattern":"D","legs":"X"},"action":"avoid","summary":"bad-avoid","bonus":0.12000000000000001},{"rt":401.90000000037253,"stimulus":"\n                    <p><b>Action: <em>avoid</em></b></p>\n                    <p>This is the bee that you just saw.</p>\n                    <img src=\"bees-with-color/bee-A2DF.svg\" width=\"200\">\n                    <p><span class=\"redText\">Bad choice,</span> the bee was friendly.<br>Your bonus pay is unchanged, and remains at $0.04.</p>\n            ","response":0,"trial_type":"html-button-response","trial_index":118,"time_elapsed":262725,"internal_node_id":"0.0-4.0-1.53","subject_id":"613821b4edc8fbcf2726c6ed","study_id":"6197b3f67c2b5cd3b6d9596a","session_id":"619be78a0bb6221811f3187e","condition":"full-information","relevant_dimensions":["antennae","pattern"],"bee_group":{"antennae":"B","wings":"X","pattern":"D","legs":"X"},"bonus":0.12000000000000001},{"rt":361.69999999925494,"stimulus":"bees-with-color/bee-B2SM.svg","response":0,"trial_type":"image-button-response","trial_index":119,"time_elapsed":263089,"internal_node_id":"0.0-4.0-0.54","subject_id":"613821b4edc8fbcf2726c6ed","study_id":"6197b3f67c2b5cd3b6d9596a","session_id":"619be78a0bb6221811f3187e","condition":"full-information","relevant_dimensions":["antennae","pattern"],"bee_group":{"antennae":"B","wings":"X","pattern":"D","legs":"X"},"action":"harvest","summary":"good-harvest","bonus":0.12000000000000001},{"rt":435.80000000074506,"stimulus":"\n                    <p><b>Action: <em>harvest</em></b></p>\n                    <p>This is the bee that you just saw.</p>\n                    <img src=\"bees-with-color/bee-B2SM.svg\" width=\"200\">\n                    <p><span class=\"greenText\"><b>Successful harvest!</b></span><br>Your pay has increased by $0.02. Your bonus pay is now $0.06.</p>\n            ","response":0,"trial_type":"html-button-response","trial_index":120,"time_elapsed":263528,"internal_node_id":"0.0-4.0-1.54","subject_id":"613821b4edc8fbcf2726c6ed","study_id":"6197b3f67c2b5cd3b6d9596a","session_id":"619be78a0bb6221811f3187e","condition":"full-information","relevant_dimensions":["antennae","pattern"],"bee_group":{"antennae":"B","wings":"X","pattern":"D","legs":"X"},"bonus":0.12000000000000001},{"rt":378.80000000074506,"stimulus":"bees-with-color/bee-B1SM.svg","response":0,"trial_type":"image-button-response","trial_index":121,"time_elapsed":263910,"internal_node_id":"0.0-4.0-0.55","subject_id":"613821b4edc8fbcf2726c6ed","study_id":"6197b3f67c2b5cd3b6d9596a","session_id":"619be78a0bb6221811f3187e","condition":"full-information","relevant_dimensions":["antennae","pattern"],"bee_group":{"antennae":"B","wings":"X","pattern":"D","legs":"X"},"action":"harvest","summary":"good-harvest","bonus":0.12000000000000001},{"rt":435.30000000074506,"stimulus":"\n                    <p><b>Action: <em>harvest</em></b></p>\n                    <p>This is the bee that you just saw.</p>\n                    <img src=\"bees-with-color/bee-B1SM.svg\" width=\"200\">\n                    <p><span class=\"greenText\"><b>Successful harvest!</b></span><br>Your pay has increased by $0.02. Your bonus pay is now $0.08.</p>\n            ","response":0,"trial_type":"html-button-response","trial_index":122,"time_elapsed":264348,"internal_node_id":"0.0-4.0-1.55","subject_id":"613821b4edc8fbcf2726c6ed","study_id":"6197b3f67c2b5cd3b6d9596a","session_id":"619be78a0bb6221811f3187e","condition":"full-information","relevant_dimensions":["antennae","pattern"],"bee_group":{"antennae":"B","wings":"X","pattern":"D","legs":"X"},"bonus":0.12000000000000001},{"rt":492.7000000011176,"stimulus":"bees-with-color/bee-A1DM.svg","response":0,"trial_type":"image-button-response","trial_index":123,"time_elapsed":264843,"internal_node_id":"0.0-4.0-0.56","subject_id":"613821b4edc8fbcf2726c6ed","study_id":"6197b3f67c2b5cd3b6d9596a","session_id":"619be78a0bb6221811f3187e","condition":"full-information","relevant_dimensions":["antennae","pattern"],"bee_group":{"antennae":"B","wings":"X","pattern":"D","legs":"X"},"action":"harvest","summary":"good-harvest","bonus":0.12000000000000001},{"rt":459.40000000037253,"stimulus":"\n                    <p><b>Action: <em>harvest</em></b></p>\n                    <p>This is the bee that you just saw.</p>\n                    <img src=\"bees-with-color/bee-A1DM.svg\" width=\"200\">\n                    <p><span class=\"greenText\"><b>Successful harvest!</b></span><br>Your pay has increased by $0.02. Your bonus pay is now $0.10.</p>\n            ","response":0,"trial_type":"html-button-response","trial_index":124,"time_elapsed":265306,"internal_node_id":"0.0-4.0-1.56","subject_id":"613821b4edc8fbcf2726c6ed","study_id":"6197b3f67c2b5cd3b6d9596a","session_id":"619be78a0bb6221811f3187e","condition":"full-information","relevant_dimensions":["antennae","pattern"],"bee_group":{"antennae":"B","wings":"X","pattern":"D","legs":"X"},"bonus":0.12000000000000001},{"rt":549.5,"stimulus":"bees-with-color/bee-A1SM.svg","response":0,"trial_type":"image-button-response","trial_index":125,"time_elapsed":265858,"internal_node_id":"0.0-4.0-0.57","subject_id":"613821b4edc8fbcf2726c6ed","study_id":"6197b3f67c2b5cd3b6d9596a","session_id":"619be78a0bb6221811f3187e","condition":"full-information","relevant_dimensions":["antennae","pattern"],"bee_group":{"antennae":"B","wings":"X","pattern":"D","legs":"X"},"action":"harvest","summary":"good-harvest","bonus":0.12000000000000001},{"rt":451.5,"stimulus":"\n                    <p><b>Action: <em>harvest</em></b></p>\n                    <p>This is the bee that you just saw.</p>\n                    <img src=\"bees-with-color/bee-A1SM.svg\" width=\"200\">\n                    <p><span class=\"greenText\"><b>Successful harvest!</b></span><br>Your pay has increased by $0.02. Your bonus pay is now $0.12.</p>\n            ","response":0,"trial_type":"html-button-response","trial_index":126,"time_elapsed":266313,"internal_node_id":"0.0-4.0-1.57","subject_id":"613821b4edc8fbcf2726c6ed","study_id":"6197b3f67c2b5cd3b6d9596a","session_id":"619be78a0bb6221811f3187e","condition":"full-information","relevant_dimensions":["antennae","pattern"],"bee_group":{"antennae":"B","wings":"X","pattern":"D","legs":"X"},"bonus":0.12000000000000001},{"rt":492,"stimulus":"bees-with-color/bee-B2DM.svg","response":0,"trial_type":"image-button-response","trial_index":127,"time_elapsed":266808,"internal_node_id":"0.0-4.0-0.58","subject_id":"613821b4edc8fbcf2726c6ed","study_id":"6197b3f67c2b5cd3b6d9596a","session_id":"619be78a0bb6221811f3187e","condition":"full-information","relevant_dimensions":["antennae","pattern"],"bee_group":{"antennae":"B","wings":"X","pattern":"D","legs":"X"},"action":"harvest","summary":"bad-harvest","bonus":0.12000000000000001},{"rt":662.5,"stimulus":"\n                    <p><b>Action: <em>harvest</em></b></p>\n                    <p>This is the bee that you just saw.</p>\n                    <img src=\"bees-with-color/bee-B2DM.svg\" width=\"200\">\n                    <p><span class=\"redText\">Bad choice, the bee was angry.</span><br><b>You have been stung!</b><br>Your pay has been decreased by $0.10. Your bonus pay is now $0.02.</p>\n            ","response":0,"trial_type":"html-button-response","trial_index":128,"time_elapsed":267473,"internal_node_id":"0.0-4.0-1.58","subject_id":"613821b4edc8fbcf2726c6ed","study_id":"6197b3f67c2b5cd3b6d9596a","session_id":"619be78a0bb6221811f3187e","condition":"full-information","relevant_dimensions":["antennae","pattern"],"bee_group":{"antennae":"B","wings":"X","pattern":"D","legs":"X"},"bonus":0.12000000000000001},{"rt":459.90000000037253,"stimulus":"bees-with-color/bee-B1DF.svg","response":0,"trial_type":"image-button-response","trial_index":129,"time_elapsed":267936,"internal_node_id":"0.0-4.0-0.59","subject_id":"613821b4edc8fbcf2726c6ed","study_id":"6197b3f67c2b5cd3b6d9596a","session_id":"619be78a0bb6221811f3187e","condition":"full-information","relevant_dimensions":["antennae","pattern"],"bee_group":{"antennae":"B","wings":"X","pattern":"D","legs":"X"},"action":"harvest","summary":"bad-harvest","bonus":0.12000000000000001},{"rt":841.0999999996275,"stimulus":"\n                    <p><b>Action: <em>harvest</em></b></p>\n                    <p>This is the bee that you just saw.</p>\n                    <img src=\"bees-with-color/bee-B1DF.svg\" width=\"200\">\n                    <p><span class=\"redText\">Bad choice, the bee was angry.</span><br><b>You have been stung!</b><br>Your pay has been decreased by $0.10. Your bonus pay is now $0.00.</p>\n            ","response":0,"trial_type":"html-button-response","trial_index":130,"time_elapsed":268780,"internal_node_id":"0.0-4.0-1.59","subject_id":"613821b4edc8fbcf2726c6ed","study_id":"6197b3f67c2b5cd3b6d9596a","session_id":"619be78a0bb6221811f3187e","condition":"full-information","relevant_dimensions":["antennae","pattern"],"bee_group":{"antennae":"B","wings":"X","pattern":"D","legs":"X"},"bonus":0.12000000000000001},{"rt":955.0999999996275,"stimulus":"bees-with-color/bee-A2SM.svg","response":1,"trial_type":"image-button-response","trial_index":131,"time_elapsed":269738,"internal_node_id":"0.0-4.0-0.60","subject_id":"613821b4edc8fbcf2726c6ed","study_id":"6197b3f67c2b5cd3b6d9596a","session_id":"619be78a0bb6221811f3187e","condition":"full-information","relevant_dimensions":["antennae","pattern"],"bee_group":{"antennae":"B","wings":"X","pattern":"D","legs":"X"},"action":"avoid","summary":"bad-avoid","bonus":0.12000000000000001},{"rt":443.5,"stimulus":"\n                    <p><b>Action: <em>avoid</em></b></p>\n                    <p>This is the bee that you just saw.</p>\n                    <img src=\"bees-with-color/bee-A2SM.svg\" width=\"200\">\n                    <p><span class=\"redText\">Bad choice,</span> the bee was friendly.<br>Your bonus pay is unchanged, and remains at $0.00.</p>\n            ","response":0,"trial_type":"html-button-response","trial_index":132,"time_elapsed":270185,"internal_node_id":"0.0-4.0-1.60","subject_id":"613821b4edc8fbcf2726c6ed","study_id":"6197b3f67c2b5cd3b6d9596a","session_id":"619be78a0bb6221811f3187e","condition":"full-information","relevant_dimensions":["antennae","pattern"],"bee_group":{"antennae":"B","wings":"X","pattern":"D","legs":"X"},"bonus":0.12000000000000001},{"rt":492,"stimulus":"bees-with-color/bee-A1DF.svg","response":0,"trial_type":"image-button-response","trial_index":133,"time_elapsed":270680,"internal_node_id":"0.0-4.0-0.61","subject_id":"613821b4edc8fbcf2726c6ed","study_id":"6197b3f67c2b5cd3b6d9596a","session_id":"619be78a0bb6221811f3187e","condition":"full-information","relevant_dimensions":["antennae","pattern"],"bee_group":{"antennae":"B","wings":"X","pattern":"D","legs":"X"},"action":"harvest","summary":"good-harvest","bonus":0.12000000000000001},{"rt":1027.699999999255,"stimulus":"\n                    <p><b>Action: <em>harvest</em></b></p>\n                    <p>This is the bee that you just saw.</p>\n                    <img src=\"bees-with-color/bee-A1DF.svg\" width=\"200\">\n                    <p><span class=\"greenText\"><b>Successful harvest!</b></span><br>Your pay has increased by $0.02. Your bonus pay is now $0.02.</p>\n            ","response":0,"trial_type":"html-button-response","trial_index":134,"time_elapsed":271711,"internal_node_id":"0.0-4.0-1.61","subject_id":"613821b4edc8fbcf2726c6ed","study_id":"6197b3f67c2b5cd3b6d9596a","session_id":"619be78a0bb6221811f3187e","condition":"full-information","relevant_dimensions":["antennae","pattern"],"bee_group":{"antennae":"B","wings":"X","pattern":"D","legs":"X"},"bonus":0.12000000000000001},{"rt":962.8999999985099,"stimulus":"bees-with-color/bee-A2SF.svg","response":0,"trial_type":"image-button-response","trial_index":135,"time_elapsed":272677,"internal_node_id":"0.0-4.0-0.62","subject_id":"613821b4edc8fbcf2726c6ed","study_id":"6197b3f67c2b5cd3b6d9596a","session_id":"619be78a0bb6221811f3187e","condition":"full-information","relevant_dimensions":["antennae","pattern"],"bee_group":{"antennae":"B","wings":"X","pattern":"D","legs":"X"},"action":"harvest","summary":"good-harvest","bonus":0.12000000000000001},{"rt":467.5,"stimulus":"\n                    <p><b>Action: <em>harvest</em></b></p>\n                    <p>This is the bee that you just saw.</p>\n                    <img src=\"bees-with-color/bee-A2SF.svg\" width=\"200\">\n                    <p><span class=\"greenText\"><b>Successful harvest!</b></span><br>Your pay has increased by $0.02. Your bonus pay is now $0.04.</p>\n            ","response":0,"trial_type":"html-button-response","trial_index":136,"time_elapsed":273147,"internal_node_id":"0.0-4.0-1.62","subject_id":"613821b4edc8fbcf2726c6ed","study_id":"6197b3f67c2b5cd3b6d9596a","session_id":"619be78a0bb6221811f3187e","condition":"full-information","relevant_dimensions":["antennae","pattern"],"bee_group":{"antennae":"B","wings":"X","pattern":"D","legs":"X"},"bonus":0.12000000000000001},{"rt":533.9000000003725,"stimulus":"bees-with-color/bee-A1SF.svg","response":0,"trial_type":"image-button-response","trial_index":137,"time_elapsed":273684,"internal_node_id":"0.0-4.0-0.63","subject_id":"613821b4edc8fbcf2726c6ed","study_id":"6197b3f67c2b5cd3b6d9596a","session_id":"619be78a0bb6221811f3187e","condition":"full-information","relevant_dimensions":["antennae","pattern"],"bee_group":{"antennae":"B","wings":"X","pattern":"D","legs":"X"},"action":"harvest","summary":"good-harvest","bonus":0.12000000000000001},{"rt":467.2999999988824,"stimulus":"\n                    <p><b>Action: <em>harvest</em></b></p>\n                    <p>This is the bee that you just saw.</p>\n                    <img src=\"bees-with-color/bee-A1SF.svg\" width=\"200\">\n                    <p><span class=\"greenText\"><b>Successful harvest!</b></span><br>Your pay has increased by $0.02. Your bonus pay is now $0.06.</p>\n            ","response":0,"trial_type":"html-button-response","trial_index":138,"time_elapsed":274154,"internal_node_id":"0.0-4.0-1.63","subject_id":"613821b4edc8fbcf2726c6ed","study_id":"6197b3f67c2b5cd3b6d9596a","session_id":"619be78a0bb6221811f3187e","condition":"full-information","relevant_dimensions":["antennae","pattern"],"bee_group":{"antennae":"B","wings":"X","pattern":"D","legs":"X"},"bonus":0.12000000000000001},{"rt":3380.0999999996275,"stimulus":"You have completed the first part of this experiment.<br><br>You will now begin a shorter second part, in which you will receive no feedback.<br>The same rules regarding bonus pay apply.<br><br>Press any key to begin.","response":" ","trial_type":"html-keyboard-response","trial_index":139,"time_elapsed":277537,"internal_node_id":"0.0-5.0","subject_id":"613821b4edc8fbcf2726c6ed","study_id":"6197b3f67c2b5cd3b6d9596a","session_id":"619be78a0bb6221811f3187e","condition":"full-information","relevant_dimensions":["antennae","pattern"],"bee_group":{"antennae":"B","wings":"X","pattern":"D","legs":"X"},"bonus":0.12000000000000001},{"rt":1570.800000000745,"stimulus":"bees-with-color/bee-A2SM.svg","response":0,"trial_type":"image-button-response","trial_index":140,"time_elapsed":279118,"internal_node_id":"0.0-6.0-0.0","subject_id":"613821b4edc8fbcf2726c6ed","study_id":"6197b3f67c2b5cd3b6d9596a","session_id":"619be78a0bb6221811f3187e","condition":"full-information","relevant_dimensions":["antennae","pattern"],"bee_group":{"antennae":"B","wings":"X","pattern":"D","legs":"X"},"bonus":0.12000000000000001},{"rt":1254.800000000745,"stimulus":"bees-with-color/bee-B2SF.svg","response":1,"trial_type":"image-button-response","trial_index":141,"time_elapsed":280378,"internal_node_id":"0.0-6.0-0.1","subject_id":"613821b4edc8fbcf2726c6ed","study_id":"6197b3f67c2b5cd3b6d9596a","session_id":"619be78a0bb6221811f3187e","condition":"full-information","relevant_dimensions":["antennae","pattern"],"bee_group":{"antennae":"B","wings":"X","pattern":"D","legs":"X"},"bonus":0.12000000000000001},{"rt":644.8000000007451,"stimulus":"bees-with-color/bee-B1DF.svg","response":0,"trial_type":"image-button-response","trial_index":142,"time_elapsed":281027,"internal_node_id":"0.0-6.0-0.2","subject_id":"613821b4edc8fbcf2726c6ed","study_id":"6197b3f67c2b5cd3b6d9596a","session_id":"619be78a0bb6221811f3187e","condition":"full-information","relevant_dimensions":["antennae","pattern"],"bee_group":{"antennae":"B","wings":"X","pattern":"D","legs":"X"},"bonus":0.12000000000000001},{"rt":327.30000000074506,"stimulus":"bees-with-color/bee-A2DM.svg","response":0,"trial_type":"image-button-response","trial_index":143,"time_elapsed":281359,"internal_node_id":"0.0-6.0-0.3","subject_id":"613821b4edc8fbcf2726c6ed","study_id":"6197b3f67c2b5cd3b6d9596a","session_id":"619be78a0bb6221811f3187e","condition":"full-information","relevant_dimensions":["antennae","pattern"],"bee_group":{"antennae":"B","wings":"X","pattern":"D","legs":"X"},"bonus":0.12000000000000001},{"rt":238.5,"stimulus":"bees-with-color/bee-B2SM.svg","response":0,"trial_type":"image-button-response","trial_index":144,"time_elapsed":281602,"internal_node_id":"0.0-6.0-0.4","subject_id":"613821b4edc8fbcf2726c6ed","study_id":"6197b3f67c2b5cd3b6d9596a","session_id":"619be78a0bb6221811f3187e","condition":"full-information","relevant_dimensions":["antennae","pattern"],"bee_group":{"antennae":"B","wings":"X","pattern":"D","legs":"X"},"bonus":0.12000000000000001},{"rt":222.90000000037253,"stimulus":"bees-with-color/bee-A2DF.svg","response":0,"trial_type":"image-button-response","trial_index":145,"time_elapsed":281830,"internal_node_id":"0.0-6.0-0.5","subject_id":"613821b4edc8fbcf2726c6ed","study_id":"6197b3f67c2b5cd3b6d9596a","session_id":"619be78a0bb6221811f3187e","condition":"full-information","relevant_dimensions":["antennae","pattern"],"bee_group":{"antennae":"B","wings":"X","pattern":"D","legs":"X"},"bonus":0.12000000000000001},{"rt":158.69999999925494,"stimulus":"bees-with-color/bee-B2DM.svg","response":0,"trial_type":"image-button-response","trial_index":146,"time_elapsed":281993,"internal_node_id":"0.0-6.0-0.6","subject_id":"613821b4edc8fbcf2726c6ed","study_id":"6197b3f67c2b5cd3b6d9596a","session_id":"619be78a0bb6221811f3187e","condition":"full-information","relevant_dimensions":["antennae","pattern"],"bee_group":{"antennae":"B","wings":"X","pattern":"D","legs":"X"},"bonus":0.12000000000000001},{"rt":156.7999999988824,"stimulus":"bees-with-color/bee-A1DM.svg","response":0,"trial_type":"image-button-response","trial_index":147,"time_elapsed":282154,"internal_node_id":"0.0-6.0-0.7","subject_id":"613821b4edc8fbcf2726c6ed","study_id":"6197b3f67c2b5cd3b6d9596a","session_id":"619be78a0bb6221811f3187e","condition":"full-information","relevant_dimensions":["antennae","pattern"],"bee_group":{"antennae":"B","wings":"X","pattern":"D","legs":"X"},"bonus":0.12000000000000001},{"rt":149.40000000037253,"stimulus":"bees-with-color/bee-B1SM.svg","response":0,"trial_type":"image-button-response","trial_index":148,"time_elapsed":282308,"internal_node_id":"0.0-6.0-0.8","subject_id":"613821b4edc8fbcf2726c6ed","study_id":"6197b3f67c2b5cd3b6d9596a","session_id":"619be78a0bb6221811f3187e","condition":"full-information","relevant_dimensions":["antennae","pattern"],"bee_group":{"antennae":"B","wings":"X","pattern":"D","legs":"X"},"bonus":0.12000000000000001},{"rt":149.90000000037253,"stimulus":"bees-with-color/bee-B1DM.svg","response":0,"trial_type":"image-button-response","trial_index":149,"time_elapsed":282463,"internal_node_id":"0.0-6.0-0.9","subject_id":"613821b4edc8fbcf2726c6ed","study_id":"6197b3f67c2b5cd3b6d9596a","session_id":"619be78a0bb6221811f3187e","condition":"full-information","relevant_dimensions":["antennae","pattern"],"bee_group":{"antennae":"B","wings":"X","pattern":"D","legs":"X"},"bonus":0.12000000000000001},{"rt":149.5,"stimulus":"bees-with-color/bee-A1SM.svg","response":0,"trial_type":"image-button-response","trial_index":150,"time_elapsed":282617,"internal_node_id":"0.0-6.0-0.10","subject_id":"613821b4edc8fbcf2726c6ed","study_id":"6197b3f67c2b5cd3b6d9596a","session_id":"619be78a0bb6221811f3187e","condition":"full-information","relevant_dimensions":["antennae","pattern"],"bee_group":{"antennae":"B","wings":"X","pattern":"D","legs":"X"},"bonus":0.12000000000000001},{"rt":206.40000000037253,"stimulus":"bees-with-color/bee-A2SF.svg","response":0,"trial_type":"image-button-response","trial_index":151,"time_elapsed":282827,"internal_node_id":"0.0-6.0-0.11","subject_id":"613821b4edc8fbcf2726c6ed","study_id":"6197b3f67c2b5cd3b6d9596a","session_id":"619be78a0bb6221811f3187e","condition":"full-information","relevant_dimensions":["antennae","pattern"],"bee_group":{"antennae":"B","wings":"X","pattern":"D","legs":"X"},"bonus":0.12000000000000001},{"rt":143.19999999925494,"stimulus":"bees-with-color/bee-A1SF.svg","response":0,"trial_type":"image-button-response","trial_index":152,"time_elapsed":282974,"internal_node_id":"0.0-6.0-0.12","subject_id":"613821b4edc8fbcf2726c6ed","study_id":"6197b3f67c2b5cd3b6d9596a","session_id":"619be78a0bb6221811f3187e","condition":"full-information","relevant_dimensions":["antennae","pattern"],"bee_group":{"antennae":"B","wings":"X","pattern":"D","legs":"X"},"bonus":0.12000000000000001},{"rt":150,"stimulus":"bees-with-color/bee-B2DF.svg","response":0,"trial_type":"image-button-response","trial_index":153,"time_elapsed":283128,"internal_node_id":"0.0-6.0-0.13","subject_id":"613821b4edc8fbcf2726c6ed","study_id":"6197b3f67c2b5cd3b6d9596a","session_id":"619be78a0bb6221811f3187e","condition":"full-information","relevant_dimensions":["antennae","pattern"],"bee_group":{"antennae":"B","wings":"X","pattern":"D","legs":"X"},"bonus":0