[{"success":true,"trial_type":"fullscreen","trial_index":0,"time_elapsed":10705,"internal_node_id":"0.0-0.0","subject_id":"6094c7c1995d311119f84c43","study_id":"60edd13110225f80f9f3709b","session_id":"6196bf64a62601b9a57fc3ec","condition":"contingent","relevant_dimensions":["pattern","legs"],"bee_group":{"antennae":"X","wings":"X","pattern":"S","legs":"F"},"bonus":0.8200000000000007},{"success":true,"timeout":false,"failed_images":[],"failed_audio":[],"failed_video":[],"trial_type":"preload","trial_index":1,"time_elapsed":12127,"internal_node_id":"0.0-1.0","subject_id":"6094c7c1995d311119f84c43","study_id":"60edd13110225f80f9f3709b","session_id":"6196bf64a62601b9a57fc3ec","condition":"contingent","relevant_dimensions":["pattern","legs"],"bee_group":{"antennae":"X","wings":"X","pattern":"S","legs":"F"},"bonus":0.8200000000000007},{"rt":2235.60000000149,"stimulus":"Welcome! Press any key to begin.","response":"arrowup","trial_type":"html-keyboard-response","trial_index":2,"time_elapsed":14364,"internal_node_id":"0.0-2.0","subject_id":"6094c7c1995d311119f84c43","study_id":"60edd13110225f80f9f3709b","session_id":"6196bf64a62601b9a57fc3ec","condition":"contingent","relevant_dimensions":["pattern","legs"],"bee_group":{"antennae":"X","wings":"X","pattern":"S","legs":"F"},"bonus":0.8200000000000007},{"view_history":[{"page_index":0,"viewing_time":4198},{"page_index":1,"viewing_time":17472.09999999404},{"page_index":2,"viewing_time":13152.40000000596},{"page_index":3,"viewing_time":22072.29999999702},{"page_index":4,"viewing_time":10272.70000000298},{"page_index":5,"viewing_time":8711.39999999851},{"page_index":6,"viewing_time":12896.19999999553},{"page_index":7,"viewing_time":19264.30000000447},{"page_index":8,"viewing_time":5352.19999999553},{"page_index":9,"viewing_time":3816},{"page_index":10,"viewing_time":4488},{"page_index":11,"viewing_time":17536.5},{"page_index":12,"viewing_time":10592},{"page_index":13,"viewing_time":1296.1000000014901},{"page_index":14,"viewing_time":3696.10000000149}],"rt":154816.5,"trial_type":"instructions","trial_index":3,"time_elapsed":169181,"internal_node_id":"0.0-3.0-0.0","subject_id":"6094c7c1995d311119f84c43","study_id":"60edd13110225f80f9f3709b","session_id":"6196bf64a62601b9a57fc3ec","condition":"contingent","relevant_dimensions":["pattern","legs"],"bee_group":{"antennae":"X","wings":"X","pattern":"S","legs":"F"},"bonus":0.8200000000000007},{"rt":16701.5,"response":{"Q0":["Two or six legs","Stripes or spots on body","Single or double wings","Antennae or no antennae"]},"question_order":[0],"trial_type":"survey-multi-select","trial_index":4,"time_elapsed":185886,"internal_node_id":"0.0-3.0-1.0","subject_id":"6094c7c1995d311119f84c43","study_id":"60edd13110225f80f9f3709b","session_id":"6196bf64a62601b9a57fc3ec","condition":"contingent","relevant_dimensions":["pattern","legs"],"bee_group":{"antennae":"X","wings":"X","pattern":"S","legs":"F"},"correct":true,"bonus":0.8200000000000007},{"rt":41764.10000000149,"response":{"Q1":"No.","Q2":"Based on the four features of the bee.","Q3":"You do not learn if it was friendly or dangerous, and do not alter your bonus."},"question_order":[0,1,2],"trial_type":"survey-multi-choice","trial_index":5,"time_elapsed":227655,"internal_node_id":"0.0-3.0-2.0","subject_id":"6094c7c1995d311119f84c43","study_id":"60edd13110225f80f9f3709b","session_id":"6196bf64a62601b9a57fc3ec","condition":"contingent","relevant_dimensions":["pattern","legs"],"bee_group":{"antennae":"X","wings":"X","pattern":"S","legs":"F"},"correct":true,"bonus":0.8200000000000007},{"rt":5290.30000000447,"stimulus":"<p>Congrats, you got everything right<br>When you're ready, click the button below to continue to the experiment.</p>","response":0,"trial_type":"html-button-response","trial_index":6,"time_elapsed":232951,"internal_node_id":"0.0-3.0-3.0","subject_id":"6094c7c1995d311119f84c43","study_id":"60edd13110225f80f9f3709b","session_id":"6196bf64a62601b9a57fc3ec","condition":"contingent","relevant_dimensions":["pattern","legs"],"bee_group":{"antennae":"X","wings":"X","pattern":"S","legs":"F"},"bonus":0.8200000000000007},{"rt":8061.60000000149,"stimulus":"bees-with-color/bee-B2SF.svg","response":0,"trial_type":"image-button-response","trial_index":7,"time_elapsed":241015,"internal_node_id":"0.0-4.0-0.0","subject_id":"6094c7c1995d311119f84c43","study_id":"60edd13110225f80f9f3709b","session_id":"6196bf64a62601b9a57fc3ec","condition":"contingent","relevant_dimensions":["pattern","legs"],"bee_group":{"antennae":"X","wings":"X","pattern":"S","legs":"F"},"action":"harvest","summary":"bad-harvest","bonus":0.8200000000000007},{"rt":8213.39999999851,"stimulus":"\n                    <p><b>Action: <em>harvest</em></b></p>\n                    <p>This is the bee that you just saw.</p>\n                    <img src=\"bees-with-color/bee-B2SF.svg\" width=\"200\">\n                    <p><span class=\"redText\">Bad choice, the bee was angry.</span><br><b>You have been stung!</b><br>Your pay has been decreased by $0.10. Your bonus pay is now $0.44.</p>\n            ","response":0,"trial_type":"html-button-response","trial_index":8,"time_elapsed":249231,"internal_node_id":"0.0-4.0-1.0","subject_id":"6094c7c1995d311119f84c43","study_id":"60edd13110225f80f9f3709b","session_id":"6196bf64a62601b9a57fc3ec","condition":"contingent","relevant_dimensions":["pattern","legs"],"bee_group":{"antennae":"X","wings":"X","pattern":"S","legs":"F"},"bonus":0.8200000000000007},{"rt":2526.10000000149,"stimulus":"bees-with-color/bee-A2DM.svg","response":1,"trial_type":"image-button-response","trial_index":9,"time_elapsed":251759,"internal_node_id":"0.0-4.0-0.1","subject_id":"6094c7c1995d311119f84c43","study_id":"60edd13110225f80f9f3709b","session_id":"6196bf64a62601b9a57fc3ec","condition":"contingent","relevant_dimensions":["pattern","legs"],"bee_group":{"antennae":"X","wings":"X","pattern":"S","legs":"F"},"action":"avoid","summary":"bad-avoid","bonus":0.8200000000000007},{"rt":5238,"stimulus":"\n                    <p><b>Action: <em>avoid</em></b></p>\n                    <p>This is the bee that you just saw.</p>\n                    <img src=\"bees-with-color/bee-A2DM.svg\" width=\"200\">\n                    <p><br>Your bonus pay is unchanged, and remains at $0.44.</p>\n            ","response":0,"trial_type":"html-button-response","trial_index":10,"time_elapsed":256999,"internal_node_id":"0.0-4.0-1.1","subject_id":"6094c7c1995d311119f84c43","study_id":"60edd13110225f80f9f3709b","session_id":"6196bf64a62601b9a57fc3ec","condition":"contingent","relevant_dimensions":["pattern","legs"],"bee_group":{"antennae":"X","wings":"X","pattern":"S","legs":"F"},"bonus":0.8200000000000007},{"rt":3302.2999999970198,"stimulus":"bees-with-color/bee-B2DM.svg","response":0,"trial_type":"image-button-response","trial_index":11,"time_elapsed":260303,"internal_node_id":"0.0-4.0-0.2","subject_id":"6094c7c1995d311119f84c43","study_id":"60edd13110225f80f9f3709b","session_id":"6196bf64a62601b9a57fc3ec","condition":"contingent","relevant_dimensions":["pattern","legs"],"bee_group":{"antennae":"X","wings":"X","pattern":"S","legs":"F"},"action":"harvest","summary":"good-harvest","bonus":0.8200000000000007},{"rt":9238.29999999702,"stimulus":"\n                    <p><b>Action: <em>harvest</em></b></p>\n                    <p>This is the bee that you just saw.</p>\n                    <img src=\"bees-with-color/bee-B2DM.svg\" width=\"200\">\n                    <p><span class=\"greenText\"><b>Successful harvest!</b></span><br>Your pay has increased by $0.02. Your bonus pay is now $0.46.</p>\n            ","response":0,"trial_type":"html-button-response","trial_index":12,"time_elapsed":269543,"internal_node_id":"0.0-4.0-1.2","subject_id":"6094c7c1995d311119f84c43","study_id":"60edd13110225f80f9f3709b","session_id":"6196bf64a62601b9a57fc3ec","condition":"contingent","relevant_dimensions":["pattern","legs"],"bee_group":{"antennae":"X","wings":"X","pattern":"S","legs":"F"},"bonus":0.8200000000000007},{"rt":2350.2000000029802,"stimulus":"bees-with-color/bee-B1DM.svg","response":0,"trial_type":"image-button-response","trial_index":13,"time_elapsed":271895,"internal_node_id":"0.0-4.0-0.3","subject_id":"6094c7c1995d311119f84c43","study_id":"60edd13110225f80f9f3709b","session_id":"6196bf64a62601b9a57fc3ec","condition":"contingent","relevant_dimensions":["pattern","legs"],"bee_group":{"antennae":"X","wings":"X","pattern":"S","legs":"F"},"action":"harvest","summary":"good-harvest","bonus":0.8200000000000007},{"rt":3046.60000000149,"stimulus":"\n                    <p><b>Action: <em>harvest</em></b></p>\n                    <p>This is the bee that you just saw.</p>\n                    <img src=\"bees-with-color/bee-B1DM.svg\" width=\"200\">\n                    <p><span class=\"greenText\"><b>Successful harvest!</b></span><br>Your pay has increased by $0.02. Your bonus pay is now $0.48.</p>\n            ","response":0,"trial_type":"html-button-response","trial_index":14,"time_elapsed":274943,"internal_node_id":"0.0-4.0-1.3","subject_id":"6094c7c1995d311119f84c43","study_id":"60edd13110225f80f9f3709b","session_id":"6196bf64a62601b9a57fc3ec","condition":"contingent","relevant_dimensions":["pattern","legs"],"bee_group":{"antennae":"X","wings":"X","pattern":"S","legs":"F"},"bonus":0.8200000000000007},{"rt":3998.39999999851,"stimulus":"bees-with-color/bee-B1DF.svg","response":0,"trial_type":"image-button-response","trial_index":15,"time_elapsed":278943,"internal_node_id":"0.0-4.0-0.4","subject_id":"6094c7c1995d311119f84c43","study_id":"60edd13110225f80f9f3709b","session_id":"6196bf64a62601b9a57fc3ec","condition":"contingent","relevant_dimensions":["pattern","legs"],"bee_group":{"antennae":"X","wings":"X","pattern":"S","legs":"F"},"action":"harvest","summary":"good-harvest","bonus":0.8200000000000007},{"rt":2774.7000000029802,"stimulus":"\n                    <p><b>Action: <em>harvest</em></b></p>\n                    <p>This is the bee that you just saw.</p>\n                    <img src=\"bees-with-color/bee-B1DF.svg\" width=\"200\">\n                    <p><span class=\"greenText\"><b>Successful harvest!</b></span><br>Your pay has increased by $0.02. Your bonus pay is now $0.50.</p>\n            ","response":0,"trial_type":"html-button-response","trial_index":16,"time_elapsed":281719,"internal_node_id":"0.0-4.0-1.4","subject_id":"6094c7c1995d311119f84c43","study_id":"60edd13110225f80f9f3709b","session_id":"6196bf64a62601b9a57fc3ec","condition":"contingent","relevant_dimensions":["pattern","legs"],"bee_group":{"antennae":"X","wings":"X","pattern":"S","legs":"F"},"bonus":0.8200000000000007},{"rt":1622.5,"stimulus":"bees-with-color/bee-B1SM.svg","response":0,"trial_type":"image-button-response","trial_index":17,"time_elapsed":283344,"internal_node_id":"0.0-4.0-0.5","subject_id":"6094c7c1995d311119f84c43","study_id":"60edd13110225f80f9f3709b","session_id":"6196bf64a62601b9a57fc3ec","condition":"contingent","relevant_dimensions":["pattern","legs"],"bee_group":{"antennae":"X","wings":"X","pattern":"S","legs":"F"},"action":"harvest","summary":"good-harvest","bonus":0.8200000000000007},{"rt":2246.60000000149,"stimulus":"\n                    <p><b>Action: <em>harvest</em></b></p>\n                    <p>This is the bee that you just saw.</p>\n                    <img src=\"bees-with-color/bee-B1SM.svg\" width=\"200\">\n                    <p><span class=\"greenText\"><b>Successful harvest!</b></span><br>Your pay has increased by $0.02. Your bonus pay is now $0.52.</p>\n            ","response":0,"trial_type":"html-button-response","trial_index":18,"time_elapsed":285591,"internal_node_id":"0.0-4.0-1.5","subject_id":"6094c7c1995d311119f84c43","study_id":"60edd13110225f80f9f3709b","session_id":"6196bf64a62601b9a57fc3ec","condition":"contingent","relevant_dimensions":["pattern","legs"],"bee_group":{"antennae":"X","wings":"X","pattern":"S","legs":"F"},"bonus":0.8200000000000007},{"rt":2958.0999999940395,"stimulus":"bees-with-color/bee-B1SF.svg","response":0,"trial_type":"image-button-response","trial_index":19,"time_elapsed":288551,"internal_node_id":"0.0-4.0-0.6","subject_id":"6094c7c1995d311119f84c43","study_id":"60edd13110225f80f9f3709b","session_id":"6196bf64a62601b9a57fc3ec","condition":"contingent","relevant_dimensions":["pattern","legs"],"bee_group":{"antennae":"X","wings":"X","pattern":"S","legs":"F"},"action":"harvest","summary":"bad-harvest","bonus":0.8200000000000007},{"rt":11214.89999999851,"stimulus":"\n                    <p><b>Action: <em>harvest</em></b></p>\n                    <p>This is the bee that you just saw.</p>\n                    <img src=\"bees-with-color/bee-B1SF.svg\" width=\"200\">\n                    <p><span class=\"redText\">Bad choice, the bee was angry.</span><br><b>You have been stung!</b><br>Your pay has been decreased by $0.10. Your bonus pay is now $0.42.</p>\n            ","response":0,"trial_type":"html-button-response","trial_index":20,"time_elapsed":299768,"internal_node_id":"0.0-4.0-1.6","subject_id":"6094c7c1995d311119f84c43","study_id":"60edd13110225f80f9f3709b","session_id":"6196bf64a62601b9a57fc3ec","condition":"contingent","relevant_dimensions":["pattern","legs"],"bee_group":{"antennae":"X","wings":"X","pattern":"S","legs":"F"},"bonus":0.8200000000000007},{"rt":2182.5,"stimulus":"bees-with-color/bee-B2DF.svg","response":1,"trial_type":"image-button-response","trial_index":21,"time_elapsed":301952,"internal_node_id":"0.0-4.0-0.7","subject_id":"6094c7c1995d311119f84c43","study_id":"60edd13110225f80f9f3709b","session_id":"6196bf64a62601b9a57fc3ec","condition":"contingent","relevant_dimensions":["pattern","legs"],"bee_group":{"antennae":"X","wings":"X","pattern":"S","legs":"F"},"action":"avoid","summary":"bad-avoid","bonus":0.8200000000000007},{"rt":1798.7000000029802,"stimulus":"\n                    <p><b>Action: <em>avoid</em></b></p>\n                    <p>This is the bee that you just saw.</p>\n                    <img src=\"bees-with-color/bee-B2DF.svg\" width=\"200\">\n                    <p><br>Your bonus pay is unchanged, and remains at $0.42.</p>\n            ","response":0,"trial_type":"html-button-response","trial_index":22,"time_elapsed":303752,"internal_node_id":"0.0-4.0-1.7","subject_id":"6094c7c1995d311119f84c43","study_id":"60edd13110225f80f9f3709b","session_id":"6196bf64a62601b9a57fc3ec","condition":"contingent","relevant_dimensions":["pattern","legs"],"bee_group":{"antennae":"X","wings":"X","pattern":"S","legs":"F"},"bonus":0.8200000000000007},{"rt":2238.39999999851,"stimulus":"bees-with-color/bee-A2SF.svg","response":1,"trial_type":"image-button-response","trial_index":23,"time_elapsed":305992,"internal_node_id":"0.0-4.0-0.8","subject_id":"6094c7c1995d311119f84c43","study_id":"60edd13110225f80f9f3709b","session_id":"6196bf64a62601b9a57fc3ec","condition":"contingent","relevant_dimensions":["pattern","legs"],"bee_group":{"antennae":"X","wings":"X","pattern":"S","legs":"F"},"action":"avoid","summary":"good-avoid","bonus":0.8200000000000007},{"rt":1718.8999999985099,"stimulus":"\n                    <p><b>Action: <em>avoid</em></b></p>\n                    <p>This is the bee that you just saw.</p>\n                    <img src=\"bees-with-color/bee-A2SF.svg\" width=\"200\">\n                    <p><br>Your bonus pay is unchanged, and remains at $0.42.</p>\n            ","response":0,"trial_type":"html-button-response","trial_index":24,"time_elapsed":307712,"internal_node_id":"0.0-4.0-1.8","subject_id":"6094c7c1995d311119f84c43","study_id":"60edd13110225f80f9f3709b","session_id":"6196bf64a62601b9a57fc3ec","condition":"contingent","relevant_dimensions":["pattern","legs"],"bee_group":{"antennae":"X","wings":"X","pattern":"S","legs":"F"},"bonus":0.8200000000000007},{"rt":1742.2000000029802,"stimulus":"bees-with-color/bee-A2SM.svg","response":1,"trial_type":"image-button-response","trial_index":25,"time_elapsed":309456,"internal_node_id":"0.0-4.0-0.9","subject_id":"6094c7c1995d311119f84c43","study_id":"60edd13110225f80f9f3709b","session_id":"6196bf64a62601b9a57fc3ec","condition":"contingent","relevant_dimensions":["pattern","legs"],"bee_group":{"antennae":"X","wings":"X","pattern":"S","legs":"F"},"action":"avoid","summary":"bad-avoid","bonus":0.8200000000000007},{"rt":614.6000000014901,"stimulus":"\n                    <p><b>Action: <em>avoid</em></b></p>\n                    <p>This is the bee that you just saw.</p>\n                    <img src=\"bees-with-color/bee-A2SM.svg\" width=\"200\">\n                    <p><br>Your bonus pay is unchanged, and remains at $0.42.</p>\n            ","response":0,"trial_type":"html-button-response","trial_index":26,"time_elapsed":310072,"internal_node_id":"0.0-4.0-1.9","subject_id":"6094c7c1995d311119f84c43","study_id":"60edd13110225f80f9f3709b","session_id":"6196bf64a62601b9a57fc3ec","condition":"contingent","relevant_dimensions":["pattern","legs"],"bee_group":{"antennae":"X","wings":"X","pattern":"S","legs":"F"},"bonus":0.8200000000000007},{"rt":3014.60000000149,"stimulus":"bees-with-color/bee-A2DF.svg","response":1,"trial_type":"image-button-response","trial_index":27,"time_elapsed":313088,"internal_node_id":"0.0-4.0-0.10","subject_id":"6094c7c1995d311119f84c43","study_id":"60edd13110225f80f9f3709b","session_id":"6196bf64a62601b9a57fc3ec","condition":"contingent","relevant_dimensions":["pattern","legs"],"bee_group":{"antennae":"X","wings":"X","pattern":"S","legs":"F"},"action":"avoid","summary":"bad-avoid","bonus":0.8200000000000007},{"rt":638.5,"stimulus":"\n                    <p><b>Action: <em>avoid</em></b></p>\n                    <p>This is the bee that you just saw.</p>\n                    <img src=\"bees-with-color/bee-A2DF.svg\" width=\"200\">\n                    <p><br>Your bonus pay is unchanged, and remains at $0.42.</p>\n            ","response":0,"trial_type":"html-button-response","trial_index":28,"time_elapsed":313728,"internal_node_id":"0.0-4.0-1.10","subject_id":"6094c7c1995d311119f84c43","study_id":"60edd13110225f80f9f3709b","session_id":"6196bf64a62601b9a57fc3ec","condition":"contingent","relevant_dimensions":["pattern","legs"],"bee_group":{"antennae":"X","wings":"X","pattern":"S","legs":"F"},"bonus":0.8200000000000007},{"rt":1198.7000000029802,"stimulus":"bees-with-color/bee-A1SM.svg","response":0,"trial_type":"image-button-response","trial_index":29,"time_elapsed":314928,"internal_node_id":"0.0-4.0-0.11","subject_id":"6094c7c1995d311119f84c43","study_id":"60edd13110225f80f9f3709b","session_id":"6196bf64a62601b9a57fc3ec","condition":"contingent","relevant_dimensions":["pattern","legs"],"bee_group":{"antennae":"X","wings":"X","pattern":"S","legs":"F"},"action":"harvest","summary":"good-harvest","bonus":0.8200000000000007},{"rt":50319.5,"stimulus":"\n                    <p><b>Action: <em>harvest</em></b></p>\n                    <p>This is the bee that you just saw.</p>\n                    <img src=\"bees-with-color/bee-A1SM.svg\" width=\"200\">\n                    <p><span class=\"greenText\"><b>Successful harvest!</b></span><br>Your pay has increased by $0.02. Your bonus pay is now $0.44.</p>\n            ","response":0,"trial_type":"html-button-response","trial_index":30,"time_elapsed":365249,"internal_node_id":"0.0-4.0-1.11","subject_id":"6094c7c1995d311119f84c43","study_id":"60edd13110225f80f9f3709b","session_id":"6196bf64a62601b9a57fc3ec","condition":"contingent","relevant_dimensions":["pattern","legs"],"bee_group":{"antennae":"X","wings":"X","pattern":"S","legs":"F"},"bonus":0.8200000000000007},{"rt":3478.39999999851,"stimulus":"bees-with-color/bee-A1DM.svg","response":0,"trial_type":"image-button-response","trial_index":31,"time_elapsed":368729,"internal_node_id":"0.0-4.0-0.12","subject_id":"6094c7c1995d311119f84c43","study_id":"60edd13110225f80f9f3709b","session_id":"6196bf64a62601b9a57fc3ec","condition":"contingent","relevant_dimensions":["pattern","legs"],"bee_group":{"antennae":"X","wings":"X","pattern":"S","legs":"F"},"action":"harvest","summary":"good-harvest","bonus":0.8200000000000007},{"rt":25735,"stimulus":"\n                    <p><b>Action: <em>harvest</em></b></p>\n                    <p>This is the bee that you just saw.</p>\n                    <img src=\"bees-with-color/bee-A1DM.svg\" width=\"200\">\n                    <p><span class=\"greenText\"><b>Successful harvest!</b></span><br>Your pay has increased by $0.02. Your bonus pay is now $0.46.</p>\n            ","response":0,"trial_type":"html-button-response","trial_index":32,"time_elapsed":394465,"internal_node_id":"0.0-4.0-1.12","subject_id":"6094c7c1995d311119f84c43","study_id":"60edd13110225f80f9f3709b","session_id":"6196bf64a62601b9a57fc3ec","condition":"contingent","relevant_dimensions":["pattern","legs"],"bee_group":{"antennae":"X","wings":"X","pattern":"S","legs":"F"},"bonus":0.8200000000000007},{"rt":3062.39999999851,"stimulus":"bees-with-color/bee-A1DF.svg","response":0,"trial_type":"image-button-response","trial_index":33,"time_elapsed":397529,"internal_node_id":"0.0-4.0-0.13","subject_id":"6094c7c1995d311119f84c43","study_id":"60edd13110225f80f9f3709b","session_id":"6196bf64a62601b9a57fc3ec","condition":"contingent","relevant_dimensions":["pattern","legs"],"bee_group":{"antennae":"X","wings":"X","pattern":"S","legs":"F"},"action":"harvest","summary":"good-harvest","bonus":0.8200000000000007},{"rt":24767.09999999404,"stimulus":"\n                    <p><b>Action: <em>harvest</em></b></p>\n                    <p>This is the bee that you just saw.</p>\n                    <img src=\"bees-with-color/bee-A1DF.svg\" width=\"200\">\n                    <p><span class=\"greenText\"><b>Successful harvest!</b></span><br>Your pay has increased by $0.02. Your bonus pay is now $0.48.</p>\n            ","response":0,"trial_type":"html-button-response","trial_index":34,"time_elapsed":422297,"internal_node_id":"0.0-4.0-1.13","subject_id":"6094c7c1995d311119f84c43","study_id":"60edd13110225f80f9f3709b","session_id":"6196bf64a62601b9a57fc3ec","condition":"contingent","relevant_dimensions":["pattern","legs"],"bee_group":{"antennae":"X","wings":"X","pattern":"S","legs":"F"},"bonus":0.8200000000000007},{"rt":3327,"stimulus":"bees-with-color/bee-A1SF.svg","response":0,"trial_type":"image-button-response","trial_index":35,"time_elapsed":425626,"internal_node_id":"0.0-4.0-0.14","subject_id":"6094c7c1995d311119f84c43","study_id":"60edd13110225f80f9f3709b","session_id":"6196bf64a62601b9a57fc3ec","condition":"contingent","relevant_dimensions":["pattern","legs"],"bee_group":{"antennae":"X","wings":"X","pattern":"S","legs":"F"},"action":"harvest","summary":"bad-harvest","bonus":0.8200000000000007},{"rt":35814.19999999553,"stimulus":"\n                    <p><b>Action: <em>harvest</em></b></p>\n                    <p>This is the bee that you just saw.</p>\n                    <img src=\"bees-with-color/bee-A1SF.svg\" width=\"200\">\n                    <p><span class=\"redText\">Bad choice, the bee was angry.</span><br><b>You have been stung!</b><br>Your pay has been decreased by $0.10. Your bonus pay is now $0.38.</p>\n            ","response":0,"trial_type":"html-button-response","trial_index":36,"time_elapsed":461442,"internal_node_id":"0.0-4.0-1.14","subject_id":"6094c7c1995d311119f84c43","study_id":"60edd13110225f80f9f3709b","session_id":"6196bf64a62601b9a57fc3ec","condition":"contingent","relevant_dimensions":["pattern","legs"],"bee_group":{"antennae":"X","wings":"X","pattern":"S","legs":"F"},"bonus":0.8200000000000007},{"rt":1774,"stimulus":"bees-with-color/bee-B2SM.svg","response":1,"trial_type":"image-button-response","trial_index":37,"time_elapsed":463218,"internal_node_id":"0.0-4.0-0.15","subject_id":"6094c7c1995d311119f84c43","study_id":"60edd13110225f80f9f3709b","session_id":"6196bf64a62601b9a57fc3ec","condition":"contingent","relevant_dimensions":["pattern","legs"],"bee_group":{"antennae":"X","wings":"X","pattern":"S","legs":"F"},"action":"avoid","summary":"bad-avoid","bonus":0.8200000000000007},{"rt":1246.6000000014901,"stimulus":"\n                    <p><b>Action: <em>avoid</em></b></p>\n                    <p>This is the bee that you just saw.</p>\n                    <img src=\"bees-with-color/bee-B2SM.svg\" width=\"200\">\n                    <p><br>Your bonus pay is unchanged, and remains at $0.38.</p>\n            ","response":0,"trial_type":"html-button-response","trial_index":38,"time_elapsed":464466,"internal_node_id":"0.0-4.0-1.15","subject_id":"6094c7c1995d311119f84c43","study_id":"60edd13110225f80f9f3709b","session_id":"6196bf64a62601b9a57fc3ec","condition":"contingent","relevant_dimensions":["pattern","legs"],"bee_group":{"antennae":"X","wings":"X","pattern":"S","legs":"F"},"bonus":0.8200000000000007},{"rt":2182.9000000059605,"stimulus":"bees-with-color/bee-B1DF.svg","response":0,"trial_type":"image-button-response","trial_index":39,"time_elapsed":466650,"internal_node_id":"0.0-4.0-0.16","subject_id":"6094c7c1995d311119f84c43","study_id":"60edd13110225f80f9f3709b","session_id":"6196bf64a62601b9a57fc3ec","condition":"contingent","relevant_dimensions":["pattern","legs"],"bee_group":{"antennae":"X","wings":"X","pattern":"S","legs":"F"},"action":"harvest","summary":"good-harvest","bonus":0.8200000000000007},{"rt":29598.29999999702,"stimulus":"\n                    <p><b>Action: <em>harvest</em></b></p>\n                    <p>This is the bee that you just saw.</p>\n                    <img src=\"bees-with-color/bee-B1DF.svg\" width=\"200\">\n                    <p><span class=\"greenText\"><b>Successful harvest!</b></span><br>Your pay has increased by $0.02. Your bonus pay is now $0.40.</p>\n            ","response":0,"trial_type":"html-button-response","trial_index":40,"time_elapsed":496250,"internal_node_id":"0.0-4.0-1.16","subject_id":"6094c7c1995d311119f84c43","study_id":"60edd13110225f80f9f3709b","session_id":"6196bf64a62601b9a57fc3ec","condition":"contingent","relevant_dimensions":["pattern","legs"],"bee_group":{"antennae":"X","wings":"X","pattern":"S","legs":"F"},"bonus":0.8200000000000007},{"rt":2974.2999999970198,"stimulus":"bees-with-color/bee-B2DF.svg","response":1,"trial_type":"image-button-response","trial_index":41,"time_elapsed":499227,"internal_node_id":"0.0-4.0-0.17","subject_id":"6094c7c1995d311119f84c43","study_id":"60edd13110225f80f9f3709b","session_id":"6196bf64a62601b9a57fc3ec","condition":"contingent","relevant_dimensions":["pattern","legs"],"bee_group":{"antennae":"X","wings":"X","pattern":"S","legs":"F"},"action":"avoid","summary":"bad-avoid","bonus":0.8200000000000007},{"rt":1190.3999999985099,"stimulus":"\n                    <p><b>Action: <em>avoid</em></b></p>\n                    <p>This is the bee that you just saw.</p>\n                    <img src=\"bees-with-color/bee-B2DF.svg\" width=\"200\">\n                    <p><br>Your bonus pay is unchanged, and remains at $0.40.</p>\n            ","response":0,"trial_type":"html-button-response","trial_index":42,"time_elapsed":500419,"internal_node_id":"0.0-4.0-1.17","subject_id":"6094c7c1995d311119f84c43","study_id":"60edd13110225f80f9f3709b","session_id":"6196bf64a62601b9a57fc3ec","condition":"contingent","relevant_dimensions":["pattern","legs"],"bee_group":{"antennae":"X","wings":"X","pattern":"S","legs":"F"},"bonus":0.8200000000000007},{"rt":3134.5,"stimulus":"bees-with-color/bee-B2SM.svg","response":1,"trial_type":"image-button-response","trial_index":43,"time_elapsed":503555,"internal_node_id":"0.0-4.0-0.18","subject_id":"6094c7c1995d311119f84c43","study_id":"60edd13110225f80f9f3709b","session_id":"6196bf64a62601b9a57fc3ec","condition":"contingent","relevant_dimensions":["pattern","legs"],"bee_group":{"antennae":"X","wings":"X","pattern":"S","legs":"F"},"action":"avoid","summary":"bad-avoid","bonus":0.8200000000000007},{"rt":886.6000000014901,"stimulus":"\n                    <p><b>Action: <em>avoid</em></b></p>\n                    <p>This is the bee that you just saw.</p>\n                    <img src=\"bees-with-color/bee-B2SM.svg\" width=\"200\">\n                    <p><br>Your bonus pay is unchanged, and remains at $0.40.</p>\n            ","response":0,"trial_type":"html-button-response","trial_index":44,"time_elapsed":504443,"internal_node_id":"0.0-4.0-1.18","subject_id":"6094c7c1995d311119f84c43","study_id":"60edd13110225f80f9f3709b","session_id":"6196bf64a62601b9a57fc3ec","condition":"contingent","relevant_dimensions":["pattern","legs"],"bee_group":{"antennae":"X","wings":"X","pattern":"S","legs":"F"},"bonus":0.8200000000000007},{"rt":2069.7000000029802,"stimulus":"bees-with-color/bee-A2DF.svg","response":1,"trial_type":"image-button-response","trial_index":45,"time_elapsed":506515,"internal_node_id":"0.0-4.0-0.19","subject_id":"6094c7c1995d311119f84c43","study_id":"60edd13110225f80f9f3709b","session_id":"6196bf64a62601b9a57fc3ec","condition":"contingent","relevant_dimensions":["pattern","legs"],"bee_group":{"antennae":"X","wings":"X","pattern":"S","legs":"F"},"action":"avoid","summary":"bad-avoid","bonus":0.8200000000000007},{"rt":542.5,"stimulus":"\n                    <p><b>Action: <em>avoid</em></b></p>\n                    <p>This is the bee that you just saw.</p>\n                    <img src=\"bees-with-color/bee-A2DF.svg\" width=\"200\">\n                    <p><br>Your bonus pay is unchanged, and remains at $0.40.</p>\n            ","response":0,"trial_type":"html-button-response","trial_index":46,"time_elapsed":507059,"internal_node_id":"0.0-4.0-1.19","subject_id":"6094c7c1995d311119f84c43","study_id":"60edd13110225f80f9f3709b","session_id":"6196bf64a62601b9a57fc3ec","condition":"contingent","relevant_dimensions":["pattern","legs"],"bee_group":{"antennae":"X","wings":"X","pattern":"S","legs":"F"},"bonus":0.8200000000000007},{"rt":1558.7000000029802,"stimulus":"bees-with-color/bee-A2SF.svg","response":1,"trial_type":"image-button-response","trial_index":47,"time_elapsed":508619,"internal_node_id":"0.0-4.0-0.20","subject_id":"6094c7c1995d311119f84c43","study_id":"60edd13110225f80f9f3709b","session_id":"6196bf64a62601b9a57fc3ec","condition":"contingent","relevant_dimensions":["pattern","legs"],"bee_group":{"antennae":"X","wings":"X","pattern":"S","legs":"F"},"action":"avoid","summary":"good-avoid","bonus":0.8200000000000007},{"rt":510.3999999985099,"stimulus":"\n                    <p><b>Action: <em>avoid</em></b></p>\n                    <p>This is the bee that you just saw.</p>\n                    <img src=\"bees-with-color/bee-A2SF.svg\" width=\"200\">\n                    <p><br>Your bonus pay is unchanged, and remains at $0.40.</p>\n            ","response":0,"trial_type":"html-button-response","trial_index":48,"time_elapsed":509130,"internal_node_id":"0.0-4.0-1.20","subject_id":"6094c7c1995d311119f84c43","study_id":"60edd13110225f80f9f3709b","session_id":"6196bf64a62601b9a57fc3ec","condition":"contingent","relevant_dimensions":["pattern","legs"],"bee_group":{"antennae":"X","wings":"X","pattern":"S","legs":"F"},"bonus":0.8200000000000007},{"rt":4335.0999999940395,"stimulus":"bees-with-color/bee-A1SF.svg","response":0,"trial_type":"image-button-response","trial_index":49,"time_elapsed":513467,"internal_node_id":"0.0-4.0-0.21","subject_id":"6094c7c1995d311119f84c43","study_id":"60edd13110225f80f9f3709b","session_id":"6196bf64a62601b9a57fc3ec","condition":"contingent","relevant_dimensions":["pattern","legs"],"bee_group":{"antennae":"X","wings":"X","pattern":"S","legs":"F"},"action":"harvest","summary":"bad-harvest","bonus":0.8200000000000007},{"rt":14055,"stimulus":"\n                    <p><b>Action: <em>harvest</em></b></p>\n                    <p>This is the bee that you just saw.</p>\n                    <img src=\"bees-with-color/bee-A1SF.svg\" width=\"200\">\n                    <p><span class=\"redText\">Bad choice, the bee was angry.</span><br><b>You have been stung!</b><br>Your pay has been decreased by $0.10. Your bonus pay is now $0.30.</p>\n            ","response":0,"trial_type":"html-button-response","trial_index":50,"time_elapsed":527523,"internal_node_id":"0.0-4.0-1.21","subject_id":"6094c7c1995d311119f84c43","study_id":"60edd13110225f80f9f3709b","session_id":"6196bf64a62601b9a57fc3ec","condition":"contingent","relevant_dimensions":["pattern","legs"],"bee_group":{"antennae":"X","wings":"X","pattern":"S","legs":"F"},"bonus":0.8200000000000007},{"rt":12110.60000000149,"stimulus":"bees-with-color/bee-A1DF.svg","response":0,"trial_type":"image-button-response","trial_index":51,"time_elapsed":539635,"internal_node_id":"0.0-4.0-0.22","subject_id":"6094c7c1995d311119f84c43","study_id":"60edd13110225f80f9f3709b","session_id":"6196bf64a62601b9a57fc3ec","condition":"contingent","relevant_dimensions":["pattern","legs"],"bee_group":{"antennae":"X","wings":"X","pattern":"S","legs":"F"},"action":"harvest","summary":"good-harvest","bonus":0.8200000000000007},{"rt":2502.8000000044703,"stimulus":"\n                    <p><b>Action: <em>harvest</em></b></p>\n                    <p>This is the bee that you just saw.</p>\n                    <img src=\"bees-with-color/bee-A1DF.svg\" width=\"200\">\n                    <p><span class=\"greenText\"><b>Successful harvest!</b></span><br>Your pay has increased by $0.02. Your bonus pay is now $0.32.</p>\n            ","response":0,"trial_type":"html-button-response","trial_index":52,"time_elapsed":542139,"internal_node_id":"0.0-4.0-1.22","subject_id":"6094c7c1995d311119f84c43","study_id":"60edd13110225f80f9f3709b","session_id":"6196bf64a62601b9a57fc3ec","condition":"contingent","relevant_dimensions":["pattern","legs"],"bee_group":{"antennae":"X","wings":"X","pattern":"S","legs":"F"},"bonus":0.8200000000000007},{"rt":13134.69999999553,"stimulus":"bees-with-color/bee-B1SM.svg","response":0,"trial_type":"image-button-response","trial_index":53,"time_elapsed":555275,"internal_node_id":"0.0-4.0-0.23","subject_id":"6094c7c1995d311119f84c43","study_id":"60edd13110225f80f9f3709b","session_id":"6196bf64a62601b9a57fc3ec","condition":"contingent","relevant_dimensions":["pattern","legs"],"bee_group":{"antennae":"X","wings":"X","pattern":"S","legs":"F"},"action":"harvest","summary":"good-harvest","bonus":0.8200000000000007},{"rt":13343,"stimulus":"\n                    <p><b>Action: <em>harvest</em></b></p>\n                    <p>This is the bee that you just saw.</p>\n                    <img src=\"bees-with-color/bee-B1SM.svg\" width=\"200\">\n                    <p><span class=\"greenText\"><b>Successful harvest!</b></span><br>Your pay has increased by $0.02. Your bonus pay is now $0.34.</p>\n            ","response":0,"trial_type":"html-button-response","trial_index":54,"time_elapsed":568619,"internal_node_id":"0.0-4.0-1.23","subject_id":"6094c7c1995d311119f84c43","study_id":"60edd13110225f80f9f3709b","session_id":"6196bf64a62601b9a57fc3ec","condition":"contingent","relevant_dimensions":["pattern","legs"],"bee_group":{"antennae":"X","wings":"X","pattern":"S","legs":"F"},"bonus":0.8200000000000007},{"rt":2286.5,"stimulus":"bees-with-color/bee-A2SM.svg","response":1,"trial_type":"image-button-response","trial_index":55,"time_elapsed":570907,"internal_node_id":"0.0-4.0-0.24","subject_id":"6094c7c1995d311119f84c43","study_id":"60edd13110225f80f9f3709b","session_id":"6196bf64a62601b9a57fc3ec","condition":"contingent","relevant_dimensions":["pattern","legs"],"bee_group":{"antennae":"X","wings":"X","pattern":"S","legs":"F"},"action":"avoid","summary":"bad-avoid","bonus":0.8200000000000007},{"rt":1174.7000000029802,"stimulus":"\n                    <p><b>Action: <em>avoid</em></b></p>\n                    <p>This is the bee that you just saw.</p>\n                    <img src=\"bees-with-color/bee-A2SM.svg\" width=\"200\">\n                    <p><br>Your bonus pay is unchanged, and remains at $0.34.</p>\n            ","response":0,"trial_type":"html-button-response","trial_index":56,"time_elapsed":572083,"internal_node_id":"0.0-4.0-1.24","subject_id":"6094c7c1995d311119f84c43","study_id":"60edd13110225f80f9f3709b","session_id":"6196bf64a62601b9a57fc3ec","condition":"contingent","relevant_dimensions":["pattern","legs"],"bee_group":{"antennae":"X","wings":"X","pattern":"S","legs":"F"},"bonus":0.8200000000000007},{"rt":1494.8999999985099,"stimulus":"bees-with-color/bee-A2DM.svg","response":1,"trial_type":"image-button-response","trial_index":57,"time_elapsed":573579,"internal_node_id":"0.0-4.0-0.25","subject_id":"6094c7c1995d311119f84c43","study_id":"60edd13110225f80f9f3709b","session_id":"6196bf64a62601b9a57fc3ec","condition":"contingent","relevant_dimensions":["pattern","legs"],"bee_group":{"antennae":"X","wings":"X","pattern":"S","legs":"F"},"action":"avoid","summary":"bad-avoid","bonus":0.8200000000000007},{"rt":774.6999999955297,"stimulus":"\n                    <p><b>Action: <em>avoid</em></b></p>\n                    <p>This is the bee that you just saw.</p>\n                    <img src=\"bees-with-color/bee-A2DM.svg\" width=\"200\">\n                    <p><br>Your bonus pay is unchanged, and remains at $0.34.</p>\n            ","response":0,"trial_type":"html-button-response","trial_index":58,"time_elapsed":574355,"internal_node_id":"0.0-4.0-1.25","subject_id":"6094c7c1995d311119f84c43","study_id":"60edd13110225f80f9f3709b","session_id":"6196bf64a62601b9a57fc3ec","condition":"contingent","relevant_dimensions":["pattern","legs"],"bee_group":{"antennae":"X","wings":"X","pattern":"S","legs":"F"},"bonus":0.8200000000000007},{"rt":15103.10000000149,"stimulus":"bees-with-color/bee-B1SF.svg","response":1,"trial_type":"image-button-response","trial_index":59,"time_elapsed":589460,"internal_node_id":"0.0-4.0-0.26","subject_id":"6094c7c1995d311119f84c43","study_id":"60edd13110225f80f9f3709b","session_id":"6196bf64a62601b9a57fc3ec","condition":"contingent","relevant_dimensions":["pattern","legs"],"bee_group":{"antennae":"X","wings":"X","pattern":"S","legs":"F"},"action":"avoid","summary":"good-avoid","bonus":0.8200000000000007},{"rt":1406.2999999970198,"stimulus":"\n                    <p><b>Action: <em>avoid</em></b></p>\n                    <p>This is the bee that you just saw.</p>\n                    <img src=\"bees-with-color/bee-B1SF.svg\" width=\"200\">\n                    <p><br>Your bonus pay is unchanged, and remains at $0.34.</p>\n            ","response":0,"trial_type":"html-button-response","trial_index":60,"time_elapsed":590867,"internal_node_id":"0.0-4.0-1.26","subject_id":"6094c7c1995d311119f84c43","study_id":"60edd13110225f80f9f3709b","session_id":"6196bf64a62601b9a57fc3ec","condition":"contingent","relevant_dimensions":["pattern","legs"],"bee_group":{"antennae":"X","wings":"X","pattern":"S","legs":"F"},"bonus":0.8200000000000007},{"rt":9174.60000000149,"stimulus":"bees-with-color/bee-A1SM.svg","response":0,"trial_type":"image-button-response","trial_index":61,"time_elapsed":600044,"internal_node_id":"0.0-4.0-0.27","subject_id":"6094c7c1995d311119f84c43","study_id":"60edd13110225f80f9f3709b","session_id":"6196bf64a62601b9a57fc3ec","condition":"contingent","relevant_dimensions":["pattern","legs"],"bee_group":{"antennae":"X","wings":"X","pattern":"S","legs":"F"},"action":"harvest","summary":"good-harvest","bonus":0.8200000000000007},{"rt":1742.6000000014901,"stimulus":"\n                    <p><b>Action: <em>harvest</em></b></p>\n                    <p>This is the bee that you just saw.</p>\n                    <img src=\"bees-with-color/bee-A1SM.svg\" width=\"200\">\n                    <p><span class=\"greenText\"><b>Successful harvest!</b></span><br>Your pay has increased by $0.02. Your bonus pay is now $0.36.</p>\n            ","response":0,"trial_type":"html-button-response","trial_index":62,"time_elapsed":601788,"internal_node_id":"0.0-4.0-1.27","subject_id":"6094c7c1995d311119f84c43","study_id":"60edd13110225f80f9f3709b","session_id":"6196bf64a62601b9a57fc3ec","condition":"contingent","relevant_dimensions":["pattern","legs"],"bee_group":{"antennae":"X","wings":"X","pattern":"S","legs":"F"},"bonus":0.8200000000000007},{"rt":8574.69999999553,"stimulus":"bees-with-color/bee-A1DM.svg","response":0,"trial_type":"image-button-response","trial_index":63,"time_elapsed":610364,"internal_node_id":"0.0-4.0-0.28","subject_id":"6094c7c1995d311119f84c43","study_id":"60edd13110225f80f9f3709b","session_id":"6196bf64a62601b9a57fc3ec","condition":"contingent","relevant_dimensions":["pattern","legs"],"bee_group":{"antennae":"X","wings":"X","pattern":"S","legs":"F"},"action":"harvest","summary":"good-harvest","bonus":0.8200000000000007},{"rt":1486.8999999985099,"stimulus":"\n                    <p><b>Action: <em>harvest</em></b></p>\n                    <p>This is the bee that you just saw.</p>\n                    <img src=\"bees-with-color/bee-A1DM.svg\" width=\"200\">\n                    <p><span class=\"greenText\"><b>Successful harvest!</b></span><br>Your pay has increased by $0.02. Your bonus pay is now $0.38.</p>\n            ","response":0,"trial_type":"html-button-response","trial_index":64,"time_elapsed":611852,"internal_node_id":"0.0-4.0-1.28","subject_id":"6094c7c1995d311119f84c43","study_id":"60edd13110225f80f9f3709b","session_id":"6196bf64a62601b9a57fc3ec","condition":"contingent","relevant_dimensions":["pattern","legs"],"bee_group":{"antennae":"X","wings":"X","pattern":"S","legs":"F"},"bonus":0.8200000000000007},{"rt":11838.39999999851,"stimulus":"bees-with-color/bee-B1DM.svg","response":1,"trial_type":"image-button-response","trial_index":65,"time_elapsed":623692,"internal_node_id":"0.0-4.0-0.29","subject_id":"6094c7c1995d311119f84c43","study_id":"60edd13110225f80f9f3709b","session_id":"6196bf64a62601b9a57fc3ec","condition":"contingent","relevant_dimensions":["pattern","legs"],"bee_group":{"antennae":"X","wings":"X","pattern":"S","legs":"F"},"action":"avoid","summary":"bad-avoid","bonus":0.8200000000000007},{"rt":1078.6000000014901,"stimulus":"\n                    <p><b>Action: <em>avoid</em></b></p>\n                    <p>This is the bee that you just saw.</p>\n                    <img src=\"bees-with-color/bee-B1DM.svg\" width=\"200\">\n                    <p><br>Your bonus pay is unchanged, and remains at $0.38.</p>\n            ","response":0,"trial_type":"html-button-response","trial_index":66,"time_elapsed":624772,"internal_node_id":"0.0-4.0-1.29","subject_id":"6094c7c1995d311119f84c43","study_id":"60edd13110225f80f9f3709b","session_id":"6196bf64a62601b9a57fc3ec","condition":"contingent","relevant_dimensions":["pattern","legs"],"bee_group":{"antennae":"X","wings":"X","pattern":"S","legs":"F"},"bonus":0.8200000000000007},{"rt":1230.5,"stimulus":"bees-with-color/bee-B2DM.svg","response":1,"trial_type":"image-button-response","trial_index":67,"time_elapsed":626004,"internal_node_id":"0.0-4.0-0.30","subject_id":"6094c7c1995d311119f84c43","study_id":"60edd13110225f80f9f3709b","session_id":"6196bf64a62601b9a57fc3ec","condition":"contingent","relevant_dimensions":["pattern","legs"],"bee_group":{"antennae":"X","wings":"X","pattern":"S","legs":"F"},"action":"avoid","summary":"bad-avoid","bonus":0.8200000000000007},{"rt":582.7000000029802,"stimulus":"\n                    <p><b>Action: <em>avoid</em></b></p>\n                    <p>This is the bee that you just saw.</p>\n                    <img src=\"bees-with-color/bee-B2DM.svg\" width=\"200\">\n                    <p><br>Your bonus pay is unchanged, and remains at $0.38.</p>\n            ","response":0,"trial_type":"html-button-response","trial_index":68,"time_elapsed":626588,"internal_node_id":"0.0-4.0-1.30","subject_id":"6094c7c1995d311119f84c43","study_id":"60edd13110225f80f9f3709b","session_id":"6196bf64a62601b9a57fc3ec","condition":"contingent","relevant_dimensions":["pattern","legs"],"bee_group":{"antennae":"X","wings":"X","pattern":"S","legs":"F"},"bonus":0.8200000000000007},{"rt":1366.8999999985099,"stimulus":"bees-with-color/bee-B2SF.svg","response":1,"trial_type":"image-button-response","trial_index":69,"time_elapsed":627956,"internal_node_id":"0.0-4.0-0.31","subject_id":"6094c7c1995d311119f84c43","study_id":"60edd13110225f80f9f3709b","session_id":"6196bf64a62601b9a57fc3ec","condition":"contingent","relevant_dimensions":["pattern","legs"],"bee_group":{"antennae":"X","wings":"X","pattern":"S","legs":"F"},"action":"avoid","summary":"good-avoid","bonus":0.8200000000000007},{"rt":558.6000000014901,"stimulus":"\n                    <p><b>Action: <em>avoid</em></b></p>\n                    <p>This is the bee that you just saw.</p>\n                    <img src=\"bees-with-color/bee-B2SF.svg\" width=\"200\">\n                    <p><br>Your bonus pay is unchanged, and remains at $0.38.</p>\n            ","response":0,"trial_type":"html-button-response","trial_index":70,"time_elapsed":628516,"internal_node_id":"0.0-4.0-1.31","subject_id":"6094c7c1995d311119f84c43","study_id":"60edd13110225f80f9f3709b","session_id":"6196bf64a62601b9a57fc3ec","condition":"contingent","relevant_dimensions":["pattern","legs"],"bee_group":{"antennae":"X","wings":"X","pattern":"S","legs":"F"},"bonus":0.8200000000000007},{"rt":8614.69999999553,"stimulus":"bees-with-color/bee-A1DF.svg","response":0,"trial_type":"image-button-response","trial_index":71,"time_elapsed":637132,"internal_node_id":"0.0-4.0-0.32","subject_id":"6094c7c1995d311119f84c43","study_id":"60edd13110225f80f9f3709b","session_id":"6196bf64a62601b9a57fc3ec","condition":"contingent","relevant_dimensions":["pattern","legs"],"bee_group":{"antennae":"X","wings":"X","pattern":"S","legs":"F"},"action":"harvest","summary":"good-harvest","bonus":0.8200000000000007},{"rt":1078.9000000059605,"stimulus":"\n                    <p><b>Action: <em>harvest</em></b></p>\n                    <p>This is the bee that you just saw.</p>\n                    <img src=\"bees-with-color/bee-A1DF.svg\" width=\"200\">\n                    <p><span class=\"greenText\"><b>Successful harvest!</b></span><br>Your pay has increased by $0.02. Your bonus pay is now $0.40.</p>\n            ","response":0,"trial_type":"html-button-response","trial_index":72,"time_elapsed":638212,"internal_node_id":"0.0-4.0-1.32","subject_id":"6094c7c1995d311119f84c43","study_id":"60edd13110225f80f9f3709b","session_id":"6196bf64a62601b9a57fc3ec","condition":"contingent","relevant_dimensions":["pattern","legs"],"bee_group":{"antennae":"X","wings":"X","pattern":"S","legs":"F"},"bonus":0.8200000000000007},{"rt":1725.7999999970198,"stimulus":"bees-with-color/bee-A2DM.svg","response":1,"trial_type":"image-button-response","trial_index":73,"time_elapsed":639940,"internal_node_id":"0.0-4.0-0.33","subject_id":"6094c7c1995d311119f84c43","study_id":"60edd13110225f80f9f3709b","session_id":"6196bf64a62601b9a57fc3ec","condition":"contingent","relevant_dimensions":["pattern","legs"],"bee_group":{"antennae":"X","wings":"X","pattern":"S","legs":"F"},"action":"avoid","summary":"bad-avoid","bonus":0.8200000000000007},{"rt":1734.6000000014901,"stimulus":"\n                    <p><b>Action: <em>avoid</em></b></p>\n                    <p>This is the bee that you just saw.</p>\n                    <img src=\"bees-with-color/bee-A2DM.svg\" width=\"200\">\n                    <p><br>Your bonus pay is unchanged, and remains at $0.40.</p>\n            ","response":0,"trial_type":"html-button-response","trial_index":74,"time_elapsed":641676,"internal_node_id":"0.0-4.0-1.33","subject_id":"6094c7c1995d311119f84c43","study_id":"60edd13110225f80f9f3709b","session_id":"6196bf64a62601b9a57fc3ec","condition":"contingent","relevant_dimensions":["pattern","legs"],"bee_group":{"antennae":"X","wings":"X","pattern":"S","legs":"F"},"bonus":0.8200000000000007},{"rt":7782.5,"stimulus":"bees-with-color/bee-A1SF.svg","response":1,"trial_type":"image-button-response","trial_index":75,"time_elapsed":649461,"internal_node_id":"0.0-4.0-0.34","subject_id":"6094c7c1995d311119f84c43","study_id":"60edd13110225f80f9f3709b","session_id":"6196bf64a62601b9a57fc3ec","condition":"contingent","relevant_dimensions":["pattern","legs"],"bee_group":{"antennae":"X","wings":"X","pattern":"S","legs":"F"},"action":"avoid","summary":"good-avoid","bonus":0.8200000000000007},{"rt":1126.2999999970198,"stimulus":"\n                    <p><b>Action: <em>avoid</em></b></p>\n                    <p>This is the bee that you just saw.</p>\n                    <img src=\"bees-with-color/bee-A1SF.svg\" width=\"200\">\n                    <p><br>Your bonus pay is unchanged, and remains at $0.40.</p>\n            ","response":0,"trial_type":"html-button-response","trial_index":76,"time_elapsed":650589,"internal_node_id":"0.0-4.0-1.34","subject_id":"6094c7c1995d311119f84c43","study_id":"60edd13110225f80f9f3709b","session_id":"6196bf64a62601b9a57fc3ec","condition":"contingent","relevant_dimensions":["pattern","legs"],"bee_group":{"antennae":"X","wings":"X","pattern":"S","legs":"F"},"bonus":0.8200000000000007},{"rt":22406.80000000447,"stimulus":"bees-with-color/bee-B1DM.svg","response":0,"trial_type":"image-button-response","trial_index":77,"time_elapsed":672997,"internal_node_id":"0.0-4.0-0.35","subject_id":"6094c7c1995d311119f84c43","study_id":"60edd13110225f80f9f3709b","session_id":"6196bf64a62601b9a57fc3ec","condition":"contingent","relevant_dimensions":["pattern","legs"],"bee_group":{"antennae":"X","wings":"X","pattern":"S","legs":"F"},"action":"harvest","summary":"good-harvest","bonus":0.8200000000000007},{"rt":12342.79999999702,"stimulus":"\n                    <p><b>Action: <em>harvest</em></b></p>\n                    <p>This is the bee that you just saw.</p>\n                    <img src=\"bees-with-color/bee-B1DM.svg\" width=\"200\">\n                    <p><span class=\"greenText\"><b>Successful harvest!</b></span><br>Your pay has increased by $0.02. Your bonus pay is now $0.42.</p>\n            ","response":0,"trial_type":"html-button-response","trial_index":78,"time_elapsed":685341,"internal_node_id":"0.0-4.0-1.35","subject_id":"6094c7c1995d311119f84c43","study_id":"60edd13110225f80f9f3709b","session_id":"6196bf64a62601b9a57fc3ec","condition":"contingent","relevant_dimensions":["pattern","legs"],"bee_group":{"antennae":"X","wings":"X","pattern":"S","legs":"F"},"bonus":0.8200000000000007},{"rt":13246.39999999851,"stimulus":"bees-with-color/bee-B1SF.svg","response":1,"trial_type":"image-button-response","trial_index":79,"time_elapsed":698590,"internal_node_id":"0.0-4.0-0.36","subject_id":"6094c7c1995d311119f84c43","study_id":"60edd13110225f80f9f3709b","session_id":"6196bf64a62601b9a57fc3ec","condition":"contingent","relevant_dimensions":["pattern","legs"],"bee_group":{"antennae":"X","wings":"X","pattern":"S","legs":"F"},"action":"avoid","summary":"good-avoid","bonus":0.8200000000000007},{"rt":950.7000000029802,"stimulus":"\n                    <p><b>Action: <em>avoid</em></b></p>\n                    <p>This is the bee that you just saw.</p>\n                    <img src=\"bees-with-color/bee-B1SF.svg\" width=\"200\">\n                    <p><br>Your bonus pay is unchanged, and remains at $0.42.</p>\n            ","response":0,"trial_type":"html-button-response","trial_index":80,"time_elapsed":699542,"internal_node_id":"0.0-4.0-1.36","subject_id":"6094c7c1995d311119f84c43","study_id":"60edd13110225f80f9f3709b","session_id":"6196bf64a62601b9a57fc3ec","condition":"contingent","relevant_dimensions":["pattern","legs"],"bee_group":{"antennae":"X","wings":"X","pattern":"S","legs":"F"},"bonus":0.8200000000000007},{"rt":1414.3999999985099,"stimulus":"bees-with-color/bee-A2DF.svg","response":1,"trial_type":"image-button-response","trial_index":81,"time_elapsed":700958,"internal_node_id":"0.0-4.0-0.37","subject_id":"6094c7c1995d311119f84c43","study_id":"60edd13110225f80f9f3709b","session_id":"6196bf64a62601b9a57fc3ec","condition":"contingent","relevant_dimensions":["pattern","legs"],"bee_group":{"antennae":"X","wings":"X","pattern":"S","legs":"F"},"action":"avoid","summary":"bad-avoid","bonus":0.8200000000000007},{"rt":710.3000000044703,"stimulus":"\n                    <p><b>Action: <em>avoid</em></b></p>\n                    <p>This is the bee that you just saw.</p>\n                    <img src=\"bees-with-color/bee-A2DF.svg\" width=\"200\">\n                    <p><br>Your bonus pay is unchanged, and remains at $0.42.</p>\n            ","response":0,"trial_type":"html-button-response","trial_index":82,"time_elapsed":701670,"internal_node_id":"0.0-4.0-1.37","subject_id":"6094c7c1995d311119f84c43","study_id":"60edd13110225f80f9f3709b","session_id":"6196bf64a62601b9a57fc3ec","condition":"contingent","relevant_dimensions":["pattern","legs"],"bee_group":{"antennae":"X","wings":"X","pattern":"S","legs":"F"},"bonus":0.8200000000000007},{"rt":14830.89999999851,"stimulus":"bees-with-color/bee-A1SM.svg","response":0,"trial_type":"image-button-response","trial_index":83,"time_elapsed":716502,"internal_node_id":"0.0-4.0-0.38","subject_id":"6094c7c1995d311119f84c43","study_id":"60edd13110225f80f9f3709b","session_id":"6196bf64a62601b9a57fc3ec","condition":"contingent","relevant_dimensions":["pattern","legs"],"bee_group":{"antennae":"X","wings":"X","pattern":"S","legs":"F"},"action":"harvest","summary":"good-harvest","bonus":0.8200000000000007},{"rt":1054.5,"stimulus":"\n                    <p><b>Action: <em>harvest</em></b></p>\n                    <p>This is the bee that you just saw.</p>\n                    <img src=\"bees-with-color/bee-A1SM.svg\" width=\"200\">\n                    <p><span class=\"greenText\"><b>Successful harvest!</b></span><br>Your pay has increased by $0.02. Your bonus pay is now $0.44.</p>\n            ","response":0,"trial_type":"html-button-response","trial_index":84,"time_elapsed":717558,"internal_node_id":"0.0-4.0-1.38","subject_id":"6094c7c1995d311119f84c43","study_id":"60edd13110225f80f9f3709b","session_id":"6196bf64a62601b9a57fc3ec","condition":"contingent","relevant_dimensions":["pattern","legs"],"bee_group":{"antennae":"X","wings":"X","pattern":"S","legs":"F"},"bonus":0.8200000000000007},{"rt":1078.1999999955297,"stimulus":"bees-with-color/bee-B2DM.svg","response":1,"trial_type":"image-button-response","trial_index":85,"time_elapsed":718637,"internal_node_id":"0.0-4.0-0.39","subject_id":"6094c7c1995d311119f84c43","study_id":"60edd13110225f80f9f3709b","session_id":"6196bf64a62601b9a57fc3ec","condition":"contingent","relevant_dimensions":["pattern","legs"],"bee_group":{"antennae":"X","wings":"X","pattern":"S","legs":"F"},"action":"avoid","summary":"bad-avoid","bonus":0.8200000000000007},{"rt":622.8999999985099,"stimulus":"\n                    <p><b>Action: <em>avoid</em></b></p>\n                    <p>This is the bee that you just saw.</p>\n                    <img src=\"bees-with-color/bee-B2DM.svg\" width=\"200\">\n                    <p><br>Your bonus pay is unchanged, and remains at $0.44.</p>\n            ","response":0,"trial_type":"html-button-response","trial_index":86,"time_elapsed":719262,"internal_node_id":"0.0-4.0-1.39","subject_id":"6094c7c1995d311119f84c43","study_id":"60edd13110225f80f9f3709b","session_id":"6196bf64a62601b9a57fc3ec","condition":"contingent","relevant_dimensions":["pattern","legs"],"bee_group":{"antennae":"X","wings":"X","pattern":"S","legs":"F"},"bonus":0.8200000000000007},{"rt":1286.8999999985099,"stimulus":"bees-with-color/bee-A2SF.svg","response":1,"trial_type":"image-button-response","trial_index":87,"time_elapsed":720549,"internal_node_id":"0.0-4.0-0.40","subject_id":"6094c7c1995d311119f84c43","study_id":"60edd13110225f80f9f3709b","session_id":"6196bf64a62601b9a57fc3ec","condition":"contingent","relevant_dimensions":["pattern","legs"],"bee_group":{"antennae":"X","wings":"X","pattern":"S","legs":"F"},"action":"avoid","summary":"good-avoid","bonus":0.8200000000000007},{"rt":662.5999999940395,"stimulus":"\n                    <p><b>Action: <em>avoid</em></b></p>\n                    <p>This is the bee that you just saw.</p>\n                    <img src=\"bees-with-color/bee-A2SF.svg\" width=\"200\">\n                    <p><br>Your bonus pay is unchanged, and remains at $0.44.</p>\n            ","response":0,"trial_type":"html-button-response","trial_index":88,"time_elapsed":721213,"internal_node_id":"0.0-4.0-1.40","subject_id":"6094c7c1995d311119f84c43","study_id":"60edd13110225f80f9f3709b","session_id":"6196bf64a62601b9a57fc3ec","condition":"contingent","relevant_dimensions":["pattern","legs"],"bee_group":{"antennae":"X","wings":"X","pattern":"S","legs":"F"},"bonus":0.8200000000000007},{"rt":7111.20000000298,"stimulus":"bees-with-color/bee-A1DM.svg","response":0,"trial_type":"image-button-response","trial_index":89,"time_elapsed":728326,"internal_node_id":"0.0-4.0-0.41","subject_id":"6094c7c1995d311119f84c43","study_id":"60edd13110225f80f9f3709b","session_id":"6196bf64a62601b9a57fc3ec","condition":"contingent","relevant_dimensions":["pattern","legs"],"bee_group":{"antennae":"X","wings":"X","pattern":"S","legs":"F"},"action":"harvest","summary":"good-harvest","bonus":0.8200000000000007},{"rt":1406.8999999985099,"stimulus":"\n                    <p><b>Action: <em>harvest</em></b></p>\n                    <p>This is the bee that you just saw.</p>\n                    <img src=\"bees-with-color/bee-A1DM.svg\" width=\"200\">\n                    <p><span class=\"greenText\"><b>Successful harvest!</b></span><br>Your pay has increased by $0.02. Your bonus pay is now $0.46.</p>\n            ","response":0,"trial_type":"html-button-response","trial_index":90,"time_elapsed":729734,"internal_node_id":"0.0-4.0-1.41","subject_id":"6094c7c1995d311119f84c43","study_id":"60edd13110225f80f9f3709b","session_id":"6196bf64a62601b9a57fc3ec","condition":"contingent","relevant_dimensions":["pattern","legs"],"bee_group":{"antennae":"X","wings":"X","pattern":"S","legs":"F"},"bonus":0.8200000000000007},{"rt":14510.79999999702,"stimulus":"bees-with-color/bee-B1DF.svg","response":1,"trial_type":"image-button-response","trial_index":91,"time_elapsed":744246,"internal_node_id":"0.0-4.0-0.42","subject_id":"6094c7c1995d311119f84c43","study_id":"60edd13110225f80f9f3709b","session_id":"6196bf64a62601b9a57fc3ec","condition":"contingent","relevant_dimensions":["pattern","legs"],"bee_group":{"antennae":"X","wings":"X","pattern":"S","legs":"F"},"action":"avoid","summary":"bad-avoid","bonus":0.8200000000000007},{"rt":638.5999999940395,"stimulus":"\n                    <p><b>Action: <em>avoid</em></b></p>\n                    <p>This is the bee that you just saw.</p>\n                    <img src=\"bees-with-color/bee-B1DF.svg\" width=\"200\">\n                    <p><br>Your bonus pay is unchanged, and remains at $0.46.</p>\n            ","response":0,"trial_type":"html-button-response","trial_index":92,"time_elapsed":744886,"internal_node_id":"0.0-4.0-1.42","subject_id":"6094c7c1995d311119f84c43","study_id":"60edd13110225f80f9f3709b","session_id":"6196bf64a62601b9a57fc3ec","condition":"contingent","relevant_dimensions":["pattern","legs"],"bee_group":{"antennae":"X","wings":"X","pattern":"S","legs":"F"},"bonus":0.8200000000000007},{"rt":1358.5,"stimulus":"bees-with-color/bee-B2SF.svg","response":1,"trial_type":"image-button-response","trial_index":93,"time_elapsed":746246,"internal_node_id":"0.0-4.0-0.43","subject_id":"6094c7c1995d311119f84c43","study_id":"60edd13110225f80f9f3709b","session_id":"6196bf64a62601b9a57fc3ec","condition":"contingent","relevant_dimensions":["pattern","legs"],"bee_group":{"antennae":"X","wings":"X","pattern":"S","legs":"F"},"action":"avoid","summary":"good-avoid","bonus":0.8200000000000007},{"rt":550.7999999970198,"stimulus":"\n                    <p><b>Action: <em>avoid</em></b></p>\n                    <p>This is the bee that you just saw.</p>\n                    <img src=\"bees-with-color/bee-B2SF.svg\" width=\"200\">\n                    <p><br>Your bonus pay is unchanged, and remains at $0.46.</p>\n            ","response":0,"trial_type":"html-button-response","trial_index":94,"time_elapsed":746798,"internal_node_id":"0.0-4.0-1.43","subject_id":"6094c7c1995d311119f84c43","study_id":"60edd13110225f80f9f3709b","session_id":"6196bf64a62601b9a57fc3ec","condition":"contingent","relevant_dimensions":["pattern","legs"],"bee_group":{"antennae":"X","wings":"X","pattern":"S","legs":"F"},"bonus":0.8200000000000007},{"rt":4574.89999999851,"stimulus":"bees-with-color/bee-A2SM.svg","response":1,"trial_type":"image-button-response","trial_index":95,"time_elapsed":751374,"internal_node_id":"0.0-4.0-0.44","subject_id":"6094c7c1995d311119f84c43","study_id":"60edd13110225f80f9f3709b","session_id":"6196bf64a62601b9a57fc3ec","condition":"contingent","relevant_dimensions":["pattern","legs"],"bee_group":{"antennae":"X","wings":"X","pattern":"S","legs":"F"},"action":"avoid","summary":"bad-avoid","bonus":0.8200000000000007},{"rt":630.8999999985099,"stimulus":"\n                    <p><b>Action: <em>avoid</em></b></p>\n                    <p>This is the bee that you just saw.</p>\n                    <img src=\"bees-with-color/bee-A2SM.svg\" width=\"200\">\n                    <p><br>Your bonus pay is unchanged, and remains at $0.46.</p>\n            ","response":0,"trial_type":"html-button-response","trial_index":96,"time_elapsed":752006,"internal_node_id":"0.0-4.0-1.44","subject_id":"6094c7c1995d311119f84c43","study_id":"60edd13110225f80f9f3709b","session_id":"6196bf64a62601b9a57fc3ec","condition":"contingent","relevant_dimensions":["pattern","legs"],"bee_group":{"antennae":"X","wings":"X","pattern":"S","legs":"F"},"bonus":0.8200000000000007},{"rt":1062.6000000014901,"stimulus":"bees-with-color/bee-B2SM.svg","response":1,"trial_type":"image-button-response","trial_index":97,"time_elapsed":753070,"internal_node_id":"0.0-4.0-0.45","subject_id":"6094c7c1995d311119f84c43","study_id":"60edd13110225f80f9f3709b","session_id":"6196bf64a62601b9a57fc3ec","condition":"contingent","relevant_dimensions":["pattern","legs"],"bee_group":{"antennae":"X","wings":"X","pattern":"S","legs":"F"},"action":"avoid","summary":"bad-avoid","bonus":0.8200000000000007},{"rt":630.5,"stimulus":"\n                    <p><b>Action: <em>avoid</em></b></p>\n                    <p>This is the bee that you just saw.</p>\n                    <img src=\"bees-with-color/bee-B2SM.svg\" width=\"200\">\n                    <p><br>Your bonus pay is unchanged, and remains at $0.46.</p>\n            ","response":0,"trial_type":"html-button-response","trial_index":98,"time_elapsed":753702,"internal_node_id":"0.0-4.0-1.45","subject_id":"6094c7c1995d311119f84c43","study_id":"60edd13110225f80f9f3709b","session_id":"6196bf64a62601b9a57fc3ec","condition":"contingent","relevant_dimensions":["pattern","legs"],"bee_group":{"antennae":"X","wings":"X","pattern":"S","legs":"F"},"bonus":0.8200000000000007},{"rt":9263,"stimulus":"bees-with-color/bee-B1SM.svg","response":0,"trial_type":"image-button-response","trial_index":99,"time_elapsed":762966,"internal_node_id":"0.0-4.0-0.46","subject_id":"6094c7c1995d311119f84c43","study_id":"60edd13110225f80f9f3709b","session_id":"6196bf64a62601b9a57fc3ec","condition":"contingent","relevant_dimensions":["pattern","legs"],"bee_group":{"antennae":"X","wings":"X","pattern":"S","legs":"F"},"action":"harvest","summary":"good-harvest","bonus":0.8200000000000007},{"rt":1230.7000000029802,"stimulus":"\n                    <p><b>Action: <em>harvest</em></b></p>\n                    <p>This is the bee that you just saw.</p>\n                    <img src=\"bees-with-color/bee-B1SM.svg\" width=\"200\">\n                    <p><span class=\"greenText\"><b>Successful harvest!</b></span><br>Your pay has increased by $0.02. Your bonus pay is now $0.48.</p>\n            ","response":0,"trial_type":"html-button-response","trial_index":100,"time_elapsed":764198,"internal_node_id":"0.0-4.0-1.46","subject_id":"6094c7c1995d311119f84c43","study_id":"60edd13110225f80f9f3709b","session_id":"6196bf64a62601b9a57fc3ec","condition":"contingent","relevant_dimensions":["pattern","legs"],"bee_group":{"antennae":"X","wings":"X","pattern":"S","legs":"F"},"bonus":0.8200000000000007},{"rt":1086.5,"stimulus":"bees-with-color/bee-B2DF.svg","response":1,"trial_type":"image-button-response","trial_index":101,"time_elapsed":765286,"internal_node_id":"0.0-4.0-0.47","subject_id":"6094c7c1995d311119f84c43","study_id":"60edd13110225f80f9f3709b","session_id":"6196bf64a62601b9a57fc3ec","condition":"contingent","relevant_dimensions":["pattern","legs"],"bee_group":{"antennae":"X","wings":"X","pattern":"S","legs":"F"},"action":"avoid","summary":"bad-avoid","bonus":0.8200000000000007},{"rt":502.70000000298023,"stimulus":"\n                    <p><b>Action: <em>avoid</em></b></p>\n                    <p>This is the bee that you just saw.</p>\n                    <img src=\"bees-with-color/bee-B2DF.svg\" width=\"200\">\n                    <p><br>Your bonus pay is unchanged, and remains at $0.48.</p>\n            ","response":0,"trial_type":"html-button-response","trial_index":102,"time_elapsed":765790,"internal_node_id":"0.0-4.0-1.47","subject_id":"6094c7c1995d311119f84c43","study_id":"60edd13110225f80f9f3709b","session_id":"6196bf64a62601b9a57fc3ec","condition":"contingent","relevant_dimensions":["pattern","legs"],"bee_group":{"antennae":"X","wings":"X","pattern":"S","legs":"F"},"bonus":0.8200000000000007},{"rt":10526.89999999851,"stimulus":"bees-with-color/bee-A1DF.svg","response":0,"trial_type":"image-button-response","trial_index":103,"time_elapsed":776319,"internal_node_id":"0.0-4.0-0.48","subject_id":"6094c7c1995d311119f84c43","study_id":"60edd13110225f80f9f3709b","session_id":"6196bf64a62601b9a57fc3ec","condition":"contingent","relevant_dimensions":["pattern","legs"],"bee_group":{"antennae":"X","wings":"X","pattern":"S","legs":"F"},"action":"harvest","summary":"good-harvest","bonus":0.8200000000000007},{"rt":1574.7999999970198,"stimulus":"\n                    <p><b>Action: <em>harvest</em></b></p>\n                    <p>This is the bee that you just saw.</p>\n                    <img src=\"bees-with-color/bee-A1DF.svg\" width=\"200\">\n                    <p><span class=\"greenText\"><b>Successful harvest!</b></span><br>Your pay has increased by $0.02. Your bonus pay is now $0.50.</p>\n            ","response":0,"trial_type":"html-button-response","trial_index":104,"time_elapsed":777895,"internal_node_id":"0.0-4.0-1.48","subject_id":"6094c7c1995d311119f84c43","study_id":"60edd13110225f80f9f3709b","session_id":"6196bf64a62601b9a57fc3ec","condition":"contingent","relevant_dimensions":["pattern","legs"],"bee_group":{"antennae":"X","wings":"X","pattern":"S","legs":"F"},"bonus":0.8200000000000007},{"rt":4054.2000000029802,"stimulus":"bees-with-color/bee-A2DF.svg","response":1,"trial_type":"image-button-response","trial_index":105,"time_elapsed":781951,"internal_node_id":"0.0-4.0-0.49","subject_id":"6094c7c1995d311119f84c43","study_id":"60edd13110225f80f9f3709b","session_id":"6196bf64a62601b9a57fc3ec","condition":"contingent","relevant_dimensions":["pattern","legs"],"bee_group":{"antennae":"X","wings":"X","pattern":"S","legs":"F"},"action":"avoid","summary":"bad-avoid","bonus":0.8200000000000007},{"rt":878.6000000014901,"stimulus":"\n                    <p><b>Action: <em>avoid</em></b></p>\n                    <p>This is the bee that you just saw.</p>\n                    <img src=\"bees-with-color/bee-A2DF.svg\" width=\"200\">\n                    <p><br>Your bonus pay is unchanged, and remains at $0.50.</p>\n            ","response":0,"trial_type":"html-button-response","trial_index":106,"time_elapsed":782831,"internal_node_id":"0.0-4.0-1.49","subject_id":"6094c7c1995d311119f84c43","study_id":"60edd13110225f80f9f3709b","session_id":"6196bf64a62601b9a57fc3ec","condition":"contingent","relevant_dimensions":["pattern","legs"],"bee_group":{"antennae":"X","wings":"X","pattern":"S","legs":"F"},"bonus":0.8200000000000007},{"rt":1526.7000000029802,"stimulus":"bees-with-color/bee-B2DF.svg","response":1,"trial_type":"image-button-response","trial_index":107,"time_elapsed":784359,"internal_node_id":"0.0-4.0-0.50","subject_id":"6094c7c1995d311119f84c43","study_id":"60edd13110225f80f9f3709b","session_id":"6196bf64a62601b9a57fc3ec","condition":"contingent","relevant_dimensions":["pattern","legs"],"bee_group":{"antennae":"X","wings":"X","pattern":"S","legs":"F"},"action":"avoid","summary":"bad-avoid","bonus":0.8200000000000007},{"rt":814.7000000029802,"stimulus":"\n                    <p><b>Action: <em>avoid</em></b></p>\n                    <p>This is the bee that you just saw.</p>\n                    <img src=\"bees-with-color/bee-B2DF.svg\" width=\"200\">\n                    <p><br>Your bonus pay is unchanged, and remains at $0.50.</p>\n            ","response":0,"trial_type":"html-button-response","trial_index":108,"time_elapsed":785175,"internal_node_id":"0.0-4.0-1.50","subject_id":"6094c7c1995d311119f84c43","study_id":"60edd13110225f80f9f3709b","session_id":"6196bf64a62601b9a57fc3ec","condition":"contingent","relevant_dimensions":["pattern","legs"],"bee_group":{"antennae":"X","wings":"X","pattern":"S","legs":"F"},"bonus":0.8200000000000007},{"rt":1494.7000000029802,"stimulus":"bees-with-color/bee-A2SF.svg","response":1,"trial_type":"image-button-response","trial_index":109,"time_elapsed":786671,"internal_node_id":"0.0-4.0-0.51","subject_id":"6094c7c1995d311119f84c43","study_id":"60edd13110225f80f9f3709b","session_id":"6196bf64a62601b9a57fc3ec","condition":"contingent","relevant_dimensions":["pattern","legs"],"bee_group":{"antennae":"X","wings":"X","pattern":"S","legs":"F"},"action":"avoid","summary":"good-avoid","bonus":0.8200000000000007},{"rt":510.70000000298023,"stimulus":"\n                    <p><b>Action: <em>avoid</em></b></p>\n                    <p>This is the bee that you just saw.</p>\n                    <img src=\"bees-with-color/bee-A2SF.svg\" width=\"200\">\n                    <p><br>Your bonus pay is unchanged, and remains at $0.50.</p>\n            ","response":0,"trial_type":"html-button-response","trial_index":110,"time_elapsed":787183,"internal_node_id":"0.0-4.0-1.51","subject_id":"6094c7c1995d311119f84c43","study_id":"60edd13110225f80f9f3709b","session_id":"6196bf64a62601b9a57fc3ec","condition":"contingent","relevant_dimensions":["pattern","legs"],"bee_group":{"antennae":"X","wings":"X","pattern":"S","legs":"F"},"bonus":0.8200000000000007},{"rt":11582.80000000447,"stimulus":"bees-with-color/bee-B1DM.svg","response":0,"trial_type":"image-button-response","trial_index":111,"time_elapsed":798767,"internal_node_id":"0.0-4.0-0.52","subject_id":"6094c7c1995d311119f84c43","study_id":"60edd13110225f80f9f3709b","session_id":"6196bf64a62601b9a57fc3ec","condition":"contingent","relevant_dimensions":["pattern","legs"],"bee_group":{"antennae":"X","wings":"X","pattern":"S","legs":"F"},"action":"harvest","summary":"good-harvest","bonus":0.8200000000000007},{"rt":1158.6000000014901,"stimulus":"\n                    <p><b>Action: <em>harvest</em></b></p>\n                    <p>This is the bee that you just saw.</p>\n                    <img src=\"bees-with-color/bee-B1DM.svg\" width=\"200\">\n                    <p><span class=\"greenText\"><b>Successful harvest!</b></span><br>Your pay has increased by $0.02. Your bonus pay is now $0.52.</p>\n            ","response":0,"trial_type":"html-button-response","trial_index":112,"time_elapsed":799927,"internal_node_id":"0.0-4.0-1.52","subject_id":"6094c7c1995d311119f84c43","study_id":"60edd13110225f80f9f3709b","session_id":"6196bf64a62601b9a57fc3ec","condition":"contingent","relevant_dimensions":["pattern","legs"],"bee_group":{"antennae":"X","wings":"X","pattern":"S","legs":"F"},"bonus":0.8200000000000007},{"rt":11910.19999999553,"stimulus":"bees-with-color/bee-B1DF.svg","response":0,"trial_type":"image-button-response","trial_index":113,"time_elapsed":811839,"internal_node_id":"0.0-4.0-0.53","subject_id":"6094c7c1995d311119f84c43","study_id":"60edd13110225f80f9f3709b","session_id":"6196bf64a62601b9a57fc3ec","condition":"contingent","relevant_dimensions":["pattern","legs"],"bee_group":{"antennae":"X","wings":"X","pattern":"S","legs":"F"},"action":"harvest","summary":"good-harvest","bonus":0.8200000000000007},{"rt":1270.7999999970198,"stimulus":"\n                    <p><b>Action: <em>harvest</em></b></p>\n                    <p>This is the bee that you just saw.</p>\n                    <img src=\"bees-with-color/bee-B1DF.svg\" width=\"200\">\n                    <p><span class=\"greenText\"><b>Successful harvest!</b></span><br>Your pay has increased by $0.02. Your bonus pay is now $0.54.</p>\n            ","response":0,"trial_type":"html-button-response","trial_index":114,"time_elapsed":813112,"internal_node_id":"0.0-4.0-1.53","subject_id":"6094c7c1995d311119f84c43","study_id":"60edd13110225f80f9f3709b","session_id":"6196bf64a62601b9a57fc3ec","condition":"contingent","relevant_dimensions":["pattern","legs"],"bee_group":{"antennae":"X","wings":"X","pattern":"S","legs":"F"},"bonus":0.8200000000000007},{"rt":1349.5999999940395,"stimulus":"bees-with-color/bee-A2DM.svg","response":1,"trial_type":"image-button-response","trial_index":115,"time_elapsed":814463,"internal_node_id":"0.0-4.0-0.54","subject_id":"6094c7c1995d311119f84c43","study_id":"60edd13110225f80f9f3709b","session_id":"6196bf64a62601b9a57fc3ec","condition":"contingent","relevant_dimensions":["pattern","legs"],"bee_group":{"antennae":"X","wings":"X","pattern":"S","legs":"F"},"action":"avoid","summary":"bad-avoid","bonus":0.8200000000000007},{"rt":606.6999999955297,"stimulus":"\n                    <p><b>Action: <em>avoid</em></b></p>\n                    <p>This is the bee that you just saw.</p>\n                    <img src=\"bees-with-color/bee-A2DM.svg\" width=\"200\">\n                    <p><br>Your bonus pay is unchanged, and remains at $0.54.</p>\n            ","response":0,"trial_type":"html-button-response","trial_index":116,"time_elapsed":815071,"internal_node_id":"0.0-4.0-1.54","subject_id":"6094c7c1995d311119f84c43","study_id":"60edd13110225f80f9f3709b","session_id":"6196bf64a62601b9a57fc3ec","condition":"contingent","relevant_dimensions":["pattern","legs"],"bee_group":{"antennae":"X","wings":"X","pattern":"S","legs":"F"},"bonus":0.8200000000000007},{"rt":7558.89999999851,"stimulus":"bees-with-color/bee-A1SF.svg","response":1,"trial_type":"image-button-response","trial_index":117,"time_elapsed":822631,"internal_node_id":"0.0-4.0-0.55","subject_id":"6094c7c1995d311119f84c43","study_id":"60edd13110225f80f9f3709b","session_id":"6196bf64a62601b9a57fc3ec","condition":"contingent","relevant_dimensions":["pattern","legs"],"bee_group":{"antennae":"X","wings":"X","pattern":"S","legs":"F"},"action":"avoid","summary":"good-avoid","bonus":0.8200000000000007},{"rt":606.7000000029802,"stimulus":"\n                    <p><b>Action: <em>avoid</em></b></p>\n                    <p>This is the bee that you just saw.</p>\n                    <img src=\"bees-with-color/bee-A1SF.svg\" width=\"200\">\n                    <p><br>Your bonus pay is unchanged, and remains at $0.54.</p>\n            ","response":0,"trial_type":"html-button-response","trial_index":118,"time_elapsed":823239,"internal_node_id":"0.0-4.0-1.55","subject_id":"6094c7c1995d311119f84c43","study_id":"60edd13110225f80f9f3709b","session_id":"6196bf64a62601b9a57fc3ec","condition":"contingent","relevant_dimensions":["pattern","legs"],"bee_group":{"antennae":"X","wings":"X","pattern":"S","legs":"F"},"bonus":0.8200000000000007},{"rt":8870.59999999404,"stimulus":"bees-with-color/bee-A1DM.svg","response":0,"trial_type":"image-button-response","trial_index":119,"time_elapsed":832112,"internal_node_id":"0.0-4.0-0.56","subject_id":"6094c7c1995d311119f84c43","study_id":"60edd13110225f80f9f3709b","session_id":"6196bf64a62601b9a57fc3ec","condition":"contingent","relevant_dimensions":["pattern","legs"],"bee_group":{"antennae":"X","wings":"X","pattern":"S","legs":"F"},"action":"harvest","summary":"good-harvest","bonus":0.8200000000000007},{"rt":1206.3000000044703,"stimulus":"\n                    <p><b>Action: <em>harvest</em></b></p>\n                    <p>This is the bee that you just saw.</p>\n                    <img src=\"bees-with-color/bee-A1DM.svg\" width=\"200\">\n                    <p><span class=\"greenText\"><b>Successful harvest!</b></span><br>Your pay has increased by $0.02. Your bonus pay is now $0.56.</p>\n            ","response":0,"trial_type":"html-button-response","trial_index":120,"time_elapsed":833320,"internal_node_id":"0.0-4.0-1.56","subject_id":"6094c7c1995d311119f84c43","study_id":"60edd13110225f80f9f3709b","session_id":"6196bf64a62601b9a57fc3ec","condition":"contingent","relevant_dimensions":["pattern","legs"],"bee_group":{"antennae":"X","wings":"X","pattern":"S","legs":"F"},"bonus":0.8200000000000007},{"rt":2702.2000000029802,"stimulus":"bees-with-color/bee-A2SM.svg","response":1,"trial_type":"image-button-response","trial_index":121,"time_elapsed":836024,"internal_node_id":"0.0-4.0-0.57","subject_id":"6094c7c1995d311119f84c43","study_id":"60edd13110225f80f9f3709b","session_id":"6196bf64a62601b9a57fc3ec","condition":"contingent","relevant_dimensions":["pattern","legs"],"bee_group":{"antennae":"X","wings":"X","pattern":"S","legs":"F"},"action":"avoid","summary":"bad-avoid","bonus":0.8200000000000007},{"rt":774.5,"stimulus":"\n                    <p><b>Action: <em>avoid</em></b></p>\n                    <p>This is the bee that you just saw.</p>\n                    <img src=\"bees-with-color/bee-A2SM.svg\" width=\"200\">\n                    <p><br>Your bonus pay is unchanged, and remains at $0.56.</p>\n            ","response":0,"trial_type":"html-button-response","trial_index":122,"time_elapsed":836800,"internal_node_id":"0.0-4.0-1.57","subject_id":"6094c7c1995d311119f84c43","study_id":"60edd13110225f80f9f3709b","session_id":"6196bf64a62601b9a57fc3ec","condition":"contingent","relevant_dimensions":["pattern","legs"],"bee_group":{"antennae":"X","wings":"X","pattern":"S","legs":"F"},"bonus":0.8200000000000007},{"rt":2350.6999999955297,"stimulus":"bees-with-color/bee-B2DM.svg","response":1,"trial_type":"image-button-response","trial_index":123,"time_elapsed":839152,"internal_node_id":"0.0-4.0-0.58","subject_id":"6094c7c1995d311119f84c43","study_id":"60edd13110225f80f9f3709b","session_id":"6196bf64a62601b9a57fc3ec","condition":"contingent","relevant_dimensions":["pattern","legs"],"bee_group":{"antennae":"X","wings":"X","pattern":"S","legs":"F"},"action":"avoid","summary":"bad-avoid","bonus":0.8200000000000007},{"rt":518.6000000014901,"stimulus":"\n                    <p><b>Action: <em>avoid</em></b></p>\n                    <p>This is the bee that you just saw.</p>\n                    <img src=\"bees-with-color/bee-B2DM.svg\" width=\"200\">\n                    <p><br>Your bonus pay is unchanged, and remains at $0.56.</p>\n            ","response":0,"trial_type":"html-button-response","trial_index":124,"time_elapsed":839672,"internal_node_id":"0.0-4.0-1.58","subject_id":"6094c7c1995d311119f84c43","study_id":"60edd13110225f80f9f3709b","session_id":"6196bf64a62601b9a57fc3ec","condition":"contingent","relevant_dimensions":["pattern","legs"],"bee_group":{"antennae":"X","wings":"X","pattern":"S","legs":"F"},"bonus":0.8200000000000007},{"rt":1094.2999999970198,"stimulus":"bees-with-color/bee-B2SM.svg","response":1,"trial_type":"image-button-response","trial_index":125,"time_elapsed":840768,"internal_node_id":"0.0-4.0-0.59","subject_id":"6094c7c1995d311119f84c43","study_id":"60edd13110225f80f9f3709b","session_id":"6196bf64a62601b9a57fc3ec","condition":"contingent","relevant_dimensions":["pattern","legs"],"bee_group":{"antennae":"X","wings":"X","pattern":"S","legs":"F"},"action":"avoid","summary":"bad-avoid","bonus":0.8200000000000007},{"rt":494.69999999552965,"stimulus":"\n                    <p><b>Action: <em>avoid</em></b></p>\n                    <p>This is the bee that you just saw.</p>\n                    <img src=\"bees-with-color/bee-B2SM.svg\" width=\"200\">\n                    <p><br>Your bonus pay is unchanged, and remains at $0.56.</p>\n            ","response":0,"trial_type":"html-button-response","trial_index":126,"time_elapsed":841264,"internal_node_id":"0.0-4.0-1.59","subject_id":"6094c7c1995d311119f84c43","study_id":"60edd13110225f80f9f3709b","session_id":"6196bf64a62601b9a57fc3ec","condition":"contingent","relevant_dimensions":["pattern","legs"],"bee_group":{"antennae":"X","wings":"X","pattern":"S","legs":"F"},"bonus":0.8200000000000007},{"rt":11935.10000000149,"stimulus":"bees-with-color/bee-B1SF.svg","response":1,"trial_type":"image-button-response","trial_index":127,"time_elapsed":853200,"internal_node_id":"0.0-4.0-0.60","subject_id":"6094c7c1995d311119f84c43","study_id":"60edd13110225f80f9f3709b","session_id":"6196bf64a62601b9a57fc3ec","condition":"contingent","relevant_dimensions":["pattern","legs"],"bee_group":{"antennae":"X","wings":"X","pattern":"S","legs":"F"},"action":"avoid","summary":"good-avoid","bonus":0.8200000000000007},{"rt":1150.7999999970198,"stimulus":"\n                    <p><b>Action: <em>avoid</em></b></p>\n                    <p>This is the bee that you just saw.</p>\n                    <img src=\"bees-with-color/bee-B1SF.svg\" width=\"200\">\n                    <p><br>Your bonus pay is unchanged, and remains at $0.56.</p>\n            ","response":0,"trial_type":"html-button-response","trial_index":128,"time_elapsed":854352,"internal_node_id":"0.0-4.0-1.60","subject_id":"6094c7c1995d311119f84c43","study_id":"60edd13110225f80f9f3709b","session_id":"6196bf64a62601b9a57fc3ec","condition":"contingent","relevant_dimensions":["pattern","legs"],"bee_group":{"antennae":"X","wings":"X","pattern":"S","legs":"F"},"bonus":0.8200000000000007},{"rt":1046.6000000014901,"stimulus":"bees-with-color/bee-B2SF.svg","response":1,"trial_type":"image-button-response","trial_index":129,"time_elapsed":855400,"internal_node_id":"0.0-4.0-0.61","subject_id":"6094c7c1995d311119f84c43","study_id":"60edd13110225f80f9f3709b","session_id":"6196bf64a62601b9a57fc3ec","condition":"contingent","relevant_dimensions":["pattern","legs"],"bee_group":{"antennae":"X","wings":"X","pattern":"S","legs":"F"},"action":"avoid","summary":"good-avoid","bonus":0.8200000000000007},{"rt":1078.7999999970198,"stimulus":"\n                    <p><b>Action: <em>avoid</em></b></p>\n                    <p>This is the bee that you just saw.</p>\n                    <img src=\"bees-with-color/bee-B2SF.svg\" width=\"200\">\n                    <p><br>Your bonus pay is unchanged, and remains at $0.56.</p>\n            ","response":0,"trial_type":"html-button-response","trial_index":130,"time_elapsed":856480,"internal_node_id":"0.0-4.0-1.61","subject_id":"6094c7c1995d311119f84c43","study_id":"60edd13110225f80f9f3709b","session_id":"6196bf64a62601b9a57fc3ec","condition":"contingent","relevant_dimensions":["pattern","legs"],"bee_group":{"antennae":"X","wings":"X","pattern":"S","legs":"F"},"bonus":0.8200000000000007},{"rt":12087.20000000298,"stimulus":"bees-with-color/bee-A1SM.svg","response":0,"trial_type":"image-button-response","trial_index":131,"time_elapsed":868568,"internal_node_id":"0.0-4.0-0.62","subject_id":"6094c7c1995d311119f84c43","study_id":"60edd13110225f80f9f3709b","session_id":"6196bf64a62601b9a57fc3ec","condition":"contingent","relevant_dimensions":["pattern","legs"],"bee_group":{"antennae":"X","wings":"X","pattern":"S","legs":"F"},"action":"harvest","summary":"good-harvest","bonus":0.8200000000000007},{"rt":982.8999999985099,"stimulus":"\n                    <p><b>Action: <em>harvest</em></b></p>\n                    <p>This is the bee that you just saw.</p>\n                    <img src=\"bees-with-color/bee-A1SM.svg\" width=\"200\">\n                    <p><span class=\"greenText\"><b>Successful harvest!</b></span><br>Your pay has increased by $0.02. Your bonus pay is now $0.58.</p>\n            ","response":0,"trial_type":"html-button-response","trial_index":132,"time_elapsed":869552,"internal_node_id":"0.0-4.0-1.62","subject_id":"6094c7c1995d311119f84c43","study_id":"60edd13110225f80f9f3709b","session_id":"6196bf64a62601b9a57fc3ec","condition":"contingent","relevant_dimensions":["pattern","legs"],"bee_group":{"antennae":"X","wings":"X","pattern":"S","legs":"F"},"bonus":0.8200000000000007},{"rt":8942.59999999404,"stimulus":"bees-with-color/bee-B1SM.svg","response":0,"trial_type":"image-button-response","trial_index":133,"time_elapsed":878496,"internal_node_id":"0.0-4.0-0.63","subject_id":"6094c7c1995d311119f84c43","study_id":"60edd13110225f80f9f3709b","session_id":"6196bf64a62601b9a57fc3ec","condition":"contingent","relevant_dimensions":["pattern","legs"],"bee_group":{"antennae":"X","wings":"X","pattern":"S","legs":"F"},"action":"harvest","summary":"good-harvest","bonus":0.8200000000000007},{"rt":1422.7999999970198,"stimulus":"\n                    <p><b>Action: <em>harvest</em></b></p>\n                    <p>This is the bee that you just saw.</p>\n                    <img src=\"bees-with-color/bee-B1SM.svg\" width=\"200\">\n                    <p><span class=\"greenText\"><b>Successful harvest!</b></span><br>Your pay has increased by $0.02. Your bonus pay is now $0.60.</p>\n            ","response":0,"trial_type":"html-button-response","trial_index":134,"time_elapsed":879920,"internal_node_id":"0.0-4.0-1.63","subject_id":"6094c7c1995d311119f84c43","study_id":"60edd13110225f80f9f3709b","session_id":"6196bf64a62601b9a57fc3ec","condition":"contingent","relevant_dimensions":["pattern","legs"],"bee_group":{"antennae":"X","wings":"X","pattern":"S","legs":"F"},"bonus":0.8200000000000007},{"rt":10427.29999999702,"stimulus":"You have completed the first part of this experiment.<br><br>You will now begin a shorter second part, in which you will receive no feedback.<br>The same rules regarding bonus pay apply.<br><br>Press any key to begin.","response":"arrowright","trial_type":"html-keyboard-response","trial_index":135,"time_elapsed":890349,"internal_node_id":"0.0-5.0","subject_id":"6094c7c1995d311119f84c43","study_id":"60edd13110225f80f9f3709b","session_id":"6196bf64a62601b9a57fc3ec","condition":"contingent","relevant_dimensions":["pattern","legs"],"bee_group":{"antennae":"X","wings":"X","pattern":"S","legs":"F"},"bonus":0.8200000000000007},{"rt":4564.4000000059605,"stimulus":"bees-with-color/bee-B2DF.svg","response":1,"trial_type":"image-button-response","trial_index":136,"time_elapsed":894921,"internal_node_id":"0.0-6.0-0.0","subject_id":"6094c7c1995d311119f84c43","study_id":"60edd13110225f80f9f3709b","session_id":"6196bf64a62601b9a57fc3ec","condition":"contingent","relevant_dimensions":["pattern","legs"],"bee_group":{"antennae":"X","wings":"X","pattern":"S","legs":"F"},"bonus":0.8200000000000007},{"rt":13750.20000000298,"stimulus":"bees-with-color/bee-A1SF.svg","response":1,"trial_type":"image-button-response","trial_index":137,"time_elapsed":908673,"internal_node_id":"0.0-6.0-0.1","subject_id":"6094c7c1995d311119f84c43","study_id":"60edd13110225f80f9f3709b","session_id":"6196bf64a62601b9a57fc3ec","condition":"contingent","relevant_dimensions":["pattern","legs"],"bee_group":{"antennae":"X","wings":"X","pattern":"S","legs":"F"},"bonus":0.8200000000000007},{"rt":7574,"stimulus":"bees-with-color/bee-B1DM.svg","response":0,"trial_type":"image-button-response","trial_index":138,"time_elapsed":916249,"internal_node_id":"0.0-6.0-0.2","subject_id":"6094c7c1995d311119f84c43","study_id":"60edd13110225f80f9f3709b","session_id":"6196bf64a62601b9a57fc3ec","condition":"contingent","relevant_dimensions":["pattern","legs"],"bee_group":{"antennae":"X","wings":"X","pattern":"S","legs":"F"},"bonus":0.8200000000000007},{"rt":8237.89999999851,"stimulus":"bees-with-color/bee-A1DM.svg","response":0,"trial_type":"image-button-response","trial_index":139,"time_elapsed":924489,"internal_node_id":"0.0-6.0-0.3","subject_id":"6094c7c1995d311119f84c43","study_id":"60edd13110225f80f9f3709b","session_id":"6196bf64a62601b9a57fc3ec","condition":"contingent","relevant_dimensions":["pattern","legs"],"bee_group":{"antennae":"X","wings":"X","pattern":"S","legs":"F"},"bonus":0.8200000000000007},{"rt":1357.6000000014901,"stimulus":"bees-with-color/bee-A2SM.svg","response":1,"trial_type":"image-button-response","trial_index":140,"time_elapsed":925849,"internal_node_id":"0.0-6.0-0.4","subject_id":"6094c7c1995d311119f84c43","study_id":"60edd13110225f80f9f3709b","session_id":"6196bf64a62601b9a57fc3ec","condition":"contingent","relevant_dimensions":["pattern","legs"],"bee_group":{"antennae":"X","wings":"X","pattern":"S","legs":"F"},"bonus":0.8200000000000007},{"rt":902.4000000059605,"stimulus":"bees-with-color/bee-B2SM.svg","response":1,"trial_type":"image-button-response","trial_index":141,"time_elapsed":926753,"internal_node_id":"0.0-6.0-0.5","subject_id":"6094c7c1995d311119f84c43","study_id":"60edd13110225f80f9f3709b","session_id":"6196bf64a62601b9a57fc3ec","condition":"contingent","relevant_dimensions":["pattern","legs"],"bee_group":{"antennae":"X","wings":"X","pattern":"S","legs":"F"},"bonus":0.8200000000000007},{"rt":2462.2999999970198,"stimulus":"bees-with-color/bee-A2DF.svg","response":1,"trial_type":"image-button-response","trial_index":142,"time_elapsed":929217,"internal_node_id":"0.0-6.0-0.6","subject_id":"6094c7c1995d311119f84c43","study_id":"60edd13110225f80f9f3709b","session_id":"6196bf64a62601b9a57fc3ec","condition":"contingent","relevant_dimensions":["pattern","legs"],"bee_group":{"antennae":"X","wings":"X","pattern":"S","legs":"F"},"bonus":0.8200000000000007},{"rt":213041.29999999702,"stimulus":"bees-with-color/bee-A2SF.svg","response":1,"trial_type":"image-button-response","trial_index":143,"time_elapsed":1142260,"internal_node_id":"0.0-6.0-0.7","subject_id":"6094c7c1995d311119f84c43","study_id":"60edd13110225f80f9f3709b","session_id":"6196bf64a62601b9a57fc3ec","condition":"contingent","relevant_dimensions":["pattern","legs"],"bee_group":{"antennae":"X","wings":"X","pattern":"S","legs":"F"},"bonus":0.8200000000000007},{"rt":16182,"stimulus":"bees-with-color/bee-A1SM.svg","response":0,"trial_type":"image-button-response","trial_index":144,"time_elapsed":1158445,"internal_node_id":"0.0-6.0-0.8","subject_id":"6094c7c1995d311119f84c43","study_id":"60edd13110225f80f9f3709b","session_id":"6196bf64a62601b9a57fc3ec","condition":"contingent","relevant_dimensions":["pattern","legs"],"bee_group":{"antennae":"X","wings":"X","pattern":"S","legs":"F"},"bonus":0.8200000000000007},{"rt":1117.3999999985099,"stimulus":"bees-with-color/bee-A2DM.svg","response":1,"trial_type":"image-button-response","trial_index":145,"time_elapsed":1159565,"internal_node_id":"0.0-6.0-0.9","subject_id":"6094c7c1995d311119f84c43","study_id":"60edd13110225f80f9f3709b","session_id":"6196bf64a62601b9a57fc3ec","condition":"contingent","relevant_dimensions":["pattern","legs"],"bee_group":{"antennae":"X","wings":"X","pattern":"S","legs":"F"},"bonus":0.8200000000000007},{"rt":598.1000000014901,"stimulus":"bees-with-color/bee-B2DM.svg","response":1,"trial_type":"image-button-response","trial_index":146,"time_elapsed":1160165,"internal_node_id":"0.0-6.0-0.10","subject_id":"6094c7c1995d311119f84c43","study_id":"60edd13110225f80f9f3709b","session_id":"6196bf64a62601b9a57fc3ec","condition":"contingent","relevant_dimensions":["pattern","legs"],"bee_group":{"antennae":"X","wings":"X","pattern":"S","legs":"F"},"bonus":0.8200000000000007},{"rt":8166.39999999851,"stimulus":"bees-with-color/bee-B1DF.svg","response":0,"trial_type":"image-button-response","trial_index":147,"time_elapsed":1168333,"internal_node_id":"0.0-6.0-0.11","subject_id":"6094c7c1995d311119f84c43","study_id":"60edd13110225f80f9f3709b","session_id":"6196bf64a62601b9a57fc3ec","condition":"contingent","relevant_dimensions":["pattern","legs"],"bee_group":{"antennae":"X","wings":"X","pattern":"S","legs":"F"},"bonus":0.8200000000000007},{"rt":9142.20000000298,"stimulus":"bees-with-color/bee-B1SM.svg","response":1,"trial_type":"image-button-response","trial_index":148,"time_elapsed":1177477,"internal_node_id":"0.0-6.0-0.12","subject_id":"6094c7c1995d311119f84c43","study_id":"60edd13110225f80f9f3709b","session_id":"6196bf64a62601b9a57fc3ec","condition":"contingent","relevant_dimensions":["pattern","legs"],"bee_group":{"antennae":"X","wings":"X","pattern":"S","legs":"F"},"bonus":0.8200000000000007},{"rt":6854.10000000149,"stimulus":"bees-with-color/bee-B1SF.svg","response":1,"trial_type":"image-button-response","trial_index":149,"time_elapsed":1184333,"internal_node_id":"0.0-6.0-0.13","subject_id":"6094c7c1995d311119f84c43","study_id":"60edd13110225f80f9f3709b","session_id":"6196bf64a62601b9a57fc3ec","condition":"contingent","relevant_dimensions":["pattern","legs"],"bee_group":{"antennae":"X","wings":"X","pattern":"S","legs":"F"},"bonus":0.8200000000000007},{"rt":9918.09999999404,"stimulus":"bees-with-color/bee-A1DF.svg","response":0,"trial_type":"image-button-response","trial_index":150,"time_elapsed":1194253,"internal_node_id":"0.0-6.0-0.14","subject_id":"6094c7c1995d311119f84c43","study_id":"60edd13110225f80f9f3709b","session_id":"6196bf64a62601b9a57fc3ec","condition":"contingent","relevant_dimensions":["pattern","legs"],"bee_group":{"antennae":"X","wings":"X","pattern":"S","legs":"F"},"bonus":0.8200000000000007},{"rt":949.8999999985099,"stimulus":"bees-with-color/bee-B2SF.svg","response":1,"trial_type":"image-button-response","trial_index":151,"time_elapsed":1195205,"internal_node_id":"0.0-6.0-0.15","subject_id":"6094c7c1995d311119f84c43","study_id":"60edd13110225f80f9f3709b","session_id":"6196bf64a62601b9a57fc3ec","condition":"contingent","relevant_dimensions":["pattern","legs"],"bee_group":{"antennae":"X","wings":"X","pattern":"S","legs":"F"},"bonus":0.8200000000000007},{"rt":1198.5,"stimulus":"bees-with-color/bee-B2SM.svg","response":1,"trial_type":"image-button-response","trial_index":152,"time_elapsed":1196405,"internal_node_id":"0.0-6.0-0.16","subject_id":"6094c7c1995d311119f84c43","study_id":"60edd13110225f80f9f3709b","session_id":"6196bf64a62601b9a57fc3ec","condition":"contingent","relevant_dimensions":["pattern","legs"],"bee_group":{"antennae":"X","wings":"X","pattern":"S","legs":"F"},"bonus":0.8200000000000007},{"rt":6046.60000000149,"stimulus":"bees-with-color/bee-A1SM.svg","response":0,"trial_type":"image-button-response","trial_index":153,"time_elapsed":1202453,"internal_node_id":"0.0-6.0-0.17","subject_id":"6094c7c1995d311119f84c43","study_id":"60edd13110225f80f9f3709b","session_id":"6196bf64a62601b9a57fc3ec","condition":"contingent","relevant_dimensions":["pattern","legs"],"bee_group":{"antennae":"X","wings":"X","pattern":"S","legs":"F"},"bonus":0.8200000000000007},{"rt":3598.2999999970198,"stimulus":"bees-with-color/bee-B2SF.svg","response":1,"trial_type":"image-button-response","trial_index":154,"time_elapsed":1206053,"internal_node_id":"0.0-6.0-0.18","subject_id":"6094c7c1995d311119f84c43","study_id":"60edd13110225f80f9f3709b","session_id":"6196bf64a62601b9a57fc3ec","condition":"contingent","relevant_dimensions":["pattern","legs"],"bee_group":{"antennae":"X","wings":"X","pattern":"S","legs":"F"},"bonus":0.8200000000000007},{"rt":11870.70000000298,"stimulus":"bees-with-color/bee-A1DF.svg","response":0,"trial_type":"image-button-response","trial_index":155,"time_elapsed":1217925,"internal_node_id":"0.0-6.0-0.19","subject_id":"6094c7c1995d311119f84c43","study_id":"60edd13110225f80f9f3709b","session_id":"6196bf64a62601b9a57fc3ec","condition":"contingent","relevant_dimensions":["pattern","legs"],"bee_group":{"antennae":"X","wings":"X","pattern":"S","legs":"F"},"bonus":0.8200000000000007},{"rt":9046.39999999851,"stimulus":"bees-with-color/bee-A1SF.svg","response":1,"trial_type":"image-button-response","trial_index":156,"time_elapsed":1226973,"internal_node_id":"0.0-6.0-0.20","subject_id":"6094c7c1995d311119f84c43","study_id":"60edd13110225f80f9f3709b","session_id":"6196bf64a62601b9a57fc3ec","condition":"contingent","relevant_dimensions":["pattern","legs"],"bee_group":{"antennae":"X","wings":"X","pattern":"S","legs":"F"},"bonus":0.8200000000000007},{"rt":12046.29999999702,"stimulus":"bees-with-color/bee-B1DM.svg","response":0,"trial_type":"image-button-response","trial_index":157,"time_elapsed":1239022,"internal_node_id":"0.0-6.0-0.21","subject_id":"6094c7c1995d311119f84c43","study_id":"60edd13110225f80f9f3709b","session_id":"6196bf64a62601b9a57fc3ec","condition":"contingent","relevant_dimensions":["pattern","legs"],"bee_group":{"antennae":"X","wings":"X","pattern":"S","legs":"F"},"bonus":0.8200000000000007},{"rt":28686.70000000298,"stimulus":"bees-with-color/bee-B1DF.svg","response":0,"trial_type":"image-button-response","trial_index":158,"time_elapsed":1267710,"internal_node_id":"0.0-6.0-0.22","subject_id":"6094c7c1995d311119f84c43","study_id":"60edd13110225f80f9f3709b","session_id":"6196bf64a62601b9a57fc3ec","condition":"contingent","relevant_dimensions":["pattern","legs"],"bee_group":{"antennae":"X","wings":"X","pattern":"S","legs":"F"},"bonus":0.8200000000000007},{"rt":99359.70000000298,"stimulus":"bees-with-color/bee-A1DM.svg","response":0,"trial_type":"image-button-response","trial_index":159,"time_elapsed":1367072,"internal_node_id":"0.0-6.0-0.23","subject_id":"6094c7c1995d311119f84c43","study_id":"60edd13110225f80f9f3709b","session_id":"6196bf64a62601b9a57fc3ec","condition":"contingent","relevant_dimensions":["pattern","legs"],"bee_group":{"antennae":"X","wings":"X","pattern":"S","legs":"F"},"bonus":0.8200000000000007},{"rt":1046.1000000014901,"stimulus":"bees-with-color/bee-A2DF.svg","response":1,"trial_type":"image-button-response","trial_index":160,"time_elapsed":1368120,"internal_node_id":"0.0-6.0-0.24","subject_id":"6094c7c1995d311119f84c43","study_id":"60edd13110225f80f9f3709b","session_id":"6196bf64a62601b9a57fc3ec","condition":"contingent","relevant_dimensions":["pattern","legs"],"bee_group":{"antennae":"X","wings":"X","pattern":"S","legs":"F"},"bonus":0.8200000000000007},{"rt":534.6000000014901,"stimulus":"bees-with-color/bee-A2DM.svg","response":1,"trial_type":"image-button-response","trial_index":161,"time_elapsed":1368656,"internal_node_id":"0.0-6.0-0.25","subject_id":"6094c7c1995d311119f84c43","study_id":"60edd13110225f80f9f3709b","session_id":"6196bf64a62601b9a57fc3ec","condition":"contingent","relevant_dimensions":["pattern","legs"],"bee_group":{"antennae":"X","wings":"X","pattern":"S","legs":"F"},"bonus":0.8200000000000007},{"rt":654.6000000014901,"stimulus":"bees-with-color/bee-A2SF.svg","response":1,"trial_type":"image-button-response","trial_index":162,"time_elapsed":1369312,"internal_node_id":"0.0-6.0-0.26","subject_id":"6094c7c1995d311119f84c43","study_id":"60edd13110225f80f9f3709b","session_id":"6196bf64a62601b9a57fc3ec","condition":"contingent","relevant_dimensions":["pattern","legs"],"bee_group":{"antennae":"X","wings":"X","pattern":"S","legs":"F"},"bonus":0.8200000000000007},{"rt":9830.39999999851,"stimulus":"bees-with-color/bee-B1SF.svg","response":1,"trial_type":"image-button-response","trial_index":163,"time_elapsed":1379144,"internal_node_id":"0.0-6.0-0.27","subject_id":"6094c7c1995d311119f84c43","study_id":"60edd13110225f80f9f3709b","session_id":"6196bf64a62601b9a57fc3ec","condition":"contingent","relevant_dimensions":["pattern","legs"],"bee_group":{"antennae":"X","wings":"X","pattern":"S","legs":"F"},"bonus":0.8200000000000007},{"rt":10078.39999999851,"stimulus":"bees-with-color/bee-B1SM.svg","response":0,"trial_type":"image-button-response","trial_index":164,"time_elapsed":1389224,"internal_node_id":"0.0-6.0-0.28","subject_id":"6094c7c1995d311119f84c43","study_id":"60edd13110225f80f9f3709b","session_id":"6196bf64a62601b9a57fc3ec","condition":"contingent","relevant_dimensions":["pattern","legs"],"bee_group":{"antennae":"X","wings":"X","pattern":"S","legs":"F"},"bonus":0.8200000000000007},{"rt":1590.2999999970198,"stimulus":"bees-with-color/bee-B2DF.svg","response":1,"trial_type":"image-button-response","trial_index":165,"time_elapsed":1390816,"internal_node_id":"0.0-6.0-0.29","subject_id":"6094c7c1995d311119f84c43","study_id":"60edd13110225f80f9f3709b","