[{"success":true,"trial_type":"fullscreen","trial_index":0,"time_elapsed":2787,"internal_node_id":"0.0-0.0","subject_id":"613b763d4bcbf4b15867a5f9","study_id":"60edd13110225f80f9f3709b","session_id":"6196c4a80a64387375c1e16f","condition":"contingent","relevant_dimensions":["antennae","wings"],"bee_group":{"antennae":"B","wings":"1","pattern":"X","legs":"X"},"bonus":0.08000000000000049},{"success":true,"timeout":false,"failed_images":[],"failed_audio":[],"failed_video":[],"trial_type":"preload","trial_index":1,"time_elapsed":2851,"internal_node_id":"0.0-1.0","subject_id":"613b763d4bcbf4b15867a5f9","study_id":"60edd13110225f80f9f3709b","session_id":"6196c4a80a64387375c1e16f","condition":"contingent","relevant_dimensions":["antennae","wings"],"bee_group":{"antennae":"B","wings":"1","pattern":"X","legs":"X"},"bonus":0.08000000000000049},{"rt":2202.100000023842,"stimulus":"Welcome! Press any key to begin.","response":" ","trial_type":"html-keyboard-response","trial_index":2,"time_elapsed":5054,"internal_node_id":"0.0-2.0","subject_id":"613b763d4bcbf4b15867a5f9","study_id":"60edd13110225f80f9f3709b","session_id":"6196c4a80a64387375c1e16f","condition":"contingent","relevant_dimensions":["antennae","wings"],"bee_group":{"antennae":"B","wings":"1","pattern":"X","legs":"X"},"bonus":0.08000000000000049},{"view_history":[{"page_index":0,"viewing_time":1058.699999988079},{"page_index":1,"viewing_time":22255.600000023842},{"page_index":2,"viewing_time":13416.099999964237},{"page_index":3,"viewing_time":12496},{"page_index":4,"viewing_time":9040.100000023842},{"page_index":5,"viewing_time":2159.699999988079},{"page_index":6,"viewing_time":10400.100000023842},{"page_index":7,"viewing_time":6095.800000011921},{"page_index":8,"viewing_time":1912.0999999642372},{"page_index":9,"viewing_time":1432},{"page_index":10,"viewing_time":896.1000000238419},{"page_index":11,"viewing_time":1191.5999999642372},{"page_index":12,"viewing_time":1216.300000011921},{"page_index":13,"viewing_time":712.1000000238419},{"page_index":14,"viewing_time":575.8000000119209}],"rt":84859.30000001192,"trial_type":"instructions","trial_index":3,"time_elapsed":89913,"internal_node_id":"0.0-3.0-0.0","subject_id":"613b763d4bcbf4b15867a5f9","study_id":"60edd13110225f80f9f3709b","session_id":"6196c4a80a64387375c1e16f","condition":"contingent","relevant_dimensions":["antennae","wings"],"bee_group":{"antennae":"B","wings":"1","pattern":"X","legs":"X"},"bonus":0.08000000000000049},{"rt":11506.199999988079,"response":{"Q0":["Two or six legs","Stripes or spots on body","Single or double wings","Antennae or no antennae"]},"question_order":[0],"trial_type":"survey-multi-select","trial_index":4,"time_elapsed":101425,"internal_node_id":"0.0-3.0-1.0","subject_id":"613b763d4bcbf4b15867a5f9","study_id":"60edd13110225f80f9f3709b","session_id":"6196c4a80a64387375c1e16f","condition":"contingent","relevant_dimensions":["antennae","wings"],"bee_group":{"antennae":"B","wings":"1","pattern":"X","legs":"X"},"correct":true,"bonus":0.08000000000000049},{"rt":36613.10000002384,"response":{"Q1":"No.","Q2":"Based on the four features of the bee.","Q3":"You do not learn if it was friendly or dangerous, and do not alter your bonus."},"question_order":[0,1,2],"trial_type":"survey-multi-choice","trial_index":5,"time_elapsed":138041,"internal_node_id":"0.0-3.0-2.0","subject_id":"613b763d4bcbf4b15867a5f9","study_id":"60edd13110225f80f9f3709b","session_id":"6196c4a80a64387375c1e16f","condition":"contingent","relevant_dimensions":["antennae","wings"],"bee_group":{"antennae":"B","wings":"1","pattern":"X","legs":"X"},"correct":true,"bonus":0.08000000000000049},{"rt":2861.7999999523163,"stimulus":"<p>Congrats, you got everything right<br>When you're ready, click the button below to continue to the experiment.</p>","response":0,"trial_type":"html-button-response","trial_index":6,"time_elapsed":140905,"internal_node_id":"0.0-3.0-3.0","subject_id":"613b763d4bcbf4b15867a5f9","study_id":"60edd13110225f80f9f3709b","session_id":"6196c4a80a64387375c1e16f","condition":"contingent","relevant_dimensions":["antennae","wings"],"bee_group":{"antennae":"B","wings":"1","pattern":"X","legs":"X"},"bonus":0.08000000000000049},{"rt":6428.799999952316,"stimulus":"bees-with-color/bee-A1DF.svg","response":0,"trial_type":"image-button-response","trial_index":7,"time_elapsed":147337,"internal_node_id":"0.0-4.0-0.0","subject_id":"613b763d4bcbf4b15867a5f9","study_id":"60edd13110225f80f9f3709b","session_id":"6196c4a80a64387375c1e16f","condition":"contingent","relevant_dimensions":["antennae","wings"],"bee_group":{"antennae":"B","wings":"1","pattern":"X","legs":"X"},"action":"harvest","summary":"good-harvest","bonus":0.08000000000000049},{"rt":4396.900000035763,"stimulus":"\n                    <p><b>Action: <em>harvest</em></b></p>\n                    <p>This is the bee that you just saw.</p>\n                    <img src=\"bees-with-color/bee-A1DF.svg\" width=\"200\">\n                    <p><span class=\"greenText\"><b>Successful harvest!</b></span><br>Your pay has increased by $0.02. Your bonus pay is now $0.56.</p>\n            ","response":0,"trial_type":"html-button-response","trial_index":8,"time_elapsed":151737,"internal_node_id":"0.0-4.0-1.0","subject_id":"613b763d4bcbf4b15867a5f9","study_id":"60edd13110225f80f9f3709b","session_id":"6196c4a80a64387375c1e16f","condition":"contingent","relevant_dimensions":["antennae","wings"],"bee_group":{"antennae":"B","wings":"1","pattern":"X","legs":"X"},"bonus":0.08000000000000049},{"rt":6517.400000035763,"stimulus":"bees-with-color/bee-B2DM.svg","response":0,"trial_type":"image-button-response","trial_index":9,"time_elapsed":158256,"internal_node_id":"0.0-4.0-0.1","subject_id":"613b763d4bcbf4b15867a5f9","study_id":"60edd13110225f80f9f3709b","session_id":"6196c4a80a64387375c1e16f","condition":"contingent","relevant_dimensions":["antennae","wings"],"bee_group":{"antennae":"B","wings":"1","pattern":"X","legs":"X"},"action":"harvest","summary":"good-harvest","bonus":0.08000000000000049},{"rt":2005.7000000476837,"stimulus":"\n                    <p><b>Action: <em>harvest</em></b></p>\n                    <p>This is the bee that you just saw.</p>\n                    <img src=\"bees-with-color/bee-B2DM.svg\" width=\"200\">\n                    <p><span class=\"greenText\"><b>Successful harvest!</b></span><br>Your pay has increased by $0.02. Your bonus pay is now $0.58.</p>\n            ","response":0,"trial_type":"html-button-response","trial_index":10,"time_elapsed":160264,"internal_node_id":"0.0-4.0-1.1","subject_id":"613b763d4bcbf4b15867a5f9","study_id":"60edd13110225f80f9f3709b","session_id":"6196c4a80a64387375c1e16f","condition":"contingent","relevant_dimensions":["antennae","wings"],"bee_group":{"antennae":"B","wings":"1","pattern":"X","legs":"X"},"bonus":0.08000000000000049},{"rt":5517.699999988079,"stimulus":"bees-with-color/bee-A1SM.svg","response":0,"trial_type":"image-button-response","trial_index":11,"time_elapsed":165785,"internal_node_id":"0.0-4.0-0.2","subject_id":"613b763d4bcbf4b15867a5f9","study_id":"60edd13110225f80f9f3709b","session_id":"6196c4a80a64387375c1e16f","condition":"contingent","relevant_dimensions":["antennae","wings"],"bee_group":{"antennae":"B","wings":"1","pattern":"X","legs":"X"},"action":"harvest","summary":"good-harvest","bonus":0.08000000000000049},{"rt":2989.899999976158,"stimulus":"\n                    <p><b>Action: <em>harvest</em></b></p>\n                    <p>This is the bee that you just saw.</p>\n                    <img src=\"bees-with-color/bee-A1SM.svg\" width=\"200\">\n                    <p><span class=\"greenText\"><b>Successful harvest!</b></span><br>Your pay has increased by $0.02. Your bonus pay is now $0.60.</p>\n            ","response":0,"trial_type":"html-button-response","trial_index":12,"time_elapsed":168777,"internal_node_id":"0.0-4.0-1.2","subject_id":"613b763d4bcbf4b15867a5f9","study_id":"60edd13110225f80f9f3709b","session_id":"6196c4a80a64387375c1e16f","condition":"contingent","relevant_dimensions":["antennae","wings"],"bee_group":{"antennae":"B","wings":"1","pattern":"X","legs":"X"},"bonus":0.08000000000000049},{"rt":6749.5,"stimulus":"bees-with-color/bee-B2SF.svg","response":0,"trial_type":"image-button-response","trial_index":13,"time_elapsed":175529,"internal_node_id":"0.0-4.0-0.3","subject_id":"613b763d4bcbf4b15867a5f9","study_id":"60edd13110225f80f9f3709b","session_id":"6196c4a80a64387375c1e16f","condition":"contingent","relevant_dimensions":["antennae","wings"],"bee_group":{"antennae":"B","wings":"1","pattern":"X","legs":"X"},"action":"harvest","summary":"good-harvest","bonus":0.08000000000000049},{"rt":1109.7000000476837,"stimulus":"\n                    <p><b>Action: <em>harvest</em></b></p>\n                    <p>This is the bee that you just saw.</p>\n                    <img src=\"bees-with-color/bee-B2SF.svg\" width=\"200\">\n                    <p><span class=\"greenText\"><b>Successful harvest!</b></span><br>Your pay has increased by $0.02. Your bonus pay is now $0.62.</p>\n            ","response":0,"trial_type":"html-button-response","trial_index":14,"time_elapsed":176641,"internal_node_id":"0.0-4.0-1.3","subject_id":"613b763d4bcbf4b15867a5f9","study_id":"60edd13110225f80f9f3709b","session_id":"6196c4a80a64387375c1e16f","condition":"contingent","relevant_dimensions":["antennae","wings"],"bee_group":{"antennae":"B","wings":"1","pattern":"X","legs":"X"},"bonus":0.08000000000000049},{"rt":4413.200000047684,"stimulus":"bees-with-color/bee-B2DF.svg","response":0,"trial_type":"image-button-response","trial_index":15,"time_elapsed":181057,"internal_node_id":"0.0-4.0-0.4","subject_id":"613b763d4bcbf4b15867a5f9","study_id":"60edd13110225f80f9f3709b","session_id":"6196c4a80a64387375c1e16f","condition":"contingent","relevant_dimensions":["antennae","wings"],"bee_group":{"antennae":"B","wings":"1","pattern":"X","legs":"X"},"action":"harvest","summary":"good-harvest","bonus":0.08000000000000049},{"rt":1430.0999999642372,"stimulus":"\n                    <p><b>Action: <em>harvest</em></b></p>\n                    <p>This is the bee that you just saw.</p>\n                    <img src=\"bees-with-color/bee-B2DF.svg\" width=\"200\">\n                    <p><span class=\"greenText\"><b>Successful harvest!</b></span><br>Your pay has increased by $0.02. Your bonus pay is now $0.64.</p>\n            ","response":0,"trial_type":"html-button-response","trial_index":16,"time_elapsed":182489,"internal_node_id":"0.0-4.0-1.4","subject_id":"613b763d4bcbf4b15867a5f9","study_id":"60edd13110225f80f9f3709b","session_id":"6196c4a80a64387375c1e16f","condition":"contingent","relevant_dimensions":["antennae","wings"],"bee_group":{"antennae":"B","wings":"1","pattern":"X","legs":"X"},"bonus":0.08000000000000049},{"rt":4054.400000035763,"stimulus":"bees-with-color/bee-B1SM.svg","response":0,"trial_type":"image-button-response","trial_index":17,"time_elapsed":186545,"internal_node_id":"0.0-4.0-0.5","subject_id":"613b763d4bcbf4b15867a5f9","study_id":"60edd13110225f80f9f3709b","session_id":"6196c4a80a64387375c1e16f","condition":"contingent","relevant_dimensions":["antennae","wings"],"bee_group":{"antennae":"B","wings":"1","pattern":"X","legs":"X"},"action":"harvest","summary":"bad-harvest","bonus":0.08000000000000049},{"rt":13878.099999964237,"stimulus":"\n                    <p><b>Action: <em>harvest</em></b></p>\n                    <p>This is the bee that you just saw.</p>\n                    <img src=\"bees-with-color/bee-B1SM.svg\" width=\"200\">\n                    <p><span class=\"redText\">Bad choice, the bee was angry.</span><br><b>You have been stung!</b><br>Your pay has been decreased by $0.10. Your bonus pay is now $0.54.</p>\n            ","response":0,"trial_type":"html-button-response","trial_index":18,"time_elapsed":200425,"internal_node_id":"0.0-4.0-1.5","subject_id":"613b763d4bcbf4b15867a5f9","study_id":"60edd13110225f80f9f3709b","session_id":"6196c4a80a64387375c1e16f","condition":"contingent","relevant_dimensions":["antennae","wings"],"bee_group":{"antennae":"B","wings":"1","pattern":"X","legs":"X"},"bonus":0.08000000000000049},{"rt":6989,"stimulus":"bees-with-color/bee-B1DF.svg","response":0,"trial_type":"image-button-response","trial_index":19,"time_elapsed":207417,"internal_node_id":"0.0-4.0-0.6","subject_id":"613b763d4bcbf4b15867a5f9","study_id":"60edd13110225f80f9f3709b","session_id":"6196c4a80a64387375c1e16f","condition":"contingent","relevant_dimensions":["antennae","wings"],"bee_group":{"antennae":"B","wings":"1","pattern":"X","legs":"X"},"action":"harvest","summary":"bad-harvest","bonus":0.08000000000000049},{"rt":2438,"stimulus":"\n                    <p><b>Action: <em>harvest</em></b></p>\n                    <p>This is the bee that you just saw.</p>\n                    <img src=\"bees-with-color/bee-B1DF.svg\" width=\"200\">\n                    <p><span class=\"redText\">Bad choice, the bee was angry.</span><br><b>You have been stung!</b><br>Your pay has been decreased by $0.10. Your bonus pay is now $0.44.</p>\n            ","response":0,"trial_type":"html-button-response","trial_index":20,"time_elapsed":209857,"internal_node_id":"0.0-4.0-1.6","subject_id":"613b763d4bcbf4b15867a5f9","study_id":"60edd13110225f80f9f3709b","session_id":"6196c4a80a64387375c1e16f","condition":"contingent","relevant_dimensions":["antennae","wings"],"bee_group":{"antennae":"B","wings":"1","pattern":"X","legs":"X"},"bonus":0.08000000000000049},{"rt":2933.699999988079,"stimulus":"bees-with-color/bee-B2SM.svg","response":0,"trial_type":"image-button-response","trial_index":21,"time_elapsed":212793,"internal_node_id":"0.0-4.0-0.7","subject_id":"613b763d4bcbf4b15867a5f9","study_id":"60edd13110225f80f9f3709b","session_id":"6196c4a80a64387375c1e16f","condition":"contingent","relevant_dimensions":["antennae","wings"],"bee_group":{"antennae":"B","wings":"1","pattern":"X","legs":"X"},"action":"harvest","summary":"good-harvest","bonus":0.08000000000000049},{"rt":1829.5,"stimulus":"\n                    <p><b>Action: <em>harvest</em></b></p>\n                    <p>This is the bee that you just saw.</p>\n                    <img src=\"bees-with-color/bee-B2SM.svg\" width=\"200\">\n                    <p><span class=\"greenText\"><b>Successful harvest!</b></span><br>Your pay has increased by $0.02. Your bonus pay is now $0.46.</p>\n            ","response":0,"trial_type":"html-button-response","trial_index":22,"time_elapsed":214625,"internal_node_id":"0.0-4.0-1.7","subject_id":"613b763d4bcbf4b15867a5f9","study_id":"60edd13110225f80f9f3709b","session_id":"6196c4a80a64387375c1e16f","condition":"contingent","relevant_dimensions":["antennae","wings"],"bee_group":{"antennae":"B","wings":"1","pattern":"X","legs":"X"},"bonus":0.08000000000000049},{"rt":5429.400000035763,"stimulus":"bees-with-color/bee-B1SF.svg","response":0,"trial_type":"image-button-response","trial_index":23,"time_elapsed":220057,"internal_node_id":"0.0-4.0-0.8","subject_id":"613b763d4bcbf4b15867a5f9","study_id":"60edd13110225f80f9f3709b","session_id":"6196c4a80a64387375c1e16f","condition":"contingent","relevant_dimensions":["antennae","wings"],"bee_group":{"antennae":"B","wings":"1","pattern":"X","legs":"X"},"action":"harvest","summary":"bad-harvest","bonus":0.08000000000000049},{"rt":1197.9000000357628,"stimulus":"\n                    <p><b>Action: <em>harvest</em></b></p>\n                    <p>This is the bee that you just saw.</p>\n                    <img src=\"bees-with-color/bee-B1SF.svg\" width=\"200\">\n                    <p><span class=\"redText\">Bad choice, the bee was angry.</span><br><b>You have been stung!</b><br>Your pay has been decreased by $0.10. Your bonus pay is now $0.36.</p>\n            ","response":0,"trial_type":"html-button-response","trial_index":24,"time_elapsed":221257,"internal_node_id":"0.0-4.0-1.8","subject_id":"613b763d4bcbf4b15867a5f9","study_id":"60edd13110225f80f9f3709b","session_id":"6196c4a80a64387375c1e16f","condition":"contingent","relevant_dimensions":["antennae","wings"],"bee_group":{"antennae":"B","wings":"1","pattern":"X","legs":"X"},"bonus":0.08000000000000049},{"rt":4821.700000047684,"stimulus":"bees-with-color/bee-A1SF.svg","response":0,"trial_type":"image-button-response","trial_index":25,"time_elapsed":226081,"internal_node_id":"0.0-4.0-0.9","subject_id":"613b763d4bcbf4b15867a5f9","study_id":"60edd13110225f80f9f3709b","session_id":"6196c4a80a64387375c1e16f","condition":"contingent","relevant_dimensions":["antennae","wings"],"bee_group":{"antennae":"B","wings":"1","pattern":"X","legs":"X"},"action":"harvest","summary":"good-harvest","bonus":0.08000000000000049},{"rt":1045.800000011921,"stimulus":"\n                    <p><b>Action: <em>harvest</em></b></p>\n                    <p>This is the bee that you just saw.</p>\n                    <img src=\"bees-with-color/bee-A1SF.svg\" width=\"200\">\n                    <p><span class=\"greenText\"><b>Successful harvest!</b></span><br>Your pay has increased by $0.02. Your bonus pay is now $0.38.</p>\n            ","response":0,"trial_type":"html-button-response","trial_index":26,"time_elapsed":227129,"internal_node_id":"0.0-4.0-1.9","subject_id":"613b763d4bcbf4b15867a5f9","study_id":"60edd13110225f80f9f3709b","session_id":"6196c4a80a64387375c1e16f","condition":"contingent","relevant_dimensions":["antennae","wings"],"bee_group":{"antennae":"B","wings":"1","pattern":"X","legs":"X"},"bonus":0.08000000000000049},{"rt":1469.7000000476837,"stimulus":"bees-with-color/bee-A2SF.svg","response":0,"trial_type":"image-button-response","trial_index":27,"time_elapsed":228601,"internal_node_id":"0.0-4.0-0.10","subject_id":"613b763d4bcbf4b15867a5f9","study_id":"60edd13110225f80f9f3709b","session_id":"6196c4a80a64387375c1e16f","condition":"contingent","relevant_dimensions":["antennae","wings"],"bee_group":{"antennae":"B","wings":"1","pattern":"X","legs":"X"},"action":"harvest","summary":"good-harvest","bonus":0.08000000000000049},{"rt":806,"stimulus":"\n                    <p><b>Action: <em>harvest</em></b></p>\n                    <p>This is the bee that you just saw.</p>\n                    <img src=\"bees-with-color/bee-A2SF.svg\" width=\"200\">\n                    <p><span class=\"greenText\"><b>Successful harvest!</b></span><br>Your pay has increased by $0.02. Your bonus pay is now $0.40.</p>\n            ","response":0,"trial_type":"html-button-response","trial_index":28,"time_elapsed":229409,"internal_node_id":"0.0-4.0-1.10","subject_id":"613b763d4bcbf4b15867a5f9","study_id":"60edd13110225f80f9f3709b","session_id":"6196c4a80a64387375c1e16f","condition":"contingent","relevant_dimensions":["antennae","wings"],"bee_group":{"antennae":"B","wings":"1","pattern":"X","legs":"X"},"bonus":0.08000000000000049},{"rt":3621.899999976158,"stimulus":"bees-with-color/bee-A2SM.svg","response":1,"trial_type":"image-button-response","trial_index":29,"time_elapsed":233033,"internal_node_id":"0.0-4.0-0.11","subject_id":"613b763d4bcbf4b15867a5f9","study_id":"60edd13110225f80f9f3709b","session_id":"6196c4a80a64387375c1e16f","condition":"contingent","relevant_dimensions":["antennae","wings"],"bee_group":{"antennae":"B","wings":"1","pattern":"X","legs":"X"},"action":"avoid","summary":"bad-avoid","bonus":0.08000000000000049},{"rt":3453.699999988079,"stimulus":"\n                    <p><b>Action: <em>avoid</em></b></p>\n                    <p>This is the bee that you just saw.</p>\n                    <img src=\"bees-with-color/bee-A2SM.svg\" width=\"200\">\n                    <p><br>Your bonus pay is unchanged, and remains at $0.40.</p>\n            ","response":0,"trial_type":"html-button-response","trial_index":30,"time_elapsed":236489,"internal_node_id":"0.0-4.0-1.11","subject_id":"613b763d4bcbf4b15867a5f9","study_id":"60edd13110225f80f9f3709b","session_id":"6196c4a80a64387375c1e16f","condition":"contingent","relevant_dimensions":["antennae","wings"],"bee_group":{"antennae":"B","wings":"1","pattern":"X","legs":"X"},"bonus":0.08000000000000049},{"rt":6357.400000035763,"stimulus":"bees-with-color/bee-A2DM.svg","response":0,"trial_type":"image-button-response","trial_index":31,"time_elapsed":242849,"internal_node_id":"0.0-4.0-0.12","subject_id":"613b763d4bcbf4b15867a5f9","study_id":"60edd13110225f80f9f3709b","session_id":"6196c4a80a64387375c1e16f","condition":"contingent","relevant_dimensions":["antennae","wings"],"bee_group":{"antennae":"B","wings":"1","pattern":"X","legs":"X"},"action":"harvest","summary":"good-harvest","bonus":0.08000000000000049},{"rt":1021.7000000476837,"stimulus":"\n                    <p><b>Action: <em>harvest</em></b></p>\n                    <p>This is the bee that you just saw.</p>\n                    <img src=\"bees-with-color/bee-A2DM.svg\" width=\"200\">\n                    <p><span class=\"greenText\"><b>Successful harvest!</b></span><br>Your pay has increased by $0.02. Your bonus pay is now $0.42.</p>\n            ","response":0,"trial_type":"html-button-response","trial_index":32,"time_elapsed":243872,"internal_node_id":"0.0-4.0-1.12","subject_id":"613b763d4bcbf4b15867a5f9","study_id":"60edd13110225f80f9f3709b","session_id":"6196c4a80a64387375c1e16f","condition":"contingent","relevant_dimensions":["antennae","wings"],"bee_group":{"antennae":"B","wings":"1","pattern":"X","legs":"X"},"bonus":0.08000000000000049},{"rt":2365.600000023842,"stimulus":"bees-with-color/bee-A1DM.svg","response":0,"trial_type":"image-button-response","trial_index":33,"time_elapsed":246241,"internal_node_id":"0.0-4.0-0.13","subject_id":"613b763d4bcbf4b15867a5f9","study_id":"60edd13110225f80f9f3709b","session_id":"6196c4a80a64387375c1e16f","condition":"contingent","relevant_dimensions":["antennae","wings"],"bee_group":{"antennae":"B","wings":"1","pattern":"X","legs":"X"},"action":"harvest","summary":"good-harvest","bonus":0.08000000000000049},{"rt":1013.7000000476837,"stimulus":"\n                    <p><b>Action: <em>harvest</em></b></p>\n                    <p>This is the bee that you just saw.</p>\n                    <img src=\"bees-with-color/bee-A1DM.svg\" width=\"200\">\n                    <p><span class=\"greenText\"><b>Successful harvest!</b></span><br>Your pay has increased by $0.02. Your bonus pay is now $0.44.</p>\n            ","response":0,"trial_type":"html-button-response","trial_index":34,"time_elapsed":247256,"internal_node_id":"0.0-4.0-1.13","subject_id":"613b763d4bcbf4b15867a5f9","study_id":"60edd13110225f80f9f3709b","session_id":"6196c4a80a64387375c1e16f","condition":"contingent","relevant_dimensions":["antennae","wings"],"bee_group":{"antennae":"B","wings":"1","pattern":"X","legs":"X"},"bonus":0.08000000000000049},{"rt":5230.300000011921,"stimulus":"bees-with-color/bee-A2DF.svg","response":1,"trial_type":"image-button-response","trial_index":35,"time_elapsed":252488,"internal_node_id":"0.0-4.0-0.14","subject_id":"613b763d4bcbf4b15867a5f9","study_id":"60edd13110225f80f9f3709b","session_id":"6196c4a80a64387375c1e16f","condition":"contingent","relevant_dimensions":["antennae","wings"],"bee_group":{"antennae":"B","wings":"1","pattern":"X","legs":"X"},"action":"avoid","summary":"bad-avoid","bonus":0.08000000000000049},{"rt":830.2000000476837,"stimulus":"\n                    <p><b>Action: <em>avoid</em></b></p>\n                    <p>This is the bee that you just saw.</p>\n                    <img src=\"bees-with-color/bee-A2DF.svg\" width=\"200\">\n                    <p><br>Your bonus pay is unchanged, and remains at $0.44.</p>\n            ","response":0,"trial_type":"html-button-response","trial_index":36,"time_elapsed":253320,"internal_node_id":"0.0-4.0-1.14","subject_id":"613b763d4bcbf4b15867a5f9","study_id":"60edd13110225f80f9f3709b","session_id":"6196c4a80a64387375c1e16f","condition":"contingent","relevant_dimensions":["antennae","wings"],"bee_group":{"antennae":"B","wings":"1","pattern":"X","legs":"X"},"bonus":0.08000000000000049},{"rt":4694.200000047684,"stimulus":"bees-with-color/bee-B1DM.svg","response":1,"trial_type":"image-button-response","trial_index":37,"time_elapsed":258016,"internal_node_id":"0.0-4.0-0.15","subject_id":"613b763d4bcbf4b15867a5f9","study_id":"60edd13110225f80f9f3709b","session_id":"6196c4a80a64387375c1e16f","condition":"contingent","relevant_dimensions":["antennae","wings"],"bee_group":{"antennae":"B","wings":"1","pattern":"X","legs":"X"},"action":"avoid","summary":"good-avoid","bonus":0.08000000000000049},{"rt":1022.5,"stimulus":"\n                    <p><b>Action: <em>avoid</em></b></p>\n                    <p>This is the bee that you just saw.</p>\n                    <img src=\"bees-with-color/bee-B1DM.svg\" width=\"200\">\n                    <p><br>Your bonus pay is unchanged, and remains at $0.44.</p>\n            ","response":0,"trial_type":"html-button-response","trial_index":38,"time_elapsed":259040,"internal_node_id":"0.0-4.0-1.15","subject_id":"613b763d4bcbf4b15867a5f9","study_id":"60edd13110225f80f9f3709b","session_id":"6196c4a80a64387375c1e16f","condition":"contingent","relevant_dimensions":["antennae","wings"],"bee_group":{"antennae":"B","wings":"1","pattern":"X","legs":"X"},"bonus":0.08000000000000049},{"rt":1757.699999988079,"stimulus":"bees-with-color/bee-B1SM.svg","response":0,"trial_type":"image-button-response","trial_index":39,"time_elapsed":260800,"internal_node_id":"0.0-4.0-0.16","subject_id":"613b763d4bcbf4b15867a5f9","study_id":"60edd13110225f80f9f3709b","session_id":"6196c4a80a64387375c1e16f","condition":"contingent","relevant_dimensions":["antennae","wings"],"bee_group":{"antennae":"B","wings":"1","pattern":"X","legs":"X"},"action":"harvest","summary":"bad-harvest","bonus":0.08000000000000049},{"rt":1048.2999999523163,"stimulus":"\n                    <p><b>Action: <em>harvest</em></b></p>\n                    <p>This is the bee that you just saw.</p>\n                    <img src=\"bees-with-color/bee-B1SM.svg\" width=\"200\">\n                    <p><span class=\"redText\">Bad choice, the bee was angry.</span><br><b>You have been stung!</b><br>Your pay has been decreased by $0.10. Your bonus pay is now $0.34.</p>\n            ","response":0,"trial_type":"html-button-response","trial_index":40,"time_elapsed":261850,"internal_node_id":"0.0-4.0-1.16","subject_id":"613b763d4bcbf4b15867a5f9","study_id":"60edd13110225f80f9f3709b","session_id":"6196c4a80a64387375c1e16f","condition":"contingent","relevant_dimensions":["antennae","wings"],"bee_group":{"antennae":"B","wings":"1","pattern":"X","legs":"X"},"bonus":0.08000000000000049},{"rt":1381,"stimulus":"bees-with-color/bee-A1SM.svg","response":0,"trial_type":"image-button-response","trial_index":41,"time_elapsed":263232,"internal_node_id":"0.0-4.0-0.17","subject_id":"613b763d4bcbf4b15867a5f9","study_id":"60edd13110225f80f9f3709b","session_id":"6196c4a80a64387375c1e16f","condition":"contingent","relevant_dimensions":["antennae","wings"],"bee_group":{"antennae":"B","wings":"1","pattern":"X","legs":"X"},"action":"harvest","summary":"good-harvest","bonus":0.08000000000000049},{"rt":638.1999999880791,"stimulus":"\n                    <p><b>Action: <em>harvest</em></b></p>\n                    <p>This is the bee that you just saw.</p>\n                    <img src=\"bees-with-color/bee-A1SM.svg\" width=\"200\">\n                    <p><span class=\"greenText\"><b>Successful harvest!</b></span><br>Your pay has increased by $0.02. Your bonus pay is now $0.36.</p>\n            ","response":0,"trial_type":"html-button-response","trial_index":42,"time_elapsed":263872,"internal_node_id":"0.0-4.0-1.17","subject_id":"613b763d4bcbf4b15867a5f9","study_id":"60edd13110225f80f9f3709b","session_id":"6196c4a80a64387375c1e16f","condition":"contingent","relevant_dimensions":["antennae","wings"],"bee_group":{"antennae":"B","wings":"1","pattern":"X","legs":"X"},"bonus":0.08000000000000049},{"rt":1031.4000000357628,"stimulus":"bees-with-color/bee-A1SF.svg","response":0,"trial_type":"image-button-response","trial_index":43,"time_elapsed":264905,"internal_node_id":"0.0-4.0-0.18","subject_id":"613b763d4bcbf4b15867a5f9","study_id":"60edd13110225f80f9f3709b","session_id":"6196c4a80a64387375c1e16f","condition":"contingent","relevant_dimensions":["antennae","wings"],"bee_group":{"antennae":"B","wings":"1","pattern":"X","legs":"X"},"action":"harvest","summary":"good-harvest","bonus":0.08000000000000049},{"rt":508.80000001192093,"stimulus":"\n                    <p><b>Action: <em>harvest</em></b></p>\n                    <p>This is the bee that you just saw.</p>\n                    <img src=\"bees-with-color/bee-A1SF.svg\" width=\"200\">\n                    <p><span class=\"greenText\"><b>Successful harvest!</b></span><br>Your pay has increased by $0.02. Your bonus pay is now $0.38.</p>\n            ","response":0,"trial_type":"html-button-response","trial_index":44,"time_elapsed":265416,"internal_node_id":"0.0-4.0-1.18","subject_id":"613b763d4bcbf4b15867a5f9","study_id":"60edd13110225f80f9f3709b","session_id":"6196c4a80a64387375c1e16f","condition":"contingent","relevant_dimensions":["antennae","wings"],"bee_group":{"antennae":"B","wings":"1","pattern":"X","legs":"X"},"bonus":0.08000000000000049},{"rt":1542.4000000357628,"stimulus":"bees-with-color/bee-A2DM.svg","response":1,"trial_type":"image-button-response","trial_index":45,"time_elapsed":266960,"internal_node_id":"0.0-4.0-0.19","subject_id":"613b763d4bcbf4b15867a5f9","study_id":"60edd13110225f80f9f3709b","session_id":"6196c4a80a64387375c1e16f","condition":"contingent","relevant_dimensions":["antennae","wings"],"bee_group":{"antennae":"B","wings":"1","pattern":"X","legs":"X"},"action":"avoid","summary":"bad-avoid","bonus":0.08000000000000049},{"rt":733.6999999880791,"stimulus":"\n                    <p><b>Action: <em>avoid</em></b></p>\n                    <p>This is the bee that you just saw.</p>\n                    <img src=\"bees-with-color/bee-A2DM.svg\" width=\"200\">\n                    <p><br>Your bonus pay is unchanged, and remains at $0.38.</p>\n            ","response":0,"trial_type":"html-button-response","trial_index":46,"time_elapsed":267696,"internal_node_id":"0.0-4.0-1.19","subject_id":"613b763d4bcbf4b15867a5f9","study_id":"60edd13110225f80f9f3709b","session_id":"6196c4a80a64387375c1e16f","condition":"contingent","relevant_dimensions":["antennae","wings"],"bee_group":{"antennae":"B","wings":"1","pattern":"X","legs":"X"},"bonus":0.08000000000000049},{"rt":2582.2000000476837,"stimulus":"bees-with-color/bee-A1DF.svg","response":0,"trial_type":"image-button-response","trial_index":47,"time_elapsed":270280,"internal_node_id":"0.0-4.0-0.20","subject_id":"613b763d4bcbf4b15867a5f9","study_id":"60edd13110225f80f9f3709b","session_id":"6196c4a80a64387375c1e16f","condition":"contingent","relevant_dimensions":["antennae","wings"],"bee_group":{"antennae":"B","wings":"1","pattern":"X","legs":"X"},"action":"harvest","summary":"good-harvest","bonus":0.08000000000000049},{"rt":965.7999999523163,"stimulus":"\n                    <p><b>Action: <em>harvest</em></b></p>\n                    <p>This is the bee that you just saw.</p>\n                    <img src=\"bees-with-color/bee-A1DF.svg\" width=\"200\">\n                    <p><span class=\"greenText\"><b>Successful harvest!</b></span><br>Your pay has increased by $0.02. Your bonus pay is now $0.40.</p>\n            ","response":0,"trial_type":"html-button-response","trial_index":48,"time_elapsed":271248,"internal_node_id":"0.0-4.0-1.20","subject_id":"613b763d4bcbf4b15867a5f9","study_id":"60edd13110225f80f9f3709b","session_id":"6196c4a80a64387375c1e16f","condition":"contingent","relevant_dimensions":["antennae","wings"],"bee_group":{"antennae":"B","wings":"1","pattern":"X","legs":"X"},"bonus":0.08000000000000049},{"rt":2862.300000011921,"stimulus":"bees-with-color/bee-A2SM.svg","response":1,"trial_type":"image-button-response","trial_index":49,"time_elapsed":274112,"internal_node_id":"0.0-4.0-0.21","subject_id":"613b763d4bcbf4b15867a5f9","study_id":"60edd13110225f80f9f3709b","session_id":"6196c4a80a64387375c1e16f","condition":"contingent","relevant_dimensions":["antennae","wings"],"bee_group":{"antennae":"B","wings":"1","pattern":"X","legs":"X"},"action":"avoid","summary":"bad-avoid","bonus":0.08000000000000049},{"rt":1174.199999988079,"stimulus":"\n                    <p><b>Action: <em>avoid</em></b></p>\n                    <p>This is the bee that you just saw.</p>\n                    <img src=\"bees-with-color/bee-A2SM.svg\" width=\"200\">\n                    <p><br>Your bonus pay is unchanged, and remains at $0.40.</p>\n            ","response":0,"trial_type":"html-button-response","trial_index":50,"time_elapsed":275288,"internal_node_id":"0.0-4.0-1.21","subject_id":"613b763d4bcbf4b15867a5f9","study_id":"60edd13110225f80f9f3709b","session_id":"6196c4a80a64387375c1e16f","condition":"contingent","relevant_dimensions":["antennae","wings"],"bee_group":{"antennae":"B","wings":"1","pattern":"X","legs":"X"},"bonus":0.08000000000000049},{"rt":2165.699999988079,"stimulus":"bees-with-color/bee-B1DM.svg","response":1,"trial_type":"image-button-response","trial_index":51,"time_elapsed":277456,"internal_node_id":"0.0-4.0-0.22","subject_id":"613b763d4bcbf4b15867a5f9","study_id":"60edd13110225f80f9f3709b","session_id":"6196c4a80a64387375c1e16f","condition":"contingent","relevant_dimensions":["antennae","wings"],"bee_group":{"antennae":"B","wings":"1","pattern":"X","legs":"X"},"action":"avoid","summary":"good-avoid","bonus":0.08000000000000049},{"rt":525.6999999880791,"stimulus":"\n                    <p><b>Action: <em>avoid</em></b></p>\n                    <p>This is the bee that you just saw.</p>\n                    <img src=\"bees-with-color/bee-B1DM.svg\" width=\"200\">\n                    <p><br>Your bonus pay is unchanged, and remains at $0.40.</p>\n            ","response":0,"trial_type":"html-button-response","trial_index":52,"time_elapsed":277984,"internal_node_id":"0.0-4.0-1.22","subject_id":"613b763d4bcbf4b15867a5f9","study_id":"60edd13110225f80f9f3709b","session_id":"6196c4a80a64387375c1e16f","condition":"contingent","relevant_dimensions":["antennae","wings"],"bee_group":{"antennae":"B","wings":"1","pattern":"X","legs":"X"},"bonus":0.08000000000000049},{"rt":446.30000001192093,"stimulus":"bees-with-color/bee-A2DF.svg","response":1,"trial_type":"image-button-response","trial_index":53,"time_elapsed":278433,"internal_node_id":"0.0-4.0-0.23","subject_id":"613b763d4bcbf4b15867a5f9","study_id":"60edd13110225f80f9f3709b","session_id":"6196c4a80a64387375c1e16f","condition":"contingent","relevant_dimensions":["antennae","wings"],"bee_group":{"antennae":"B","wings":"1","pattern":"X","legs":"X"},"action":"avoid","summary":"bad-avoid","bonus":0.08000000000000049},{"rt":453.80000001192093,"stimulus":"\n                    <p><b>Action: <em>avoid</em></b></p>\n                    <p>This is the bee that you just saw.</p>\n                    <img src=\"bees-with-color/bee-A2DF.svg\" width=\"200\">\n                    <p><br>Your bonus pay is unchanged, and remains at $0.40.</p>\n            ","response":0,"trial_type":"html-button-response","trial_index":54,"time_elapsed":278888,"internal_node_id":"0.0-4.0-1.23","subject_id":"613b763d4bcbf4b15867a5f9","study_id":"60edd13110225f80f9f3709b","session_id":"6196c4a80a64387375c1e16f","condition":"contingent","relevant_dimensions":["antennae","wings"],"bee_group":{"antennae":"B","wings":"1","pattern":"X","legs":"X"},"bonus":0.08000000000000049},{"rt":846.2000000476837,"stimulus":"bees-with-color/bee-B1DF.svg","response":1,"trial_type":"image-button-response","trial_index":55,"time_elapsed":279736,"internal_node_id":"0.0-4.0-0.24","subject_id":"613b763d4bcbf4b15867a5f9","study_id":"60edd13110225f80f9f3709b","session_id":"6196c4a80a64387375c1e16f","condition":"contingent","relevant_dimensions":["antennae","wings"],"bee_group":{"antennae":"B","wings":"1","pattern":"X","legs":"X"},"action":"avoid","summary":"good-avoid","bonus":0.08000000000000049},{"rt":1046,"stimulus":"\n                    <p><b>Action: <em>avoid</em></b></p>\n                    <p>This is the bee that you just saw.</p>\n                    <img src=\"bees-with-color/bee-B1DF.svg\" width=\"200\">\n                    <p><br>Your bonus pay is unchanged, and remains at $0.40.</p>\n            ","response":0,"trial_type":"html-button-response","trial_index":56,"time_elapsed":280784,"internal_node_id":"0.0-4.0-1.24","subject_id":"613b763d4bcbf4b15867a5f9","study_id":"60edd13110225f80f9f3709b","session_id":"6196c4a80a64387375c1e16f","condition":"contingent","relevant_dimensions":["antennae","wings"],"bee_group":{"antennae":"B","wings":"1","pattern":"X","legs":"X"},"bonus":0.08000000000000049},{"rt":782,"stimulus":"bees-with-color/bee-B2DM.svg","response":1,"trial_type":"image-button-response","trial_index":57,"time_elapsed":281568,"internal_node_id":"0.0-4.0-0.25","subject_id":"613b763d4bcbf4b15867a5f9","study_id":"60edd13110225f80f9f3709b","session_id":"6196c4a80a64387375c1e16f","condition":"contingent","relevant_dimensions":["antennae","wings"],"bee_group":{"antennae":"B","wings":"1","pattern":"X","legs":"X"},"action":"avoid","summary":"bad-avoid","bonus":0.08000000000000049},{"rt":438.10000002384186,"stimulus":"\n                    <p><b>Action: <em>avoid</em></b></p>\n                    <p>This is the bee that you just saw.</p>\n                    <img src=\"bees-with-color/bee-B2DM.svg\" width=\"200\">\n                    <p><br>Your bonus pay is unchanged, and remains at $0.40.</p>\n            ","response":0,"trial_type":"html-button-response","trial_index":58,"time_elapsed":282008,"internal_node_id":"0.0-4.0-1.25","subject_id":"613b763d4bcbf4b15867a5f9","study_id":"60edd13110225f80f9f3709b","session_id":"6196c4a80a64387375c1e16f","condition":"contingent","relevant_dimensions":["antennae","wings"],"bee_group":{"antennae":"B","wings":"1","pattern":"X","legs":"X"},"bonus":0.08000000000000049},{"rt":1374.1000000238419,"stimulus":"bees-with-color/bee-B1SF.svg","response":0,"trial_type":"image-button-response","trial_index":59,"time_elapsed":283385,"internal_node_id":"0.0-4.0-0.26","subject_id":"613b763d4bcbf4b15867a5f9","study_id":"60edd13110225f80f9f3709b","session_id":"6196c4a80a64387375c1e16f","condition":"contingent","relevant_dimensions":["antennae","wings"],"bee_group":{"antennae":"B","wings":"1","pattern":"X","legs":"X"},"action":"harvest","summary":"bad-harvest","bonus":0.08000000000000049},{"rt":973.8000000119209,"stimulus":"\n                    <p><b>Action: <em>harvest</em></b></p>\n                    <p>This is the bee that you just saw.</p>\n                    <img src=\"bees-with-color/bee-B1SF.svg\" width=\"200\">\n                    <p><span class=\"redText\">Bad choice, the bee was angry.</span><br><b>You have been stung!</b><br>Your pay has been decreased by $0.10. Your bonus pay is now $0.30.</p>\n            ","response":0,"trial_type":"html-button-response","trial_index":60,"time_elapsed":284362,"internal_node_id":"0.0-4.0-1.26","subject_id":"613b763d4bcbf4b15867a5f9","study_id":"60edd13110225f80f9f3709b","session_id":"6196c4a80a64387375c1e16f","condition":"contingent","relevant_dimensions":["antennae","wings"],"bee_group":{"antennae":"B","wings":"1","pattern":"X","legs":"X"},"bonus":0.08000000000000049},{"rt":1886.199999988079,"stimulus":"bees-with-color/bee-A1DM.svg","response":0,"trial_type":"image-button-response","trial_index":61,"time_elapsed":286250,"internal_node_id":"0.0-4.0-0.27","subject_id":"613b763d4bcbf4b15867a5f9","study_id":"60edd13110225f80f9f3709b","session_id":"6196c4a80a64387375c1e16f","condition":"contingent","relevant_dimensions":["antennae","wings"],"bee_group":{"antennae":"B","wings":"1","pattern":"X","legs":"X"},"action":"harvest","summary":"good-harvest","bonus":0.08000000000000049},{"rt":612.6000000238419,"stimulus":"\n                    <p><b>Action: <em>harvest</em></b></p>\n                    <p>This is the bee that you just saw.</p>\n                    <img src=\"bees-with-color/bee-A1DM.svg\" width=\"200\">\n                    <p><span class=\"greenText\"><b>Successful harvest!</b></span><br>Your pay has increased by $0.02. Your bonus pay is now $0.32.</p>\n            ","response":0,"trial_type":"html-button-response","trial_index":62,"time_elapsed":286864,"internal_node_id":"0.0-4.0-1.27","subject_id":"613b763d4bcbf4b15867a5f9","study_id":"60edd13110225f80f9f3709b","session_id":"6196c4a80a64387375c1e16f","condition":"contingent","relevant_dimensions":["antennae","wings"],"bee_group":{"antennae":"B","wings":"1","pattern":"X","legs":"X"},"bonus":0.08000000000000049},{"rt":1317.6000000238419,"stimulus":"bees-with-color/bee-B2DF.svg","response":0,"trial_type":"image-button-response","trial_index":63,"time_elapsed":288185,"internal_node_id":"0.0-4.0-0.28","subject_id":"613b763d4bcbf4b15867a5f9","study_id":"60edd13110225f80f9f3709b","session_id":"6196c4a80a64387375c1e16f","condition":"contingent","relevant_dimensions":["antennae","wings"],"bee_group":{"antennae":"B","wings":"1","pattern":"X","legs":"X"},"action":"harvest","summary":"good-harvest","bonus":0.08000000000000049},{"rt":573.8000000119209,"stimulus":"\n                    <p><b>Action: <em>harvest</em></b></p>\n                    <p>This is the bee that you just saw.</p>\n                    <img src=\"bees-with-color/bee-B2DF.svg\" width=\"200\">\n                    <p><span class=\"greenText\"><b>Successful harvest!</b></span><br>Your pay has increased by $0.02. Your bonus pay is now $0.34.</p>\n            ","response":0,"trial_type":"html-button-response","trial_index":64,"time_elapsed":288760,"internal_node_id":"0.0-4.0-1.28","subject_id":"613b763d4bcbf4b15867a5f9","study_id":"60edd13110225f80f9f3709b","session_id":"6196c4a80a64387375c1e16f","condition":"contingent","relevant_dimensions":["antennae","wings"],"bee_group":{"antennae":"B","wings":"1","pattern":"X","legs":"X"},"bonus":0.08000000000000049},{"rt":1206,"stimulus":"bees-with-color/bee-B2SF.svg","response":1,"trial_type":"image-button-response","trial_index":65,"time_elapsed":289968,"internal_node_id":"0.0-4.0-0.29","subject_id":"613b763d4bcbf4b15867a5f9","study_id":"60edd13110225f80f9f3709b","session_id":"6196c4a80a64387375c1e16f","condition":"contingent","relevant_dimensions":["antennae","wings"],"bee_group":{"antennae":"B","wings":"1","pattern":"X","legs":"X"},"action":"avoid","summary":"bad-avoid","bonus":0.08000000000000049},{"rt":726.3000000119209,"stimulus":"\n                    <p><b>Action: <em>avoid</em></b></p>\n                    <p>This is the bee that you just saw.</p>\n                    <img src=\"bees-with-color/bee-B2SF.svg\" width=\"200\">\n                    <p><br>Your bonus pay is unchanged, and remains at $0.34.</p>\n            ","response":0,"trial_type":"html-button-response","trial_index":66,"time_elapsed":290696,"internal_node_id":"0.0-4.0-1.29","subject_id":"613b763d4bcbf4b15867a5f9","study_id":"60edd13110225f80f9f3709b","session_id":"6196c4a80a64387375c1e16f","condition":"contingent","relevant_dimensions":["antennae","wings"],"bee_group":{"antennae":"B","wings":"1","pattern":"X","legs":"X"},"bonus":0.08000000000000049},{"rt":1670.9000000357628,"stimulus":"bees-with-color/bee-A2SF.svg","response":1,"trial_type":"image-button-response","trial_index":67,"time_elapsed":292369,"internal_node_id":"0.0-4.0-0.30","subject_id":"613b763d4bcbf4b15867a5f9","study_id":"60edd13110225f80f9f3709b","session_id":"6196c4a80a64387375c1e16f","condition":"contingent","relevant_dimensions":["antennae","wings"],"bee_group":{"antennae":"B","wings":"1","pattern":"X","legs":"X"},"action":"avoid","summary":"bad-avoid","bonus":0.08000000000000049},{"rt":614,"stimulus":"\n                    <p><b>Action: <em>avoid</em></b></p>\n                    <p>This is the bee that you just saw.</p>\n                    <img src=\"bees-with-color/bee-A2SF.svg\" width=\"200\">\n                    <p><br>Your bonus pay is unchanged, and remains at $0.34.</p>\n            ","response":0,"trial_type":"html-button-response","trial_index":68,"time_elapsed":292984,"internal_node_id":"0.0-4.0-1.30","subject_id":"613b763d4bcbf4b15867a5f9","study_id":"60edd13110225f80f9f3709b","session_id":"6196c4a80a64387375c1e16f","condition":"contingent","relevant_dimensions":["antennae","wings"],"bee_group":{"antennae":"B","wings":"1","pattern":"X","legs":"X"},"bonus":0.08000000000000049},{"rt":1526.4000000357628,"stimulus":"bees-with-color/bee-B2SM.svg","response":1,"trial_type":"image-button-response","trial_index":69,"time_elapsed":294512,"internal_node_id":"0.0-4.0-0.31","subject_id":"613b763d4bcbf4b15867a5f9","study_id":"60edd13110225f80f9f3709b","session_id":"6196c4a80a64387375c1e16f","condition":"contingent","relevant_dimensions":["antennae","wings"],"bee_group":{"antennae":"B","wings":"1","pattern":"X","legs":"X"},"action":"avoid","summary":"bad-avoid","bonus":0.08000000000000049},{"rt":446.5,"stimulus":"\n                    <p><b>Action: <em>avoid</em></b></p>\n                    <p>This is the bee that you just saw.</p>\n                    <img src=\"bees-with-color/bee-B2SM.svg\" width=\"200\">\n                    <p><br>Your bonus pay is unchanged, and remains at $0.34.</p>\n            ","response":0,"trial_type":"html-button-response","trial_index":70,"time_elapsed":294961,"internal_node_id":"0.0-4.0-1.31","subject_id":"613b763d4bcbf4b15867a5f9","study_id":"60edd13110225f80f9f3709b","session_id":"6196c4a80a64387375c1e16f","condition":"contingent","relevant_dimensions":["antennae","wings"],"bee_group":{"antennae":"B","wings":"1","pattern":"X","legs":"X"},"bonus":0.08000000000000049},{"rt":1501.7000000476837,"stimulus":"bees-with-color/bee-B2DF.svg","response":1,"trial_type":"image-button-response","trial_index":71,"time_elapsed":296464,"internal_node_id":"0.0-4.0-0.32","subject_id":"613b763d4bcbf4b15867a5f9","study_id":"60edd13110225f80f9f3709b","session_id":"6196c4a80a64387375c1e16f","condition":"contingent","relevant_dimensions":["antennae","wings"],"bee_group":{"antennae":"B","wings":"1","pattern":"X","legs":"X"},"action":"avoid","summary":"bad-avoid","bonus":0.08000000000000049},{"rt":694.3000000119209,"stimulus":"\n                    <p><b>Action: <em>avoid</em></b></p>\n                    <p>This is the bee that you just saw.</p>\n                    <img src=\"bees-with-color/bee-B2DF.svg\" width=\"200\">\n                    <p><br>Your bonus pay is unchanged, and remains at $0.34.</p>\n            ","response":0,"trial_type":"html-button-response","trial_index":72,"time_elapsed":297160,"internal_node_id":"0.0-4.0-1.32","subject_id":"613b763d4bcbf4b15867a5f9","study_id":"60edd13110225f80f9f3709b","session_id":"6196c4a80a64387375c1e16f","condition":"contingent","relevant_dimensions":["antennae","wings"],"bee_group":{"antennae":"B","wings":"1","pattern":"X","legs":"X"},"bonus":0.08000000000000049},{"rt":13911.5,"stimulus":"bees-with-color/bee-A2DM.svg","response":0,"trial_type":"image-button-response","trial_index":73,"time_elapsed":311074,"internal_node_id":"0.0-4.0-0.33","subject_id":"613b763d4bcbf4b15867a5f9","study_id":"60edd13110225f80f9f3709b","session_id":"6196c4a80a64387375c1e16f","condition":"contingent","relevant_dimensions":["antennae","wings"],"bee_group":{"antennae":"B","wings":"1","pattern":"X","legs":"X"},"action":"harvest","summary":"good-harvest","bonus":0.08000000000000049},{"rt":876.8999999761581,"stimulus":"\n                    <p><b>Action: <em>harvest</em></b></p>\n                    <p>This is the bee that you just saw.</p>\n                    <img src=\"bees-with-color/bee-A2DM.svg\" width=\"200\">\n                    <p><span class=\"greenText\"><b>Successful harvest!</b></span><br>Your pay has increased by $0.02. Your bonus pay is now $0.36.</p>\n            ","response":0,"trial_type":"html-button-response","trial_index":74,"time_elapsed":311953,"internal_node_id":"0.0-4.0-1.33","subject_id":"613b763d4bcbf4b15867a5f9","study_id":"60edd13110225f80f9f3709b","session_id":"6196c4a80a64387375c1e16f","condition":"contingent","relevant_dimensions":["antennae","wings"],"bee_group":{"antennae":"B","wings":"1","pattern":"X","legs":"X"},"bonus":0.08000000000000049},{"rt":6021.099999964237,"stimulus":"bees-with-color/bee-B1SM.svg","response":0,"trial_type":"image-button-response","trial_index":75,"time_elapsed":317976,"internal_node_id":"0.0-4.0-0.34","subject_id":"613b763d4bcbf4b15867a5f9","study_id":"60edd13110225f80f9f3709b","session_id":"6196c4a80a64387375c1e16f","condition":"contingent","relevant_dimensions":["antennae","wings"],"bee_group":{"antennae":"B","wings":"1","pattern":"X","legs":"X"},"action":"harvest","summary":"bad-harvest","bonus":0.08000000000000049},{"rt":886.1999999880791,"stimulus":"\n                    <p><b>Action: <em>harvest</em></b></p>\n                    <p>This is the bee that you just saw.</p>\n                    <img src=\"bees-with-color/bee-B1SM.svg\" width=\"200\">\n                    <p><span class=\"redText\">Bad choice, the bee was angry.</span><br><b>You have been stung!</b><br>Your pay has been decreased by $0.10. Your bonus pay is now $0.26.</p>\n            ","response":0,"trial_type":"html-button-response","trial_index":76,"time_elapsed":318864,"internal_node_id":"0.0-4.0-1.34","subject_id":"613b763d4bcbf4b15867a5f9","study_id":"60edd13110225f80f9f3709b","session_id":"6196c4a80a64387375c1e16f","condition":"contingent","relevant_dimensions":["antennae","wings"],"bee_group":{"antennae":"B","wings":"1","pattern":"X","legs":"X"},"bonus":0.08000000000000049},{"rt":1366.300000011921,"stimulus":"bees-with-color/bee-A2SF.svg","response":0,"trial_type":"image-button-response","trial_index":77,"time_elapsed":320232,"internal_node_id":"0.0-4.0-0.35","subject_id":"613b763d4bcbf4b15867a5f9","study_id":"60edd13110225f80f9f3709b","session_id":"6196c4a80a64387375c1e16f","condition":"contingent","relevant_dimensions":["antennae","wings"],"bee_group":{"antennae":"B","wings":"1","pattern":"X","legs":"X"},"action":"harvest","summary":"good-harvest","bonus":0.08000000000000049},{"rt":526,"stimulus":"\n                    <p><b>Action: <em>harvest</em></b></p>\n                    <p>This is the bee that you just saw.</p>\n                    <img src=\"bees-with-color/bee-A2SF.svg\" width=\"200\">\n                    <p><span class=\"greenText\"><b>Successful harvest!</b></span><br>Your pay has increased by $0.02. Your bonus pay is now $0.28.</p>\n            ","response":0,"trial_type":"html-button-response","trial_index":78,"time_elapsed":320760,"internal_node_id":"0.0-4.0-1.35","subject_id":"613b763d4bcbf4b15867a5f9","study_id":"60edd13110225f80f9f3709b","session_id":"6196c4a80a64387375c1e16f","condition":"contingent","relevant_dimensions":["antennae","wings"],"bee_group":{"antennae":"B","wings":"1","pattern":"X","legs":"X"},"bonus":0.08000000000000049},{"rt":1110,"stimulus":"bees-with-color/bee-A2DF.svg","response":0,"trial_type":"image-button-response","trial_index":79,"time_elapsed":321872,"internal_node_id":"0.0-4.0-0.36","subject_id":"613b763d4bcbf4b15867a5f9","study_id":"60edd13110225f80f9f3709b","session_id":"6196c4a80a64387375c1e16f","condition":"contingent","relevant_dimensions":["antennae","wings"],"bee_group":{"antennae":"B","wings":"1","pattern":"X","legs":"X"},"action":"harvest","summary":"good-harvest","bonus":0.08000000000000049},{"rt":509.89999997615814,"stimulus":"\n                    <p><b>Action: <em>harvest</em></b></p>\n                    <p>This is the bee that you just saw.</p>\n                    <img src=\"bees-with-color/bee-A2DF.svg\" width=\"200\">\n                    <p><span class=\"greenText\"><b>Successful harvest!</b></span><br>Your pay has increased by $0.02. Your bonus pay is now $0.30.</p>\n            ","response":0,"trial_type":"html-button-response","trial_index":80,"time_elapsed":322384,"internal_node_id":"0.0-4.0-1.36","subject_id":"613b763d4bcbf4b15867a5f9","study_id":"60edd13110225f80f9f3709b","session_id":"6196c4a80a64387375c1e16f","condition":"contingent","relevant_dimensions":["antennae","wings"],"bee_group":{"antennae":"B","wings":"1","pattern":"X","legs":"X"},"bonus":0.08000000000000049},{"rt":1942.0999999642372,"stimulus":"bees-with-color/bee-B1DF.svg","response":1,"trial_type":"image-button-response","trial_index":81,"time_elapsed":324328,"internal_node_id":"0.0-4.0-0.37","subject_id":"613b763d4bcbf4b15867a5f9","study_id":"60edd13110225f80f9f3709b","session_id":"6196c4a80a64387375c1e16f","condition":"contingent","relevant_dimensions":["antennae","wings"],"bee_group":{"antennae":"B","wings":"1","pattern":"X","legs":"X"},"action":"avoid","summary":"good-avoid","bonus":0.08000000000000049},{"rt":1165.800000011921,"stimulus":"\n                    <p><b>Action: <em>avoid</em></b></p>\n                    <p>This is the bee that you just saw.</p>\n                    <img src=\"bees-with-color/bee-B1DF.svg\" width=\"200\">\n                    <p><br>Your bonus pay is unchanged, and remains at $0.30.</p>\n            ","response":0,"trial_type":"html-button-response","trial_index":82,"time_elapsed":325497,"internal_node_id":"0.0-4.0-1.37","subject_id":"613b763d4bcbf4b15867a5f9","study_id":"60edd13110225f80f9f3709b","session_id":"6196c4a80a64387375c1e16f","condition":"contingent","relevant_dimensions":["antennae","wings"],"bee_group":{"antennae":"B","wings":"1","pattern":"X","legs":"X"},"bonus":0.08000000000000049},{"rt":822.3000000119209,"stimulus":"bees-with-color/bee-B2DM.svg","response":1,"trial_type":"image-button-response","trial_index":83,"time_elapsed":326321,"internal_node_id":"0.0-4.0-0.38","subject_id":"613b763d4bcbf4b15867a5f9","study_id":"60edd13110225f80f9f3709b","session_id":"6196c4a80a64387375c1e16f","condition":"contingent","relevant_dimensions":["antennae","wings"],"bee_group":{"antennae":"B","wings":"1","pattern":"X","legs":"X"},"action":"avoid","summary":"bad-avoid","bonus":0.08000000000000049},{"rt":509.19999998807907,"stimulus":"\n                    <p><b>Action: <em>avoid</em></b></p>\n                    <p>This is the bee that you just saw.</p>\n                    <img src=\"bees-with-color/bee-B2DM.svg\" width=\"200\">\n                    <p><br>Your bonus pay is unchanged, and remains at $0.30.</p>\n            ","response":0,"trial_type":"html-button-response","trial_index":84,"time_elapsed":326833,"internal_node_id":"0.0-4.0-1.38","subject_id":"613b763d4bcbf4b15867a5f9","study_id":"60edd13110225f80f9f3709b","session_id":"6196c4a80a64387375c1e16f","condition":"contingent","relevant_dimensions":["antennae","wings"],"bee_group":{"antennae":"B","wings":"1","pattern":"X","legs":"X"},"bonus":0.08000000000000049},{"rt":404.19999998807907,"stimulus":"bees-with-color/bee-A1DM.svg","response":1,"trial_type":"image-button-response","trial_index":85,"time_elapsed":327241,"internal_node_id":"0.0-4.0-0.39","subject_id":"613b763d4bcbf4b15867a5f9","study_id":"60edd13110225f80f9f3709b","session_id":"6196c4a80a64387375c1e16f","condition":"contingent","relevant_dimensions":["antennae","wings"],"bee_group":{"antennae":"B","wings":"1","pattern":"X","legs":"X"},"action":"avoid","summary":"bad-avoid","bonus":0.08000000000000049},{"rt":477.2000000476837,"stimulus":"\n                    <p><b>Action: <em>avoid</em></b></p>\n                    <p>This is the bee that you just saw.</p>\n                    <img src=\"bees-with-color/bee-A1DM.svg\" width=\"200\">\n                    <p><br>Your bonus pay is unchanged, and remains at $0.30.</p>\n            ","response":0,"trial_type":"html-button-response","trial_index":86,"time_elapsed":327721,"internal_node_id":"0.0-4.0-1.39","subject_id":"613b763d4bcbf4b15867a5f9","study_id":"60edd13110225f80f9f3709b","session_id":"6196c4a80a64387375c1e16f","condition":"contingent","relevant_dimensions":["antennae","wings"],"bee_group":{"antennae":"B","wings":"1","pattern":"X","legs":"X"},"bonus":0.08000000000000049},{"rt":389.10000002384186,"stimulus":"bees-with-color/bee-B2SM.svg","response":1,"trial_type":"image-button-response","trial_index":87,"time_elapsed":328113,"internal_node_id":"0.0-4.0-0.40","subject_id":"613b763d4bcbf4b15867a5f9","study_id":"60edd13110225f80f9f3709b","session_id":"6196c4a80a64387375c1e16f","condition":"contingent","relevant_dimensions":["antennae","wings"],"bee_group":{"antennae":"B","wings":"1","pattern":"X","legs":"X"},"action":"avoid","summary":"bad-avoid","bonus":0.08000000000000049},{"rt":1172.699999988079,"stimulus":"\n                    <p><b>Action: <em>avoid</em></b></p>\n                    <p>This is the bee that you just saw.</p>\n                    <img src=\"bees-with-color/bee-B2SM.svg\" width=\"200\">\n                    <p><br>Your bonus pay is unchanged, and remains at $0.30.</p>\n            ","response":0,"trial_type":"html-button-response","trial_index":88,"time_elapsed":329288,"internal_node_id":"0.0-4.0-1.40","subject_id":"613b763d4bcbf4b15867a5f9","study_id":"60edd13110225f80f9f3709b","session_id":"6196c4a80a64387375c1e16f","condition":"contingent","relevant_dimensions":["antennae","wings"],"bee_group":{"antennae":"B","wings":"1","pattern":"X","legs":"X"},"bonus":0.08000000000000049},{"rt":414.10000002384186,"stimulus":"bees-with-color/bee-B1DM.svg","response":1,"trial_type":"image-button-response","trial_index":89,"time_elapsed":329704,"internal_node_id":"0.0-4.0-0.41","subject_id":"613b763d4bcbf4b15867a5f9","study_id":"60edd13110225f80f9f3709b","session_id":"6196c4a80a64387375c1e16f","condition":"contingent","relevant_dimensions":["antennae","wings"],"bee_group":{"antennae":"B","wings":"1","pattern":"X","legs":"X"},"action":"avoid","summary":"good-avoid","bonus":0.08000000000000049},{"rt":455.69999998807907,"stimulus":"\n                    <p><b>Action: <em>avoid</em></b></p>\n                    <p>This is the bee that you just saw.</p>\n                    <img src=\"bees-with-color/bee-B1DM.svg\" width=\"200\">\n                    <p><br>Your bonus pay is unchanged, and remains at $0.30.</p>\n            ","response":0,"trial_type":"html-button-response","trial_index":90,"time_elapsed":330162,"internal_node_id":"0.0-4.0-1.41","subject_id":"613b763d4bcbf4b15867a5f9","study_id":"60edd13110225f80f9f3709b","session_id":"6196c4a80a64387375c1e16f","condition":"contingent","relevant_dimensions":["antennae","wings"],"bee_group":{"antennae":"B","wings":"1","pattern":"X","legs":"X"},"bonus":0.08000000000000049},{"rt":398.0999999642372,"stimulus":"bees-with-color/bee-A2SM.svg","response":1,"trial_type":"image-button-response","trial_index":91,"time_elapsed":330561,"internal_node_id":"0.0-4.0-0.42","subject_id":"613b763d4bcbf4b15867a5f9","study_id":"60edd13110225f80f9f3709b","session_id":"6196c4a80a64387375c1e16f","condition":"contingent","relevant_dimensions":["antennae","wings"],"bee_group":{"antennae":"B","wings":"1","pattern":"X","legs":"X"},"action":"avoid","summary":"bad-avoid","bonus":0.08000000000000049},{"rt":477,"stimulus":"\n                    <p><b>Action: <em>avoid</em></b></p>\n                    <p>This is the bee that you just saw.</p>\n                    <img src=\"bees-with-color/bee-A2SM.svg\" width=\"200\">\n                    <p><br>Your bonus pay is unchanged, and remains at $0.30.</p>\n            ","response":0,"trial_type":"html-button-response","trial_index":92,"time_elapsed":331040,"internal_node_id":"0.0-4.0-1.42","subject_id":"613b763d4bcbf4b15867a5f9","study_id":"60edd13110225f80f9f3709b","session_id":"6196c4a80a64387375c1e16f","condition":"contingent","relevant_dimensions":["antennae","wings"],"bee_group":{"antennae":"B","wings":"1","pattern":"X","legs":"X"},"bonus":0.08000000000000049},{"rt":382.30000001192093,"stimulus":"bees-with-color/bee-A1SM.svg","response":1,"trial_type":"image-button-response","trial_index":93,"time_elapsed":331424,"internal_node_id":"0.0-4.0-0.43","subject_id":"613b763d4bcbf4b15867a5f9","study_id":"60edd13110225f80f9f3709b","session_id":"6196c4a80a64387375c1e16f","condition":"contingent","relevant_dimensions":["antennae","wings"],"bee_group":{"antennae":"B","wings":"1","pattern":"X","legs":"X"},"action":"avoid","summary":"bad-avoid","bonus":0.08000000000000049},{"rt":398.30000001192093,"stimulus":"\n                    <p><b>Action: <em>avoid</em></b></p>\n                    <p>This is the bee that you just saw.</p>\n                    <img src=\"bees-with-color/bee-A1SM.svg\" width=\"200\">\n                    <p><br>Your bonus pay is unchanged, and remains at $0.30.</p>\n            ","response":0,"trial_type":"html-button-response","trial_index":94,"time_elapsed":331824,"internal_node_id":"0.0-4.0-1.43","subject_id":"613b763d4bcbf4b15867a5f9","study_id":"60edd13110225f80f9f3709b","session_id":"6196c4a80a64387375c1e16f","condition":"contingent","relevant_dimensions":["antennae","wings"],"bee_group":{"antennae":"B","wings":"1","pattern":"X","legs":"X"},"bonus":0.08000000000000049},{"rt":422.2000000476837,"stimulus":"bees-with-color/bee-B1SF.svg","response":1,"trial_type":"image-button-response","trial_index":95,"time_elapsed":332248,"internal_node_id":"0.0-4.0-0.44","subject_id":"613b763d4bcbf4b15867a5f9","study_id":"60edd13110225f80f9f3709b","session_id":"6196c4a80a64387375c1e16f","condition":"contingent","relevant_dimensions":["antennae","wings"],"bee_group":{"antennae":"B","wings":"1","pattern":"X","legs":"X"},"action":"avoid","summary":"good-avoid","bonus":0.08000000000000049},{"rt":382.10000002384186,"stimulus":"\n                    <p><b>Action: <em>avoid</em></b></p>\n                    <p>This is the bee that you just saw.</p>\n                    <img src=\"bees-with-color/bee-B1SF.svg\" width=\"200\">\n                    <p><br>Your bonus pay is unchanged, and remains at $0.30.</p>\n            ","response":0,"trial_type":"html-button-response","trial_index":96,"time_elapsed":332632,"internal_node_id":"0.0-4.0-1.44","subject_id":"613b763d4bcbf4b15867a5f9","study_id":"60edd13110225f80f9f3709b","session_id":"6196c4a80a64387375c1e16f","condition":"contingent","relevant_dimensions":["antennae","wings"],"bee_group":{"antennae":"B","wings":"1","pattern":"X","legs":"X"},"bonus":0.08000000000000049},{"rt":366.30000001192093,"stimulus":"bees-with-color/bee-A1SF.svg","response":1,"trial_type":"image-button-response","trial_index":97,"time_elapsed":333000,"internal_node_id":"0.0-4.0-0.45","subject_id":"613b763d4bcbf4b15867a5f9","study_id":"60edd13110225f80f9f3709b","session_id":"6196c4a80a64387375c1e16f","condition":"contingent","relevant_dimensions":["antennae","wings"],"bee_group":{"antennae":"B","wings":"1","pattern":"X","legs":"X"},"action":"avoid","summary":"bad-avoid","bonus":0.08000000000000049},{"rt":438,"stimulus":"\n                    <p><b>Action: <em>avoid</em></b></p>\n                    <p>This is the bee that you just saw.</p>\n                    <img src=\"bees-with-color/bee-A1SF.svg\" width=\"200\">\n                    <p><br>Your bonus pay is unchanged, and remains at $0.30.</p>\n            ","response":0,"trial_type":"html-button-response","trial_index":98,"time_elapsed":333440,"internal_node_id":"0.0-4.0-1.45","subject_id":"613b763d4bcbf4b15867a5f9","study_id":"60edd13110225f80f9f3709b","session_id":"6196c4a80a64387375c1e16f","condition":"contingent","relevant_dimensions":["antennae","wings"],"bee_group":{"antennae":"B","wings":"1","pattern":"X","legs":"X"},"bonus":0.08000000000000049},{"rt":398.19999998807907,"stimulus":"bees-with-color/bee-B2SF.svg","response":1,"trial_type":"image-button-response","trial_index":99,"time_elapsed":333840,"internal_node_id":"0.0-4.0-0.46","subject_id":"613b763d4bcbf4b15867a5f9","study_id":"60edd13110225f80f9f3709b","session_id":"6196c4a80a64387375c1e16f","condition":"contingent","relevant_dimensions":["antennae","wings"],"bee_group":{"antennae":"B","wings":"1","pattern":"X","legs":"X"},"action":"avoid","summary":"bad-avoid","bonus":0.08000000000000049},{"rt":358.10000002384186,"stimulus":"\n                    <p><b>Action: <em>avoid</em></b></p>\n                    <p>This is the bee that you just saw.</p>\n                    <img src=\"bees-with-color/bee-B2SF.svg\" width=\"200\">\n                    <p><br>Your bonus pay is unchanged, and remains at $0.30.</p>\n            ","response":0,"trial_type":"html-button-response","trial_index":100,"time_elapsed":334200,"internal_node_id":"0.0-4.0-1.46","subject_id":"613b763d4bcbf4b15867a5f9","study_id":"60edd13110225f80f9f3709b","session_id":"6196c4a80a64387375c1e16f","condition":"contingent","relevant_dimensions":["antennae","wings"],"bee_group":{"antennae":"B","wings":"1","pattern":"X","legs":"X"},"bonus":0.08000000000000049},{"rt":390.30000001192093,"stimulus":"bees-with-color/bee-A1DF.svg","response":1,"trial_type":"image-button-response","trial_index":101,"time_elapsed":334592,"internal_node_id":"0.0-4.0-0.47","subject_id":"613b763d4bcbf4b15867a5f9","study_id":"60edd13110225f80f9f3709b","session_id":"6196c4a80a64387375c1e16f","condition":"contingent","relevant_dimensions":["antennae","wings"],"bee_group":{"antennae":"B","wings":"1","pattern":"X","legs":"X"},"action":"avoid","summary":"bad-avoid","bonus":0.08000000000000049},{"rt":358.39999997615814,"stimulus":"\n                    <p><b>Action: <em>avoid</em></b></p>\n                    <p>This is the bee that you just saw.</p>\n                    <img src=\"bees-with-color/bee-A1DF.svg\" width=\"200\">\n                    <p><br>Your bonus pay is unchanged, and remains at $0.30.</p>\n            ","response":0,"trial_type":"html-button-response","trial_index":102,"time_elapsed":334952,"internal_node_id":"0.0-4.0-1.47","subject_id":"613b763d4bcbf4b15867a5f9","study_id":"60edd13110225f80f9f3709b","session_id":"6196c4a80a64387375c1e16f","condition":"contingent","relevant_dimensions":["antennae","wings"],"bee_group":{"antennae":"B","wings":"1","pattern":"X","legs":"X"},"bonus":0.08000000000000049},{"rt":366.10000002384186,"stimulus":"bees-with-color/bee-B2DM.svg","response":1,"trial_type":"image-button-response","trial_index":103,"time_elapsed":335320,"internal_node_id":"0.0-4.0-0.48","subject_id":"613b763d4bcbf4b15867a5f9","study_id":"60edd13110225f80f9f3709b","session_id":"6196c4a80a64387375c1e16f","condition":"contingent","relevant_dimensions":["antennae","wings"],"bee_group":{"antennae":"B","wings":"1","pattern":"X","legs":"X"},"action":"avoid","summary":"bad-avoid","bonus":0.08000000000000049},{"rt":349.9000000357628,"stimulus":"\n                    <p><b>Action: <em>avoid</em></b></p>\n                    <p>This is the bee that you just saw.</p>\n                    <img src=\"bees-with-color/bee-B2DM.svg\" width=\"200\">\n                    <p><br>Your bonus pay is unchanged, and remains at $0.30.</p>\n            ","response":0,"trial_type":"html-button-response","trial_index":104,"time_elapsed":335672,"internal_node_id":"0.0-4.0-1.48","subject_id":"613b763d4bcbf4b15867a5f9","study_id":"60edd13110225f80f9f3709b","session_id":"6196c4a80a64387375c1e16f","condition":"contingent","relevant_dimensions":["antennae","wings"],"bee_group":{"antennae":"B","wings":"1","pattern":"X","legs":"X"},"bonus":0.08000000000000049},{"rt":390.69999998807907,"stimulus":"bees-with-color/bee-A1DF.svg","response":1,"trial_type":"image-button-response","trial_index":105,"time_elapsed":336064,"internal_node_id":"0.0-4.0-0.49","subject_id":"613b763d4bcbf4b15867a5f9","study_id":"60edd13110225f80f9f3709b","session_id":"6196c4a80a64387375c1e16f","condition":"contingent","relevant_dimensions":["antennae","wings"],"bee_group":{"antennae":"B","wings":"1","pattern":"X","legs":"X"},"action":"avoid","summary":"bad-avoid","bonus":0.08000000000000049},{"rt":405.89999997615814,"stimulus":"\n                    <p><b>Action: <em>avoid</em></b></p>\n                    <p>This is the bee that you just saw.</p>\n                    <img src=\"bees-with-color/bee-A1DF.svg\" width=\"200\">\n                    <p><br>Your bonus pay is unchanged, and remains at $0.30.</p>\n            ","response":0,"trial_type":"html-button-response","trial_index":106,"time_elapsed":336472,"internal_node_id":"0.0-4.0-1.49","subject_id":"613b763d4bcbf4b15867a5f9","study_id":"60edd13110225f80f9f3709b","session_id":"6196c4a80a64387375c1e16f","condition":"contingent","relevant_dimensions":["antennae","wings"],"bee_group":{"antennae":"B","wings":"1","pattern":"X","legs":"X"},"bonus":0.08000000000000049},{"rt":397,"stimulus":"bees-with-color/bee-A2DM.svg","response":1,"trial_type":"image-button-response","trial_index":107,"time_elapsed":336872,"internal_node_id":"0.0-4.0-0.50","subject_id":"613b763d4bcbf4b15867a5f9","study_id":"60edd13110225f80f9f3709b","session_id":"6196c4a80a64387375c1e16f","condition":"contingent","relevant_dimensions":["antennae","wings"],"bee_group":{"antennae":"B","wings":"1","pattern":"X","legs":"X"},"action":"avoid","summary":"bad-avoid","bonus":0.08000000000000049},{"rt":942,"stimulus":"\n                    <p><b>Action: <em>avoid</em></b></p>\n                    <p>This is the bee that you just saw.</p>\n                    <img src=\"bees-with-color/bee-A2DM.svg\" width=\"200\">\n                    <p><br>Your bonus pay is unchanged, and remains at $0.30.</p>\n            ","response":0,"trial_type":"html-button-response","trial_index":108,"time_elapsed":337816,"internal_node_id":"0.0-4.0-1.50","subject_id":"613b763d4bcbf4b15867a5f9","study_id":"60edd13110225f80f9f3709b","session_id":"6196c4a80a64387375c1e16f","condition":"contingent","relevant_dimensions":["antennae","wings"],"bee_group":{"antennae":"B","wings":"1","pattern":"X","legs":"X"},"bonus":0.08000000000000049},{"rt":726.1000000238419,"stimulus":"bees-with-color/bee-A1DM.svg","response":1,"trial_type":"image-button-response","trial_index":109,"time_elapsed":338544,"internal_node_id":"0.0-4.0-0.51","subject_id":"613b763d4bcbf4b15867a5f9","study_id":"60edd13110225f80f9f3709b","session_id":"6196c4a80a64387375c1e16f","condition":"contingent","relevant_dimensions":["antennae","wings"],"bee_group":{"antennae":"B","wings":"1","pattern":"X","legs":"X"},"action":"avoid","summary":"bad-avoid","bonus":0.08000000000000049},{"rt":366.2000000476837,"stimulus":"\n                    <p><b>Action: <em>avoid</em></b></p>\n                    <p>This is the bee that you just saw.</p>\n                    <img src=\"bees-with-color/bee-A1DM.svg\" width=\"200\">\n                    <p><br>Your bonus pay is unchanged, and remains at $0.30.</p>\n            ","response":0,"trial_type":"html-button-response","trial_index":110,"time_elapsed":338912,"internal_node_id":"0.0-4.0-1.51","subject_id":"613b763d4bcbf4b15867a5f9","study_id":"60edd13110225f80f9f3709b","session_id":"6196c4a80a64387375c1e16f","condition":"contingent","relevant_dimensions":["antennae","wings"],"bee_group":{"antennae":"B","wings":"1","pattern":"X","legs":"X"},"bonus":0.08000000000000049},{"rt":918.0999999642372,"stimulus":"bees-with-color/bee-B1SF.svg","response":1,"trial_type":"image-button-response","trial_index":111,"time_elapsed":339832,"internal_node_id":"0.0-4.0-0.52","subject_id":"613b763d4bcbf4b15867a5f9","study_id":"60edd13110225f80f9f3709b","session_id":"6196c4a80a64387375c1e16f","condition":"contingent","relevant_dimensions":["antennae","wings"],"bee_group":{"antennae":"B","wings":"1","pattern":"X","legs":"X"},"action":"avoid","summary":"good-avoid","bonus":0.08000000000000049},{"rt":341.69999998807907,"stimulus":"\n                    <p><b>Action: <em>avoid</em></b></p>\n                    <p>This is the bee that you just saw.</p>\n                    <img src=\"bees-with-color/bee-B1SF.svg\" width=\"200\">\n                    <p><br>Your bonus pay is unchanged, and remains at $0.30.</p>\n            ","response":0,"trial_type":"html-button-response","trial_index":112,"time_elapsed":340176,"internal_node_id":"0.0-4.0-1.52","subject_id":"613b763d4bcbf4b15867a5f9","study_id":"60edd13110225f80f9f3709b","session_id":"6196c4a80a64387375c1e16f","condition":"contingent","relevant_dimensions":["antennae","wings"],"bee_group":{"antennae":"B","wings":"1","pattern":"X","legs":"X"},"bonus":0.08000000000000049},{"rt":406.60000002384186,"stimulus":"bees-with-color/bee-B1SM.svg","response":1,"trial_type":"image-button-response","trial_index":113,"time_elapsed":340584,"internal_node_id":"0.0-4.0-0.53","subject_id":"613b763d4bcbf4b15867a5f9","study_id":"60edd13110225f80f9f3709b","session_id":"6196c4a80a64387375c1e16f","condition":"contingent","relevant_dimensions":["antennae","wings"],"bee_group":{"antennae":"B","wings":"1","pattern":"X","legs":"X"},"action":"avoid","summary":"good-avoid","bonus":0.08000000000000049},{"rt":1238.1000000238419,"stimulus":"\n                    <p><b>Action: <em>avoid</em></b></p>\n                    <p>This is the bee that you just saw.</p>\n                    <img src=\"bees-with-color/bee-B1SM.svg\" width=\"200\">\n                    <p><br>Your bonus pay is unchanged, and remains at $0.30.</p>\n            ","response":0,"trial_type":"html-button-response","trial_index":114,"time_elapsed":341825,"internal_node_id":"0.0-4.0-1.53","subject_id":"613b763d4bcbf4b15867a5f9","study_id":"60edd13110225f80f9f3709b","session_id":"6196c4a80a64387375c1e16f","condition":"contingent","relevant_dimensions":["antennae","wings"],"bee_group":{"antennae":"B","wings":"1","pattern":"X","legs":"X"},"bonus":0.08000000000000049},{"rt":501.80000001192093,"stimulus":"bees-with-color/bee-A2DF.svg","response":1,"trial_type":"image-button-response","trial_index":115,"time_elapsed":342328,"internal_node_id":"0.0-4.0-0.54","subject_id":"613b763d4bcbf4b15867a5f9","study_id":"60edd13110225f80f9f3709b","session_id":"6196c4a80a64387375c1e16f","condition":"contingent","relevant_dimensions":["antennae","wings"],"bee_group":{"antennae":"B","wings":"1","pattern":"X","legs":"X"},"action":"avoid","summary":"bad-avoid","bonus":0.08000000000000049},{"rt":358.30000001192093,"stimulus":"\n                    <p><b>Action: <em>avoid</em></b></p>\n                    <p>This is the bee that you just saw.</p>\n                    <img src=\"bees-with-color/bee-A2DF.svg\" width=\"200\">\n                    <p><br>Your bonus pay is unchanged, and remains at $0.30.</p>\n            ","response":0,"trial_type":"html-button-response","trial_index":116,"time_elapsed":342688,"internal_node_id":"0.0-4.0-1.54","subject_id":"613b763d4bcbf4b15867a5f9","study_id":"60edd13110225f80f9f3709b","session_id":"6196c4a80a64387375c1e16f","condition":"contingent","relevant_dimensions":["antennae","wings"],"bee_group":{"antennae":"B","wings":"1","pattern":"X","legs":"X"},"bonus":0.08000000000000049},{"rt":382.2999999523163,"stimulus":"bees-with-color/bee-B2SM.svg","response":1,"trial_type":"image-button-response","trial_index":117,"time_elapsed":343072,"internal_node_id":"0.0-4.0-0.55","subject_id":"613b763d4bcbf4b15867a5f9","study_id":"60edd13110225f80f9f3709b","session_id":"6196c4a80a64387375c1e16f","condition":"contingent","relevant_dimensions":["antennae","wings"],"bee_group":{"antennae":"B","wings":"1","pattern":"X","legs":"X"},"action":"avoid","summary":"bad-avoid","bonus":0.08000000000000049},{"rt":374.4000000357628,"stimulus":"\n                    <p><b>Action: <em>avoid</em></b></p>\n                    <p>This is the bee that you just saw.</p>\n                    <img src=\"bees-with-color/bee-B2SM.svg\" width=\"200\">\n                    <p><br>Your bonus pay is unchanged, and remains at $0.30.</p>\n            ","response":0,"trial_type":"html-button-response","trial_index":118,"time_elapsed":343448,"internal_node_id":"0.0-4.0-1.55","subject_id":"613b763d4bcbf4b15867a5f9","study_id":"60edd13110225f80f9f3709b","session_id":"6196c4a80a64387375c1e16f","condition":"contingent","relevant_dimensions":["antennae","wings"],"bee_group":{"antennae":"B","wings":"1","pattern":"X","legs":"X"},"bonus":0.08000000000000049},{"rt":366.10000002384186,"stimulus":"bees-with-color/bee-A1SM.svg","response":1,"trial_type":"image-button-response","trial_index":119,"time_elapsed":343816,"internal_node_id":"0.0-4.0-0.56","subject_id":"613b763d4bcbf4b15867a5f9","study_id":"60edd13110225f80f9f3709b","session_id":"6196c4a80a64387375c1e16f","condition":"contingent","relevant_dimensions":["antennae","wings"],"bee_group":{"antennae":"B","wings":"1","pattern":"X","legs":"X"},"action":"avoid","summary":"bad-avoid","bonus":0.08000000000000049},{"rt":318.80000001192093,"stimulus":"\n                    <p><b>Action: <em>avoid</em></b></p>\n                    <p>This is the bee that you just saw.</p>\n                    <img src=\"bees-with-color/bee-A1SM.svg\" width=\"200\">\n                    <p><br>Your bonus pay is unchanged, and remains at $0.30.</p>\n            ","response":0,"trial_type":"html-button-response","trial_index":120,"time_elapsed":344137,"internal_node_id":"0.0-4.0-1.56","subject_id":"613b763d4bcbf4b15867a5f9","study_id":"60edd13110225f80f9f3709b","session_id":"6196c4a80a64387375c1e16f","condition":"contingent","relevant_dimensions":["antennae","wings"],"bee_group":{"antennae":"B","wings":"1","pattern":"X","legs":"X"},"bonus":0.08000000000000049},{"rt":341.5999999642372,"stimulus":"bees-with-color/bee-A1SF.svg","response":1,"trial_type":"image-button-response","trial_index":121,"time_elapsed":344480,"internal_node_id":"0.0-4.0-0.57","subject_id":"613b763d4bcbf4b15867a5f9","study_id":"60edd13110225f80f9f3709b","session_id":"6196c4a80a64387375c1e16f","condition":"contingent","relevant_dimensions":["antennae","wings"],"bee_group":{"antennae":"B","wings":"1","pattern":"X","legs":"X"},"action":"avoid","summary":"bad-avoid","bonus":0.08000000000000049},{"rt":334.30000001192093,"stimulus":"\n                    <p><b>Action: <em>avoid</em></b></p>\n                    <p>This is the bee that you just saw.</p>\n                    <img src=\"bees-with-color/bee-A1SF.svg\" width=\"200\">\n                    <p><br>Your bonus pay is unchanged, and remains at $0.30.</p>\n            ","response":0,"trial_type":"html-button-response","trial_index":122,"time_elapsed":344816,"internal_node_id":"0.0-4.0-1.57","subject_id":"613b763d4bcbf4b15867a5f9","study_id":"60edd13110225f80f9f3709b","session_id":"6196c4a80a64387375c1e16f","condition":"contingent","relevant_dimensions":["antennae","wings"],"bee_group":{"antennae":"B","wings":"1","pattern":"X","legs":"X"},"bonus":0.08000000000000049},{"rt":358.10000002384186,"stimulus":"bees-with-color/bee-A2SF.svg","response":1,"trial_type":"image-button-response","trial_index":123,"time_elapsed":345176,"internal_node_id":"0.0-4.0-0.58","subject_id":"613b763d4bcbf4b15867a5f9","study_id":"60edd13110225f80f9f3709b","session_id":"6196c4a80a64387375c1e16f","condition":"contingent","relevant_dimensions":["antennae","wings"],"bee_group":{"antennae":"B","wings":"1","pattern":"X","legs":"X"},"action":"avoid","summary":"bad-avoid","bonus":0.08000000000000049},{"rt":1094.199999988079,"stimulus":"\n                    <p><b>Action: <em>avoid</em></b></p>\n                    <p>This is the bee that you just saw.</p>\n                    <img src=\"bees-with-color/bee-A2SF.svg\" width=\"200\">\n                    <p><br>Your bonus pay is unchanged, and remains at $0.30.</p>\n            ","response":0,"trial_type":"html-button-response","trial_index":124,"time_elapsed":346272,"internal_node_id":"0.0-4.0-1.58","subject_id":"613b763d4bcbf4b15867a5f9","study_id":"60edd13110225f80f9f3709b","session_id":"6196c4a80a64387375c1e16f","condition":"contingent","relevant_dimensions":["antennae","wings"],"bee_group":{"antennae":"B","wings":"1","pattern":"X","legs":"X"},"bonus":0.08000000000000049},{"rt":366.5,"stimulus":"bees-with-color/bee-B1DM.svg","response":1,"trial_type":"image-button-response","trial_index":125,"time_elapsed":346640,"internal_node_id":"0.0-4.0-0.59","subject_id":"613b763d4bcbf4b15867a5f9","study_id":"60edd13110225f80f9f3709b","session_id":"6196c4a80a64387375c1e16f","condition":"contingent","relevant_dimensions":["antennae","wings"],"bee_group":{"antennae":"B","wings":"1","pattern":"X","legs":"X"},"action":"avoid","summary":"good-avoid","bonus":0.08000000000000049},{"rt":366.0999999642372,"stimulus":"\n                    <p><b>Action: <em>avoid</em></b></p>\n                    <p>This is the bee that you just saw.</p>\n                    <img src=\"bees-with-color/bee-B1DM.svg\" width=\"200\">\n                    <p><br>Your bonus pay is unchanged, and remains at $0.30.</p>\n            ","response":0,"trial_type":"html-button-response","trial_index":126,"time_elapsed":347008,"internal_node_id":"0.0-4.0-1.59","subject_id":"613b763d4bcbf4b15867a5f9","study_id":"60edd13110225f80f9f3709b","session_id":"6196c4a80a64387375c1e16f","condition":"contingent","relevant_dimensions":["antennae","wings"],"bee_group":{"antennae":"B","wings":"1","pattern":"X","legs":"X"},"bonus":0.08000000000000049},{"rt":390.5,"stimulus":"bees-with-color/bee-B2DF.svg","response":1,"trial_type":"image-button-response","trial_index":127,"time_elapsed":347400,"internal_node_id":"0.0-4.0-0.60","subject_id":"613b763d4bcbf4b15867a5f9","study_id":"60edd13110225f80f9f3709b","session_id":"6196c4a80a64387375c1e16f","condition":"contingent","relevant_dimensions":["antennae","wings"],"bee_group":{"antennae":"B","wings":"1","pattern":"X","legs":"X"},"action":"avoid","summary":"bad-avoid","bonus":0.08000000000000049},{"rt":374.10000002384186,"stimulus":"\n                    <p><b>Action: <em>avoid</em></b></p>\n                    <p>This is the bee that you just saw.</p>\n                    <img src=\"bees-with-color/bee-B2DF.svg\" width=\"200\">\n                    <p><br>Your bonus pay is unchanged, and remains at $0.30.</p>\n            ","response":0,"trial_type":"html-button-response","trial_index":128,"time_elapsed":347776,"internal_node_id":"0.0-4.0-1.60","subject_id":"613b763d4bcbf4b15867a5f9","study_id":"60edd13110225f80f9f3709b","session_id":"6196c4a80a64387375c1e16f","condition":"contingent","relevant_dimensions":["antennae","wings"],"bee_group":{"antennae":"B","wings":"1","pattern":"X","legs":"X"},"bonus":0.08000000000000049},{"rt":398.19999998807907,"stimulus":"bees-with-color/bee-B2SF.svg","response":1,"trial_type":"image-button-response","trial_index":129,"time_elapsed":348176,"internal_node_id":"0.0-4.0-0.61","subject_id":"613b763d4bcbf4b15867a5f9","study_id":"60edd13110225f80f9f3709b","session_id":"6196c4a80a64387375c1e16f","condition":"contingent","relevant_dimensions":["antennae","wings"],"bee_group":{"antennae":"B","wings":"1","pattern":"X","legs":"X"},"action":"avoid","summary":"bad-avoid","bonus":0.08000000000000049},{"rt":597.8000000119209,"stimulus":"\n                    <p><b>Action: <em>avoid</em></b></p>\n                    <p>This is the bee that you just saw.</p>\n                    <img src=\"bees-with-color/bee-B2SF.svg\" width=\"200\">\n                    <p><br>Your bonus pay is unchanged, and remains at $0.30.</p>\n            ","response":0,"trial_type":"html-button-response","trial_index":130,"time_elapsed":348776,"internal_node_id":"0.0-4.0-1.61","subject_id":"613b763d4bcbf4b15867a5f9","study_id":"60edd13110225f80f9f3709b","session_id":"6196c4a80a64387375c1e16f","condition":"contingent","relevant_dimensions":["antennae","wings"],"bee_group":{"antennae":"B","wings":"1","pattern":"X","legs":"X"},"bonus":0.08000000000000049},{"rt":430.30000001192093,"stimulus":"bees-with-color/bee-B1DF.svg","response":1,"trial_type":"image-button-response","trial_index":131,"time_elapsed":349208,"internal_node_id":"0.0-4.0-0.62","subject_id":"613b763d4bcbf4b15867a5f9","study_id":"60edd13110225f80f9f3709b","session_id":"6196c4a80a64387375c1e16f","condition":"contingent","relevant_dimensions":["antennae","wings"],"bee_group":{"antennae":"B","wings":"1","pattern":"X","legs":"X"},"action":"avoid","summary":"good-avoid","bonus":0.08000000000000049},{"rt":1133.8999999761581,"stimulus":"\n                    <p><b>Action: <em>avoid</em></b></p>\n                    <p>This is the bee that you just saw.</p>\n                    <img src=\"bees-with-color/bee-B1DF.svg\" width=\"200\">\n                    <p><br>Your bonus pay is unchanged, and remains at $0.30.</p>\n            ","response":0,"trial_type":"html-button-response","trial_index":132,"time_elapsed":350344,"internal_node_id":"0.0-4.0-1.62","subject_id":"613b763d4bcbf4b15867a5f9","study_id":"60edd13110225f80f9f3709b","session_id":"6196c4a80a64387375c1e16f","condition":"contingent","relevant_dimensions":["antennae","wings"],"bee_group":{"antennae":"B","wings":"1","pattern":"X","legs":"X"},"bonus":0.08000000000000049},{"rt":1174.1000000238419,"stimulus":"bees-with-color/bee-A2SM.svg","response":1,"trial_type":"image-button-response","trial_index":133,"time_elapsed":351520,"internal_node_id":"0.0-4.0-0.63","subject_id":"613b763d4bcbf4b15867a5f9","study_id":"60edd13110225f80f9f3709b","session_id":"6196c4a80a64387375c1e16f","condition":"contingent","relevant_dimensions":["antennae","wings"],"bee_group":{"antennae":"B","wings":"1","pattern":"X","legs":"X"},"action":"avoid","summary":"bad-avoid","bonus":0.08000000000000049},{"rt":694,"stimulus":"\n                    <p><b>Action: <em>avoid</em></b></p>\n                    <p>This is the bee that you just saw.</p>\n                    <img src=\"bees-with-color/bee-A2SM.svg\" width=\"200\">\n                    <p><br>Your bonus pay is unchanged, and remains at $0.30.</p>\n            ","response":0,"trial_type":"html-button-response","trial_index":134,"time_elapsed":352216,"internal_node_id":"0.0-4.0-1.63","subject_id":"613b763d4bcbf4b15867a5f9","study_id":"60edd13110225f80f9f3709b","session_id":"6196c4a80a64387375c1e16f","condition":"contingent","relevant_dimensions":["antennae","wings"],"bee_group":{"antennae":"B","wings":"1","pattern":"X","legs":"X"},"bonus":0.08000000000000049},{"rt":7968.699999988079,"stimulus":"You have completed the first part of this experiment.<br><br>You will now begin a shorter second part, in which you will receive no feedback.<br>The same rules regarding bonus pay apply.<br><br>Press any key to begin.","response":" ","trial_type":"html-keyboard-response","trial_index":135,"time_elapsed":360186,"internal_node_id":"0.0-5.0","subject_id":"613b763d4bcbf4b15867a5f9","study_id":"60edd13110225f80f9f3709b","session_id":"6196c4a80a64387375c1e16f","condition":"contingent","relevant_dimensions":["antennae","wings"],"bee_group":{"antennae":"B","wings":"1","pattern":"X","legs":"X"},"bonus":0.08000000000000049},{"rt":3816,"stimulus":"bees-with-color/bee-B2DF.svg","response":1,"trial_type":"image-button-response","trial_index":136,"time_elapsed":364008,"internal_node_id":"0.0-6.0-0.0","subject_id":"613b763d4bcbf4b15867a5f9","study_id":"60edd13110225f80f9f3709b","session_id":"6196c4a80a64387375c1e16f","condition":"contingent","relevant_dimensions":["antennae","wings"],"bee_group":{"antennae":"B","wings":"1","pattern":"X","legs":"X"},"bonus":0.08000000000000049},{"rt":1277.2000000476837,"stimulus":"bees-with-color/bee-B1DF.svg","response":0,"trial_type":"image-button-response","trial_index":137,"time_elapsed":365288,"internal_node_id":"0.0-6.0-0.1","subject_id":"613b763d4bcbf4b15867a5f9","study_id":"60edd13110225f80f9f3709b","session_id":"6196c4a80a64387375c1e16f","condition":"contingent","relevant_dimensions":["antennae","wings"],"bee_group":{"antennae":"B","wings":"1","pattern":"X","legs":"X"},"bonus":0.08000000000000049},{"rt":1781.5,"stimulus":"bees-with-color/bee-B1DM.svg","response":0,"trial_type":"image-button-response","trial_index":138,"time_elapsed":367072,"internal_node_id":"0.0-6.0-0.2","subject_id":"613b763d4bcbf4b15867a5f9","study_id":"60edd13110225f80f9f3709b","session_id":"6196c4a80a64387375c1e16f","condition":"contingent","relevant_dimensions":["antennae","wings"],"bee_group":{"antennae":"B","wings":"1","pattern":"X","legs":"X"},"bonus":0.08000000000000049},{"rt":4541.600000023842,"stimulus":"bees-with-color/bee-A2SM.svg","response":1,"trial_type":"image-button-response","trial_index":139,"time_elapsed":371616,"internal_node_id":"0.0-6.0-0.3","subject_id":"613b763d4bcbf4b15867a5f9","study_id":"60edd13110225f80f9f3709b","session_id":"6196c4a80a64387375c1e16f","condition":"contingent","relevant_dimensions":["antennae","wings"],"bee_group":{"antennae":"B","wings":"1","pattern":"X","legs":"X"},"bonus":0.08000000000000049},{"rt":2341.199999988079,"stimulus":"bees-with-color/bee-A1SM.svg","response":0,"trial_type":"image-button-response","trial_index":140,"time_elapsed":373960,"internal_node_id":"0.0-6.0-0.4","subject_id":"613b763d4bcbf4b15867a5f9","study_id":"60edd13110225f80f9f3709b","session_id":"6196c4a80a64387375c1e16f","condition":"contingent","relevant_dimensions":["antennae","wings"],"bee_group":{"antennae":"B","wings":"1","pattern":"X","legs":"X"},"bonus":0.08000000000000049},{"rt":1086.3999999761581,"stimulus":"bees-with-color/bee-A2SF.svg","response":1,"trial_type":"image-button-response","trial_index":141,"time_elapsed":375049,"internal_node_id":"0.0-6.0-0.5","subject_id":"613b763d4bcbf4b15867a5f9","study_id":"60edd13110225f80f9f3709b","session_id":"6196c4a80a64387375c1e16f","condition":"contingent","relevant_dimensions":["antennae","wings"],"bee_group":{"antennae":"B","wings":"1","pattern":"X","legs":"X"},"bonus":0.08000000000000049},{"rt":5812.5,"stimulus":"bees-with-color/bee-A1DF.svg","response":0,"trial_type":"image-button-response","trial_index":142,"time_elapsed":380864,"internal_node_id":"0.0-6.0-0.6","subject_id":"613b763d4bcbf4b15867a5f9","study_id":"60edd13110225f80f9f3709b","session_id":"6196c4a80a64387375c1e16f","condition":"contingent","relevant_dimensions":["antennae","wings"],"bee_group":{"antennae":"B","wings":"1","pattern":"X","legs":"X"},"bonus":0.08000000000000049},{"rt":2661.400000035763,"stimulus":"bees-with-color/bee-A2DM.svg","response":1,"trial_type":"image-button-response","trial_index":143,"time_elapsed":383528,"internal_node_id":"0.0-6.0-0.7","subject_id":"613b763d4bcbf4b15867a5f9","study_id":"60edd13110225f80f9f3709b","session_id":"6196c4a80a64387375c1e16f","condition":"contingent","relevant_dimensions":["antennae","wings"],"bee_group":{"antennae":"B","wings":"1","pattern":"X","legs":"X"},"bonus":0.08000000000000049},{"rt":5389.5,"stimulus":"bees-with-color/bee-B2SF.svg","response":1,"trial_type":"image-button-response","trial_index":144,"time_elapsed":388920,"internal_node_id":"0.0-6.0-0.8","subject_id":"613b763d4bcbf4b15867a5f9","study_id":"60edd13110225f80f9f3709b","session_id":"6196c4a80a64387375c1e16f","condition":"contingent","relevant_dimensions":["antennae","wings"],"bee_group":{"antennae":"B","wings":"1","pattern":"X","legs":"X"},"bonus":0.08000000000000049},{"rt":1269.300000011921,"stimulus":"bees-with-color/bee-B2DM.svg","response":1,"trial_type":"image-button-response","trial_index":145,"time_elapsed":390192,"internal_node_id":"0.0-6.0-0.9","subject_id":"613b763d4bcbf4b15867a5f9","study_id":"60edd13110225f80f9f3709b","session_id":"6196c4a80a64387375c1e16f","condition":"contingent","relevant_dimensions":["antennae","wings"],"bee_group":{"antennae":"B","wings":"1","pattern":"X","legs":"X"},"bonus":0.08000000000000049},{"rt":3189.5,"stimulus":"bees-with-color/bee-B1SM.svg","response":0,"trial_type":"image-button-response","trial_index":146,"time_elapsed":393384,"internal_node_id":"0.0-6.0-0.10","subject_id":"613b763d4bcbf4b15867a5f9","study_id":"60edd13110225f80f9f3709b","session_id":"6196c4a80a64387375c1e16f","condition":"contingent","relevant_dimensions":["antennae","wings"],"bee_group":{"antennae":"B","wings":"1","pattern":"X","legs":"X"},"bonus":0.08000000000000049},{"rt":1501.6000000238419,"stimulus":"bees-with-color/bee-A1DM.svg","response":0,"trial_type":"image-button-response","trial_index":147,"time_elapsed":394888,"internal_node_id":"0.0-6.0-0.11","subject_id":"613b763d4bcbf4b15867a5f9","study_id":"60edd13110225f80f9f3709b","session_id":"6196c4a80a64387375c1e16f","condition":"contingent","relevant_dimensions":["antennae","wings"],"bee_group":{"antennae":"B","wings":"1","pattern":"X","legs":"X"},"bonus":0.08000000000000049},{"rt":1517.5,"stimulus":"bees-with-color/bee-B1SF.svg","response":1,"trial_type":"image-button-response","trial_index":148,"time_elapsed":396408,"internal_node_id":"0.0-6.0-0.12","subject_id":"613b763d4bcbf4b15867a5f9","study_id":"60edd13110225f80f9f3709b","session_id":"6196c4a80a64387375c1e16f","condition":"contingent","relevant_dimensions":["antennae","wings"],"bee_group":{"antennae":"B","wings":"1","pattern":"X","legs":"X"},"bonus":0.08000000000000049},{"rt":6269.5,"stimulus":"bees-with-color/bee-A1SF.svg","response":0,"trial_type":"image-button-response","trial_index":149,"time_elapsed":402680,"internal_node_id":"0.0-6.0-0.13","subject_id":"613b763d4bcbf4b15867a5f9","study_id":"60edd13110225f80f9f3709b","session_id":"6196c4a80a64387375c1e16f","condition":"contingent","relevant_dimensions":["antennae","wings"],"bee_group":{"antennae":"B","wings":"1","pattern":"X","legs":"X"},"bonus":0.08000000000000049},{"rt":708.5,"stimulus":"bees-with-color/bee-B2SM.svg","response":1,"trial_type":"image-button-response","trial_index":150,"time_elapsed":403392,"internal_node_id":"0.0-6.0-0.14","subject_id":"613b763d4bcbf4b15867a5f9","study_id":"60edd13110225f80f9f3709b","session_id":"6196c4a80a64387375c1e16f","condition":"contingent","relevant_dimensions":["antennae","wings"],"bee_group":{"antennae":"B","wings":"1","pattern":"X","legs":"X"},"bonus":0.08000000000000049},{"rt":1045.3999999761581,"stimulus":"bees-with-color/bee-A2DF.svg","response":1,"trial_type":"image-button-response","trial_index":151,"time_elapsed":404440,"internal_node_id":"0.0-6.0-0.15","subject_id":"613b763d4bcbf4b15867a5f9","study_id":"60edd13110225f80f9f3709b","session_id":"6196c4a80a64387375c1e16f","condition":"contingent","relevant_dimensions":["antennae","wings"],"bee_group":{"antennae":"B","wings":"1","pattern":"X","legs":"X"},"bonus":0.08000000000000049},{"rt":901.3999999761581,"stimulus":"bees-with-color/bee-B1DF.svg","response":1,"trial_type":"image-button-response","trial_index":152,"time_elapsed":405344,"internal_node_id":"0.0-6.0-0.16","subject_id":"613b763d4bcbf4b15867a5f9","study_id":"60edd13110225f80f9f3709b","session_id":"6196c4a80a64387375c1e16f","condition":"contingent","relevant_dimensions":["antennae","wings"],"bee_group":{"antennae":"B","wings":"1","pattern":"X","legs":"X"},"bonus":0.08000000000000049},{"rt":605.6000000238419,"stimulus":"bees-with-color/bee-A2SF.svg","response":1,"trial_type":"image-button-response","trial_index":153,"time_elapsed":405952,"internal_node_id":"0.0-6.0-0.17","subject_id":"613b763d4bcbf4b15867a5f9","study_id":"60edd13110225f80f9f3709b","session_id":"6196c4a80a64387375c1e16f","condition":"contingent","relevant_dimensions":["antennae","wings"],"bee_group":{"antennae":"B","wings":"1","pattern":"X","legs":"X"},"bonus":0.08000000000000049},{"rt":325.60000002384186,"stimulus":"bees-with-color/bee-A1SF.svg","response":1,"trial_type":"image-button-response","trial_index":154,"time_elapsed":406280,"internal_node_id":"0.0-6.0-0.18","subject_id":"613b763d4bcbf4b15867a5f9","study_id":"60edd13110225f80f9f3709b","session_id":"6196c4a80a64387375c1e16f","condition":"contingent","relevant_dimensions":["antennae","wings"],"bee_group":{"antennae":"B","wings":"1","pattern":"X","legs":"X"},"bonus":0.08000000000000049},{"rt":165.30000001192093,"stimulus":"bees-with-color/bee-B1DM.svg","response":1,"trial_type":"image-button-response","trial_index":155,"time_elapsed":406448,"internal_node_id":"0.0-6.0-0.19","subject_id":"613b763d4bcbf4b15867a5f9","study_id":"60edd13110225f80f9f3709b","session_id":"6196c4a80a64387375c1e16f","condition":"contingent","relevant_dimensions":["antennae","wings"],"bee_group":{"antennae":"B","wings":"1","pattern":"X","legs":"X"},"bonus":0.08000000000000049},{"rt":173.10000002384186,"stimulus":"bees-with-color/bee-B2SM.svg","response":1,"trial_type":"image-button-response","trial_index":156,"time_elapsed":406624,"internal_node_id":"0.0-6.0-0.20","subject_id":"613b763d4bcbf4b15867a5f9","study_id":"60edd13110225f80f9f3709b","session_id":"6196c4a80a64387375c1e16f","condition":"contingent","relevant_dimensions":["antennae","wings"],"bee_group":{"antennae":"B","wings":"1","pattern":"X","legs":"X"},"bonus":0.08000000000000049},{"rt":181.5,"stimulus":"bees-with-color/bee-B2DF.svg","response":1,"trial_type":"image-button-response","trial_index":157,"time_elapsed":406808,"internal_node_id":"0.0-6.0-0.21","subject_id":"613b763d4bcbf4b15867a5f9","study_id":"60edd13110225f80f9f3709b","session_id":"6196c4a80a64387375c1e16f","condition":"contingent","relevant_dimensions":["antennae","wings"],"bee_group":{"antennae":"B","wings":"1","pattern":"X","legs":"X"},"bonus":0.08000000000000049},{"rt":205.60000002384186,"stimulus":"bees-with-color/bee-A2DM.svg","response":1,"trial_type":"image-button-response","trial_index":158,"time_elapsed":407016,"internal_node_id":"0.0-6.0-0.22","subject_id":"613b763d4bcbf4b15867a5f9","study_id":"60edd13110225f80f9f3709b","session_id":"6196c4a80a64387375c1e16f","condition":"contingent","relevant_dimensions":["antennae","wings"],"bee_group":{"antennae":"B","wings":"1","pattern":"X","legs":"X"},"bonus":0.08000000000000049},{"rt":181.69999998807907,"stimulus":"bees-with-color/bee-A2SM.svg","response":1,"trial_type":"image-button-response","trial_index":159,"time_elapsed":407200,"internal_node_id":"0.0-6.0-0.23","subject_id":"613b763d4bcbf4b15867a5f9","study_id":"60edd13110225f80f9f3709b","session_id":"6196c4a80a64387375c1e16f","condition":"contingent","relevant_dimensions":["antennae","wings"],"bee_group":{"antennae":"B","wings":"1","pattern":"X","legs":"X"},"bonus":0.08000000000000049},{"rt":164.5,"stimulus":"bees-with-color/bee-A2DF.svg","response":1,"trial_type":"image-button-response","trial_index":160,"time_elapsed":407368,"internal_node_id":"0.0-6.0-0.24","subject_id":"613b763d4bcbf4b15867a5f9","study_id":"60edd13110225f80f9f3709b","session_id":"6196c4a80a64387375c1e16f","condition":"contingent","relevant_dimensions":["antennae","wings"],"bee_group":{"antennae":"B","wings":"1","pattern":"X","legs":"X"},"bonus":0.08000000000000049},{"rt":389.60000002384186,"stimulus":"bees-with-color/bee-B2SF.svg","response":1,"trial_type":"image-button-response","trial_index":161,"time_elapsed":407760,"internal_node_id":"0.0-6.0-0.25","subject_id":"613b763d4bcbf4b15867a5f9","study_id":"60edd13110225f80f9f3709b","session_id":"6196c4a80a64387375c1e16f","condition":"contingent","relevant_dimensions":["antennae","wings"],"bee_group":{"antennae":"B","wings":"1","pattern":"X","legs":"X"},"bonus":0.08000000000000049},{"rt":389.5,"stimulus":"bees-with-color/bee-A1DM.svg","response":1,"trial_type":"image-button-response","trial_index":162,"time_elapsed":408152,"internal_node_id":"0.0-6.0-0.26","subject_id":"613b763d4bcbf4b15867a5f9","study_id":"60edd13110225f80f9f3709b","session_id":"6196c4a80a64387375c1e16f","condition":"contingent","relevant_dimensions":["antennae","wings"],"bee_group":{"antennae":"B","wings":"1","pattern":"X","legs":"X"},"bonus":0.08000000000000049},{"rt":165.5999999642372,"stimulus":"bees-with-color/bee-B2DM.svg","response":1,"trial_type":"image-button-response","trial_index":163,"time_elapsed":408320,"internal_node_id":"0.0-6.0-0.27","subject_id":"613b763d4bcbf4b15867a5f9","study_id":"60edd13110225f80f9f3709b","session_id":"6196c4a80a64387375c1e16f","condition":"contingent","relevant_dimensions":["antennae","wings"],"bee_group":{"antennae":"B","wings":"1","pattern":"X","legs":"X"},"bonus":0.08000000000000049},{"rt":149.5,"stimulus":"bees-with-color/bee-A1DF.svg","response":1,"trial_type":"image-button-response","trial_index":164,"time_elapsed":408472,"internal_node_id":"0.0-6.0-0.28","subject_id":"613b763d4bcbf4b15867a5f9","study_id":"60edd13110225f80f9f3709b","session_id":"6196c4a80a64387375c1e16f","condition":"contingent","relevant_dimensions":["antennae","wings"],"bee_group":{"antennae":"B","wings":"1","pattern":"X","legs":"X"},"bonus":0.08000000000000049},{"rt":389.199999988