[{"success":true,"trial_type":"fullscreen","trial_index":0,"time_elapsed":3827,"internal_node_id":"0.0-0.0","subject_id":"61085399a8e88b607b3ffd58","study_id":"60edd13110225f80f9f3709b","session_id":"6196c4a719749927463d722c","condition":"full-information","relevant_dimensions":["antennae","pattern"],"bee_group":{"antennae":"A","wings":"X","pattern":"D","legs":"X"},"bonus":0.18000000000000071},{"success":true,"timeout":false,"failed_images":[],"failed_audio":[],"failed_video":[],"trial_type":"preload","trial_index":1,"time_elapsed":5427,"internal_node_id":"0.0-1.0","subject_id":"61085399a8e88b607b3ffd58","study_id":"60edd13110225f80f9f3709b","session_id":"6196c4a719749927463d722c","condition":"full-information","relevant_dimensions":["antennae","pattern"],"bee_group":{"antennae":"A","wings":"X","pattern":"D","legs":"X"},"bonus":0.18000000000000071},{"rt":941.1000000014901,"stimulus":"Welcome! Press any key to begin.","response":" ","trial_type":"html-keyboard-response","trial_index":2,"time_elapsed":6370,"internal_node_id":"0.0-2.0","subject_id":"61085399a8e88b607b3ffd58","study_id":"60edd13110225f80f9f3709b","session_id":"6196c4a719749927463d722c","condition":"full-information","relevant_dimensions":["antennae","pattern"],"bee_group":{"antennae":"A","wings":"X","pattern":"D","legs":"X"},"bonus":0.18000000000000071},{"view_history":[{"page_index":0,"viewing_time":4705.4000000059605},{"page_index":1,"viewing_time":18528.5},{"page_index":2,"viewing_time":18974.29999999702},{"page_index":3,"viewing_time":14466.20000000298},{"page_index":4,"viewing_time":2689.39999999851},{"page_index":3,"viewing_time":3086.60000000149},{"page_index":4,"viewing_time":6381},{"page_index":5,"viewing_time":13537},{"page_index":6,"viewing_time":10250.59999999404},{"page_index":7,"viewing_time":6339.60000000149},{"page_index":8,"viewing_time":8061.39999999851},{"page_index":9,"viewing_time":2751.60000000149},{"page_index":10,"viewing_time":2783.5},{"page_index":11,"viewing_time":8370.60000000149},{"page_index":12,"viewing_time":7859.60000000149},{"page_index":13,"viewing_time":1195},{"page_index":14,"viewing_time":1549.2999999970198}],"rt":131530.1000000015,"trial_type":"instructions","trial_index":3,"time_elapsed":137916,"internal_node_id":"0.0-3.0-0.0","subject_id":"61085399a8e88b607b3ffd58","study_id":"60edd13110225f80f9f3709b","session_id":"6196c4a719749927463d722c","condition":"full-information","relevant_dimensions":["antennae","pattern"],"bee_group":{"antennae":"A","wings":"X","pattern":"D","legs":"X"},"bonus":0.18000000000000071},{"rt":19523.19999999553,"response":{"Q0":["Two or six legs","Stripes or spots on body","Single or double wings","Antennae or no antennae"]},"question_order":[0],"trial_type":"survey-multi-select","trial_index":4,"time_elapsed":157452,"internal_node_id":"0.0-3.0-1.0","subject_id":"61085399a8e88b607b3ffd58","study_id":"60edd13110225f80f9f3709b","session_id":"6196c4a719749927463d722c","condition":"full-information","relevant_dimensions":["antennae","pattern"],"bee_group":{"antennae":"A","wings":"X","pattern":"D","legs":"X"},"correct":true,"bonus":0.18000000000000071},{"rt":16659.89999999851,"response":{"Q1":"No.","Q2":"Based on the four features of the bee.","Q3":"You learn if it was friendly or dangerous, but do not alter your bonus."},"question_order":[0,1,2],"trial_type":"survey-multi-choice","trial_index":5,"time_elapsed":174117,"internal_node_id":"0.0-3.0-2.0","subject_id":"61085399a8e88b607b3ffd58","study_id":"60edd13110225f80f9f3709b","session_id":"6196c4a719749927463d722c","condition":"full-information","relevant_dimensions":["antennae","pattern"],"bee_group":{"antennae":"A","wings":"X","pattern":"D","legs":"X"},"correct":true,"bonus":0.18000000000000071},{"rt":10831.40000000596,"stimulus":"<p>Congrats, you got everything right<br>When you're ready, click the button below to continue to the experiment.</p>","response":0,"trial_type":"html-button-response","trial_index":6,"time_elapsed":184953,"internal_node_id":"0.0-3.0-3.0","subject_id":"61085399a8e88b607b3ffd58","study_id":"60edd13110225f80f9f3709b","session_id":"6196c4a719749927463d722c","condition":"full-information","relevant_dimensions":["antennae","pattern"],"bee_group":{"antennae":"A","wings":"X","pattern":"D","legs":"X"},"bonus":0.18000000000000071},{"rt":14061.80000000447,"stimulus":"bees-with-color/bee-B2DF.svg","response":1,"trial_type":"image-button-response","trial_index":7,"time_elapsed":199030,"internal_node_id":"0.0-4.0-0.0","subject_id":"61085399a8e88b607b3ffd58","study_id":"60edd13110225f80f9f3709b","session_id":"6196c4a719749927463d722c","condition":"full-information","relevant_dimensions":["antennae","pattern"],"bee_group":{"antennae":"A","wings":"X","pattern":"D","legs":"X"},"action":"avoid","summary":"bad-avoid","bonus":0.18000000000000071},{"rt":31562.10000000149,"stimulus":"\n                    <p><b>Action: <em>avoid</em></b></p>\n                    <p>This is the bee that you just saw.</p>\n                    <img src=\"bees-with-color/bee-B2DF.svg\" width=\"200\">\n                    <p><span class=\"redText\">Bad choice,</span> the bee was friendly.<br>Your bonus pay is unchanged, and remains at $0.54.</p>\n            ","response":0,"trial_type":"html-button-response","trial_index":8,"time_elapsed":230603,"internal_node_id":"0.0-4.0-1.0","subject_id":"61085399a8e88b607b3ffd58","study_id":"60edd13110225f80f9f3709b","session_id":"6196c4a719749927463d722c","condition":"full-information","relevant_dimensions":["antennae","pattern"],"bee_group":{"antennae":"A","wings":"X","pattern":"D","legs":"X"},"bonus":0.18000000000000071},{"rt":4715.39999999851,"stimulus":"bees-with-color/bee-A1DF.svg","response":1,"trial_type":"image-button-response","trial_index":9,"time_elapsed":235326,"internal_node_id":"0.0-4.0-0.1","subject_id":"61085399a8e88b607b3ffd58","study_id":"60edd13110225f80f9f3709b","session_id":"6196c4a719749927463d722c","condition":"full-information","relevant_dimensions":["antennae","pattern"],"bee_group":{"antennae":"A","wings":"X","pattern":"D","legs":"X"},"action":"avoid","summary":"good-avoid","bonus":0.18000000000000071},{"rt":3491.2999999970198,"stimulus":"\n                    <p><b>Action: <em>avoid</em></b></p>\n                    <p>This is the bee that you just saw.</p>\n                    <img src=\"bees-with-color/bee-A1DF.svg\" width=\"200\">\n                    <p><span class=\"greenText\">Good choice!</span>  This bee would have stung you.<br>Your bonus pay is unchanged, and remains at $0.54.</p>\n            ","response":0,"trial_type":"html-button-response","trial_index":10,"time_elapsed":238823,"internal_node_id":"0.0-4.0-1.1","subject_id":"61085399a8e88b607b3ffd58","study_id":"60edd13110225f80f9f3709b","session_id":"6196c4a719749927463d722c","condition":"full-information","relevant_dimensions":["antennae","pattern"],"bee_group":{"antennae":"A","wings":"X","pattern":"D","legs":"X"},"bonus":0.18000000000000071},{"rt":7006.89999999851,"stimulus":"bees-with-color/bee-A2DM.svg","response":1,"trial_type":"image-button-response","trial_index":11,"time_elapsed":245833,"internal_node_id":"0.0-4.0-0.2","subject_id":"61085399a8e88b607b3ffd58","study_id":"60edd13110225f80f9f3709b","session_id":"6196c4a719749927463d722c","condition":"full-information","relevant_dimensions":["antennae","pattern"],"bee_group":{"antennae":"A","wings":"X","pattern":"D","legs":"X"},"action":"avoid","summary":"good-avoid","bonus":0.18000000000000071},{"rt":3168.5,"stimulus":"\n                    <p><b>Action: <em>avoid</em></b></p>\n                    <p>This is the bee that you just saw.</p>\n                    <img src=\"bees-with-color/bee-A2DM.svg\" width=\"200\">\n                    <p><span class=\"greenText\">Good choice!</span>  This bee would have stung you.<br>Your bonus pay is unchanged, and remains at $0.54.</p>\n            ","response":0,"trial_type":"html-button-response","trial_index":12,"time_elapsed":249004,"internal_node_id":"0.0-4.0-1.2","subject_id":"61085399a8e88b607b3ffd58","study_id":"60edd13110225f80f9f3709b","session_id":"6196c4a719749927463d722c","condition":"full-information","relevant_dimensions":["antennae","pattern"],"bee_group":{"antennae":"A","wings":"X","pattern":"D","legs":"X"},"bonus":0.18000000000000071},{"rt":8893.29999999702,"stimulus":"bees-with-color/bee-A2SM.svg","response":0,"trial_type":"image-button-response","trial_index":13,"time_elapsed":257901,"internal_node_id":"0.0-4.0-0.3","subject_id":"61085399a8e88b607b3ffd58","study_id":"60edd13110225f80f9f3709b","session_id":"6196c4a719749927463d722c","condition":"full-information","relevant_dimensions":["antennae","pattern"],"bee_group":{"antennae":"A","wings":"X","pattern":"D","legs":"X"},"action":"harvest","summary":"good-harvest","bonus":0.18000000000000071},{"rt":7421.29999999702,"stimulus":"\n                    <p><b>Action: <em>harvest</em></b></p>\n                    <p>This is the bee that you just saw.</p>\n                    <img src=\"bees-with-color/bee-A2SM.svg\" width=\"200\">\n                    <p><span class=\"greenText\"><b>Successful harvest!</b></span><br>Your pay has increased by $0.02. Your bonus pay is now $0.56.</p>\n            ","response":0,"trial_type":"html-button-response","trial_index":14,"time_elapsed":265326,"internal_node_id":"0.0-4.0-1.3","subject_id":"61085399a8e88b607b3ffd58","study_id":"60edd13110225f80f9f3709b","session_id":"6196c4a719749927463d722c","condition":"full-information","relevant_dimensions":["antennae","pattern"],"bee_group":{"antennae":"A","wings":"X","pattern":"D","legs":"X"},"bonus":0.18000000000000071},{"rt":5713.5,"stimulus":"bees-with-color/bee-B1SM.svg","response":1,"trial_type":"image-button-response","trial_index":15,"time_elapsed":271043,"internal_node_id":"0.0-4.0-0.4","subject_id":"61085399a8e88b607b3ffd58","study_id":"60edd13110225f80f9f3709b","session_id":"6196c4a719749927463d722c","condition":"full-information","relevant_dimensions":["antennae","pattern"],"bee_group":{"antennae":"A","wings":"X","pattern":"D","legs":"X"},"action":"avoid","summary":"bad-avoid","bonus":0.18000000000000071},{"rt":5360.9000000059605,"stimulus":"\n                    <p><b>Action: <em>avoid</em></b></p>\n                    <p>This is the bee that you just saw.</p>\n                    <img src=\"bees-with-color/bee-B1SM.svg\" width=\"200\">\n                    <p><span class=\"redText\">Bad choice,</span> the bee was friendly.<br>Your bonus pay is unchanged, and remains at $0.56.</p>\n            ","response":0,"trial_type":"html-button-response","trial_index":16,"time_elapsed":276407,"internal_node_id":"0.0-4.0-1.4","subject_id":"61085399a8e88b607b3ffd58","study_id":"60edd13110225f80f9f3709b","session_id":"6196c4a719749927463d722c","condition":"full-information","relevant_dimensions":["antennae","pattern"],"bee_group":{"antennae":"A","wings":"X","pattern":"D","legs":"X"},"bonus":0.18000000000000071},{"rt":3064.39999999851,"stimulus":"bees-with-color/bee-A2SF.svg","response":0,"trial_type":"image-button-response","trial_index":17,"time_elapsed":279476,"internal_node_id":"0.0-4.0-0.5","subject_id":"61085399a8e88b607b3ffd58","study_id":"60edd13110225f80f9f3709b","session_id":"6196c4a719749927463d722c","condition":"full-information","relevant_dimensions":["antennae","pattern"],"bee_group":{"antennae":"A","wings":"X","pattern":"D","legs":"X"},"action":"harvest","summary":"good-harvest","bonus":0.18000000000000071},{"rt":2238.7999999970198,"stimulus":"\n                    <p><b>Action: <em>harvest</em></b></p>\n                    <p>This is the bee that you just saw.</p>\n                    <img src=\"bees-with-color/bee-A2SF.svg\" width=\"200\">\n                    <p><span class=\"greenText\"><b>Successful harvest!</b></span><br>Your pay has increased by $0.02. Your bonus pay is now $0.58.</p>\n            ","response":0,"trial_type":"html-button-response","trial_index":18,"time_elapsed":281718,"internal_node_id":"0.0-4.0-1.5","subject_id":"61085399a8e88b607b3ffd58","study_id":"60edd13110225f80f9f3709b","session_id":"6196c4a719749927463d722c","condition":"full-information","relevant_dimensions":["antennae","pattern"],"bee_group":{"antennae":"A","wings":"X","pattern":"D","legs":"X"},"bonus":0.18000000000000071},{"rt":3565.9000000059605,"stimulus":"bees-with-color/bee-B1DM.svg","response":1,"trial_type":"image-button-response","trial_index":19,"time_elapsed":285288,"internal_node_id":"0.0-4.0-0.6","subject_id":"61085399a8e88b607b3ffd58","study_id":"60edd13110225f80f9f3709b","session_id":"6196c4a719749927463d722c","condition":"full-information","relevant_dimensions":["antennae","pattern"],"bee_group":{"antennae":"A","wings":"X","pattern":"D","legs":"X"},"action":"avoid","summary":"bad-avoid","bonus":0.18000000000000071},{"rt":4122.89999999851,"stimulus":"\n                    <p><b>Action: <em>avoid</em></b></p>\n                    <p>This is the bee that you just saw.</p>\n                    <img src=\"bees-with-color/bee-B1DM.svg\" width=\"200\">\n                    <p><span class=\"redText\">Bad choice,</span> the bee was friendly.<br>Your bonus pay is unchanged, and remains at $0.58.</p>\n            ","response":0,"trial_type":"html-button-response","trial_index":20,"time_elapsed":289414,"internal_node_id":"0.0-4.0-1.6","subject_id":"61085399a8e88b607b3ffd58","study_id":"60edd13110225f80f9f3709b","session_id":"6196c4a719749927463d722c","condition":"full-information","relevant_dimensions":["antennae","pattern"],"bee_group":{"antennae":"A","wings":"X","pattern":"D","legs":"X"},"bonus":0.18000000000000071},{"rt":2464.5,"stimulus":"bees-with-color/bee-B1DF.svg","response":1,"trial_type":"image-button-response","trial_index":21,"time_elapsed":291882,"internal_node_id":"0.0-4.0-0.7","subject_id":"61085399a8e88b607b3ffd58","study_id":"60edd13110225f80f9f3709b","session_id":"6196c4a719749927463d722c","condition":"full-information","relevant_dimensions":["antennae","pattern"],"bee_group":{"antennae":"A","wings":"X","pattern":"D","legs":"X"},"action":"avoid","summary":"bad-avoid","bonus":0.18000000000000071},{"rt":2583.5,"stimulus":"\n                    <p><b>Action: <em>avoid</em></b></p>\n                    <p>This is the bee that you just saw.</p>\n                    <img src=\"bees-with-color/bee-B1DF.svg\" width=\"200\">\n                    <p><span class=\"redText\">Bad choice,</span> the bee was friendly.<br>Your bonus pay is unchanged, and remains at $0.58.</p>\n            ","response":0,"trial_type":"html-button-response","trial_index":22,"time_elapsed":294468,"internal_node_id":"0.0-4.0-1.7","subject_id":"61085399a8e88b607b3ffd58","study_id":"60edd13110225f80f9f3709b","session_id":"6196c4a719749927463d722c","condition":"full-information","relevant_dimensions":["antennae","pattern"],"bee_group":{"antennae":"A","wings":"X","pattern":"D","legs":"X"},"bonus":0.18000000000000071},{"rt":3294.39999999851,"stimulus":"bees-with-color/bee-A2DF.svg","response":1,"trial_type":"image-button-response","trial_index":23,"time_elapsed":297766,"internal_node_id":"0.0-4.0-0.8","subject_id":"61085399a8e88b607b3ffd58","study_id":"60edd13110225f80f9f3709b","session_id":"6196c4a719749927463d722c","condition":"full-information","relevant_dimensions":["antennae","pattern"],"bee_group":{"antennae":"A","wings":"X","pattern":"D","legs":"X"},"action":"avoid","summary":"good-avoid","bonus":0.18000000000000071},{"rt":1745.8999999985099,"stimulus":"\n                    <p><b>Action: <em>avoid</em></b></p>\n                    <p>This is the bee that you just saw.</p>\n                    <img src=\"bees-with-color/bee-A2DF.svg\" width=\"200\">\n                    <p><span class=\"greenText\">Good choice!</span>  This bee would have stung you.<br>Your bonus pay is unchanged, and remains at $0.58.</p>\n            ","response":0,"trial_type":"html-button-response","trial_index":24,"time_elapsed":299514,"internal_node_id":"0.0-4.0-1.8","subject_id":"61085399a8e88b607b3ffd58","study_id":"60edd13110225f80f9f3709b","session_id":"6196c4a719749927463d722c","condition":"full-information","relevant_dimensions":["antennae","pattern"],"bee_group":{"antennae":"A","wings":"X","pattern":"D","legs":"X"},"bonus":0.18000000000000071},{"rt":1623.7999999970198,"stimulus":"bees-with-color/bee-A1SF.svg","response":0,"trial_type":"image-button-response","trial_index":25,"time_elapsed":301141,"internal_node_id":"0.0-4.0-0.9","subject_id":"61085399a8e88b607b3ffd58","study_id":"60edd13110225f80f9f3709b","session_id":"6196c4a719749927463d722c","condition":"full-information","relevant_dimensions":["antennae","pattern"],"bee_group":{"antennae":"A","wings":"X","pattern":"D","legs":"X"},"action":"harvest","summary":"good-harvest","bonus":0.18000000000000071},{"rt":1901,"stimulus":"\n                    <p><b>Action: <em>harvest</em></b></p>\n                    <p>This is the bee that you just saw.</p>\n                    <img src=\"bees-with-color/bee-A1SF.svg\" width=\"200\">\n                    <p><span class=\"greenText\"><b>Successful harvest!</b></span><br>Your pay has increased by $0.02. Your bonus pay is now $0.60.</p>\n            ","response":0,"trial_type":"html-button-response","trial_index":26,"time_elapsed":303045,"internal_node_id":"0.0-4.0-1.9","subject_id":"61085399a8e88b607b3ffd58","study_id":"60edd13110225f80f9f3709b","session_id":"6196c4a719749927463d722c","condition":"full-information","relevant_dimensions":["antennae","pattern"],"bee_group":{"antennae":"A","wings":"X","pattern":"D","legs":"X"},"bonus":0.18000000000000071},{"rt":2297.2000000029802,"stimulus":"bees-with-color/bee-B2SM.svg","response":0,"trial_type":"image-button-response","trial_index":27,"time_elapsed":305345,"internal_node_id":"0.0-4.0-0.10","subject_id":"61085399a8e88b607b3ffd58","study_id":"60edd13110225f80f9f3709b","session_id":"6196c4a719749927463d722c","condition":"full-information","relevant_dimensions":["antennae","pattern"],"bee_group":{"antennae":"A","wings":"X","pattern":"D","legs":"X"},"action":"harvest","summary":"good-harvest","bonus":0.18000000000000071},{"rt":1328.2999999970198,"stimulus":"\n                    <p><b>Action: <em>harvest</em></b></p>\n                    <p>This is the bee that you just saw.</p>\n                    <img src=\"bees-with-color/bee-B2SM.svg\" width=\"200\">\n                    <p><span class=\"greenText\"><b>Successful harvest!</b></span><br>Your pay has increased by $0.02. Your bonus pay is now $0.62.</p>\n            ","response":0,"trial_type":"html-button-response","trial_index":28,"time_elapsed":306676,"internal_node_id":"0.0-4.0-1.10","subject_id":"61085399a8e88b607b3ffd58","study_id":"60edd13110225f80f9f3709b","session_id":"6196c4a719749927463d722c","condition":"full-information","relevant_dimensions":["antennae","pattern"],"bee_group":{"antennae":"A","wings":"X","pattern":"D","legs":"X"},"bonus":0.18000000000000071},{"rt":3655.89999999851,"stimulus":"bees-with-color/bee-A1SM.svg","response":0,"trial_type":"image-button-response","trial_index":29,"time_elapsed":310335,"internal_node_id":"0.0-4.0-0.11","subject_id":"61085399a8e88b607b3ffd58","study_id":"60edd13110225f80f9f3709b","session_id":"6196c4a719749927463d722c","condition":"full-information","relevant_dimensions":["antennae","pattern"],"bee_group":{"antennae":"A","wings":"X","pattern":"D","legs":"X"},"action":"harvest","summary":"good-harvest","bonus":0.18000000000000071},{"rt":2480.5,"stimulus":"\n                    <p><b>Action: <em>harvest</em></b></p>\n                    <p>This is the bee that you just saw.</p>\n                    <img src=\"bees-with-color/bee-A1SM.svg\" width=\"200\">\n                    <p><span class=\"greenText\"><b>Successful harvest!</b></span><br>Your pay has increased by $0.02. Your bonus pay is now $0.64.</p>\n            ","response":0,"trial_type":"html-button-response","trial_index":30,"time_elapsed":312817,"internal_node_id":"0.0-4.0-1.11","subject_id":"61085399a8e88b607b3ffd58","study_id":"60edd13110225f80f9f3709b","session_id":"6196c4a719749927463d722c","condition":"full-information","relevant_dimensions":["antennae","pattern"],"bee_group":{"antennae":"A","wings":"X","pattern":"D","legs":"X"},"bonus":0.18000000000000071},{"rt":11093.5,"stimulus":"bees-with-color/bee-B2SF.svg","response":1,"trial_type":"image-button-response","trial_index":31,"time_elapsed":323914,"internal_node_id":"0.0-4.0-0.12","subject_id":"61085399a8e88b607b3ffd58","study_id":"60edd13110225f80f9f3709b","session_id":"6196c4a719749927463d722c","condition":"full-information","relevant_dimensions":["antennae","pattern"],"bee_group":{"antennae":"A","wings":"X","pattern":"D","legs":"X"},"action":"avoid","summary":"bad-avoid","bonus":0.18000000000000071},{"rt":1909.7000000029802,"stimulus":"\n                    <p><b>Action: <em>avoid</em></b></p>\n                    <p>This is the bee that you just saw.</p>\n                    <img src=\"bees-with-color/bee-B2SF.svg\" width=\"200\">\n                    <p><span class=\"redText\">Bad choice,</span> the bee was friendly.<br>Your bonus pay is unchanged, and remains at $0.64.</p>\n            ","response":0,"trial_type":"html-button-response","trial_index":32,"time_elapsed":325826,"internal_node_id":"0.0-4.0-1.12","subject_id":"61085399a8e88b607b3ffd58","study_id":"60edd13110225f80f9f3709b","session_id":"6196c4a719749927463d722c","condition":"full-information","relevant_dimensions":["antennae","pattern"],"bee_group":{"antennae":"A","wings":"X","pattern":"D","legs":"X"},"bonus":0.18000000000000071},{"rt":2323.39999999851,"stimulus":"bees-with-color/bee-B1SF.svg","response":0,"trial_type":"image-button-response","trial_index":33,"time_elapsed":328152,"internal_node_id":"0.0-4.0-0.13","subject_id":"61085399a8e88b607b3ffd58","study_id":"60edd13110225f80f9f3709b","session_id":"6196c4a719749927463d722c","condition":"full-information","relevant_dimensions":["antennae","pattern"],"bee_group":{"antennae":"A","wings":"X","pattern":"D","legs":"X"},"action":"harvest","summary":"good-harvest","bonus":0.18000000000000071},{"rt":1603.8999999985099,"stimulus":"\n                    <p><b>Action: <em>harvest</em></b></p>\n                    <p>This is the bee that you just saw.</p>\n                    <img src=\"bees-with-color/bee-B1SF.svg\" width=\"200\">\n                    <p><span class=\"greenText\"><b>Successful harvest!</b></span><br>Your pay has increased by $0.02. Your bonus pay is now $0.66.</p>\n            ","response":0,"trial_type":"html-button-response","trial_index":34,"time_elapsed":329758,"internal_node_id":"0.0-4.0-1.13","subject_id":"61085399a8e88b607b3ffd58","study_id":"60edd13110225f80f9f3709b","session_id":"6196c4a719749927463d722c","condition":"full-information","relevant_dimensions":["antennae","pattern"],"bee_group":{"antennae":"A","wings":"X","pattern":"D","legs":"X"},"bonus":0.18000000000000071},{"rt":3501.5,"stimulus":"bees-with-color/bee-B2DM.svg","response":1,"trial_type":"image-button-response","trial_index":35,"time_elapsed":333262,"internal_node_id":"0.0-4.0-0.14","subject_id":"61085399a8e88b607b3ffd58","study_id":"60edd13110225f80f9f3709b","session_id":"6196c4a719749927463d722c","condition":"full-information","relevant_dimensions":["antennae","pattern"],"bee_group":{"antennae":"A","wings":"X","pattern":"D","legs":"X"},"action":"avoid","summary":"bad-avoid","bonus":0.18000000000000071},{"rt":2632.60000000149,"stimulus":"\n                    <p><b>Action: <em>avoid</em></b></p>\n                    <p>This is the bee that you just saw.</p>\n                    <img src=\"bees-with-color/bee-B2DM.svg\" width=\"200\">\n                    <p><span class=\"redText\">Bad choice,</span> the bee was friendly.<br>Your bonus pay is unchanged, and remains at $0.66.</p>\n            ","response":0,"trial_type":"html-button-response","trial_index":36,"time_elapsed":335897,"internal_node_id":"0.0-4.0-1.14","subject_id":"61085399a8e88b607b3ffd58","study_id":"60edd13110225f80f9f3709b","session_id":"6196c4a719749927463d722c","condition":"full-information","relevant_dimensions":["antennae","pattern"],"bee_group":{"antennae":"A","wings":"X","pattern":"D","legs":"X"},"bonus":0.18000000000000071},{"rt":14109.10000000149,"stimulus":"bees-with-color/bee-A1DM.svg","response":1,"trial_type":"image-button-response","trial_index":37,"time_elapsed":350009,"internal_node_id":"0.0-4.0-0.15","subject_id":"61085399a8e88b607b3ffd58","study_id":"60edd13110225f80f9f3709b","session_id":"6196c4a719749927463d722c","condition":"full-information","relevant_dimensions":["antennae","pattern"],"bee_group":{"antennae":"A","wings":"X","pattern":"D","legs":"X"},"action":"avoid","summary":"good-avoid","bonus":0.18000000000000071},{"rt":3737.2999999970198,"stimulus":"\n                    <p><b>Action: <em>avoid</em></b></p>\n                    <p>This is the bee that you just saw.</p>\n                    <img src=\"bees-with-color/bee-A1DM.svg\" width=\"200\">\n                    <p><span class=\"greenText\">Good choice!</span>  This bee would have stung you.<br>Your bonus pay is unchanged, and remains at $0.66.</p>\n            ","response":0,"trial_type":"html-button-response","trial_index":38,"time_elapsed":353750,"internal_node_id":"0.0-4.0-1.15","subject_id":"61085399a8e88b607b3ffd58","study_id":"60edd13110225f80f9f3709b","session_id":"6196c4a719749927463d722c","condition":"full-information","relevant_dimensions":["antennae","pattern"],"bee_group":{"antennae":"A","wings":"X","pattern":"D","legs":"X"},"bonus":0.18000000000000071},{"rt":5560.10000000149,"stimulus":"bees-with-color/bee-B1DM.svg","response":0,"trial_type":"image-button-response","trial_index":39,"time_elapsed":359313,"internal_node_id":"0.0-4.0-0.16","subject_id":"61085399a8e88b607b3ffd58","study_id":"60edd13110225f80f9f3709b","session_id":"6196c4a719749927463d722c","condition":"full-information","relevant_dimensions":["antennae","pattern"],"bee_group":{"antennae":"A","wings":"X","pattern":"D","legs":"X"},"action":"harvest","summary":"good-harvest","bonus":0.18000000000000071},{"rt":1568.5,"stimulus":"\n                    <p><b>Action: <em>harvest</em></b></p>\n                    <p>This is the bee that you just saw.</p>\n                    <img src=\"bees-with-color/bee-B1DM.svg\" width=\"200\">\n                    <p><span class=\"greenText\"><b>Successful harvest!</b></span><br>Your pay has increased by $0.02. Your bonus pay is now $0.68.</p>\n            ","response":0,"trial_type":"html-button-response","trial_index":40,"time_elapsed":360883,"internal_node_id":"0.0-4.0-1.16","subject_id":"61085399a8e88b607b3ffd58","study_id":"60edd13110225f80f9f3709b","session_id":"6196c4a719749927463d722c","condition":"full-information","relevant_dimensions":["antennae","pattern"],"bee_group":{"antennae":"A","wings":"X","pattern":"D","legs":"X"},"bonus":0.18000000000000071},{"rt":1702.3999999985099,"stimulus":"bees-with-color/bee-A1DM.svg","response":1,"trial_type":"image-button-response","trial_index":41,"time_elapsed":362589,"internal_node_id":"0.0-4.0-0.17","subject_id":"61085399a8e88b607b3ffd58","study_id":"60edd13110225f80f9f3709b","session_id":"6196c4a719749927463d722c","condition":"full-information","relevant_dimensions":["antennae","pattern"],"bee_group":{"antennae":"A","wings":"X","pattern":"D","legs":"X"},"action":"avoid","summary":"good-avoid","bonus":0.18000000000000071},{"rt":2289.3000000044703,"stimulus":"\n                    <p><b>Action: <em>avoid</em></b></p>\n                    <p>This is the bee that you just saw.</p>\n                    <img src=\"bees-with-color/bee-A1DM.svg\" width=\"200\">\n                    <p><span class=\"greenText\">Good choice!</span>  This bee would have stung you.<br>Your bonus pay is unchanged, and remains at $0.68.</p>\n            ","response":0,"trial_type":"html-button-response","trial_index":42,"time_elapsed":364881,"internal_node_id":"0.0-4.0-1.17","subject_id":"61085399a8e88b607b3ffd58","study_id":"60edd13110225f80f9f3709b","session_id":"6196c4a719749927463d722c","condition":"full-information","relevant_dimensions":["antennae","pattern"],"bee_group":{"antennae":"A","wings":"X","pattern":"D","legs":"X"},"bonus":0.18000000000000071},{"rt":4748.30000000447,"stimulus":"bees-with-color/bee-B2DF.svg","response":0,"trial_type":"image-button-response","trial_index":43,"time_elapsed":369632,"internal_node_id":"0.0-4.0-0.18","subject_id":"61085399a8e88b607b3ffd58","study_id":"60edd13110225f80f9f3709b","session_id":"6196c4a719749927463d722c","condition":"full-information","relevant_dimensions":["antennae","pattern"],"bee_group":{"antennae":"A","wings":"X","pattern":"D","legs":"X"},"action":"harvest","summary":"good-harvest","bonus":0.18000000000000071},{"rt":2346.7000000029802,"stimulus":"\n                    <p><b>Action: <em>harvest</em></b></p>\n                    <p>This is the bee that you just saw.</p>\n                    <img src=\"bees-with-color/bee-B2DF.svg\" width=\"200\">\n                    <p><span class=\"greenText\"><b>Successful harvest!</b></span><br>Your pay has increased by $0.02. Your bonus pay is now $0.70.</p>\n            ","response":0,"trial_type":"html-button-response","trial_index":44,"time_elapsed":371981,"internal_node_id":"0.0-4.0-1.18","subject_id":"61085399a8e88b607b3ffd58","study_id":"60edd13110225f80f9f3709b","session_id":"6196c4a719749927463d722c","condition":"full-information","relevant_dimensions":["antennae","pattern"],"bee_group":{"antennae":"A","wings":"X","pattern":"D","legs":"X"},"bonus":0.18000000000000071},{"rt":1764.8999999985099,"stimulus":"bees-with-color/bee-B1SF.svg","response":1,"trial_type":"image-button-response","trial_index":45,"time_elapsed":373749,"internal_node_id":"0.0-4.0-0.19","subject_id":"61085399a8e88b607b3ffd58","study_id":"60edd13110225f80f9f3709b","session_id":"6196c4a719749927463d722c","condition":"full-information","relevant_dimensions":["antennae","pattern"],"bee_group":{"antennae":"A","wings":"X","pattern":"D","legs":"X"},"action":"avoid","summary":"bad-avoid","bonus":0.18000000000000071},{"rt":1601.5,"stimulus":"\n                    <p><b>Action: <em>avoid</em></b></p>\n                    <p>This is the bee that you just saw.</p>\n                    <img src=\"bees-with-color/bee-B1SF.svg\" width=\"200\">\n                    <p><span class=\"redText\">Bad choice,</span> the bee was friendly.<br>Your bonus pay is unchanged, and remains at $0.70.</p>\n            ","response":0,"trial_type":"html-button-response","trial_index":46,"time_elapsed":375352,"internal_node_id":"0.0-4.0-1.19","subject_id":"61085399a8e88b607b3ffd58","study_id":"60edd13110225f80f9f3709b","session_id":"6196c4a719749927463d722c","condition":"full-information","relevant_dimensions":["antennae","pattern"],"bee_group":{"antennae":"A","wings":"X","pattern":"D","legs":"X"},"bonus":0.18000000000000071},{"rt":2138.4000000059605,"stimulus":"bees-with-color/bee-B1DF.svg","response":1,"trial_type":"image-button-response","trial_index":47,"time_elapsed":377493,"internal_node_id":"0.0-4.0-0.20","subject_id":"61085399a8e88b607b3ffd58","study_id":"60edd13110225f80f9f3709b","session_id":"6196c4a719749927463d722c","condition":"full-information","relevant_dimensions":["antennae","pattern"],"bee_group":{"antennae":"A","wings":"X","pattern":"D","legs":"X"},"action":"avoid","summary":"bad-avoid","bonus":0.18000000000000071},{"rt":1421.7999999970198,"stimulus":"\n                    <p><b>Action: <em>avoid</em></b></p>\n                    <p>This is the bee that you just saw.</p>\n                    <img src=\"bees-with-color/bee-B1DF.svg\" width=\"200\">\n                    <p><span class=\"redText\">Bad choice,</span> the bee was friendly.<br>Your bonus pay is unchanged, and remains at $0.70.</p>\n            ","response":0,"trial_type":"html-button-response","trial_index":48,"time_elapsed":378917,"internal_node_id":"0.0-4.0-1.20","subject_id":"61085399a8e88b607b3ffd58","study_id":"60edd13110225f80f9f3709b","session_id":"6196c4a719749927463d722c","condition":"full-information","relevant_dimensions":["antennae","pattern"],"bee_group":{"antennae":"A","wings":"X","pattern":"D","legs":"X"},"bonus":0.18000000000000071},{"rt":2635.1999999955297,"stimulus":"bees-with-color/bee-A1DF.svg","response":0,"trial_type":"image-button-response","trial_index":49,"time_elapsed":381555,"internal_node_id":"0.0-4.0-0.21","subject_id":"61085399a8e88b607b3ffd58","study_id":"60edd13110225f80f9f3709b","session_id":"6196c4a719749927463d722c","condition":"full-information","relevant_dimensions":["antennae","pattern"],"bee_group":{"antennae":"A","wings":"X","pattern":"D","legs":"X"},"action":"harvest","summary":"bad-harvest","bonus":0.18000000000000071},{"rt":4145.70000000298,"stimulus":"\n                    <p><b>Action: <em>harvest</em></b></p>\n                    <p>This is the bee that you just saw.</p>\n                    <img src=\"bees-with-color/bee-A1DF.svg\" width=\"200\">\n                    <p><span class=\"redText\">Bad choice, the bee was angry.</span><br><b>You have been stung!</b><br>Your pay has been decreased by $0.10. Your bonus pay is now $0.60.</p>\n            ","response":0,"trial_type":"html-button-response","trial_index":50,"time_elapsed":385704,"internal_node_id":"0.0-4.0-1.21","subject_id":"61085399a8e88b607b3ffd58","study_id":"60edd13110225f80f9f3709b","session_id":"6196c4a719749927463d722c","condition":"full-information","relevant_dimensions":["antennae","pattern"],"bee_group":{"antennae":"A","wings":"X","pattern":"D","legs":"X"},"bonus":0.18000000000000071},{"rt":1760.4000000059605,"stimulus":"bees-with-color/bee-A1SM.svg","response":0,"trial_type":"image-button-response","trial_index":51,"time_elapsed":387468,"internal_node_id":"0.0-4.0-0.22","subject_id":"61085399a8e88b607b3ffd58","study_id":"60edd13110225f80f9f3709b","session_id":"6196c4a719749927463d722c","condition":"full-information","relevant_dimensions":["antennae","pattern"],"bee_group":{"antennae":"A","wings":"X","pattern":"D","legs":"X"},"action":"harvest","summary":"good-harvest","bonus":0.18000000000000071},{"rt":1233.2999999970198,"stimulus":"\n                    <p><b>Action: <em>harvest</em></b></p>\n                    <p>This is the bee that you just saw.</p>\n                    <img src=\"bees-with-color/bee-A1SM.svg\" width=\"200\">\n                    <p><span class=\"greenText\"><b>Successful harvest!</b></span><br>Your pay has increased by $0.02. Your bonus pay is now $0.62.</p>\n            ","response":0,"trial_type":"html-button-response","trial_index":52,"time_elapsed":388703,"internal_node_id":"0.0-4.0-1.22","subject_id":"61085399a8e88b607b3ffd58","study_id":"60edd13110225f80f9f3709b","session_id":"6196c4a719749927463d722c","condition":"full-information","relevant_dimensions":["antennae","pattern"],"bee_group":{"antennae":"A","wings":"X","pattern":"D","legs":"X"},"bonus":0.18000000000000071},{"rt":2855.10000000149,"stimulus":"bees-with-color/bee-B1SM.svg","response":1,"trial_type":"image-button-response","trial_index":53,"time_elapsed":391561,"internal_node_id":"0.0-4.0-0.23","subject_id":"61085399a8e88b607b3ffd58","study_id":"60edd13110225f80f9f3709b","session_id":"6196c4a719749927463d722c","condition":"full-information","relevant_dimensions":["antennae","pattern"],"bee_group":{"antennae":"A","wings":"X","pattern":"D","legs":"X"},"action":"avoid","summary":"bad-avoid","bonus":0.18000000000000071},{"rt":1031,"stimulus":"\n                    <p><b>Action: <em>avoid</em></b></p>\n                    <p>This is the bee that you just saw.</p>\n                    <img src=\"bees-with-color/bee-B1SM.svg\" width=\"200\">\n                    <p><span class=\"redText\">Bad choice,</span> the bee was friendly.<br>Your bonus pay is unchanged, and remains at $0.62.</p>\n            ","response":0,"trial_type":"html-button-response","trial_index":54,"time_elapsed":392595,"internal_node_id":"0.0-4.0-1.23","subject_id":"61085399a8e88b607b3ffd58","study_id":"60edd13110225f80f9f3709b","session_id":"6196c4a719749927463d722c","condition":"full-information","relevant_dimensions":["antennae","pattern"],"bee_group":{"antennae":"A","wings":"X","pattern":"D","legs":"X"},"bonus":0.18000000000000071},{"rt":1584.7000000029802,"stimulus":"bees-with-color/bee-B2SF.svg","response":0,"trial_type":"image-button-response","trial_index":55,"time_elapsed":394182,"internal_node_id":"0.0-4.0-0.24","subject_id":"61085399a8e88b607b3ffd58","study_id":"60edd13110225f80f9f3709b","session_id":"6196c4a719749927463d722c","condition":"full-information","relevant_dimensions":["antennae","pattern"],"bee_group":{"antennae":"A","wings":"X","pattern":"D","legs":"X"},"action":"harvest","summary":"good-harvest","bonus":0.18000000000000071},{"rt":1148.3000000044703,"stimulus":"\n                    <p><b>Action: <em>harvest</em></b></p>\n                    <p>This is the bee that you just saw.</p>\n                    <img src=\"bees-with-color/bee-B2SF.svg\" width=\"200\">\n                    <p><span class=\"greenText\"><b>Successful harvest!</b></span><br>Your pay has increased by $0.02. Your bonus pay is now $0.64.</p>\n            ","response":0,"trial_type":"html-button-response","trial_index":56,"time_elapsed":395333,"internal_node_id":"0.0-4.0-1.24","subject_id":"61085399a8e88b607b3ffd58","study_id":"60edd13110225f80f9f3709b","session_id":"6196c4a719749927463d722c","condition":"full-information","relevant_dimensions":["antennae","pattern"],"bee_group":{"antennae":"A","wings":"X","pattern":"D","legs":"X"},"bonus":0.18000000000000071},{"rt":2932.1999999955297,"stimulus":"bees-with-color/bee-A2DF.svg","response":0,"trial_type":"image-button-response","trial_index":57,"time_elapsed":398267,"internal_node_id":"0.0-4.0-0.25","subject_id":"61085399a8e88b607b3ffd58","study_id":"60edd13110225f80f9f3709b","session_id":"6196c4a719749927463d722c","condition":"full-information","relevant_dimensions":["antennae","pattern"],"bee_group":{"antennae":"A","wings":"X","pattern":"D","legs":"X"},"action":"harvest","summary":"bad-harvest","bonus":0.18000000000000071},{"rt":1678.1000000014901,"stimulus":"\n                    <p><b>Action: <em>harvest</em></b></p>\n                    <p>This is the bee that you just saw.</p>\n                    <img src=\"bees-with-color/bee-A2DF.svg\" width=\"200\">\n                    <p><span class=\"redText\">Bad choice, the bee was angry.</span><br><b>You have been stung!</b><br>Your pay has been decreased by $0.10. Your bonus pay is now $0.54.</p>\n            ","response":0,"trial_type":"html-button-response","trial_index":58,"time_elapsed":399948,"internal_node_id":"0.0-4.0-1.25","subject_id":"61085399a8e88b607b3ffd58","study_id":"60edd13110225f80f9f3709b","session_id":"6196c4a719749927463d722c","condition":"full-information","relevant_dimensions":["antennae","pattern"],"bee_group":{"antennae":"A","wings":"X","pattern":"D","legs":"X"},"bonus":0.18000000000000071},{"rt":3004.89999999851,"stimulus":"bees-with-color/bee-A1SF.svg","response":1,"trial_type":"image-button-response","trial_index":59,"time_elapsed":402956,"internal_node_id":"0.0-4.0-0.26","subject_id":"61085399a8e88b607b3ffd58","study_id":"60edd13110225f80f9f3709b","session_id":"6196c4a719749927463d722c","condition":"full-information","relevant_dimensions":["antennae","pattern"],"bee_group":{"antennae":"A","wings":"X","pattern":"D","legs":"X"},"action":"avoid","summary":"bad-avoid","bonus":0.18000000000000071},{"rt":1079.2000000029802,"stimulus":"\n                    <p><b>Action: <em>avoid</em></b></p>\n                    <p>This is the bee that you just saw.</p>\n                    <img src=\"bees-with-color/bee-A1SF.svg\" width=\"200\">\n                    <p><span class=\"redText\">Bad choice,</span> the bee was friendly.<br>Your bonus pay is unchanged, and remains at $0.54.</p>\n            ","response":0,"trial_type":"html-button-response","trial_index":60,"time_elapsed":404040,"internal_node_id":"0.0-4.0-1.26","subject_id":"61085399a8e88b607b3ffd58","study_id":"60edd13110225f80f9f3709b","session_id":"6196c4a719749927463d722c","condition":"full-information","relevant_dimensions":["antennae","pattern"],"bee_group":{"antennae":"A","wings":"X","pattern":"D","legs":"X"},"bonus":0.18000000000000071},{"rt":1742.0999999940395,"stimulus":"bees-with-color/bee-B2DM.svg","response":0,"trial_type":"image-button-response","trial_index":61,"time_elapsed":405786,"internal_node_id":"0.0-4.0-0.27","subject_id":"61085399a8e88b607b3ffd58","study_id":"60edd13110225f80f9f3709b","session_id":"6196c4a719749927463d722c","condition":"full-information","relevant_dimensions":["antennae","pattern"],"bee_group":{"antennae":"A","wings":"X","pattern":"D","legs":"X"},"action":"harvest","summary":"good-harvest","bonus":0.18000000000000071},{"rt":1765.1000000014901,"stimulus":"\n                    <p><b>Action: <em>harvest</em></b></p>\n                    <p>This is the bee that you just saw.</p>\n                    <img src=\"bees-with-color/bee-B2DM.svg\" width=\"200\">\n                    <p><span class=\"greenText\"><b>Successful harvest!</b></span><br>Your pay has increased by $0.02. Your bonus pay is now $0.56.</p>\n            ","response":0,"trial_type":"html-button-response","trial_index":62,"time_elapsed":407554,"internal_node_id":"0.0-4.0-1.27","subject_id":"61085399a8e88b607b3ffd58","study_id":"60edd13110225f80f9f3709b","session_id":"6196c4a719749927463d722c","condition":"full-information","relevant_dimensions":["antennae","pattern"],"bee_group":{"antennae":"A","wings":"X","pattern":"D","legs":"X"},"bonus":0.18000000000000071},{"rt":1890.5,"stimulus":"bees-with-color/bee-A2SM.svg","response":0,"trial_type":"image-button-response","trial_index":63,"time_elapsed":409446,"internal_node_id":"0.0-4.0-0.28","subject_id":"61085399a8e88b607b3ffd58","study_id":"60edd13110225f80f9f3709b","session_id":"6196c4a719749927463d722c","condition":"full-information","relevant_dimensions":["antennae","pattern"],"bee_group":{"antennae":"A","wings":"X","pattern":"D","legs":"X"},"action":"harvest","summary":"good-harvest","bonus":0.18000000000000071},{"rt":961.8999999985099,"stimulus":"\n                    <p><b>Action: <em>harvest</em></b></p>\n                    <p>This is the bee that you just saw.</p>\n                    <img src=\"bees-with-color/bee-A2SM.svg\" width=\"200\">\n                    <p><span class=\"greenText\"><b>Successful harvest!</b></span><br>Your pay has increased by $0.02. Your bonus pay is now $0.58.</p>\n            ","response":0,"trial_type":"html-button-response","trial_index":64,"time_elapsed":410410,"internal_node_id":"0.0-4.0-1.28","subject_id":"61085399a8e88b607b3ffd58","study_id":"60edd13110225f80f9f3709b","session_id":"6196c4a719749927463d722c","condition":"full-information","relevant_dimensions":["antennae","pattern"],"bee_group":{"antennae":"A","wings":"X","pattern":"D","legs":"X"},"bonus":0.18000000000000071},{"rt":6836.69999999553,"stimulus":"bees-with-color/bee-A2DM.svg","response":1,"trial_type":"image-button-response","trial_index":65,"time_elapsed":417250,"internal_node_id":"0.0-4.0-0.29","subject_id":"61085399a8e88b607b3ffd58","study_id":"60edd13110225f80f9f3709b","session_id":"6196c4a719749927463d722c","condition":"full-information","relevant_dimensions":["antennae","pattern"],"bee_group":{"antennae":"A","wings":"X","pattern":"D","legs":"X"},"action":"avoid","summary":"good-avoid","bonus":0.18000000000000071},{"rt":1793.5,"stimulus":"\n                    <p><b>Action: <em>avoid</em></b></p>\n                    <p>This is the bee that you just saw.</p>\n                    <img src=\"bees-with-color/bee-A2DM.svg\" width=\"200\">\n                    <p><span class=\"greenText\">Good choice!</span>  This bee would have stung you.<br>Your bonus pay is unchanged, and remains at $0.58.</p>\n            ","response":0,"trial_type":"html-button-response","trial_index":66,"time_elapsed":419045,"internal_node_id":"0.0-4.0-1.29","subject_id":"61085399a8e88b607b3ffd58","study_id":"60edd13110225f80f9f3709b","session_id":"6196c4a719749927463d722c","condition":"full-information","relevant_dimensions":["antennae","pattern"],"bee_group":{"antennae":"A","wings":"X","pattern":"D","legs":"X"},"bonus":0.18000000000000071},{"rt":2310.2999999970198,"stimulus":"bees-with-color/bee-B2SM.svg","response":0,"trial_type":"image-button-response","trial_index":67,"time_elapsed":421359,"internal_node_id":"0.0-4.0-0.30","subject_id":"61085399a8e88b607b3ffd58","study_id":"60edd13110225f80f9f3709b","session_id":"6196c4a719749927463d722c","condition":"full-information","relevant_dimensions":["antennae","pattern"],"bee_group":{"antennae":"A","wings":"X","pattern":"D","legs":"X"},"action":"harvest","summary":"good-harvest","bonus":0.18000000000000071},{"rt":1327.6000000014901,"stimulus":"\n                    <p><b>Action: <em>harvest</em></b></p>\n                    <p>This is the bee that you just saw.</p>\n                    <img src=\"bees-with-color/bee-B2SM.svg\" width=\"200\">\n                    <p><span class=\"greenText\"><b>Successful harvest!</b></span><br>Your pay has increased by $0.02. Your bonus pay is now $0.60.</p>\n            ","response":0,"trial_type":"html-button-response","trial_index":68,"time_elapsed":422690,"internal_node_id":"0.0-4.0-1.30","subject_id":"61085399a8e88b607b3ffd58","study_id":"60edd13110225f80f9f3709b","session_id":"6196c4a719749927463d722c","condition":"full-information","relevant_dimensions":["antennae","pattern"],"bee_group":{"antennae":"A","wings":"X","pattern":"D","legs":"X"},"bonus":0.18000000000000071},{"rt":2105.10000000149,"stimulus":"bees-with-color/bee-A2SF.svg","response":1,"trial_type":"image-button-response","trial_index":69,"time_elapsed":424798,"internal_node_id":"0.0-4.0-0.31","subject_id":"61085399a8e88b607b3ffd58","study_id":"60edd13110225f80f9f3709b","session_id":"6196c4a719749927463d722c","condition":"full-information","relevant_dimensions":["antennae","pattern"],"bee_group":{"antennae":"A","wings":"X","pattern":"D","legs":"X"},"action":"avoid","summary":"bad-avoid","bonus":0.18000000000000071},{"rt":1733.5,"stimulus":"\n                    <p><b>Action: <em>avoid</em></b></p>\n                    <p>This is the bee that you just saw.</p>\n                    <img src=\"bees-with-color/bee-A2SF.svg\" width=\"200\">\n                    <p><span class=\"redText\">Bad choice,</span> the bee was friendly.<br>Your bonus pay is unchanged, and remains at $0.60.</p>\n            ","response":0,"trial_type":"html-button-response","trial_index":70,"time_elapsed":426535,"internal_node_id":"0.0-4.0-1.31","subject_id":"61085399a8e88b607b3ffd58","study_id":"60edd13110225f80f9f3709b","session_id":"6196c4a719749927463d722c","condition":"full-information","relevant_dimensions":["antennae","pattern"],"bee_group":{"antennae":"A","wings":"X","pattern":"D","legs":"X"},"bonus":0.18000000000000071},{"rt":1696.5,"stimulus":"bees-with-color/bee-B1SM.svg","response":1,"trial_type":"image-button-response","trial_index":71,"time_elapsed":428234,"internal_node_id":"0.0-4.0-0.32","subject_id":"61085399a8e88b607b3ffd58","study_id":"60edd13110225f80f9f3709b","session_id":"6196c4a719749927463d722c","condition":"full-information","relevant_dimensions":["antennae","pattern"],"bee_group":{"antennae":"A","wings":"X","pattern":"D","legs":"X"},"action":"avoid","summary":"bad-avoid","bonus":0.18000000000000071},{"rt":1697.0999999940395,"stimulus":"\n                    <p><b>Action: <em>avoid</em></b></p>\n                    <p>This is the bee that you just saw.</p>\n                    <img src=\"bees-with-color/bee-B1SM.svg\" width=\"200\">\n                    <p><span class=\"redText\">Bad choice,</span> the bee was friendly.<br>Your bonus pay is unchanged, and remains at $0.60.</p>\n            ","response":0,"trial_type":"html-button-response","trial_index":72,"time_elapsed":429934,"internal_node_id":"0.0-4.0-1.32","subject_id":"61085399a8e88b607b3ffd58","study_id":"60edd13110225f80f9f3709b","session_id":"6196c4a719749927463d722c","condition":"full-information","relevant_dimensions":["antennae","pattern"],"bee_group":{"antennae":"A","wings":"X","pattern":"D","legs":"X"},"bonus":0.18000000000000071},{"rt":2198.7000000029802,"stimulus":"bees-with-color/bee-B1SF.svg","response":1,"trial_type":"image-button-response","trial_index":73,"time_elapsed":432136,"internal_node_id":"0.0-4.0-0.33","subject_id":"61085399a8e88b607b3ffd58","study_id":"60edd13110225f80f9f3709b","session_id":"6196c4a719749927463d722c","condition":"full-information","relevant_dimensions":["antennae","pattern"],"bee_group":{"antennae":"A","wings":"X","pattern":"D","legs":"X"},"action":"avoid","summary":"bad-avoid","bonus":0.18000000000000071},{"rt":1344.2000000029802,"stimulus":"\n                    <p><b>Action: <em>avoid</em></b></p>\n                    <p>This is the bee that you just saw.</p>\n                    <img src=\"bees-with-color/bee-B1SF.svg\" width=\"200\">\n                    <p><span class=\"redText\">Bad choice,</span> the bee was friendly.<br>Your bonus pay is unchanged, and remains at $0.60.</p>\n            ","response":0,"trial_type":"html-button-response","trial_index":74,"time_elapsed":433483,"internal_node_id":"0.0-4.0-1.33","subject_id":"61085399a8e88b607b3ffd58","study_id":"60edd13110225f80f9f3709b","session_id":"6196c4a719749927463d722c","condition":"full-information","relevant_dimensions":["antennae","pattern"],"bee_group":{"antennae":"A","wings":"X","pattern":"D","legs":"X"},"bonus":0.18000000000000071},{"rt":1913.8999999985099,"stimulus":"bees-with-color/bee-A1SF.svg","response":0,"trial_type":"image-button-response","trial_index":75,"time_elapsed":435399,"internal_node_id":"0.0-4.0-0.34","subject_id":"61085399a8e88b607b3ffd58","study_id":"60edd13110225f80f9f3709b","session_id":"6196c4a719749927463d722c","condition":"full-information","relevant_dimensions":["antennae","pattern"],"bee_group":{"antennae":"A","wings":"X","pattern":"D","legs":"X"},"action":"harvest","summary":"good-harvest","bonus":0.18000000000000071},{"rt":1251.5,"stimulus":"\n                    <p><b>Action: <em>harvest</em></b></p>\n                    <p>This is the bee that you just saw.</p>\n                    <img src=\"bees-with-color/bee-A1SF.svg\" width=\"200\">\n                    <p><span class=\"greenText\"><b>Successful harvest!</b></span><br>Your pay has increased by $0.02. Your bonus pay is now $0.62.</p>\n            ","response":0,"trial_type":"html-button-response","trial_index":76,"time_elapsed":436654,"internal_node_id":"0.0-4.0-1.34","subject_id":"61085399a8e88b607b3ffd58","study_id":"60edd13110225f80f9f3709b","session_id":"6196c4a719749927463d722c","condition":"full-information","relevant_dimensions":["antennae","pattern"],"bee_group":{"antennae":"A","wings":"X","pattern":"D","legs":"X"},"bonus":0.18000000000000071},{"rt":4595.10000000149,"stimulus":"bees-with-color/bee-A2DF.svg","response":0,"trial_type":"image-button-response","trial_index":77,"time_elapsed":441252,"internal_node_id":"0.0-4.0-0.35","subject_id":"61085399a8e88b607b3ffd58","study_id":"60edd13110225f80f9f3709b","session_id":"6196c4a719749927463d722c","condition":"full-information","relevant_dimensions":["antennae","pattern"],"bee_group":{"antennae":"A","wings":"X","pattern":"D","legs":"X"},"action":"harvest","summary":"bad-harvest","bonus":0.18000000000000071},{"rt":6680.5,"stimulus":"\n                    <p><b>Action: <em>harvest</em></b></p>\n                    <p>This is the bee that you just saw.</p>\n                    <img src=\"bees-with-color/bee-A2DF.svg\" width=\"200\">\n                    <p><span class=\"redText\">Bad choice, the bee was angry.</span><br><b>You have been stung!</b><br>Your pay has been decreased by $0.10. Your bonus pay is now $0.52.</p>\n            ","response":0,"trial_type":"html-button-response","trial_index":78,"time_elapsed":447936,"internal_node_id":"0.0-4.0-1.35","subject_id":"61085399a8e88b607b3ffd58","study_id":"60edd13110225f80f9f3709b","session_id":"6196c4a719749927463d722c","condition":"full-information","relevant_dimensions":["antennae","pattern"],"bee_group":{"antennae":"A","wings":"X","pattern":"D","legs":"X"},"bonus":0.18000000000000071},{"rt":2088.2000000029802,"stimulus":"bees-with-color/bee-A1SM.svg","response":0,"trial_type":"image-button-response","trial_index":79,"time_elapsed":450028,"internal_node_id":"0.0-4.0-0.36","subject_id":"61085399a8e88b607b3ffd58","study_id":"60edd13110225f80f9f3709b","session_id":"6196c4a719749927463d722c","condition":"full-information","relevant_dimensions":["antennae","pattern"],"bee_group":{"antennae":"A","wings":"X","pattern":"D","legs":"X"},"action":"harvest","summary":"good-harvest","bonus":0.18000000000000071},{"rt":1018.3999999985099,"stimulus":"\n                    <p><b>Action: <em>harvest</em></b></p>\n                    <p>This is the bee that you just saw.</p>\n                    <img src=\"bees-with-color/bee-A1SM.svg\" width=\"200\">\n                    <p><span class=\"greenText\"><b>Successful harvest!</b></span><br>Your pay has increased by $0.02. Your bonus pay is now $0.54.</p>\n            ","response":0,"trial_type":"html-button-response","trial_index":80,"time_elapsed":451050,"internal_node_id":"0.0-4.0-1.36","subject_id":"61085399a8e88b607b3ffd58","study_id":"60edd13110225f80f9f3709b","session_id":"6196c4a719749927463d722c","condition":"full-information","relevant_dimensions":["antennae","pattern"],"bee_group":{"antennae":"A","wings":"X","pattern":"D","legs":"X"},"bonus":0.18000000000000071},{"rt":6258.60000000149,"stimulus":"bees-with-color/bee-A2DM.svg","response":0,"trial_type":"image-button-response","trial_index":81,"time_elapsed":457312,"internal_node_id":"0.0-4.0-0.37","subject_id":"61085399a8e88b607b3ffd58","study_id":"60edd13110225f80f9f3709b","session_id":"6196c4a719749927463d722c","condition":"full-information","relevant_dimensions":["antennae","pattern"],"bee_group":{"antennae":"A","wings":"X","pattern":"D","legs":"X"},"action":"harvest","summary":"bad-harvest","bonus":0.18000000000000071},{"rt":1446.1000000014901,"stimulus":"\n                    <p><b>Action: <em>harvest</em></b></p>\n                    <p>This is the bee that you just saw.</p>\n                    <img src=\"bees-with-color/bee-A2DM.svg\" width=\"200\">\n                    <p><span class=\"redText\">Bad choice, the bee was angry.</span><br><b>You have been stung!</b><br>Your pay has been decreased by $0.10. Your bonus pay is now $0.44.</p>\n            ","response":0,"trial_type":"html-button-response","trial_index":82,"time_elapsed":458762,"internal_node_id":"0.0-4.0-1.37","subject_id":"61085399a8e88b607b3ffd58","study_id":"60edd13110225f80f9f3709b","session_id":"6196c4a719749927463d722c","condition":"full-information","relevant_dimensions":["antennae","pattern"],"bee_group":{"antennae":"A","wings":"X","pattern":"D","legs":"X"},"bonus":0.18000000000000071},{"rt":1818.5,"stimulus":"bees-with-color/bee-B2SM.svg","response":1,"trial_type":"image-button-response","trial_index":83,"time_elapsed":460586,"internal_node_id":"0.0-4.0-0.38","subject_id":"61085399a8e88b607b3ffd58","study_id":"60edd13110225f80f9f3709b","session_id":"6196c4a719749927463d722c","condition":"full-information","relevant_dimensions":["antennae","pattern"],"bee_group":{"antennae":"A","wings":"X","pattern":"D","legs":"X"},"action":"avoid","summary":"bad-avoid","bonus":0.18000000000000071},{"rt":1439.2999999970198,"stimulus":"\n                    <p><b>Action: <em>avoid</em></b></p>\n                    <p>This is the bee that you just saw.</p>\n                    <img src=\"bees-with-color/bee-B2SM.svg\" width=\"200\">\n                    <p><span class=\"redText\">Bad choice,</span> the bee was friendly.<br>Your bonus pay is unchanged, and remains at $0.44.</p>\n            ","response":0,"trial_type":"html-button-response","trial_index":84,"time_elapsed":462029,"internal_node_id":"0.0-4.0-1.38","subject_id":"61085399a8e88b607b3ffd58","study_id":"60edd13110225f80f9f3709b","session_id":"6196c4a719749927463d722c","condition":"full-information","relevant_dimensions":["antennae","pattern"],"bee_group":{"antennae":"A","wings":"X","pattern":"D","legs":"X"},"bonus":0.18000000000000071},{"rt":3176,"stimulus":"bees-with-color/bee-B2DM.svg","response":0,"trial_type":"image-button-response","trial_index":85,"time_elapsed":465209,"internal_node_id":"0.0-4.0-0.39","subject_id":"61085399a8e88b607b3ffd58","study_id":"60edd13110225f80f9f3709b","session_id":"6196c4a719749927463d722c","condition":"full-information","relevant_dimensions":["antennae","pattern"],"bee_group":{"antennae":"A","wings":"X","pattern":"D","legs":"X"},"action":"harvest","summary":"good-harvest","bonus":0.18000000000000071},{"rt":1191.8999999985099,"stimulus":"\n                    <p><b>Action: <em>harvest</em></b></p>\n                    <p>This is the bee that you just saw.</p>\n                    <img src=\"bees-with-color/bee-B2DM.svg\" width=\"200\">\n                    <p><span class=\"greenText\"><b>Successful harvest!</b></span><br>Your pay has increased by $0.02. Your bonus pay is now $0.46.</p>\n            ","response":0,"trial_type":"html-button-response","trial_index":86,"time_elapsed":466404,"internal_node_id":"0.0-4.0-1.39","subject_id":"61085399a8e88b607b3ffd58","study_id":"60edd13110225f80f9f3709b","session_id":"6196c4a719749927463d722c","condition":"full-information","relevant_dimensions":["antennae","pattern"],"bee_group":{"antennae":"A","wings":"X","pattern":"D","legs":"X"},"bonus":0.18000000000000071},{"rt":1725.8999999985099,"stimulus":"bees-with-color/bee-A1DF.svg","response":0,"trial_type":"image-button-response","trial_index":87,"time_elapsed":468132,"internal_node_id":"0.0-4.0-0.40","subject_id":"61085399a8e88b607b3ffd58","study_id":"60edd13110225f80f9f3709b","session_id":"6196c4a719749927463d722c","condition":"full-information","relevant_dimensions":["antennae","pattern"],"bee_group":{"antennae":"A","wings":"X","pattern":"D","legs":"X"},"action":"harvest","summary":"bad-harvest","bonus":0.18000000000000071},{"rt":1399.2999999970198,"stimulus":"\n                    <p><b>Action: <em>harvest</em></b></p>\n                    <p>This is the bee that you just saw.</p>\n                    <img src=\"bees-with-color/bee-A1DF.svg\" width=\"200\">\n                    <p><span class=\"redText\">Bad choice, the bee was angry.</span><br><b>You have been stung!</b><br>Your pay has been decreased by $0.10. Your bonus pay is now $0.36.</p>\n            ","response":0,"trial_type":"html-button-response","trial_index":88,"time_elapsed":469534,"internal_node_id":"0.0-4.0-1.40","subject_id":"61085399a8e88b607b3ffd58","study_id":"60edd13110225f80f9f3709b","session_id":"6196c4a719749927463d722c","condition":"full-information","relevant_dimensions":["antennae","pattern"],"bee_group":{"antennae":"A","wings":"X","pattern":"D","legs":"X"},"bonus":0.18000000000000071},{"rt":2656.1999999955297,"stimulus":"bees-with-color/bee-A2SF.svg","response":0,"trial_type":"image-button-response","trial_index":89,"time_elapsed":472193,"internal_node_id":"0.0-4.0-0.41","subject_id":"61085399a8e88b607b3ffd58","study_id":"60edd13110225f80f9f3709b","session_id":"6196c4a719749927463d722c","condition":"full-information","relevant_dimensions":["antennae","pattern"],"bee_group":{"antennae":"A","wings":"X","pattern":"D","legs":"X"},"action":"harvest","summary":"good-harvest","bonus":0.18000000000000071},{"rt":1319.6000000014901,"stimulus":"\n                    <p><b>Action: <em>harvest</em></b></p>\n                    <p>This is the bee that you just saw.</p>\n                    <img src=\"bees-with-color/bee-A2SF.svg\" width=\"200\">\n                    <p><span class=\"greenText\"><b>Successful harvest!</b></span><br>Your pay has increased by $0.02. Your bonus pay is now $0.38.</p>\n            ","response":0,"trial_type":"html-button-response","trial_index":90,"time_elapsed":473515,"internal_node_id":"0.0-4.0-1.41","subject_id":"61085399a8e88b607b3ffd58","study_id":"60edd13110225f80f9f3709b","session_id":"6196c4a719749927463d722c","condition":"full-information","relevant_dimensions":["antennae","pattern"],"bee_group":{"antennae":"A","wings":"X","pattern":"D","legs":"X"},"bonus":0.18000000000000071},{"rt":2990.60000000149,"stimulus":"bees-with-color/bee-A1DM.svg","response":1,"trial_type":"image-button-response","trial_index":91,"time_elapsed":476509,"internal_node_id":"0.0-4.0-0.42","subject_id":"61085399a8e88b607b3ffd58","study_id":"60edd13110225f80f9f3709b","session_id":"6196c4a719749927463d722c","condition":"full-information","relevant_dimensions":["antennae","pattern"],"bee_group":{"antennae":"A","wings":"X","pattern":"D","legs":"X"},"action":"avoid","summary":"good-avoid","bonus":0.18000000000000071},{"rt":1729,"stimulus":"\n                    <p><b>Action: <em>avoid</em></b></p>\n                    <p>This is the bee that you just saw.</p>\n                    <img src=\"bees-with-color/bee-A1DM.svg\" width=\"200\">\n                    <p><span class=\"greenText\">Good choice!</span>  This bee would have stung you.<br>Your bonus pay is unchanged, and remains at $0.38.</p>\n            ","response":0,"trial_type":"html-button-response","trial_index":92,"time_elapsed":478240,"internal_node_id":"0.0-4.0-1.42","subject_id":"61085399a8e88b607b3ffd58","study_id":"60edd13110225f80f9f3709b","session_id":"6196c4a719749927463d722c","condition":"full-information","relevant_dimensions":["antennae","pattern"],"bee_group":{"antennae":"A","wings":"X","pattern":"D","legs":"X"},"bonus":0.18000000000000071},{"rt":5076.69999999553,"stimulus":"bees-with-color/bee-A2SM.svg","response":0,"trial_type":"image-button-response","trial_index":93,"time_elapsed":483320,"internal_node_id":"0.0-4.0-0.43","subject_id":"61085399a8e88b607b3ffd58","study_id":"60edd13110225f80f9f3709b","session_id":"6196c4a719749927463d722c","condition":"full-information","relevant_dimensions":["antennae","pattern"],"bee_group":{"antennae":"A","wings":"X","pattern":"D","legs":"X"},"action":"harvest","summary":"good-harvest","bonus":0.18000000000000071},{"rt":1222.6000000014901,"stimulus":"\n                    <p><b>Action: <em>harvest</em></b></p>\n                    <p>This is the bee that you just saw.</p>\n                    <img src=\"bees-with-color/bee-A2SM.svg\" width=\"200\">\n                    <p><span class=\"greenText\"><b>Successful harvest!</b></span><br>Your pay has increased by $0.02. Your bonus pay is now $0.40.</p>\n            ","response":0,"trial_type":"html-button-response","trial_index":94,"time_elapsed":484546,"internal_node_id":"0.0-4.0-1.43","subject_id":"61085399a8e88b607b3ffd58","study_id":"60edd13110225f80f9f3709b","session_id":"6196c4a719749927463d722c","condition":"full-information","relevant_dimensions":["antennae","pattern"],"bee_group":{"antennae":"A","wings":"X","pattern":"D","legs":"X"},"bonus":0.18000000000000071},{"rt":2577.89999999851,"stimulus":"bees-with-color/bee-B1DM.svg","response":1,"trial_type":"image-button-response","trial_index":95,"time_elapsed":487127,"internal_node_id":"0.0-4.0-0.44","subject_id":"61085399a8e88b607b3ffd58","study_id":"60edd13110225f80f9f3709b","session_id":"6196c4a719749927463d722c","condition":"full-information","relevant_dimensions":["antennae","pattern"],"bee_group":{"antennae":"A","wings":"X","pattern":"D","legs":"X"},"action":"avoid","summary":"bad-avoid","bonus":0.18000000000000071},{"rt":1444.6999999955297,"stimulus":"\n                    <p><b>Action: <em>avoid</em></b></p>\n                    <p>This is the bee that you just saw.</p>\n                    <img src=\"bees-with-color/bee-B1DM.svg\" width=\"200\">\n                    <p><span class=\"redText\">Bad choice,</span> the bee was friendly.<br>Your bonus pay is unchanged, and remains at $0.40.</p>\n            ","response":0,"trial_type":"html-button-response","trial_index":96,"time_elapsed":488575,"internal_node_id":"0.0-4.0-1.44","subject_id":"61085399a8e88b607b3ffd58","study_id":"60edd13110225f80f9f3709b","session_id":"6196c4a719749927463d722c","condition":"full-information","relevant_dimensions":["antennae","pattern"],"bee_group":{"antennae":"A","wings":"X","pattern":"D","legs":"X"},"bonus":0.18000000000000071},{"rt":1800.5,"stimulus":"bees-with-color/bee-B1DF.svg","response":1,"trial_type":"image-button-response","trial_index":97,"time_elapsed":490378,"internal_node_id":"0.0-4.0-0.45","subject_id":"61085399a8e88b607b3ffd58","study_id":"60edd13110225f80f9f3709b","session_id":"6196c4a719749927463d722c","condition":"full-information","relevant_dimensions":["antennae","pattern"],"bee_group":{"antennae":"A","wings":"X","pattern":"D","legs":"X"},"action":"avoid","summary":"bad-avoid","bonus":0.18000000000000071},{"rt":1571.6999999955297,"stimulus":"\n                    <p><b>Action: <em>avoid</em></b></p>\n                    <p>This is the bee that you just saw.</p>\n                    <img src=\"bees-with-color/bee-B1DF.svg\" width=\"200\">\n                    <p><span class=\"redText\">Bad choice,</span> the bee was friendly.<br>Your bonus pay is unchanged, and remains at $0.40.</p>\n            ","response":0,"trial_type":"html-button-response","trial_index":98,"time_elapsed":491953,"internal_node_id":"0.0-4.0-1.45","subject_id":"61085399a8e88b607b3ffd58","study_id":"60edd13110225f80f9f3709b","session_id":"6196c4a719749927463d722c","condition":"full-information","relevant_dimensions":["antennae","pattern"],"bee_group":{"antennae":"A","wings":"X","pattern":"D","legs":"X"},"bonus":0.18000000000000071},{"rt":2233.6999999955297,"stimulus":"bees-with-color/bee-B2SF.svg","response":0,"trial_type":"image-button-response","trial_index":99,"time_elapsed":494190,"internal_node_id":"0.0-4.0-0.46","subject_id":"61085399a8e88b607b3ffd58","study_id":"60edd13110225f80f9f3709b","session_id":"6196c4a719749927463d722c","condition":"full-information","relevant_dimensions":["antennae","pattern"],"bee_group":{"antennae":"A","wings":"X","pattern":"D","legs":"X"},"action":"harvest","summary":"good-harvest","bonus":0.18000000000000071},{"rt":1287.6000000014901,"stimulus":"\n                    <p><b>Action: <em>harvest</em></b></p>\n                    <p>This is the bee that you just saw.</p>\n                    <img src=\"bees-with-color/bee-B2SF.svg\" width=\"200\">\n                    <p><span class=\"greenText\"><b>Successful harvest!</b></span><br>Your pay has increased by $0.02. Your bonus pay is now $0.42.</p>\n            ","response":0,"trial_type":"html-button-response","trial_index":100,"time_elapsed":495480,"internal_node_id":"0.0-4.0-1.46","subject_id":"61085399a8e88b607b3ffd58","study_id":"60edd13110225f80f9f3709b","session_id":"6196c4a719749927463d722c","condition":"full-information","relevant_dimensions":["antennae","pattern"],"bee_group":{"antennae":"A","wings":"X","pattern":"D","legs":"X"},"bonus":0.18000000000000071},{"rt":5149.79999999702,"stimulus":"bees-with-color/bee-B2DF.svg","response":0,"trial_type":"image-button-response","trial_index":101,"time_elapsed":500636,"internal_node_id":"0.0-4.0-0.47","subject_id":"61085399a8e88b607b3ffd58","study_id":"60edd13110225f80f9f3709b","session_id":"6196c4a719749927463d722c","condition":"full-information","relevant_dimensions":["antennae","pattern"],"bee_group":{"antennae":"A","wings":"X","pattern":"D","legs":"X"},"action":"harvest","summary":"good-harvest","bonus":0.18000000000000071},{"rt":1431.1000000014901,"stimulus":"\n                    <p><b>Action: <em>harvest</em></b></p>\n                    <p>This is the bee that you just saw.</p>\n                    <img src=\"bees-with-color/bee-B2DF.svg\" width=\"200\">\n                    <p><span class=\"greenText\"><b>Successful harvest!</b></span><br>Your pay has increased by $0.02. Your bonus pay is now $0.44.</p>\n            ","response":0,"trial_type":"html-button-response","trial_index":102,"time_elapsed":502070,"internal_node_id":"0.0-4.0-1.47","subject_id":"61085399a8e88b607b3ffd58","study_id":"60edd13110225f80f9f3709b","session_id":"6196c4a719749927463d722c","condition":"full-information","relevant_dimensions":["antennae","pattern"],"bee_group":{"antennae":"A","wings":"X","pattern":"D","legs":"X"},"bonus":0.18000000000000071},{"rt":1639.8999999985099,"stimulus":"bees-with-color/bee-B1DF.svg","response":1,"trial_type":"image-button-response","trial_index":103,"time_elapsed":503714,"internal_node_id":"0.0-4.0-0.48","subject_id":"61085399a8e88b607b3ffd58","study_id":"60edd13110225f80f9f3709b","session_id":"6196c4a719749927463d722c","condition":"full-information","relevant_dimensions":["antennae","pattern"],"bee_group":{"antennae":"A","wings":"X","pattern":"D","legs":"X"},"action":"avoid","summary":"bad-avoid","bonus":0.18000000000000071},{"rt":1227.8999999985099,"stimulus":"\n                    <p><b>Action: <em>avoid</em></b></p>\n                    <p>This is the bee that you just saw.</p>\n                    <img src=\"bees-with-color/bee-B1DF.svg\" width=\"200\">\n                    <p><span class=\"redText\">Bad choice,</span> the bee was friendly.<br>Your bonus pay is unchanged, and remains at $0.44.</p>\n            ","response":0,"trial_type":"html-button-response","trial_index":104,"time_elapsed":504945,"internal_node_id":"0.0-4.0-1.48","subject_id":"61085399a8e88b607b3ffd58","study_id":"60edd13110225f80f9f3709b","session_id":"6196c4a719749927463d722c","condition":"full-information","relevant_dimensions":["antennae","pattern"],"bee_group":{"antennae":"A","wings":"X","pattern":"D","legs":"X"},"bonus":0.18000000000000071},{"rt":3656.60000000149,"stimulus":"bees-with-color/bee-B2DF.svg","response":0,"trial_type":"image-button-response","trial_index":105,"time_elapsed":508604,"internal_node_id":"0.0-4.0-0.49","subject_id":"61085399a8e88b607b3ffd58","study_id":"60edd13110225f80f9f3709b","session_id":"6196c4a719749927463d722c","condition":"full-information","relevant_dimensions":["antennae","pattern"],"bee_group":{"antennae":"A","wings":"X","pattern":"D","legs":"X"},"action":"harvest","summary":"good-harvest","bonus":0.18000000000000071},{"rt":1797.3999999985099,"stimulus":"\n                    <p><b>Action: <em>harvest</em></b></p>\n                    <p>This is the bee that you just saw.</p>\n                    <img src=\"bees-with-color/bee-B2DF.svg\" width=\"200\">\n                    <p><span class=\"greenText\"><b>Successful harvest!</b></span><br>Your pay has increased by $0.02. Your bonus pay is now $0.46.</p>\n            ","response":0,"trial_type":"html-button-response","trial_index":106,"time_elapsed":510409,"internal_node_id":"0.0-4.0-1.49","subject_id":"61085399a8e88b607b3ffd58","study_id":"60edd13110225f80f9f3709b","session_id":"6196c4a719749927463d722c","condition":"full-information","relevant_dimensions":["antennae","pattern"],"bee_group":{"antennae":"A","wings":"X","pattern":"D","legs":"X"},"bonus":0.18000000000000071},{"rt":5488.5,"stimulus":"bees-with-color/bee-B1SM.svg","response":1,"trial_type":"image-button-response","trial_index":107,"time_elapsed":515902,"internal_node_id":"0.0-4.0-0.50","subject_id":"61085399a8e88b607b3ffd58","study_id":"60edd13110225f80f9f3709b","session_id":"6196c4a719749927463d722c","condition":"full-information","relevant_dimensions":["antennae","pattern"],"bee_group":{"antennae":"A","wings":"X","pattern":"D","legs":"X"},"action":"avoid","summary":"bad-avoid","bonus":0.18000000000000071},{"rt":1072.6000000014901,"stimulus":"\n                    <p><b>Action: <em>avoid</em></b></p>\n                    <p>This is the bee that you just saw.</p>\n                    <img src=\"bees-with-color/bee-B1SM.svg\" width=\"200\">\n                    <p><span class=\"redText\">Bad choice,</span> the bee was friendly.<br>Your bonus pay is unchanged, and remains at $0.46.</p>\n            ","response":0,"trial_type":"html-button-response","trial_index":108,"time_elapsed":516979,"internal_node_id":"0.0-4.0-1.50","subject_id":"61085399a8e88b607b3ffd58","study_id":"60edd13110225f80f9f3709b","session_id":"6196c4a719749927463d722c","condition":"full-information","relevant_dimensions":["antennae","pattern"],"bee_group":{"antennae":"A","wings":"X","pattern":"D","legs":"X"},"bonus":0.18000000000000071},{"rt":2395.1999999955297,"stimulus":"bees-with-color/bee-A1DM.svg","response":1,"trial_type":"image-button-response","trial_index":109,"time_elapsed":519377,"internal_node_id":"0.0-4.0-0.51","subject_id":"61085399a8e88b607b3ffd58","study_id":"60edd13110225f80f9f3709b","session_id":"6196c4a719749927463d722c","condition":"full-information","relevant_dimensions":["antennae","pattern"],"bee_group":{"antennae":"A","wings":"X","pattern":"D","legs":"X"},"action":"avoid","summary":"good-avoid","bonus":0.18000000000000071},{"rt":1172.7999999970198,"stimulus":"\n                    <p><b>Action: <em>avoid</em></b></p>\n                    <p>This is the bee that you just saw.</p>\n                    <img src=\"bees-with-color/bee-A1DM.svg\" width=\"200\">\n                    <p><span class=\"greenText\">Good choice!</span>  This bee would have stung you.<br>Your bonus pay is unchanged, and remains at $0.46.</p>\n            ","response":0,"trial_type":"html-button-response","trial_index":110,"time_elapsed":520552,"internal_node_id":"0.0-4.0-1.51","subject_id":"61085399a8e88b607b3ffd58","study_id":"60edd13110225f80f9f3709b","session_id":"6196c4a719749927463d722c","condition":"full-information","relevant_dimensions":["antennae","pattern"],"bee_group":{"antennae":"A","wings":"X","pattern":"D","legs":"X"},"bonus":0.18000000000000071},{"rt":1992.0999999940395,"stimulus":"bees-with-color/bee-B2DM.svg","response":0,"trial_type":"image-button-response","trial_index":111,"time_elapsed":522547,"internal_node_id":"0.0-4.0-0.52","subject_id":"61085399a8e88b607b3ffd58","study_id":"60edd13110225f80f9f3709b","session_id":"6196c4a719749927463d722c","condition":"full-information","relevant_dimensions":["antennae","pattern"],"bee_group":{"antennae":"A","wings":"X","pattern":"D","legs":"X"},"action":"harvest","summary":"good-harvest","bonus":0.18000000000000071},{"rt":1192.2000000029802,"stimulus":"\n                    <p><b>Action: <em>harvest</em></b></p>\n                    <p>This is the bee that you just saw.</p>\n                    <img src=\"bees-with-color/bee-B2DM.svg\" width=\"200\">\n                    <p><span class=\"greenText\"><b>Successful harvest!</b></span><br>Your pay has increased by $0.02. Your bonus pay is now $0.48.</p>\n            ","response":0,"trial_type":"html-button-response","trial_index":112,"time_elapsed":523741,"internal_node_id":"0.0-4.0-1.52","subject_id":"61085399a8e88b607b3ffd58","study_id":"60edd13110225f80f9f3709b","session_id":"6196c4a719749927463d722c","condition":"full-information","relevant_dimensions":["antennae","pattern"],"bee_group":{"antennae":"A","wings":"X","pattern":"D","legs":"X"},"bonus":0.18000000000000071},{"rt":1797.9000000059605,"stimulus":"bees-with-color/bee-A2DF.svg","response":1,"trial_type":"image-button-response","trial_index":113,"time_elapsed":525541,"internal_node_id":"0.0-4.0-0.53","subject_id":"61085399a8e88b607b3ffd58","study_id":"60edd13110225f80f9f3709b","session_id":"6196c4a719749927463d722c","condition":"full-information","relevant_dimensions":["antennae","pattern"],"bee_group":{"antennae":"A","wings":"X","pattern":"D","legs":"X"},"action":"avoid","summary":"good-avoid","bonus":0.18000000000000071},{"rt":2027.8999999985099,"stimulus":"\n                    <p><b>Action: <em>avoid</em></b></p>\n                    <p>This is the bee that you just saw.</p>\n                    <img src=\"bees-with-color/bee-A2DF.svg\" width=\"200\">\n                    <p><span class=\"greenText\">Good choice!</span>  This bee would have stung you.<br>Your bonus pay is unchanged, and remains at $0.48.</p>\n            ","response":0,"trial_type":"html-button-response","trial_index":114,"time_elapsed":527572,"internal_node_id":"0.0-4.0-1.53","subject_id":"61085399a8e88b607b3ffd58","study_id":"60edd13110225f80f9f3709b","session_id":"6196c4a719749927463d722c","condition":"full-information","relevant_dimensions":["antennae","pattern"],"bee_group":{"antennae":"A","wings":"X","pattern":"D","legs":"X"},"bonus":0.18000000000000071},{"rt":5515.89999999851,"stimulus":"bees-with-color/bee-B2SM.svg","response":1,"trial_type":"image-button-response","trial_index":115,"time_elapsed":533091,"internal_node_id":"0.0-4.0-0.54","subject_id":"61085399a8e88b607b3ffd58","study_id":"60edd13110225f80f9f3709b","session_id":"6196c4a719749927463d722c","condition":"full-information","relevant_dimensions":["antennae","pattern"],"bee_group":{"antennae":"A","wings":"X","pattern":"D","legs":"X"},"action":"avoid","summary":"bad-avoid","bonus":0.18000000000000071},{"rt":1448.7000000029802,"stimulus":"\n                    <p><b>Action: <em>avoid</em></b></p>\n                    <p>This is the bee that you just saw.</p>\n                    <img src=\"bees-with-color/bee-B2SM.svg\" width=\"200\">\n                    <p><span class=\"redText\">Bad choice,</span> the bee was friendly.<br>Your bonus pay is unchanged, and remains at $0.48.</p>\n            ","response":0,"trial_type":"html-button-response","trial_index":116,"time_elapsed":534543,"internal_node_id":"0.0-4.0-1.54","subject_id":"61085399a8e88b607b3ffd58","study_id":"60edd13110225f80f9f3709b","session_id":"6196c4a719749927463d722c","condition":"full-information","relevant_dimensions":["antennae","pattern"],"bee_group":{"antennae":"A","wings":"X","pattern":"D","legs":"X"},"bonus":0.18000000000000071},{"rt":1296.1999999955297,"stimulus":"bees-with-color/bee-A1SF.svg","response":1,"trial_type":"image-button-response","trial_index":117,"time_elapsed":535842,"internal_node_id":"0.0-4.0-0.55","subject_id":"61085399a8e88b607b3ffd58","study_id":"60edd13110225f80f9f3709b","session_id":"6196c4a719749927463d722c","condition":"full-information","relevant_dimensions":["antennae","pattern"],"bee_group":{"antennae":"A","wings":"X","pattern":"D","legs":"X"},"action":"avoid","summary":"bad-avoid","bonus":0.18000000000000071},{"rt":1805.2000000029802,"stimulus":"\n                    <p><b>Action: <em>avoid</em></b></p>\n                    <p>This is the bee that you just saw.</p>\n                    <img src=\"bees-with-color/bee-A1SF.svg\" width=\"200\">\n                    <p><span class=\"redText\">Bad choice,</span> the bee was friendly.<br>Your bonus pay is unchanged, and remains at $0.48.</p>\n            ","response":0,"trial_type":"html-button-response","trial_index":118,"time_elapsed":537650,"internal_node_id":"0.0-4.0-1.55","subject_id":"61085399a8e88b607b3ffd58","study_id":"60edd13110225f80f9f3709b","session_id":"6196c4a719749927463d722c","condition":"full-information","relevant_dimensions":["antennae","pattern"],"bee_group":{"antennae":"A","wings":"X","pattern":"D","legs":"X"},"bonus":0.18000000000000071},{"rt":3750.6999999955297,"stimulus":"bees-with-color/bee-A2SM.svg","response":0,"trial_type":"image-button-response","trial_index":119,"time_elapsed":541404,"internal_node_id":"0.0-4.0-0.56","subject_id":"61085399a8e88b607b3ffd58","study_id":"60edd13110225f80f9f3709b","session_id":"6196c4a719749927463d722c","condition":"full-information","relevant_dimensions":["antennae","pattern"],"bee_group":{"antennae":"A","wings":"X","pattern":"D","legs":"X"},"action":"harvest","summary":"good-harvest","bonus":0.18000000000000071},{"rt":1161.7999999970198,"stimulus":"\n                    <p><b>Action: <em>harvest</em></b></p>\n                    <p>This is the bee that you just saw.</p>\n                    <img src=\"bees-with-color/bee-A2SM.svg\" width=\"200\">\n                    <p><span class=\"greenText\"><b>Successful harvest!</b></span><br>Your pay has increased by $0.02. Your bonus pay is now $0.50.</p>\n            ","response":0,"trial_type":"html-button-response","trial_index":120,"time_elapsed":542570,"internal_node_id":"0.0-4.0-1.56","subject_id":"61085399a8e88b607b3ffd58","study_id":"60edd13110225f80f9f3709b","session_id":"6196c4a719749927463d722c","condition":"full-information","relevant_dimensions":["antennae","pattern"],"bee_group":{"antennae":"A","wings":"X","pattern":"D","legs":"X"},"bonus":0.18000000000000071},{"rt":1679.7999999970198,"stimulus":"bees-with-color/bee-A1SM.svg","response":1,"trial_type":"image-button-response","trial_index":121,"time_elapsed":544253,"internal_node_id":"0.0-4.0-0.57","subject_id":"61085399a8e88b607b3ffd58","study_id":"60edd13110225f80f9f3709b","session_id":"6196c4a719749927463d722c","condition":"full-information","relevant_dimensions":["antennae","pattern"],"bee_group":{"antennae":"A","wings":"X","pattern":"D","legs":"X"},"action":"avoid","summary":"bad-avoid","bonus":0.18000000000000071},{"rt":1651.6000000014901,"stimulus":"\n                    <p><b>Action: <em>avoid</em></b></p>\n                    <p>This is the bee that you just saw.</p>\n                    <img src=\"bees-with-color/bee-A1SM.svg\" width=\"200\">\n                    <p><span class=\"redText\">Bad choice,</span> the bee was friendly.<br>Your bonus pay is unchanged, and remains at $0.50.</p>\n            ","response":0,"trial_type":"html-button-response","trial_index":122,"time_elapsed":545909,"internal_node_id":"0.0-4.0-1.57","subject_id":"61085399a8e88b607b3ffd58","study_id":"60edd13110225f80f9f3709b","session_id":"6196c4a719749927463d722c","condition":"full-information","relevant_dimensions":["antennae","pattern"],"bee_group":{"antennae":"A","wings":"X","pattern":"D","legs":"X"},"bonus":0.18000000000000071},{"rt":3156.3000000044703,"stimulus":"bees-with-color/bee-A2SF.svg","response":1,"trial_type":"image-button-response","trial_index":123,"time_elapsed":549068,"internal_node_id":"0.0-4.0-0.58","subject_id":"61085399a8e88b607b3ffd58","study_id":"60edd13110225f80f9f3709b","session_id":"6196c4a719749927463d722c","condition":"full-information","relevant_dimensions":["antennae","pattern"],"bee_group":{"antennae":"A","wings":"X","pattern":"D","legs":"X"},"action":"avoid","summary":"bad-avoid","bonus":0.18000000000000071},{"rt":1211.1000000014901,"stimulus":"\n                    <p><b>Action: <em>avoid</em></b></p>\n                    <p>This is the bee that you just saw.</p>\n                    <img src=\"bees-with-color/bee-A2SF.svg\" width=\"200\">\n                    <p><span class=\"redText\">Bad choice,</span> the bee was friendly.<br>Your bonus pay is unchanged, and remains at $0.50.</p>\n            ","response":0,"trial_type":"html-button-response","trial_index":124,"time_elapsed":550282,"internal_node_id":"0.0-4.0-1.58","subject_id":"61085399a8e88b607b3ffd58","study_id":"60edd13110225f80f9f3709b","session_id":"6196c4a719749927463d722c","condition":"full-information","relevant_dimensions":["antennae","pattern"],"bee_group":{"antennae":"A","wings":"X","pattern":"D","legs":"X"},"bonus":0.18000000000000071},{"rt":1560.5,"stimulus":"bees-with-color/bee-A2DM.svg","response":0,"trial_type":"image-button-response","trial_index":125,"time_elapsed":551846,"internal_node_id":"0.0-4.0-0.59","subject_id":"61085399a8e88b607b3ffd58","study_id":"60edd13110225f80f9f3709b","session_id":"6196c4a719749927463d722c","condition":"full-information","relevant_dimensions":["antennae","pattern"],"bee_group":{"antennae":"A","wings":"X","pattern":"D","legs":"X"},"action":"harvest","summary":"bad-harvest","bonus":0.18000000000000071},{"rt":1825.8999999985099,"stimulus":"\n                    <p><b>Action: <em>harvest</em></b></p>\n                    <p>This is the bee that you just saw.</p>\n                    <img src=\"bees-with-color/bee-A2DM.svg\" width=\"200\">\n                    <p><span class=\"redText\">Bad choice, the bee was angry.</span><br><b>You have been stung!</b><br>Your pay has been decreased by $0.10. Your bonus pay is now $0.40.</p>\n            ","response":0,"trial_type":"html-button-response","trial_index":126,"time_elapsed":553675,"internal_node_id":"0.0-4.0-1.59","subject_id":"61085399a8e88b607b3ffd58","study_id":"60edd13110225f80f9f3709b","session_id":"6196c4a719749927463d722c","condition":"full-information","relevant_dimensions":["antennae","pattern"],"bee_group":{"antennae":"A","wings":"X","pattern":"D","legs":"X"},"bonus":0.18000000000000071},{"rt":1266.5,"stimulus":"bees-with-color/bee-B1SF.svg","response":1,"trial_type":"image-button-response","trial_index":127,"time_elapsed":554944,"internal_node_id":"0.0-4.0-0.60","subject_id":"61085399a8e88b607b3ffd58","study_id":"60edd13110225f80f9f3709b","session_id":"6196c4a719749927463d722c","condition":"full-information","relevant_dimensions":["antennae","pattern"],"bee_group":{"antennae":"A","wings":"X","pattern":"D","legs":"X"},"action":"avoid","summary":"bad-avoid","bonus":0.18000000000000071},{"rt":798.3999999985099,"stimulus":"\n                    <p><b>Action: <em>avoid</em></b></p>\n                    <p>This is the bee that you just saw.</p>\n                    <img src=\"bees-with-color/bee-B1SF.svg\" width=\"200\">\n                    <p><span class=\"redText\">Bad choice,</span> the bee was friendly.<br>Your bonus pay is unchanged, and remains at $0.40.</p>\n            ","response":0,"trial_type":"html-button-response","trial_index":128,"time_elapsed":555746,"internal_node_id":"0.0-4.0-1.60","subject_id":"61085399a8e88b607b3ffd58","study_id":"60edd13110225f80f9f3709b","session_id":"6196c4a719749927463d722c","condition":"full-information","relevant_dimensions":["antennae","pattern"],"bee_group":{"antennae":"A","wings":"X","pattern":"D","legs":"X"},"bonus":0.18000000000000071},{"rt":1031,"stimulus":"bees-with-color/bee-B2SF.svg","response":0,"trial_type":"image-button-response","trial_index":129,"time_elapsed":556780,"internal_node_id":"0.0-4.0-0.61","subject_id":"61085399a8e88b607b3ffd58","study_id":"60edd13110225f80f9f3709b","session_id":"6196c4a719749927463d722c","condition":"full-information","relevant_dimensions":["antennae","pattern"],"bee_group":{"antennae":"A","wings":"X","pattern":"D","legs":"X"},"action":"harvest","summary":"good-harvest","bonus":0.18000000000000071},{"rt":958.6000000014901,"stimulus":"\n                    <p><b>Action: <em>harvest</em></b></p>\n                    <p>This is the bee that you just saw.</p>\n                    <img src=\"bees-with-color/bee-B2SF.svg\" width=\"200\">\n                    <p><span class=\"greenText\"><b>Successful harvest!</b></span><br>Your pay has increased by $0.02. Your bonus pay is now $0.42.</p>\n            ","response":0,"trial_type":"html-button-response","trial_index":130,"time_elapsed":557742,"internal_node_id":"0.0-4.0-1.61","subject_id":"61085399a8e88b607b3ffd58","study_id":"60edd13110225f80f9f3709b","session_id":"6196c4a719749927463d722c","condition":"full-information","relevant_dimensions":["antennae","pattern"],"bee_group":{"antennae":"A","wings":"X","pattern":"D","legs":"X"},"bonus":0.18000000000000071},{"rt":1115.3999999985099,"stimulus":"bees-with-color/bee-B1DM.svg","response":0,"trial_type":"image-button-response","trial_index":131,"time_elapsed":558861,"internal_node_id":"0.0-4.0-0.62","subject_id":"61085399a8e88b607b3ffd58","study_id":"60edd13110225f80f9f3709b","session_id":"6196c4a719749927463d722c","condition":"full-information","relevant_dimensions":["antennae","pattern"],"bee_group":{"antennae":"A","wings":"X","pattern":"D","legs":"X"},"action":"harvest","summary":"good-harvest","bonus":0.18000000000000071},{"rt":1038.3999999985099,"stimulus":"\n                    <p><b>Action: <em>harvest</em></b></p>\n                    <p>This is the bee that you just saw.</p>\n                    <img src=\"bees-with-color/bee-B1DM.svg\" width=\"200\">\n                    <p><span class=\"greenText\"><b>Successful harvest!</b></span><br>Your pay has increased by $0.02. Your bonus pay is now $0.44.</p>\n            ","response":0,"trial_type":"html-button-response","trial_index":132,"time_elapsed":559903,"internal_node_id":"0.0-4.0-1.62","subject_id":"61085399a8e88b607b3ffd58","study_id":"60edd13110225f80f9f3709b","session_id":"6196c4a719749927463d722c","condition":"full-information","relevant_dimensions":["antennae","pattern"],"bee_group":{"antennae":"A","wings":"X","pattern":"D","legs":"X"},"bonus":0.18000000000000071},{"rt":1343.5,"stimulus":"bees-with-color/bee-A1DF.svg","response":1,"trial_type":"image-button-response","trial_index":133,"time_elapsed":561250,"internal_node_id":"0.0-4.0-0.63","subject_id":"61085399a8e88b607b3ffd58","study_id":"60edd13110225f80f9f3709b","session_id":"6196c4a719749927463d722c","condition":"full-information","relevant_dimensions":["antennae","pattern"],"bee_group":{"antennae":"A","wings":"X","pattern":"D","legs":"X"},"action":"avoid","summary":"good-avoid","bonus":0.18000000000000071},{"rt":1064.7999999970198,"stimulus":"\n                    <p><b>Action: <em>avoid</em></b></p>\n                    <p>This is the bee that you just saw.</p>\n                    <img src=\"bees-with-color/bee-A1DF.svg\" width=\"200\">\n                    <p><span class=\"greenText\">Good choice!</span>  This bee would have stung you.<br>Your bonus pay is unchanged, and remains at $0.44.</p>\n            ","response":0,"trial_type":"html-button-response","trial_index":134,"time_elapsed":562317,"internal_node_id":"0.0-4.0-1.63","subject_id":"61085399a8e88b607b3ffd58","study_id":"60edd13110225f80f9f3709b","session_id":"6196c4a719749927463d722c","condition":"full-information","relevant_dimensions":["antennae","pattern"],"bee_group":{"antennae":"A","wings":"X","pattern":"D","legs":"X"},"bonus":0.18000000000000071},{"rt":8257.89999999851,"stimulus":"You have completed the first part of this experiment.<br><br>You will now begin a shorter second part, in which you will receive no feedback.<br>The same rules regarding bonus pay apply.<br><br>Press any key to begin.","response":" ","trial_type":"html-keyboard-response","trial_index":135,"time_elapsed":570578,"internal_node_id":"0.0-5.0","subject_id":"61085399a8e88b607b3ffd58","study_id":"60edd13110225f80f9f3709b","session_id":"6196c4a719749927463d722c","condition":"full-information","relevant_dimensions":["antennae","pattern"],"bee_group":{"antennae":"A","wings":"X","pattern":"D","legs":"X"},"bonus":0.18000000000000071},{"rt":2608.89999999851,"stimulus":"bees-with-color/bee-A1DF.svg","response":0,"trial_type":"image-button-response","trial_index":136,"time_elapsed":573219,"internal_node_id":"0.0-6.0-0.0","subject_id":"61085399a8e88b607b3ffd58","study_id":"60edd13110225f80f9f3709b","session_id":"6196c4a719749927463d722c","condition":"full-information","relevant_dimensions":["antennae","pattern"],"bee_group":{"antennae":"A","wings":"X","pattern":"D","legs":"X"},"bonus":0.18000000000000071},{"rt":3030.60000000149,"stimulus":"bees-with-color/bee-B2SF.svg","response":0,"trial_type":"image-button-response","trial_index":137,"time_elapsed":576254,"internal_node_id":"0.0-6.0-0.1","subject_id":"61085399a8e88b607b3ffd58","study_id":"60edd13110225f80f9f3709b","session_id":"6196c4a719749927463d722c","condition":"full-information","relevant_dimensions":["antennae","pattern"],"bee_group":{"antennae":"A","wings":"X","pattern":"D","legs":"X"},"bonus":0.18000000000000071},{"rt":1878.4000000059605,"stimulus":"bees-with-color/bee-B2SM.svg","response":0,"trial_type":"image-button-response","trial_index":138,"time_elapsed":578138,"internal_node_id":"0.0-6.0-0.2","subject_id":"61085399a8e88b607b3ffd58","study_id":"60edd13110225f80f9f3709b","session_id":"6196c4a719749927463d722c","condition":"full-information","relevant_dimensions":["antennae","pattern"],"bee_group":{"antennae":"A","wings":"X","pattern":"D","legs":"X"},"bonus":0.18000000000000071},{"rt":1645.4000000059605,"stimulus":"bees-with-color/bee-B2DF.svg","response":0,"trial_type":"image-button-response","trial_index":139,"time_elapsed":579789,"internal_node_id":"0.0-6.0-0.3","subject_id":"61085399a8e88b607b3ffd58","study_id":"60edd13110225f80f9f3709b","session_id":"6196c4a719749927463d722c","condition":"full-information","relevant_dimensions":["antennae","pattern"],"bee_group":{"antennae":"A","wings":"X","pattern":"D","legs":"X"},"bonus":0.18000000000000071},{"rt":1155.3999999985099,"stimulus":"bees-with-color/bee-A2SM.svg","response":0,"trial_type":"image-button-response","trial_index":140,"time_elapsed":580950,"internal_node_id":"0.0-6.0-0.4","subject_id":"61085399a8e88b607b3ffd58","study_id":"60edd13110225f80f9f3709b","session_id":"6196c4a719749927463d722c","condition":"full-information","relevant_dimensions":["antennae","pattern"],"bee_group":{"antennae":"A","wings":"X","pattern":"D","legs":"X"},"bonus":0.18000000000000071},{"rt":1782.9000000059605,"stimulus":"bees-with-color/bee-A2DF.svg","response":0,"trial_type":"image-button-response","trial_index":141,"time_elapsed":582736,"internal_node_id":"0.0-6.0-0.5","subject_id":"61085399a8e88b607b3ffd58","study_id":"60edd13110225f80f9f3709b","session_id":"6196c4a719749927463d722c","condition":"full-information","relevant_dimensions":["antennae","pattern"],"bee_group":{"antennae":"A","wings":"X","pattern":"D","legs":"X"},"bonus":0.18000000000000071},{"rt":1656.7999999970198,"stimulus":"bees-with-color/bee-B1DM.svg","response":0,"trial_type":"image-button-response","trial_index":142,"time_elapsed":584395,"internal_node_id":"0.0-6.0-0.6","subject_id":"61085399a8e88b607b3ffd58","study_id":"60edd13110225f80f9f3709b","session_id":"6196c4a719749927463d722c","condition":"full-information","relevant_dimensions":["antennae","pattern"],"bee_group":{"antennae":"A","wings":"X","pattern":"D","legs":"X"},"bonus":0.18000000000000071},{"rt":1035.5,"stimulus":"bees-with-color/bee-A1SM.svg","response":1,"trial_type":"image-button-response","trial_index":143,"time_elapsed":585435,"internal_node_id":"0.0-6.0-0.7","subject_id":"61085399a8e88b607b3ffd58","study_id":"60edd13110225f80f9f3709b","session_id":"6196c4a719749927463d722c","condition":"full-information","relevant_dimensions":["antennae","pattern"],"bee_group":{"antennae":"A","wings":"X","pattern":"D","legs":"X"},"bonus":0.18000000000000071},{"rt":2145.5,"stimulus":"bees-with-color/bee-A1SF.svg","response":1,"trial_type":"image-button-response","trial_index":144,"time_elapsed":587583,"internal_node_id":"0.0-6.0-0.8","subject_id":"61085399a8e88b607b3ffd58","study_id":"60edd13110225f80f9f3709b","session_id":"6196c4a719749927463d722c","condition":"full-information","relevant_dimensions":["antennae","pattern"],"bee_group":{"antennae":"A","wings":"X","pattern":"D","legs":"X"},"bonus":0.18000000000000071},{"rt":2542.10000000149,"stimulus":"bees-with-color/bee-A2SF.svg","response":1,"trial_type":"image-button-response","trial_index":145,"time_elapsed":590129,"internal_node_id":"0.0-6.0-0.9","subject_id":"61085399a8e88b607b3ffd58","study_id":"60edd13110225f80f9f3709b","session_id":"6196c4a719749927463d722c","condition":"full-information","relevant_dimensions":["antennae","pattern"],"bee_group":{"antennae":"A","wings":"X","pattern":"D","legs":"X"},"bonus":0.18000000000000071},{"rt":1158.5999999940395,"stimulus":"bees-with-color/bee-A2DM.svg","response":0,"trial_type":"image-button-response","trial_index":146,"time_elapsed":591292,"internal_node_id":"0.0-6.0-0.10","subject_id":"61085399a8e88b607b3ffd58","study_id":"60edd13110225f80f9f3709b","session_id":"6196c4a719749927463d722c","condition":"full-information","relevant_dimensions":["antennae","pattern"],"bee_group":{"antennae":"A","wings":"X","pattern":"D","legs":"X"},"bonus":0.18000000000000071},{"rt":1836.3000000044703,"stimulus":"bees-with-color/bee-B1SM.svg","response":0,"trial_type":"image-button-response","trial_index":147,"time_elapsed":593133,"internal_node_id":"0.0-6.0-0.11","subject_id":"61085399a8e88b607b3ffd58","study_id":"60edd13110225f80f9f3709b","session_id":"6196c4a719749927463d722c","condition":"full-information","relevant_dimensions":["antennae","pattern"],"bee_group":{"antennae":"A","wings":"X","pattern":"D","legs":"X"},"bonus":0.18000000000000071},{"rt":1543.6000000014901,"stimulus":"bees-with-color/bee-B2DM.svg","response":0,"trial_type":"image-button-response","trial_index":148,"time_elapsed":594679,"internal_node_id":"0.0-6.0-0.12","subject_id":"61085399a8e88b607b3ffd58","study_id":"60edd13110225f80f9f3709b","session_id":"6196c4a719749927463d722c","condition":"full-information","relevant_dimensions":["antennae","pattern"],"bee_group":{"antennae":"A","wings":"X","pattern":"D","legs":"X"},"bonus":0.18000000000000071},{"rt":3185.4000000059605,"stimulus":"bees-with-color/bee-A1DM.svg","response":1,"trial_type":"image-button-response","trial_index":149,"time_elapsed":597869,"internal_node_id":"0.0-6.0-0.13","subject_id":"61085399a8e88b607b3ffd58","study_id":"60edd13110225f80f9f3709b","session_id":"6196c4a719749927463d722c","condition":"full-information","relevant_dimensions":["antennae","pattern"],"bee_group":{"antennae":"A","wings":"X","pattern":"D","legs":"X"},"bonus":0.18000000000000071},{"rt":1240.5999999940395,"stimulus":"bees-with-color/bee-B1SF.svg","response":1,"trial_type":"image-button-response","trial_index":150,"time_elapsed":599114,"internal_node_id":"0.0-6.0-0.14","subject_id":"61085399a8e88b607b3ffd58","study_id":"60edd13110225f80f9f3709b","session_id":"6196c4a719749927463d722c","condition":"full-information","relevant_dimensions":["antennae","pattern"],"bee_group":{"antennae":"A","wings":"X","pattern":"D","legs":"X"},"bonus":0.18000000000000071},{"rt":1758,"stimulus":"bees-with-color/bee-B1DF.svg","response":1,"trial_type":"image-button-response","trial_index":151,"time_elapsed":600877,"internal_node_id":"0.0-6.0-0.15","subject_id":"61085399a8e88b607b3ffd58","study_id":"60edd13110225f80f9f3709b","session_id":"6196c4a719749927463d722c","condition":"full-information","relevant_dimensions":["antennae","pattern"],"bee_group":{"antennae":"A","wings":"X","pattern":"D","legs":"X"},"bonus":0.18000000000000071},{"rt":1243.5,"stimulus":"bees-with-color/bee-A2DM.svg","response":0,"trial_type":"image-button-response","trial_index":152,"time_elapsed":602123,"internal_node_id":"0.0-6.0-0.16","subject_id":"61085399a8e88b607b3ffd58","study_id":"60edd13110225f80f9f3709b","session_id":"6196c4a719749927463d722c","condition":"full-information","relevant_dimensions":["antennae","pattern"],"bee_group":{"antennae":"A","wings":"X","pattern":"D","legs":"X"},"bonus":0.18000000000000071},{"rt":2603.2000000029802,"stimulus":"bees-with-color/bee-A2SM.svg","response":1,"trial_type":"image-button-response","trial_index":153,"time_elapsed":604729,"internal_node_id":"0.0-6.0-0.17","subject_id":"61085399a8e88b607b3ffd58","study_id":"60edd13110225f80f9f3709b","session_id":"6196c4a719749927463d722c","condition":"full-information","relevant_dimensions":["antennae","pattern"],"bee_group":{"antennae":"A","wings":"X","pattern":"D","legs":"X"},"bonus":0.18000000000000071},{"rt":2863.5,"stimulus":"bees-with-color/bee-A1DF.svg","response":1,"trial_type":"image-button-response","trial_index":154,"time_elapsed":607596,"internal_node_id":"0.0-6.0-0.18","subject_id":"61085399a8e88b607b3ffd58","study_id":"60edd13110225f80f9f3709b","session_id":"6196c4a719749927463d722c","condition":"full-information","relevant_dimensions":["antennae","pattern"],"bee_group":{"antennae":"A","wings":"X","pattern":"D","legs":"X"},"bonus":0.18000000000000071},{"rt":1407.7999999970198,"stimulus":"bees-with-color/bee-B1DF.svg","response":1,"trial_type":"image-button-response","trial_index":155,"time_elapsed":609006,"internal_node_id":"0.0-6.0-0.19","subject_id":"61085399a8e88b607b3ffd58","study_id":"60edd13110225f80f9f3709b","session_id":"6196c4a719749927463d722c","condition":"full-information","relevant_dimensions":["antennae","pattern"],"bee_group":{"antennae":"A","wings":"X","pattern":"D","legs":"X"},"bonus":0.18000000000000071},{"rt":1454.1999999955297,"stimulus":"bees-with-color/bee-B1SM.svg","response":1,"trial_type":"image-button-response","tr