[{"success":true,"trial_type":"fullscreen","trial_index":0,"time_elapsed":2257,"internal_node_id":"0.0-0.0","subject_id":"5c9cb670b472d0001295f377","study_id":"6197b3f67c2b5cd3b6d9596a","session_id":"6197b9effeba6cdf31e01304","condition":"full-information","relevant_dimensions":["antennae","legs"],"bee_group":{"antennae":"B","wings":"X","pattern":"X","legs":"M"},"bonus":1.3877787807814457e-17},{"success":true,"timeout":false,"failed_images":[],"failed_audio":[],"failed_video":[],"trial_type":"preload","trial_index":1,"time_elapsed":2513,"internal_node_id":"0.0-1.0","subject_id":"5c9cb670b472d0001295f377","study_id":"6197b3f67c2b5cd3b6d9596a","session_id":"6197b9effeba6cdf31e01304","condition":"full-information","relevant_dimensions":["antennae","legs"],"bee_group":{"antennae":"B","wings":"X","pattern":"X","legs":"M"},"bonus":1.3877787807814457e-17},{"rt":1591,"stimulus":"Welcome! Press any key to begin.","response":"ξ","trial_type":"html-keyboard-response","trial_index":2,"time_elapsed":4105,"internal_node_id":"0.0-2.0","subject_id":"5c9cb670b472d0001295f377","study_id":"6197b3f67c2b5cd3b6d9596a","session_id":"6197b9effeba6cdf31e01304","condition":"full-information","relevant_dimensions":["antennae","legs"],"bee_group":{"antennae":"B","wings":"X","pattern":"X","legs":"M"},"bonus":1.3877787807814457e-17},{"view_history":[{"page_index":0,"viewing_time":1025},{"page_index":1,"viewing_time":992},{"page_index":2,"viewing_time":977},{"page_index":3,"viewing_time":1072},{"page_index":4,"viewing_time":887},{"page_index":5,"viewing_time":649},{"page_index":6,"viewing_time":769},{"page_index":7,"viewing_time":1014},{"page_index":8,"viewing_time":633},{"page_index":9,"viewing_time":552},{"page_index":10,"viewing_time":568},{"page_index":11,"viewing_time":8480},{"page_index":12,"viewing_time":2304},{"page_index":13,"viewing_time":1816},{"page_index":14,"viewing_time":1327}],"rt":23065,"trial_type":"instructions","trial_index":3,"time_elapsed":27171,"internal_node_id":"0.0-3.0-0.0","subject_id":"5c9cb670b472d0001295f377","study_id":"6197b3f67c2b5cd3b6d9596a","session_id":"6197b9effeba6cdf31e01304","condition":"full-information","relevant_dimensions":["antennae","legs"],"bee_group":{"antennae":"B","wings":"X","pattern":"X","legs":"M"},"bonus":1.3877787807814457e-17},{"rt":9255,"response":{"Q0":["Two or six legs","Stripes or spots on body","Single or double wings","Antennae or no antennae"]},"question_order":[0],"trial_type":"survey-multi-select","trial_index":4,"time_elapsed":36437,"internal_node_id":"0.0-3.0-1.0","subject_id":"5c9cb670b472d0001295f377","study_id":"6197b3f67c2b5cd3b6d9596a","session_id":"6197b9effeba6cdf31e01304","condition":"full-information","relevant_dimensions":["antennae","legs"],"bee_group":{"antennae":"B","wings":"X","pattern":"X","legs":"M"},"correct":true,"bonus":1.3877787807814457e-17},{"rt":35014,"response":{"Q1":"No.","Q2":"Based on the four features of the bee.","Q3":"You learn if it was friendly or dangerous, but do not alter your bonus."},"question_order":[0,1,2],"trial_type":"survey-multi-choice","trial_index":5,"time_elapsed":71456,"internal_node_id":"0.0-3.0-2.0","subject_id":"5c9cb670b472d0001295f377","study_id":"6197b3f67c2b5cd3b6d9596a","session_id":"6197b9effeba6cdf31e01304","condition":"full-information","relevant_dimensions":["antennae","legs"],"bee_group":{"antennae":"B","wings":"X","pattern":"X","legs":"M"},"correct":true,"bonus":1.3877787807814457e-17},{"rt":1920,"stimulus":"<p>Congrats, you got everything right<br>When you're ready, click the button below to continue to the experiment.</p>","response":0,"trial_type":"html-button-response","trial_index":6,"time_elapsed":73380,"internal_node_id":"0.0-3.0-3.0","subject_id":"5c9cb670b472d0001295f377","study_id":"6197b3f67c2b5cd3b6d9596a","session_id":"6197b9effeba6cdf31e01304","condition":"full-information","relevant_dimensions":["antennae","legs"],"bee_group":{"antennae":"B","wings":"X","pattern":"X","legs":"M"},"bonus":1.3877787807814457e-17},{"rt":3562,"stimulus":"bees-with-color/bee-B1SM.svg","response":0,"trial_type":"image-button-response","trial_index":7,"time_elapsed":76948,"internal_node_id":"0.0-4.0-0.0","subject_id":"5c9cb670b472d0001295f377","study_id":"6197b3f67c2b5cd3b6d9596a","session_id":"6197b9effeba6cdf31e01304","condition":"full-information","relevant_dimensions":["antennae","legs"],"bee_group":{"antennae":"B","wings":"X","pattern":"X","legs":"M"},"action":"harvest","summary":"bad-harvest","bonus":1.3877787807814457e-17},{"rt":1497,"stimulus":"\n                    <p><b>Action: <em>harvest</em></b></p>\n                    <p>This is the bee that you just saw.</p>\n                    <img src=\"bees-with-color/bee-B1SM.svg\" width=\"200\">\n                    <p><span class=\"redText\">Bad choice, the bee was angry.</span><br><b>You have been stung!</b><br>Your pay has been decreased by $0.10. Your bonus pay is now $0.44.</p>\n            ","response":0,"trial_type":"html-button-response","trial_index":8,"time_elapsed":78468,"internal_node_id":"0.0-4.0-1.0","subject_id":"5c9cb670b472d0001295f377","study_id":"6197b3f67c2b5cd3b6d9596a","session_id":"6197b9effeba6cdf31e01304","condition":"full-information","relevant_dimensions":["antennae","legs"],"bee_group":{"antennae":"B","wings":"X","pattern":"X","legs":"M"},"bonus":1.3877787807814457e-17},{"rt":2469,"stimulus":"bees-with-color/bee-B2SM.svg","response":0,"trial_type":"image-button-response","trial_index":9,"time_elapsed":80940,"internal_node_id":"0.0-4.0-0.1","subject_id":"5c9cb670b472d0001295f377","study_id":"6197b3f67c2b5cd3b6d9596a","session_id":"6197b9effeba6cdf31e01304","condition":"full-information","relevant_dimensions":["antennae","legs"],"bee_group":{"antennae":"B","wings":"X","pattern":"X","legs":"M"},"action":"harvest","summary":"bad-harvest","bonus":1.3877787807814457e-17},{"rt":1061,"stimulus":"\n                    <p><b>Action: <em>harvest</em></b></p>\n                    <p>This is the bee that you just saw.</p>\n                    <img src=\"bees-with-color/bee-B2SM.svg\" width=\"200\">\n                    <p><span class=\"redText\">Bad choice, the bee was angry.</span><br><b>You have been stung!</b><br>Your pay has been decreased by $0.10. Your bonus pay is now $0.34.</p>\n            ","response":0,"trial_type":"html-button-response","trial_index":10,"time_elapsed":82004,"internal_node_id":"0.0-4.0-1.1","subject_id":"5c9cb670b472d0001295f377","study_id":"6197b3f67c2b5cd3b6d9596a","session_id":"6197b9effeba6cdf31e01304","condition":"full-information","relevant_dimensions":["antennae","legs"],"bee_group":{"antennae":"B","wings":"X","pattern":"X","legs":"M"},"bonus":1.3877787807814457e-17},{"rt":982,"stimulus":"bees-with-color/bee-A2SF.svg","response":0,"trial_type":"image-button-response","trial_index":11,"time_elapsed":82988,"internal_node_id":"0.0-4.0-0.2","subject_id":"5c9cb670b472d0001295f377","study_id":"6197b3f67c2b5cd3b6d9596a","session_id":"6197b9effeba6cdf31e01304","condition":"full-information","relevant_dimensions":["antennae","legs"],"bee_group":{"antennae":"B","wings":"X","pattern":"X","legs":"M"},"action":"harvest","summary":"good-harvest","bonus":1.3877787807814457e-17},{"rt":1069,"stimulus":"\n                    <p><b>Action: <em>harvest</em></b></p>\n                    <p>This is the bee that you just saw.</p>\n                    <img src=\"bees-with-color/bee-A2SF.svg\" width=\"200\">\n                    <p><span class=\"greenText\"><b>Successful harvest!</b></span><br>Your pay has increased by $0.02. Your bonus pay is now $0.36.</p>\n            ","response":0,"trial_type":"html-button-response","trial_index":12,"time_elapsed":84060,"internal_node_id":"0.0-4.0-1.2","subject_id":"5c9cb670b472d0001295f377","study_id":"6197b3f67c2b5cd3b6d9596a","session_id":"6197b9effeba6cdf31e01304","condition":"full-information","relevant_dimensions":["antennae","legs"],"bee_group":{"antennae":"B","wings":"X","pattern":"X","legs":"M"},"bonus":1.3877787807814457e-17},{"rt":1231,"stimulus":"bees-with-color/bee-A2SM.svg","response":0,"trial_type":"image-button-response","trial_index":13,"time_elapsed":85292,"internal_node_id":"0.0-4.0-0.3","subject_id":"5c9cb670b472d0001295f377","study_id":"6197b3f67c2b5cd3b6d9596a","session_id":"6197b9effeba6cdf31e01304","condition":"full-information","relevant_dimensions":["antennae","legs"],"bee_group":{"antennae":"B","wings":"X","pattern":"X","legs":"M"},"action":"harvest","summary":"good-harvest","bonus":1.3877787807814457e-17},{"rt":959,"stimulus":"\n                    <p><b>Action: <em>harvest</em></b></p>\n                    <p>This is the bee that you just saw.</p>\n                    <img src=\"bees-with-color/bee-A2SM.svg\" width=\"200\">\n                    <p><span class=\"greenText\"><b>Successful harvest!</b></span><br>Your pay has increased by $0.02. Your bonus pay is now $0.38.</p>\n            ","response":0,"trial_type":"html-button-response","trial_index":14,"time_elapsed":86251,"internal_node_id":"0.0-4.0-1.3","subject_id":"5c9cb670b472d0001295f377","study_id":"6197b3f67c2b5cd3b6d9596a","session_id":"6197b9effeba6cdf31e01304","condition":"full-information","relevant_dimensions":["antennae","legs"],"bee_group":{"antennae":"B","wings":"X","pattern":"X","legs":"M"},"bonus":1.3877787807814457e-17},{"rt":2039,"stimulus":"bees-with-color/bee-A2DF.svg","response":0,"trial_type":"image-button-response","trial_index":15,"time_elapsed":88292,"internal_node_id":"0.0-4.0-0.4","subject_id":"5c9cb670b472d0001295f377","study_id":"6197b3f67c2b5cd3b6d9596a","session_id":"6197b9effeba6cdf31e01304","condition":"full-information","relevant_dimensions":["antennae","legs"],"bee_group":{"antennae":"B","wings":"X","pattern":"X","legs":"M"},"action":"harvest","summary":"good-harvest","bonus":1.3877787807814457e-17},{"rt":903,"stimulus":"\n                    <p><b>Action: <em>harvest</em></b></p>\n                    <p>This is the bee that you just saw.</p>\n                    <img src=\"bees-with-color/bee-A2DF.svg\" width=\"200\">\n                    <p><span class=\"greenText\"><b>Successful harvest!</b></span><br>Your pay has increased by $0.02. Your bonus pay is now $0.40.</p>\n            ","response":0,"trial_type":"html-button-response","trial_index":16,"time_elapsed":89198,"internal_node_id":"0.0-4.0-1.4","subject_id":"5c9cb670b472d0001295f377","study_id":"6197b3f67c2b5cd3b6d9596a","session_id":"6197b9effeba6cdf31e01304","condition":"full-information","relevant_dimensions":["antennae","legs"],"bee_group":{"antennae":"B","wings":"X","pattern":"X","legs":"M"},"bonus":1.3877787807814457e-17},{"rt":883,"stimulus":"bees-with-color/bee-A1SM.svg","response":1,"trial_type":"image-button-response","trial_index":17,"time_elapsed":90083,"internal_node_id":"0.0-4.0-0.5","subject_id":"5c9cb670b472d0001295f377","study_id":"6197b3f67c2b5cd3b6d9596a","session_id":"6197b9effeba6cdf31e01304","condition":"full-information","relevant_dimensions":["antennae","legs"],"bee_group":{"antennae":"B","wings":"X","pattern":"X","legs":"M"},"action":"avoid","summary":"bad-avoid","bonus":1.3877787807814457e-17},{"rt":958,"stimulus":"\n                    <p><b>Action: <em>avoid</em></b></p>\n                    <p>This is the bee that you just saw.</p>\n                    <img src=\"bees-with-color/bee-A1SM.svg\" width=\"200\">\n                    <p><span class=\"redText\">Bad choice,</span> the bee was friendly.<br>Your bonus pay is unchanged, and remains at $0.40.</p>\n            ","response":0,"trial_type":"html-button-response","trial_index":18,"time_elapsed":91043,"internal_node_id":"0.0-4.0-1.5","subject_id":"5c9cb670b472d0001295f377","study_id":"6197b3f67c2b5cd3b6d9596a","session_id":"6197b9effeba6cdf31e01304","condition":"full-information","relevant_dimensions":["antennae","legs"],"bee_group":{"antennae":"B","wings":"X","pattern":"X","legs":"M"},"bonus":1.3877787807814457e-17},{"rt":1581,"stimulus":"bees-with-color/bee-A1DF.svg","response":0,"trial_type":"image-button-response","trial_index":19,"time_elapsed":92627,"internal_node_id":"0.0-4.0-0.6","subject_id":"5c9cb670b472d0001295f377","study_id":"6197b3f67c2b5cd3b6d9596a","session_id":"6197b9effeba6cdf31e01304","condition":"full-information","relevant_dimensions":["antennae","legs"],"bee_group":{"antennae":"B","wings":"X","pattern":"X","legs":"M"},"action":"harvest","summary":"good-harvest","bonus":1.3877787807814457e-17},{"rt":1407,"stimulus":"\n                    <p><b>Action: <em>harvest</em></b></p>\n                    <p>This is the bee that you just saw.</p>\n                    <img src=\"bees-with-color/bee-A1DF.svg\" width=\"200\">\n                    <p><span class=\"greenText\"><b>Successful harvest!</b></span><br>Your pay has increased by $0.02. Your bonus pay is now $0.42.</p>\n            ","response":0,"trial_type":"html-button-response","trial_index":20,"time_elapsed":94036,"internal_node_id":"0.0-4.0-1.6","subject_id":"5c9cb670b472d0001295f377","study_id":"6197b3f67c2b5cd3b6d9596a","session_id":"6197b9effeba6cdf31e01304","condition":"full-information","relevant_dimensions":["antennae","legs"],"bee_group":{"antennae":"B","wings":"X","pattern":"X","legs":"M"},"bonus":1.3877787807814457e-17},{"rt":1798,"stimulus":"bees-with-color/bee-B2SF.svg","response":1,"trial_type":"image-button-response","trial_index":21,"time_elapsed":95836,"internal_node_id":"0.0-4.0-0.7","subject_id":"5c9cb670b472d0001295f377","study_id":"6197b3f67c2b5cd3b6d9596a","session_id":"6197b9effeba6cdf31e01304","condition":"full-information","relevant_dimensions":["antennae","legs"],"bee_group":{"antennae":"B","wings":"X","pattern":"X","legs":"M"},"action":"avoid","summary":"bad-avoid","bonus":1.3877787807814457e-17},{"rt":2471,"stimulus":"\n                    <p><b>Action: <em>avoid</em></b></p>\n                    <p>This is the bee that you just saw.</p>\n                    <img src=\"bees-with-color/bee-B2SF.svg\" width=\"200\">\n                    <p><span class=\"redText\">Bad choice,</span> the bee was friendly.<br>Your bonus pay is unchanged, and remains at $0.42.</p>\n            ","response":0,"trial_type":"html-button-response","trial_index":22,"time_elapsed":98307,"internal_node_id":"0.0-4.0-1.7","subject_id":"5c9cb670b472d0001295f377","study_id":"6197b3f67c2b5cd3b6d9596a","session_id":"6197b9effeba6cdf31e01304","condition":"full-information","relevant_dimensions":["antennae","legs"],"bee_group":{"antennae":"B","wings":"X","pattern":"X","legs":"M"},"bonus":1.3877787807814457e-17},{"rt":1448,"stimulus":"bees-with-color/bee-B2DM.svg","response":0,"trial_type":"image-button-response","trial_index":23,"time_elapsed":99756,"internal_node_id":"0.0-4.0-0.8","subject_id":"5c9cb670b472d0001295f377","study_id":"6197b3f67c2b5cd3b6d9596a","session_id":"6197b9effeba6cdf31e01304","condition":"full-information","relevant_dimensions":["antennae","legs"],"bee_group":{"antennae":"B","wings":"X","pattern":"X","legs":"M"},"action":"harvest","summary":"bad-harvest","bonus":1.3877787807814457e-17},{"rt":1086,"stimulus":"\n                    <p><b>Action: <em>harvest</em></b></p>\n                    <p>This is the bee that you just saw.</p>\n                    <img src=\"bees-with-color/bee-B2DM.svg\" width=\"200\">\n                    <p><span class=\"redText\">Bad choice, the bee was angry.</span><br><b>You have been stung!</b><br>Your pay has been decreased by $0.10. Your bonus pay is now $0.32.</p>\n            ","response":0,"trial_type":"html-button-response","trial_index":24,"time_elapsed":100844,"internal_node_id":"0.0-4.0-1.8","subject_id":"5c9cb670b472d0001295f377","study_id":"6197b3f67c2b5cd3b6d9596a","session_id":"6197b9effeba6cdf31e01304","condition":"full-information","relevant_dimensions":["antennae","legs"],"bee_group":{"antennae":"B","wings":"X","pattern":"X","legs":"M"},"bonus":1.3877787807814457e-17},{"rt":911,"stimulus":"bees-with-color/bee-A2DM.svg","response":1,"trial_type":"image-button-response","trial_index":25,"time_elapsed":101756,"internal_node_id":"0.0-4.0-0.9","subject_id":"5c9cb670b472d0001295f377","study_id":"6197b3f67c2b5cd3b6d9596a","session_id":"6197b9effeba6cdf31e01304","condition":"full-information","relevant_dimensions":["antennae","legs"],"bee_group":{"antennae":"B","wings":"X","pattern":"X","legs":"M"},"action":"avoid","summary":"bad-avoid","bonus":1.3877787807814457e-17},{"rt":870,"stimulus":"\n                    <p><b>Action: <em>avoid</em></b></p>\n                    <p>This is the bee that you just saw.</p>\n                    <img src=\"bees-with-color/bee-A2DM.svg\" width=\"200\">\n                    <p><span class=\"redText\">Bad choice,</span> the bee was friendly.<br>Your bonus pay is unchanged, and remains at $0.32.</p>\n            ","response":0,"trial_type":"html-button-response","trial_index":26,"time_elapsed":102627,"internal_node_id":"0.0-4.0-1.9","subject_id":"5c9cb670b472d0001295f377","study_id":"6197b3f67c2b5cd3b6d9596a","session_id":"6197b9effeba6cdf31e01304","condition":"full-information","relevant_dimensions":["antennae","legs"],"bee_group":{"antennae":"B","wings":"X","pattern":"X","legs":"M"},"bonus":1.3877787807814457e-17},{"rt":1222,"stimulus":"bees-with-color/bee-A1DM.svg","response":0,"trial_type":"image-button-response","trial_index":27,"time_elapsed":103851,"internal_node_id":"0.0-4.0-0.10","subject_id":"5c9cb670b472d0001295f377","study_id":"6197b3f67c2b5cd3b6d9596a","session_id":"6197b9effeba6cdf31e01304","condition":"full-information","relevant_dimensions":["antennae","legs"],"bee_group":{"antennae":"B","wings":"X","pattern":"X","legs":"M"},"action":"harvest","summary":"good-harvest","bonus":1.3877787807814457e-17},{"rt":886,"stimulus":"\n                    <p><b>Action: <em>harvest</em></b></p>\n                    <p>This is the bee that you just saw.</p>\n                    <img src=\"bees-with-color/bee-A1DM.svg\" width=\"200\">\n                    <p><span class=\"greenText\"><b>Successful harvest!</b></span><br>Your pay has increased by $0.02. Your bonus pay is now $0.34.</p>\n            ","response":0,"trial_type":"html-button-response","trial_index":28,"time_elapsed":104739,"internal_node_id":"0.0-4.0-1.10","subject_id":"5c9cb670b472d0001295f377","study_id":"6197b3f67c2b5cd3b6d9596a","session_id":"6197b9effeba6cdf31e01304","condition":"full-information","relevant_dimensions":["antennae","legs"],"bee_group":{"antennae":"B","wings":"X","pattern":"X","legs":"M"},"bonus":1.3877787807814457e-17},{"rt":791,"stimulus":"bees-with-color/bee-B1SF.svg","response":1,"trial_type":"image-button-response","trial_index":29,"time_elapsed":105532,"internal_node_id":"0.0-4.0-0.11","subject_id":"5c9cb670b472d0001295f377","study_id":"6197b3f67c2b5cd3b6d9596a","session_id":"6197b9effeba6cdf31e01304","condition":"full-information","relevant_dimensions":["antennae","legs"],"bee_group":{"antennae":"B","wings":"X","pattern":"X","legs":"M"},"action":"avoid","summary":"bad-avoid","bonus":1.3877787807814457e-17},{"rt":709,"stimulus":"\n                    <p><b>Action: <em>avoid</em></b></p>\n                    <p>This is the bee that you just saw.</p>\n                    <img src=\"bees-with-color/bee-B1SF.svg\" width=\"200\">\n                    <p><span class=\"redText\">Bad choice,</span> the bee was friendly.<br>Your bonus pay is unchanged, and remains at $0.34.</p>\n            ","response":0,"trial_type":"html-button-response","trial_index":30,"time_elapsed":106244,"internal_node_id":"0.0-4.0-1.11","subject_id":"5c9cb670b472d0001295f377","study_id":"6197b3f67c2b5cd3b6d9596a","session_id":"6197b9effeba6cdf31e01304","condition":"full-information","relevant_dimensions":["antennae","legs"],"bee_group":{"antennae":"B","wings":"X","pattern":"X","legs":"M"},"bonus":1.3877787807814457e-17},{"rt":781,"stimulus":"bees-with-color/bee-B1DF.svg","response":0,"trial_type":"image-button-response","trial_index":31,"time_elapsed":107027,"internal_node_id":"0.0-4.0-0.12","subject_id":"5c9cb670b472d0001295f377","study_id":"6197b3f67c2b5cd3b6d9596a","session_id":"6197b9effeba6cdf31e01304","condition":"full-information","relevant_dimensions":["antennae","legs"],"bee_group":{"antennae":"B","wings":"X","pattern":"X","legs":"M"},"action":"harvest","summary":"good-harvest","bonus":1.3877787807814457e-17},{"rt":670,"stimulus":"\n                    <p><b>Action: <em>harvest</em></b></p>\n                    <p>This is the bee that you just saw.</p>\n                    <img src=\"bees-with-color/bee-B1DF.svg\" width=\"200\">\n                    <p><span class=\"greenText\"><b>Successful harvest!</b></span><br>Your pay has increased by $0.02. Your bonus pay is now $0.36.</p>\n            ","response":0,"trial_type":"html-button-response","trial_index":32,"time_elapsed":107699,"internal_node_id":"0.0-4.0-1.12","subject_id":"5c9cb670b472d0001295f377","study_id":"6197b3f67c2b5cd3b6d9596a","session_id":"6197b9effeba6cdf31e01304","condition":"full-information","relevant_dimensions":["antennae","legs"],"bee_group":{"antennae":"B","wings":"X","pattern":"X","legs":"M"},"bonus":1.3877787807814457e-17},{"rt":1455,"stimulus":"bees-with-color/bee-B1DM.svg","response":1,"trial_type":"image-button-response","trial_index":33,"time_elapsed":109155,"internal_node_id":"0.0-4.0-0.13","subject_id":"5c9cb670b472d0001295f377","study_id":"6197b3f67c2b5cd3b6d9596a","session_id":"6197b9effeba6cdf31e01304","condition":"full-information","relevant_dimensions":["antennae","legs"],"bee_group":{"antennae":"B","wings":"X","pattern":"X","legs":"M"},"action":"avoid","summary":"good-avoid","bonus":1.3877787807814457e-17},{"rt":1302,"stimulus":"\n                    <p><b>Action: <em>avoid</em></b></p>\n                    <p>This is the bee that you just saw.</p>\n                    <img src=\"bees-with-color/bee-B1DM.svg\" width=\"200\">\n                    <p><span class=\"greenText\">Good choice!</span>  This bee would have stung you.<br>Your bonus pay is unchanged, and remains at $0.36.</p>\n            ","response":0,"trial_type":"html-button-response","trial_index":34,"time_elapsed":110459,"internal_node_id":"0.0-4.0-1.13","subject_id":"5c9cb670b472d0001295f377","study_id":"6197b3f67c2b5cd3b6d9596a","session_id":"6197b9effeba6cdf31e01304","condition":"full-information","relevant_dimensions":["antennae","legs"],"bee_group":{"antennae":"B","wings":"X","pattern":"X","legs":"M"},"bonus":1.3877787807814457e-17},{"rt":1230,"stimulus":"bees-with-color/bee-A1SF.svg","response":0,"trial_type":"image-button-response","trial_index":35,"time_elapsed":111691,"internal_node_id":"0.0-4.0-0.14","subject_id":"5c9cb670b472d0001295f377","study_id":"6197b3f67c2b5cd3b6d9596a","session_id":"6197b9effeba6cdf31e01304","condition":"full-information","relevant_dimensions":["antennae","legs"],"bee_group":{"antennae":"B","wings":"X","pattern":"X","legs":"M"},"action":"harvest","summary":"good-harvest","bonus":1.3877787807814457e-17},{"rt":1054,"stimulus":"\n                    <p><b>Action: <em>harvest</em></b></p>\n                    <p>This is the bee that you just saw.</p>\n                    <img src=\"bees-with-color/bee-A1SF.svg\" width=\"200\">\n                    <p><span class=\"greenText\"><b>Successful harvest!</b></span><br>Your pay has increased by $0.02. Your bonus pay is now $0.38.</p>\n            ","response":0,"trial_type":"html-button-response","trial_index":36,"time_elapsed":112748,"internal_node_id":"0.0-4.0-1.14","subject_id":"5c9cb670b472d0001295f377","study_id":"6197b3f67c2b5cd3b6d9596a","session_id":"6197b9effeba6cdf31e01304","condition":"full-information","relevant_dimensions":["antennae","legs"],"bee_group":{"antennae":"B","wings":"X","pattern":"X","legs":"M"},"bonus":1.3877787807814457e-17},{"rt":1062,"stimulus":"bees-with-color/bee-B2DF.svg","response":1,"trial_type":"image-button-response","trial_index":37,"time_elapsed":113811,"internal_node_id":"0.0-4.0-0.15","subject_id":"5c9cb670b472d0001295f377","study_id":"6197b3f67c2b5cd3b6d9596a","session_id":"6197b9effeba6cdf31e01304","condition":"full-information","relevant_dimensions":["antennae","legs"],"bee_group":{"antennae":"B","wings":"X","pattern":"X","legs":"M"},"action":"avoid","summary":"bad-avoid","bonus":1.3877787807814457e-17},{"rt":1047,"stimulus":"\n                    <p><b>Action: <em>avoid</em></b></p>\n                    <p>This is the bee that you just saw.</p>\n                    <img src=\"bees-with-color/bee-B2DF.svg\" width=\"200\">\n                    <p><span class=\"redText\">Bad choice,</span> the bee was friendly.<br>Your bonus pay is unchanged, and remains at $0.38.</p>\n            ","response":0,"trial_type":"html-button-response","trial_index":38,"time_elapsed":114860,"internal_node_id":"0.0-4.0-1.15","subject_id":"5c9cb670b472d0001295f377","study_id":"6197b3f67c2b5cd3b6d9596a","session_id":"6197b9effeba6cdf31e01304","condition":"full-information","relevant_dimensions":["antennae","legs"],"bee_group":{"antennae":"B","wings":"X","pattern":"X","legs":"M"},"bonus":1.3877787807814457e-17},{"rt":1191,"stimulus":"bees-with-color/bee-B1DF.svg","response":0,"trial_type":"image-button-response","trial_index":39,"time_elapsed":116052,"internal_node_id":"0.0-4.0-0.16","subject_id":"5c9cb670b472d0001295f377","study_id":"6197b3f67c2b5cd3b6d9596a","session_id":"6197b9effeba6cdf31e01304","condition":"full-information","relevant_dimensions":["antennae","legs"],"bee_group":{"antennae":"B","wings":"X","pattern":"X","legs":"M"},"action":"harvest","summary":"good-harvest","bonus":1.3877787807814457e-17},{"rt":909,"stimulus":"\n                    <p><b>Action: <em>harvest</em></b></p>\n                    <p>This is the bee that you just saw.</p>\n                    <img src=\"bees-with-color/bee-B1DF.svg\" width=\"200\">\n                    <p><span class=\"greenText\"><b>Successful harvest!</b></span><br>Your pay has increased by $0.02. Your bonus pay is now $0.40.</p>\n            ","response":0,"trial_type":"html-button-response","trial_index":40,"time_elapsed":116963,"internal_node_id":"0.0-4.0-1.16","subject_id":"5c9cb670b472d0001295f377","study_id":"6197b3f67c2b5cd3b6d9596a","session_id":"6197b9effeba6cdf31e01304","condition":"full-information","relevant_dimensions":["antennae","legs"],"bee_group":{"antennae":"B","wings":"X","pattern":"X","legs":"M"},"bonus":1.3877787807814457e-17},{"rt":1126,"stimulus":"bees-with-color/bee-B2DM.svg","response":1,"trial_type":"image-button-response","trial_index":41,"time_elapsed":118091,"internal_node_id":"0.0-4.0-0.17","subject_id":"5c9cb670b472d0001295f377","study_id":"6197b3f67c2b5cd3b6d9596a","session_id":"6197b9effeba6cdf31e01304","condition":"full-information","relevant_dimensions":["antennae","legs"],"bee_group":{"antennae":"B","wings":"X","pattern":"X","legs":"M"},"action":"avoid","summary":"good-avoid","bonus":1.3877787807814457e-17},{"rt":990,"stimulus":"\n                    <p><b>Action: <em>avoid</em></b></p>\n                    <p>This is the bee that you just saw.</p>\n                    <img src=\"bees-with-color/bee-B2DM.svg\" width=\"200\">\n                    <p><span class=\"greenText\">Good choice!</span>  This bee would have stung you.<br>Your bonus pay is unchanged, and remains at $0.40.</p>\n            ","response":0,"trial_type":"html-button-response","trial_index":42,"time_elapsed":119084,"internal_node_id":"0.0-4.0-1.17","subject_id":"5c9cb670b472d0001295f377","study_id":"6197b3f67c2b5cd3b6d9596a","session_id":"6197b9effeba6cdf31e01304","condition":"full-information","relevant_dimensions":["antennae","legs"],"bee_group":{"antennae":"B","wings":"X","pattern":"X","legs":"M"},"bonus":1.3877787807814457e-17},{"rt":1070,"stimulus":"bees-with-color/bee-A2DM.svg","response":0,"trial_type":"image-button-response","trial_index":43,"time_elapsed":120155,"internal_node_id":"0.0-4.0-0.18","subject_id":"5c9cb670b472d0001295f377","study_id":"6197b3f67c2b5cd3b6d9596a","session_id":"6197b9effeba6cdf31e01304","condition":"full-information","relevant_dimensions":["antennae","legs"],"bee_group":{"antennae":"B","wings":"X","pattern":"X","legs":"M"},"action":"harvest","summary":"good-harvest","bonus":1.3877787807814457e-17},{"rt":863,"stimulus":"\n                    <p><b>Action: <em>harvest</em></b></p>\n                    <p>This is the bee that you just saw.</p>\n                    <img src=\"bees-with-color/bee-A2DM.svg\" width=\"200\">\n                    <p><span class=\"greenText\"><b>Successful harvest!</b></span><br>Your pay has increased by $0.02. Your bonus pay is now $0.42.</p>\n            ","response":0,"trial_type":"html-button-response","trial_index":44,"time_elapsed":121020,"internal_node_id":"0.0-4.0-1.18","subject_id":"5c9cb670b472d0001295f377","study_id":"6197b3f67c2b5cd3b6d9596a","session_id":"6197b9effeba6cdf31e01304","condition":"full-information","relevant_dimensions":["antennae","legs"],"bee_group":{"antennae":"B","wings":"X","pattern":"X","legs":"M"},"bonus":1.3877787807814457e-17},{"rt":943,"stimulus":"bees-with-color/bee-B1DM.svg","response":1,"trial_type":"image-button-response","trial_index":45,"time_elapsed":121964,"internal_node_id":"0.0-4.0-0.19","subject_id":"5c9cb670b472d0001295f377","study_id":"6197b3f67c2b5cd3b6d9596a","session_id":"6197b9effeba6cdf31e01304","condition":"full-information","relevant_dimensions":["antennae","legs"],"bee_group":{"antennae":"B","wings":"X","pattern":"X","legs":"M"},"action":"avoid","summary":"good-avoid","bonus":1.3877787807814457e-17},{"rt":622,"stimulus":"\n                    <p><b>Action: <em>avoid</em></b></p>\n                    <p>This is the bee that you just saw.</p>\n                    <img src=\"bees-with-color/bee-B1DM.svg\" width=\"200\">\n                    <p><span class=\"greenText\">Good choice!</span>  This bee would have stung you.<br>Your bonus pay is unchanged, and remains at $0.42.</p>\n            ","response":0,"trial_type":"html-button-response","trial_index":46,"time_elapsed":122587,"internal_node_id":"0.0-4.0-1.19","subject_id":"5c9cb670b472d0001295f377","study_id":"6197b3f67c2b5cd3b6d9596a","session_id":"6197b9effeba6cdf31e01304","condition":"full-information","relevant_dimensions":["antennae","legs"],"bee_group":{"antennae":"B","wings":"X","pattern":"X","legs":"M"},"bonus":1.3877787807814457e-17},{"rt":1014,"stimulus":"bees-with-color/bee-B1SF.svg","response":0,"trial_type":"image-button-response","trial_index":47,"time_elapsed":123603,"internal_node_id":"0.0-4.0-0.20","subject_id":"5c9cb670b472d0001295f377","study_id":"6197b3f67c2b5cd3b6d9596a","session_id":"6197b9effeba6cdf31e01304","condition":"full-information","relevant_dimensions":["antennae","legs"],"bee_group":{"antennae":"B","wings":"X","pattern":"X","legs":"M"},"action":"harvest","summary":"good-harvest","bonus":1.3877787807814457e-17},{"rt":1222,"stimulus":"\n                    <p><b>Action: <em>harvest</em></b></p>\n                    <p>This is the bee that you just saw.</p>\n                    <img src=\"bees-with-color/bee-B1SF.svg\" width=\"200\">\n                    <p><span class=\"greenText\"><b>Successful harvest!</b></span><br>Your pay has increased by $0.02. Your bonus pay is now $0.44.</p>\n            ","response":0,"trial_type":"html-button-response","trial_index":48,"time_elapsed":124827,"internal_node_id":"0.0-4.0-1.20","subject_id":"5c9cb670b472d0001295f377","study_id":"6197b3f67c2b5cd3b6d9596a","session_id":"6197b9effeba6cdf31e01304","condition":"full-information","relevant_dimensions":["antennae","legs"],"bee_group":{"antennae":"B","wings":"X","pattern":"X","legs":"M"},"bonus":1.3877787807814457e-17},{"rt":1576,"stimulus":"bees-with-color/bee-B2DF.svg","response":0,"trial_type":"image-button-response","trial_index":49,"time_elapsed":126404,"internal_node_id":"0.0-4.0-0.21","subject_id":"5c9cb670b472d0001295f377","study_id":"6197b3f67c2b5cd3b6d9596a","session_id":"6197b9effeba6cdf31e01304","condition":"full-information","relevant_dimensions":["antennae","legs"],"bee_group":{"antennae":"B","wings":"X","pattern":"X","legs":"M"},"action":"harvest","summary":"good-harvest","bonus":1.3877787807814457e-17},{"rt":765,"stimulus":"\n                    <p><b>Action: <em>harvest</em></b></p>\n                    <p>This is the bee that you just saw.</p>\n                    <img src=\"bees-with-color/bee-B2DF.svg\" width=\"200\">\n                    <p><span class=\"greenText\"><b>Successful harvest!</b></span><br>Your pay has increased by $0.02. Your bonus pay is now $0.46.</p>\n            ","response":0,"trial_type":"html-button-response","trial_index":50,"time_elapsed":127172,"internal_node_id":"0.0-4.0-1.21","subject_id":"5c9cb670b472d0001295f377","study_id":"6197b3f67c2b5cd3b6d9596a","session_id":"6197b9effeba6cdf31e01304","condition":"full-information","relevant_dimensions":["antennae","legs"],"bee_group":{"antennae":"B","wings":"X","pattern":"X","legs":"M"},"bonus":1.3877787807814457e-17},{"rt":1015,"stimulus":"bees-with-color/bee-A1SF.svg","response":1,"trial_type":"image-button-response","trial_index":51,"time_elapsed":128187,"internal_node_id":"0.0-4.0-0.22","subject_id":"5c9cb670b472d0001295f377","study_id":"6197b3f67c2b5cd3b6d9596a","session_id":"6197b9effeba6cdf31e01304","condition":"full-information","relevant_dimensions":["antennae","legs"],"bee_group":{"antennae":"B","wings":"X","pattern":"X","legs":"M"},"action":"avoid","summary":"bad-avoid","bonus":1.3877787807814457e-17},{"rt":799,"stimulus":"\n                    <p><b>Action: <em>avoid</em></b></p>\n                    <p>This is the bee that you just saw.</p>\n                    <img src=\"bees-with-color/bee-A1SF.svg\" width=\"200\">\n                    <p><span class=\"redText\">Bad choice,</span> the bee was friendly.<br>Your bonus pay is unchanged, and remains at $0.46.</p>\n            ","response":0,"trial_type":"html-button-response","trial_index":52,"time_elapsed":128987,"internal_node_id":"0.0-4.0-1.22","subject_id":"5c9cb670b472d0001295f377","study_id":"6197b3f67c2b5cd3b6d9596a","session_id":"6197b9effeba6cdf31e01304","condition":"full-information","relevant_dimensions":["antennae","legs"],"bee_group":{"antennae":"B","wings":"X","pattern":"X","legs":"M"},"bonus":1.3877787807814457e-17},{"rt":1038,"stimulus":"bees-with-color/bee-A1DF.svg","response":0,"trial_type":"image-button-response","trial_index":53,"time_elapsed":130027,"internal_node_id":"0.0-4.0-0.23","subject_id":"5c9cb670b472d0001295f377","study_id":"6197b3f67c2b5cd3b6d9596a","session_id":"6197b9effeba6cdf31e01304","condition":"full-information","relevant_dimensions":["antennae","legs"],"bee_group":{"antennae":"B","wings":"X","pattern":"X","legs":"M"},"action":"harvest","summary":"good-harvest","bonus":1.3877787807814457e-17},{"rt":854,"stimulus":"\n                    <p><b>Action: <em>harvest</em></b></p>\n                    <p>This is the bee that you just saw.</p>\n                    <img src=\"bees-with-color/bee-A1DF.svg\" width=\"200\">\n                    <p><span class=\"greenText\"><b>Successful harvest!</b></span><br>Your pay has increased by $0.02. Your bonus pay is now $0.48.</p>\n            ","response":0,"trial_type":"html-button-response","trial_index":54,"time_elapsed":130883,"internal_node_id":"0.0-4.0-1.23","subject_id":"5c9cb670b472d0001295f377","study_id":"6197b3f67c2b5cd3b6d9596a","session_id":"6197b9effeba6cdf31e01304","condition":"full-information","relevant_dimensions":["antennae","legs"],"bee_group":{"antennae":"B","wings":"X","pattern":"X","legs":"M"},"bonus":1.3877787807814457e-17},{"rt":814,"stimulus":"bees-with-color/bee-A1DM.svg","response":1,"trial_type":"image-button-response","trial_index":55,"time_elapsed":131700,"internal_node_id":"0.0-4.0-0.24","subject_id":"5c9cb670b472d0001295f377","study_id":"6197b3f67c2b5cd3b6d9596a","session_id":"6197b9effeba6cdf31e01304","condition":"full-information","relevant_dimensions":["antennae","legs"],"bee_group":{"antennae":"B","wings":"X","pattern":"X","legs":"M"},"action":"avoid","summary":"bad-avoid","bonus":1.3877787807814457e-17},{"rt":871,"stimulus":"\n                    <p><b>Action: <em>avoid</em></b></p>\n                    <p>This is the bee that you just saw.</p>\n                    <img src=\"bees-with-color/bee-A1DM.svg\" width=\"200\">\n                    <p><span class=\"redText\">Bad choice,</span> the bee was friendly.<br>Your bonus pay is unchanged, and remains at $0.48.</p>\n            ","response":0,"trial_type":"html-button-response","trial_index":56,"time_elapsed":132572,"internal_node_id":"0.0-4.0-1.24","subject_id":"5c9cb670b472d0001295f377","study_id":"6197b3f67c2b5cd3b6d9596a","session_id":"6197b9effeba6cdf31e01304","condition":"full-information","relevant_dimensions":["antennae","legs"],"bee_group":{"antennae":"B","wings":"X","pattern":"X","legs":"M"},"bonus":1.3877787807814457e-17},{"rt":1118,"stimulus":"bees-with-color/bee-B2SM.svg","response":0,"trial_type":"image-button-response","trial_index":57,"time_elapsed":133691,"internal_node_id":"0.0-4.0-0.25","subject_id":"5c9cb670b472d0001295f377","study_id":"6197b3f67c2b5cd3b6d9596a","session_id":"6197b9effeba6cdf31e01304","condition":"full-information","relevant_dimensions":["antennae","legs"],"bee_group":{"antennae":"B","wings":"X","pattern":"X","legs":"M"},"action":"harvest","summary":"bad-harvest","bonus":1.3877787807814457e-17},{"rt":879,"stimulus":"\n                    <p><b>Action: <em>harvest</em></b></p>\n                    <p>This is the bee that you just saw.</p>\n                    <img src=\"bees-with-color/bee-B2SM.svg\" width=\"200\">\n                    <p><span class=\"redText\">Bad choice, the bee was angry.</span><br><b>You have been stung!</b><br>Your pay has been decreased by $0.10. Your bonus pay is now $0.38.</p>\n            ","response":0,"trial_type":"html-button-response","trial_index":58,"time_elapsed":134572,"internal_node_id":"0.0-4.0-1.25","subject_id":"5c9cb670b472d0001295f377","study_id":"6197b3f67c2b5cd3b6d9596a","session_id":"6197b9effeba6cdf31e01304","condition":"full-information","relevant_dimensions":["antennae","legs"],"bee_group":{"antennae":"B","wings":"X","pattern":"X","legs":"M"},"bonus":1.3877787807814457e-17},{"rt":815,"stimulus":"bees-with-color/bee-A1SM.svg","response":1,"trial_type":"image-button-response","trial_index":59,"time_elapsed":135387,"internal_node_id":"0.0-4.0-0.26","subject_id":"5c9cb670b472d0001295f377","study_id":"6197b3f67c2b5cd3b6d9596a","session_id":"6197b9effeba6cdf31e01304","condition":"full-information","relevant_dimensions":["antennae","legs"],"bee_group":{"antennae":"B","wings":"X","pattern":"X","legs":"M"},"action":"avoid","summary":"bad-avoid","bonus":1.3877787807814457e-17},{"rt":1119,"stimulus":"\n                    <p><b>Action: <em>avoid</em></b></p>\n                    <p>This is the bee that you just saw.</p>\n                    <img src=\"bees-with-color/bee-A1SM.svg\" width=\"200\">\n                    <p><span class=\"redText\">Bad choice,</span> the bee was friendly.<br>Your bonus pay is unchanged, and remains at $0.38.</p>\n            ","response":0,"trial_type":"html-button-response","trial_index":60,"time_elapsed":136507,"internal_node_id":"0.0-4.0-1.26","subject_id":"5c9cb670b472d0001295f377","study_id":"6197b3f67c2b5cd3b6d9596a","session_id":"6197b9effeba6cdf31e01304","condition":"full-information","relevant_dimensions":["antennae","legs"],"bee_group":{"antennae":"B","wings":"X","pattern":"X","legs":"M"},"bonus":1.3877787807814457e-17},{"rt":838,"stimulus":"bees-with-color/bee-A2DF.svg","response":0,"trial_type":"image-button-response","trial_index":61,"time_elapsed":137347,"internal_node_id":"0.0-4.0-0.27","subject_id":"5c9cb670b472d0001295f377","study_id":"6197b3f67c2b5cd3b6d9596a","session_id":"6197b9effeba6cdf31e01304","condition":"full-information","relevant_dimensions":["antennae","legs"],"bee_group":{"antennae":"B","wings":"X","pattern":"X","legs":"M"},"action":"harvest","summary":"good-harvest","bonus":1.3877787807814457e-17},{"rt":782,"stimulus":"\n                    <p><b>Action: <em>harvest</em></b></p>\n                    <p>This is the bee that you just saw.</p>\n                    <img src=\"bees-with-color/bee-A2DF.svg\" width=\"200\">\n                    <p><span class=\"greenText\"><b>Successful harvest!</b></span><br>Your pay has increased by $0.02. Your bonus pay is now $0.40.</p>\n            ","response":0,"trial_type":"html-button-response","trial_index":62,"time_elapsed":138131,"internal_node_id":"0.0-4.0-1.27","subject_id":"5c9cb670b472d0001295f377","study_id":"6197b3f67c2b5cd3b6d9596a","session_id":"6197b9effeba6cdf31e01304","condition":"full-information","relevant_dimensions":["antennae","legs"],"bee_group":{"antennae":"B","wings":"X","pattern":"X","legs":"M"},"bonus":1.3877787807814457e-17},{"rt":870,"stimulus":"bees-with-color/bee-B2SF.svg","response":0,"trial_type":"image-button-response","trial_index":63,"time_elapsed":139003,"internal_node_id":"0.0-4.0-0.28","subject_id":"5c9cb670b472d0001295f377","study_id":"6197b3f67c2b5cd3b6d9596a","session_id":"6197b9effeba6cdf31e01304","condition":"full-information","relevant_dimensions":["antennae","legs"],"bee_group":{"antennae":"B","wings":"X","pattern":"X","legs":"M"},"action":"harvest","summary":"good-harvest","bonus":1.3877787807814457e-17},{"rt":742,"stimulus":"\n                    <p><b>Action: <em>harvest</em></b></p>\n                    <p>This is the bee that you just saw.</p>\n                    <img src=\"bees-with-color/bee-B2SF.svg\" width=\"200\">\n                    <p><span class=\"greenText\"><b>Successful harvest!</b></span><br>Your pay has increased by $0.02. Your bonus pay is now $0.42.</p>\n            ","response":0,"trial_type":"html-button-response","trial_index":64,"time_elapsed":139747,"internal_node_id":"0.0-4.0-1.28","subject_id":"5c9cb670b472d0001295f377","study_id":"6197b3f67c2b5cd3b6d9596a","session_id":"6197b9effeba6cdf31e01304","condition":"full-information","relevant_dimensions":["antennae","legs"],"bee_group":{"antennae":"B","wings":"X","pattern":"X","legs":"M"},"bonus":1.3877787807814457e-17},{"rt":958,"stimulus":"bees-with-color/bee-A2SM.svg","response":1,"trial_type":"image-button-response","trial_index":65,"time_elapsed":140708,"internal_node_id":"0.0-4.0-0.29","subject_id":"5c9cb670b472d0001295f377","study_id":"6197b3f67c2b5cd3b6d9596a","session_id":"6197b9effeba6cdf31e01304","condition":"full-information","relevant_dimensions":["antennae","legs"],"bee_group":{"antennae":"B","wings":"X","pattern":"X","legs":"M"},"action":"avoid","summary":"bad-avoid","bonus":1.3877787807814457e-17},{"rt":1167,"stimulus":"\n                    <p><b>Action: <em>avoid</em></b></p>\n                    <p>This is the bee that you just saw.</p>\n                    <img src=\"bees-with-color/bee-A2SM.svg\" width=\"200\">\n                    <p><span class=\"redText\">Bad choice,</span> the bee was friendly.<br>Your bonus pay is unchanged, and remains at $0.42.</p>\n            ","response":0,"trial_type":"html-button-response","trial_index":66,"time_elapsed":141876,"internal_node_id":"0.0-4.0-1.29","subject_id":"5c9cb670b472d0001295f377","study_id":"6197b3f67c2b5cd3b6d9596a","session_id":"6197b9effeba6cdf31e01304","condition":"full-information","relevant_dimensions":["antennae","legs"],"bee_group":{"antennae":"B","wings":"X","pattern":"X","legs":"M"},"bonus":1.3877787807814457e-17},{"rt":1493,"stimulus":"bees-with-color/bee-A2SF.svg","response":1,"trial_type":"image-button-response","trial_index":67,"time_elapsed":143372,"internal_node_id":"0.0-4.0-0.30","subject_id":"5c9cb670b472d0001295f377","study_id":"6197b3f67c2b5cd3b6d9596a","session_id":"6197b9effeba6cdf31e01304","condition":"full-information","relevant_dimensions":["antennae","legs"],"bee_group":{"antennae":"B","wings":"X","pattern":"X","legs":"M"},"action":"avoid","summary":"bad-avoid","bonus":1.3877787807814457e-17},{"rt":1295,"stimulus":"\n                    <p><b>Action: <em>avoid</em></b></p>\n                    <p>This is the bee that you just saw.</p>\n                    <img src=\"bees-with-color/bee-A2SF.svg\" width=\"200\">\n                    <p><span class=\"redText\">Bad choice,</span> the bee was friendly.<br>Your bonus pay is unchanged, and remains at $0.42.</p>\n            ","response":0,"trial_type":"html-button-response","trial_index":68,"time_elapsed":144667,"internal_node_id":"0.0-4.0-1.30","subject_id":"5c9cb670b472d0001295f377","study_id":"6197b3f67c2b5cd3b6d9596a","session_id":"6197b9effeba6cdf31e01304","condition":"full-information","relevant_dimensions":["antennae","legs"],"bee_group":{"antennae":"B","wings":"X","pattern":"X","legs":"M"},"bonus":1.3877787807814457e-17},{"rt":902,"stimulus":"bees-with-color/bee-B1SM.svg","response":0,"trial_type":"image-button-response","trial_index":69,"time_elapsed":145571,"internal_node_id":"0.0-4.0-0.31","subject_id":"5c9cb670b472d0001295f377","study_id":"6197b3f67c2b5cd3b6d9596a","session_id":"6197b9effeba6cdf31e01304","condition":"full-information","relevant_dimensions":["antennae","legs"],"bee_group":{"antennae":"B","wings":"X","pattern":"X","legs":"M"},"action":"harvest","summary":"bad-harvest","bonus":1.3877787807814457e-17},{"rt":902,"stimulus":"\n                    <p><b>Action: <em>harvest</em></b></p>\n                    <p>This is the bee that you just saw.</p>\n                    <img src=\"bees-with-color/bee-B1SM.svg\" width=\"200\">\n                    <p><span class=\"redText\">Bad choice, the bee was angry.</span><br><b>You have been stung!</b><br>Your pay has been decreased by $0.10. Your bonus pay is now $0.32.</p>\n            ","response":0,"trial_type":"html-button-response","trial_index":70,"time_elapsed":146475,"internal_node_id":"0.0-4.0-1.31","subject_id":"5c9cb670b472d0001295f377","study_id":"6197b3f67c2b5cd3b6d9596a","session_id":"6197b9effeba6cdf31e01304","condition":"full-information","relevant_dimensions":["antennae","legs"],"bee_group":{"antennae":"B","wings":"X","pattern":"X","legs":"M"},"bonus":1.3877787807814457e-17},{"rt":846,"stimulus":"bees-with-color/bee-A2SM.svg","response":1,"trial_type":"image-button-response","trial_index":71,"time_elapsed":147323,"internal_node_id":"0.0-4.0-0.32","subject_id":"5c9cb670b472d0001295f377","study_id":"6197b3f67c2b5cd3b6d9596a","session_id":"6197b9effeba6cdf31e01304","condition":"full-information","relevant_dimensions":["antennae","legs"],"bee_group":{"antennae":"B","wings":"X","pattern":"X","legs":"M"},"action":"avoid","summary":"bad-avoid","bonus":1.3877787807814457e-17},{"rt":918,"stimulus":"\n                    <p><b>Action: <em>avoid</em></b></p>\n                    <p>This is the bee that you just saw.</p>\n                    <img src=\"bees-with-color/bee-A2SM.svg\" width=\"200\">\n                    <p><span class=\"redText\">Bad choice,</span> the bee was friendly.<br>Your bonus pay is unchanged, and remains at $0.32.</p>\n            ","response":0,"trial_type":"html-button-response","trial_index":72,"time_elapsed":148243,"internal_node_id":"0.0-4.0-1.32","subject_id":"5c9cb670b472d0001295f377","study_id":"6197b3f67c2b5cd3b6d9596a","session_id":"6197b9effeba6cdf31e01304","condition":"full-information","relevant_dimensions":["antennae","legs"],"bee_group":{"antennae":"B","wings":"X","pattern":"X","legs":"M"},"bonus":1.3877787807814457e-17},{"rt":918,"stimulus":"bees-with-color/bee-A1SM.svg","response":0,"trial_type":"image-button-response","trial_index":73,"time_elapsed":149164,"internal_node_id":"0.0-4.0-0.33","subject_id":"5c9cb670b472d0001295f377","study_id":"6197b3f67c2b5cd3b6d9596a","session_id":"6197b9effeba6cdf31e01304","condition":"full-information","relevant_dimensions":["antennae","legs"],"bee_group":{"antennae":"B","wings":"X","pattern":"X","legs":"M"},"action":"harvest","summary":"good-harvest","bonus":1.3877787807814457e-17},{"rt":846,"stimulus":"\n                    <p><b>Action: <em>harvest</em></b></p>\n                    <p>This is the bee that you just saw.</p>\n                    <img src=\"bees-with-color/bee-A1SM.svg\" width=\"200\">\n                    <p><span class=\"greenText\"><b>Successful harvest!</b></span><br>Your pay has increased by $0.02. Your bonus pay is now $0.34.</p>\n            ","response":0,"trial_type":"html-button-response","trial_index":74,"time_elapsed":150012,"internal_node_id":"0.0-4.0-1.33","subject_id":"5c9cb670b472d0001295f377","study_id":"6197b3f67c2b5cd3b6d9596a","session_id":"6197b9effeba6cdf31e01304","condition":"full-information","relevant_dimensions":["antennae","legs"],"bee_group":{"antennae":"B","wings":"X","pattern":"X","legs":"M"},"bonus":1.3877787807814457e-17},{"rt":934,"stimulus":"bees-with-color/bee-B1SM.svg","response":0,"trial_type":"image-button-response","trial_index":75,"time_elapsed":150947,"internal_node_id":"0.0-4.0-0.34","subject_id":"5c9cb670b472d0001295f377","study_id":"6197b3f67c2b5cd3b6d9596a","session_id":"6197b9effeba6cdf31e01304","condition":"full-information","relevant_dimensions":["antennae","legs"],"bee_group":{"antennae":"B","wings":"X","pattern":"X","legs":"M"},"action":"harvest","summary":"bad-harvest","bonus":1.3877787807814457e-17},{"rt":1207,"stimulus":"\n                    <p><b>Action: <em>harvest</em></b></p>\n                    <p>This is the bee that you just saw.</p>\n                    <img src=\"bees-with-color/bee-B1SM.svg\" width=\"200\">\n                    <p><span class=\"redText\">Bad choice, the bee was angry.</span><br><b>You have been stung!</b><br>Your pay has been decreased by $0.10. Your bonus pay is now $0.24.</p>\n            ","response":0,"trial_type":"html-button-response","trial_index":76,"time_elapsed":152156,"internal_node_id":"0.0-4.0-1.34","subject_id":"5c9cb670b472d0001295f377","study_id":"6197b3f67c2b5cd3b6d9596a","session_id":"6197b9effeba6cdf31e01304","condition":"full-information","relevant_dimensions":["antennae","legs"],"bee_group":{"antennae":"B","wings":"X","pattern":"X","legs":"M"},"bonus":1.3877787807814457e-17},{"rt":1239,"stimulus":"bees-with-color/bee-B2SM.svg","response":0,"trial_type":"image-button-response","trial_index":77,"time_elapsed":153396,"internal_node_id":"0.0-4.0-0.35","subject_id":"5c9cb670b472d0001295f377","study_id":"6197b3f67c2b5cd3b6d9596a","session_id":"6197b9effeba6cdf31e01304","condition":"full-information","relevant_dimensions":["antennae","legs"],"bee_group":{"antennae":"B","wings":"X","pattern":"X","legs":"M"},"action":"harvest","summary":"bad-harvest","bonus":1.3877787807814457e-17},{"rt":941,"stimulus":"\n                    <p><b>Action: <em>harvest</em></b></p>\n                    <p>This is the bee that you just saw.</p>\n                    <img src=\"bees-with-color/bee-B2SM.svg\" width=\"200\">\n                    <p><span class=\"redText\">Bad choice, the bee was angry.</span><br><b>You have been stung!</b><br>Your pay has been decreased by $0.10. Your bonus pay is now $0.14.</p>\n            ","response":0,"trial_type":"html-button-response","trial_index":78,"time_elapsed":154339,"internal_node_id":"0.0-4.0-1.35","subject_id":"5c9cb670b472d0001295f377","study_id":"6197b3f67c2b5cd3b6d9596a","session_id":"6197b9effeba6cdf31e01304","condition":"full-information","relevant_dimensions":["antennae","legs"],"bee_group":{"antennae":"B","wings":"X","pattern":"X","legs":"M"},"bonus":1.3877787807814457e-17},{"rt":919,"stimulus":"bees-with-color/bee-B1DF.svg","response":0,"trial_type":"image-button-response","trial_index":79,"time_elapsed":155260,"internal_node_id":"0.0-4.0-0.36","subject_id":"5c9cb670b472d0001295f377","study_id":"6197b3f67c2b5cd3b6d9596a","session_id":"6197b9effeba6cdf31e01304","condition":"full-information","relevant_dimensions":["antennae","legs"],"bee_group":{"antennae":"B","wings":"X","pattern":"X","legs":"M"},"action":"harvest","summary":"good-harvest","bonus":1.3877787807814457e-17},{"rt":878,"stimulus":"\n                    <p><b>Action: <em>harvest</em></b></p>\n                    <p>This is the bee that you just saw.</p>\n                    <img src=\"bees-with-color/bee-B1DF.svg\" width=\"200\">\n                    <p><span class=\"greenText\"><b>Successful harvest!</b></span><br>Your pay has increased by $0.02. Your bonus pay is now $0.16.</p>\n            ","response":0,"trial_type":"html-button-response","trial_index":80,"time_elapsed":156139,"internal_node_id":"0.0-4.0-1.36","subject_id":"5c9cb670b472d0001295f377","study_id":"6197b3f67c2b5cd3b6d9596a","session_id":"6197b9effeba6cdf31e01304","condition":"full-information","relevant_dimensions":["antennae","legs"],"bee_group":{"antennae":"B","wings":"X","pattern":"X","legs":"M"},"bonus":1.3877787807814457e-17},{"rt":726,"stimulus":"bees-with-color/bee-A2SF.svg","response":0,"trial_type":"image-button-response","trial_index":81,"time_elapsed":156867,"internal_node_id":"0.0-4.0-0.37","subject_id":"5c9cb670b472d0001295f377","study_id":"6197b3f67c2b5cd3b6d9596a","session_id":"6197b9effeba6cdf31e01304","condition":"full-information","relevant_dimensions":["antennae","legs"],"bee_group":{"antennae":"B","wings":"X","pattern":"X","legs":"M"},"action":"harvest","summary":"good-harvest","bonus":1.3877787807814457e-17},{"rt":806,"stimulus":"\n                    <p><b>Action: <em>harvest</em></b></p>\n                    <p>This is the bee that you just saw.</p>\n                    <img src=\"bees-with-color/bee-A2SF.svg\" width=\"200\">\n                    <p><span class=\"greenText\"><b>Successful harvest!</b></span><br>Your pay has increased by $0.02. Your bonus pay is now $0.18.</p>\n            ","response":0,"trial_type":"html-button-response","trial_index":82,"time_elapsed":157676,"internal_node_id":"0.0-4.0-1.37","subject_id":"5c9cb670b472d0001295f377","study_id":"6197b3f67c2b5cd3b6d9596a","session_id":"6197b9effeba6cdf31e01304","condition":"full-information","relevant_dimensions":["antennae","legs"],"bee_group":{"antennae":"B","wings":"X","pattern":"X","legs":"M"},"bonus":1.3877787807814457e-17},{"rt":774,"stimulus":"bees-with-color/bee-A1SF.svg","response":0,"trial_type":"image-button-response","trial_index":83,"time_elapsed":158451,"internal_node_id":"0.0-4.0-0.38","subject_id":"5c9cb670b472d0001295f377","study_id":"6197b3f67c2b5cd3b6d9596a","session_id":"6197b9effeba6cdf31e01304","condition":"full-information","relevant_dimensions":["antennae","legs"],"bee_group":{"antennae":"B","wings":"X","pattern":"X","legs":"M"},"action":"harvest","summary":"good-harvest","bonus":1.3877787807814457e-17},{"rt":750,"stimulus":"\n                    <p><b>Action: <em>harvest</em></b></p>\n                    <p>This is the bee that you just saw.</p>\n                    <img src=\"bees-with-color/bee-A1SF.svg\" width=\"200\">\n                    <p><span class=\"greenText\"><b>Successful harvest!</b></span><br>Your pay has increased by $0.02. Your bonus pay is now $0.20.</p>\n            ","response":0,"trial_type":"html-button-response","trial_index":84,"time_elapsed":159203,"internal_node_id":"0.0-4.0-1.38","subject_id":"5c9cb670b472d0001295f377","study_id":"6197b3f67c2b5cd3b6d9596a","session_id":"6197b9effeba6cdf31e01304","condition":"full-information","relevant_dimensions":["antennae","legs"],"bee_group":{"antennae":"B","wings":"X","pattern":"X","legs":"M"},"bonus":1.3877787807814457e-17},{"rt":735,"stimulus":"bees-with-color/bee-B2DF.svg","response":0,"trial_type":"image-button-response","trial_index":85,"time_elapsed":159939,"internal_node_id":"0.0-4.0-0.39","subject_id":"5c9cb670b472d0001295f377","study_id":"6197b3f67c2b5cd3b6d9596a","session_id":"6197b9effeba6cdf31e01304","condition":"full-information","relevant_dimensions":["antennae","legs"],"bee_group":{"antennae":"B","wings":"X","pattern":"X","legs":"M"},"action":"harvest","summary":"good-harvest","bonus":1.3877787807814457e-17},{"rt":736,"stimulus":"\n                    <p><b>Action: <em>harvest</em></b></p>\n                    <p>This is the bee that you just saw.</p>\n                    <img src=\"bees-with-color/bee-B2DF.svg\" width=\"200\">\n                    <p><span class=\"greenText\"><b>Successful harvest!</b></span><br>Your pay has increased by $0.02. Your bonus pay is now $0.22.</p>\n            ","response":0,"trial_type":"html-button-response","trial_index":86,"time_elapsed":160676,"internal_node_id":"0.0-4.0-1.39","subject_id":"5c9cb670b472d0001295f377","study_id":"6197b3f67c2b5cd3b6d9596a","session_id":"6197b9effeba6cdf31e01304","condition":"full-information","relevant_dimensions":["antennae","legs"],"bee_group":{"antennae":"B","wings":"X","pattern":"X","legs":"M"},"bonus":1.3877787807814457e-17},{"rt":629,"stimulus":"bees-with-color/bee-A2DM.svg","response":0,"trial_type":"image-button-response","trial_index":87,"time_elapsed":161307,"internal_node_id":"0.0-4.0-0.40","subject_id":"5c9cb670b472d0001295f377","study_id":"6197b3f67c2b5cd3b6d9596a","session_id":"6197b9effeba6cdf31e01304","condition":"full-information","relevant_dimensions":["antennae","legs"],"bee_group":{"antennae":"B","wings":"X","pattern":"X","legs":"M"},"action":"harvest","summary":"good-harvest","bonus":1.3877787807814457e-17},{"rt":663,"stimulus":"\n                    <p><b>Action: <em>harvest</em></b></p>\n                    <p>This is the bee that you just saw.</p>\n                    <img src=\"bees-with-color/bee-A2DM.svg\" width=\"200\">\n                    <p><span class=\"greenText\"><b>Successful harvest!</b></span><br>Your pay has increased by $0.02. Your bonus pay is now $0.24.</p>\n            ","response":0,"trial_type":"html-button-response","trial_index":88,"time_elapsed":161972,"internal_node_id":"0.0-4.0-1.40","subject_id":"5c9cb670b472d0001295f377","study_id":"6197b3f67c2b5cd3b6d9596a","session_id":"6197b9effeba6cdf31e01304","condition":"full-information","relevant_dimensions":["antennae","legs"],"bee_group":{"antennae":"B","wings":"X","pattern":"X","legs":"M"},"bonus":1.3877787807814457e-17},{"rt":686,"stimulus":"bees-with-color/bee-B1SF.svg","response":0,"trial_type":"image-button-response","trial_index":89,"time_elapsed":162659,"internal_node_id":"0.0-4.0-0.41","subject_id":"5c9cb670b472d0001295f377","study_id":"6197b3f67c2b5cd3b6d9596a","session_id":"6197b9effeba6cdf31e01304","condition":"full-information","relevant_dimensions":["antennae","legs"],"bee_group":{"antennae":"B","wings":"X","pattern":"X","legs":"M"},"action":"harvest","summary":"good-harvest","bonus":1.3877787807814457e-17},{"rt":655,"stimulus":"\n                    <p><b>Action: <em>harvest</em></b></p>\n                    <p>This is the bee that you just saw.</p>\n                    <img src=\"bees-with-color/bee-B1SF.svg\" width=\"200\">\n                    <p><span class=\"greenText\"><b>Successful harvest!</b></span><br>Your pay has increased by $0.02. Your bonus pay is now $0.26.</p>\n            ","response":0,"trial_type":"html-button-response","trial_index":90,"time_elapsed":163315,"internal_node_id":"0.0-4.0-1.41","subject_id":"5c9cb670b472d0001295f377","study_id":"6197b3f67c2b5cd3b6d9596a","session_id":"6197b9effeba6cdf31e01304","condition":"full-information","relevant_dimensions":["antennae","legs"],"bee_group":{"antennae":"B","wings":"X","pattern":"X","legs":"M"},"bonus":1.3877787807814457e-17},{"rt":711,"stimulus":"bees-with-color/bee-B1DM.svg","response":0,"trial_type":"image-button-response","trial_index":91,"time_elapsed":164027,"internal_node_id":"0.0-4.0-0.42","subject_id":"5c9cb670b472d0001295f377","study_id":"6197b3f67c2b5cd3b6d9596a","session_id":"6197b9effeba6cdf31e01304","condition":"full-information","relevant_dimensions":["antennae","legs"],"bee_group":{"antennae":"B","wings":"X","pattern":"X","legs":"M"},"action":"harvest","summary":"bad-harvest","bonus":1.3877787807814457e-17},{"rt":894,"stimulus":"\n                    <p><b>Action: <em>harvest</em></b></p>\n                    <p>This is the bee that you just saw.</p>\n                    <img src=\"bees-with-color/bee-B1DM.svg\" width=\"200\">\n                    <p><span class=\"redText\">Bad choice, the bee was angry.</span><br><b>You have been stung!</b><br>Your pay has been decreased by $0.10. Your bonus pay is now $0.16.</p>\n            ","response":0,"trial_type":"html-button-response","trial_index":92,"time_elapsed":164923,"internal_node_id":"0.0-4.0-1.42","subject_id":"5c9cb670b472d0001295f377","study_id":"6197b3f67c2b5cd3b6d9596a","session_id":"6197b9effeba6cdf31e01304","condition":"full-information","relevant_dimensions":["antennae","legs"],"bee_group":{"antennae":"B","wings":"X","pattern":"X","legs":"M"},"bonus":1.3877787807814457e-17},{"rt":703,"stimulus":"bees-with-color/bee-A1DM.svg","response":0,"trial_type":"image-button-response","trial_index":93,"time_elapsed":165628,"internal_node_id":"0.0-4.0-0.43","subject_id":"5c9cb670b472d0001295f377","study_id":"6197b3f67c2b5cd3b6d9596a","session_id":"6197b9effeba6cdf31e01304","condition":"full-information","relevant_dimensions":["antennae","legs"],"bee_group":{"antennae":"B","wings":"X","pattern":"X","legs":"M"},"action":"harvest","summary":"good-harvest","bonus":1.3877787807814457e-17},{"rt":830,"stimulus":"\n                    <p><b>Action: <em>harvest</em></b></p>\n                    <p>This is the bee that you just saw.</p>\n                    <img src=\"bees-with-color/bee-A1DM.svg\" width=\"200\">\n                    <p><span class=\"greenText\"><b>Successful harvest!</b></span><br>Your pay has increased by $0.02. Your bonus pay is now $0.18.</p>\n            ","response":0,"trial_type":"html-button-response","trial_index":94,"time_elapsed":166459,"internal_node_id":"0.0-4.0-1.43","subject_id":"5c9cb670b472d0001295f377","study_id":"6197b3f67c2b5cd3b6d9596a","session_id":"6197b9effeba6cdf31e01304","condition":"full-information","relevant_dimensions":["antennae","legs"],"bee_group":{"antennae":"B","wings":"X","pattern":"X","legs":"M"},"bonus":1.3877787807814457e-17},{"rt":2446,"stimulus":"bees-with-color/bee-B2DM.svg","response":0,"trial_type":"image-button-response","trial_index":95,"time_elapsed":168907,"internal_node_id":"0.0-4.0-0.44","subject_id":"5c9cb670b472d0001295f377","study_id":"6197b3f67c2b5cd3b6d9596a","session_id":"6197b9effeba6cdf31e01304","condition":"full-information","relevant_dimensions":["antennae","legs"],"bee_group":{"antennae":"B","wings":"X","pattern":"X","legs":"M"},"action":"harvest","summary":"bad-harvest","bonus":1.3877787807814457e-17},{"rt":1542,"stimulus":"\n                    <p><b>Action: <em>harvest</em></b></p>\n                    <p>This is the bee that you just saw.</p>\n                    <img src=\"bees-with-color/bee-B2DM.svg\" width=\"200\">\n                    <p><span class=\"redText\">Bad choice, the bee was angry.</span><br><b>You have been stung!</b><br>Your pay has been decreased by $0.10. Your bonus pay is now $0.08.</p>\n            ","response":0,"trial_type":"html-button-response","trial_index":96,"time_elapsed":170452,"internal_node_id":"0.0-4.0-1.44","subject_id":"5c9cb670b472d0001295f377","study_id":"6197b3f67c2b5cd3b6d9596a","session_id":"6197b9effeba6cdf31e01304","condition":"full-information","relevant_dimensions":["antennae","legs"],"bee_group":{"antennae":"B","wings":"X","pattern":"X","legs":"M"},"bonus":1.3877787807814457e-17},{"rt":959,"stimulus":"bees-with-color/bee-B2SF.svg","response":1,"trial_type":"image-button-response","trial_index":97,"time_elapsed":171413,"internal_node_id":"0.0-4.0-0.45","subject_id":"5c9cb670b472d0001295f377","study_id":"6197b3f67c2b5cd3b6d9596a","session_id":"6197b9effeba6cdf31e01304","condition":"full-information","relevant_dimensions":["antennae","legs"],"bee_group":{"antennae":"B","wings":"X","pattern":"X","legs":"M"},"action":"avoid","summary":"bad-avoid","bonus":1.3877787807814457e-17},{"rt":785,"stimulus":"\n                    <p><b>Action: <em>avoid</em></b></p>\n                    <p>This is the bee that you just saw.</p>\n                    <img src=\"bees-with-color/bee-B2SF.svg\" width=\"200\">\n                    <p><span class=\"redText\">Bad choice,</span> the bee was friendly.<br>Your bonus pay is unchanged, and remains at $0.08.</p>\n            ","response":0,"trial_type":"html-button-response","trial_index":98,"time_elapsed":172203,"internal_node_id":"0.0-4.0-1.45","subject_id":"5c9cb670b472d0001295f377","study_id":"6197b3f67c2b5cd3b6d9596a","session_id":"6197b9effeba6cdf31e01304","condition":"full-information","relevant_dimensions":["antennae","legs"],"bee_group":{"antennae":"B","wings":"X","pattern":"X","legs":"M"},"bonus":1.3877787807814457e-17},{"rt":835,"stimulus":"bees-with-color/bee-A2DF.svg","response":0,"trial_type":"image-button-response","trial_index":99,"time_elapsed":173044,"internal_node_id":"0.0-4.0-0.46","subject_id":"5c9cb670b472d0001295f377","study_id":"6197b3f67c2b5cd3b6d9596a","session_id":"6197b9effeba6cdf31e01304","condition":"full-information","relevant_dimensions":["antennae","legs"],"bee_group":{"antennae":"B","wings":"X","pattern":"X","legs":"M"},"action":"harvest","summary":"good-harvest","bonus":1.3877787807814457e-17},{"rt":932,"stimulus":"\n                    <p><b>Action: <em>harvest</em></b></p>\n                    <p>This is the bee that you just saw.</p>\n                    <img src=\"bees-with-color/bee-A2DF.svg\" width=\"200\">\n                    <p><span class=\"greenText\"><b>Successful harvest!</b></span><br>Your pay has increased by $0.02. Your bonus pay is now $0.10.</p>\n            ","response":0,"trial_type":"html-button-response","trial_index":100,"time_elapsed":173980,"internal_node_id":"0.0-4.0-1.46","subject_id":"5c9cb670b472d0001295f377","study_id":"6197b3f67c2b5cd3b6d9596a","session_id":"6197b9effeba6cdf31e01304","condition":"full-information","relevant_dimensions":["antennae","legs"],"bee_group":{"antennae":"B","wings":"X","pattern":"X","legs":"M"},"bonus":1.3877787807814457e-17},{"rt":1013,"stimulus":"bees-with-color/bee-A1DF.svg","response":0,"trial_type":"image-button-response","trial_index":101,"time_elapsed":174996,"internal_node_id":"0.0-4.0-0.47","subject_id":"5c9cb670b472d0001295f377","study_id":"6197b3f67c2b5cd3b6d9596a","session_id":"6197b9effeba6cdf31e01304","condition":"full-information","relevant_dimensions":["antennae","legs"],"bee_group":{"antennae":"B","wings":"X","pattern":"X","legs":"M"},"action":"harvest","summary":"good-harvest","bonus":1.3877787807814457e-17},{"rt":715,"stimulus":"\n                    <p><b>Action: <em>harvest</em></b></p>\n                    <p>This is the bee that you just saw.</p>\n                    <img src=\"bees-with-color/bee-A1DF.svg\" width=\"200\">\n                    <p><span class=\"greenText\"><b>Successful harvest!</b></span><br>Your pay has increased by $0.02. Your bonus pay is now $0.12.</p>\n            ","response":0,"trial_type":"html-button-response","trial_index":102,"time_elapsed":175717,"internal_node_id":"0.0-4.0-1.47","subject_id":"5c9cb670b472d0001295f377","study_id":"6197b3f67c2b5cd3b6d9596a","session_id":"6197b9effeba6cdf31e01304","condition":"full-information","relevant_dimensions":["antennae","legs"],"bee_group":{"antennae":"B","wings":"X","pattern":"X","legs":"M"},"bonus":1.3877787807814457e-17},{"rt":946,"stimulus":"bees-with-color/bee-A1DM.svg","response":0,"trial_type":"image-button-response","trial_index":103,"time_elapsed":176667,"internal_node_id":"0.0-4.0-0.48","subject_id":"5c9cb670b472d0001295f377","study_id":"6197b3f67c2b5cd3b6d9596a","session_id":"6197b9effeba6cdf31e01304","condition":"full-information","relevant_dimensions":["antennae","legs"],"bee_group":{"antennae":"B","wings":"X","pattern":"X","legs":"M"},"action":"harvest","summary":"good-harvest","bonus":1.3877787807814457e-17},{"rt":1204,"stimulus":"\n                    <p><b>Action: <em>harvest</em></b></p>\n                    <p>This is the bee that you just saw.</p>\n                    <img src=\"bees-with-color/bee-A1DM.svg\" width=\"200\">\n                    <p><span class=\"greenText\"><b>Successful harvest!</b></span><br>Your pay has increased by $0.02. Your bonus pay is now $0.14.</p>\n            ","response":0,"trial_type":"html-button-response","trial_index":104,"time_elapsed":177876,"internal_node_id":"0.0-4.0-1.48","subject_id":"5c9cb670b472d0001295f377","study_id":"6197b3f67c2b5cd3b6d9596a","session_id":"6197b9effeba6cdf31e01304","condition":"full-information","relevant_dimensions":["antennae","legs"],"bee_group":{"antennae":"B","wings":"X","pattern":"X","legs":"M"},"bonus":1.3877787807814457e-17},{"rt":2180,"stimulus":"bees-with-color/bee-B1SM.svg","response":0,"trial_type":"image-button-response","trial_index":105,"time_elapsed":180059,"internal_node_id":"0.0-4.0-0.49","subject_id":"5c9cb670b472d0001295f377","study_id":"6197b3f67c2b5cd3b6d9596a","session_id":"6197b9effeba6cdf31e01304","condition":"full-information","relevant_dimensions":["antennae","legs"],"bee_group":{"antennae":"B","wings":"X","pattern":"X","legs":"M"},"action":"harvest","summary":"bad-harvest","bonus":1.3877787807814457e-17},{"rt":924,"stimulus":"\n                    <p><b>Action: <em>harvest</em></b></p>\n                    <p>This is the bee that you just saw.</p>\n                    <img src=\"bees-with-color/bee-B1SM.svg\" width=\"200\">\n                    <p><span class=\"redText\">Bad choice, the bee was angry.</span><br><b>You have been stung!</b><br>Your pay has been decreased by $0.10. Your bonus pay is now $0.04.</p>\n            ","response":0,"trial_type":"html-button-response","trial_index":106,"time_elapsed":180988,"internal_node_id":"0.0-4.0-1.49","subject_id":"5c9cb670b472d0001295f377","study_id":"6197b3f67c2b5cd3b6d9596a","session_id":"6197b9effeba6cdf31e01304","condition":"full-information","relevant_dimensions":["antennae","legs"],"bee_group":{"antennae":"B","wings":"X","pattern":"X","legs":"M"},"bonus":1.3877787807814457e-17},{"rt":1278,"stimulus":"bees-with-color/bee-B2SM.svg","response":1,"trial_type":"image-button-response","trial_index":107,"time_elapsed":182269,"internal_node_id":"0.0-4.0-0.50","subject_id":"5c9cb670b472d0001295f377","study_id":"6197b3f67c2b5cd3b6d9596a","session_id":"6197b9effeba6cdf31e01304","condition":"full-information","relevant_dimensions":["antennae","legs"],"bee_group":{"antennae":"B","wings":"X","pattern":"X","legs":"M"},"action":"avoid","summary":"good-avoid","bonus":1.3877787807814457e-17},{"rt":2037,"stimulus":"\n                    <p><b>Action: <em>avoid</em></b></p>\n                    <p>This is the bee that you just saw.</p>\n                    <img src=\"bees-with-color/bee-B2SM.svg\" width=\"200\">\n                    <p><span class=\"greenText\">Good choice!</span>  This bee would have stung you.<br>Your bonus pay is unchanged, and remains at $0.04.</p>\n            ","response":0,"trial_type":"html-button-response","trial_index":108,"time_elapsed":184307,"internal_node_id":"0.0-4.0-1.50","subject_id":"5c9cb670b472d0001295f377","study_id":"6197b3f67c2b5cd3b6d9596a","session_id":"6197b9effeba6cdf31e01304","condition":"full-information","relevant_dimensions":["antennae","legs"],"bee_group":{"antennae":"B","wings":"X","pattern":"X","legs":"M"},"bonus":1.3877787807814457e-17},{"rt":799,"stimulus":"bees-with-color/bee-A1DF.svg","response":0,"trial_type":"image-button-response","trial_index":109,"time_elapsed":185107,"internal_node_id":"0.0-4.0-0.51","subject_id":"5c9cb670b472d0001295f377","study_id":"6197b3f67c2b5cd3b6d9596a","session_id":"6197b9effeba6cdf31e01304","condition":"full-information","relevant_dimensions":["antennae","legs"],"bee_group":{"antennae":"B","wings":"X","pattern":"X","legs":"M"},"action":"harvest","summary":"good-harvest","bonus":1.3877787807814457e-17},{"rt":870,"stimulus":"\n                    <p><b>Action: <em>harvest</em></b></p>\n                    <p>This is the bee that you just saw.</p>\n                    <img src=\"bees-with-color/bee-A1DF.svg\" width=\"200\">\n                    <p><span class=\"greenText\"><b>Successful harvest!</b></span><br>Your pay has increased by $0.02. Your bonus pay is now $0.06.</p>\n            ","response":0,"trial_type":"html-button-response","trial_index":110,"time_elapsed":185979,"internal_node_id":"0.0-4.0-1.51","subject_id":"5c9cb670b472d0001295f377","study_id":"6197b3f67c2b5cd3b6d9596a","session_id":"6197b9effeba6cdf31e01304","condition":"full-information","relevant_dimensions":["antennae","legs"],"bee_group":{"antennae":"B","wings":"X","pattern":"X","legs":"M"},"bonus":1.3877787807814457e-17},{"rt":959,"stimulus":"bees-with-color/bee-B1SF.svg","response":0,"trial_type":"image-button-response","trial_index":111,"time_elapsed":186939,"internal_node_id":"0.0-4.0-0.52","subject_id":"5c9cb670b472d0001295f377","study_id":"6197b3f67c2b5cd3b6d9596a","session_id":"6197b9effeba6cdf31e01304","condition":"full-information","relevant_dimensions":["antennae","legs"],"bee_group":{"antennae":"B","wings":"X","pattern":"X","legs":"M"},"action":"harvest","summary":"good-harvest","bonus":1.3877787807814457e-17},{"rt":1055,"stimulus":"\n                    <p><b>Action: <em>harvest</em></b></p>\n                    <p>This is the bee that you just saw.</p>\n                    <img src=\"bees-with-color/bee-B1SF.svg\" width=\"200\">\n                    <p><span class=\"greenText\"><b>Successful harvest!</b></span><br>Your pay has increased by $0.02. Your bonus pay is now $0.08.</p>\n            ","response":0,"trial_type":"html-button-response","trial_index":112,"time_elapsed":187996,"internal_node_id":"0.0-4.0-1.52","subject_id":"5c9cb670b472d0001295f377","study_id":"6197b3f67c2b5cd3b6d9596a","session_id":"6197b9effeba6cdf31e01304","condition":"full-information","relevant_dimensions":["antennae","legs"],"bee_group":{"antennae":"B","wings":"X","pattern":"X","legs":"M"},"bonus":1.3877787807814457e-17},{"rt":1782,"stimulus":"bees-with-color/bee-A2DM.svg","response":0,"trial_type":"image-button-response","trial_index":113,"time_elapsed":189780,"internal_node_id":"0.0-4.0-0.53","subject_id":"5c9cb670b472d0001295f377","study_id":"6197b3f67c2b5cd3b6d9596a","session_id":"6197b9effeba6cdf31e01304","condition":"full-information","relevant_dimensions":["antennae","legs"],"bee_group":{"antennae":"B","wings":"X","pattern":"X","legs":"M"},"action":"harvest","summary":"good-harvest","bonus":1.3877787807814457e-17},{"rt":734,"stimulus":"\n                    <p><b>Action: <em>harvest</em></b></p>\n                    <p>This is the bee that you just saw.</p>\n                    <img src=\"bees-with-color/bee-A2DM.svg\" width=\"200\">\n                    <p><span class=\"greenText\"><b>Successful harvest!</b></span><br>Your pay has increased by $0.02. Your bonus pay is now $0.10.</p>\n            ","response":0,"trial_type":"html-button-response","trial_index":114,"time_elapsed":190516,"internal_node_id":"0.0-4.0-1.53","subject_id":"5c9cb670b472d0001295f377","study_id":"6197b3f67c2b5cd3b6d9596a","session_id":"6197b9effeba6cdf31e01304","condition":"full-information","relevant_dimensions":["antennae","legs"],"bee_group":{"antennae":"B","wings":"X","pattern":"X","legs":"M"},"bonus":1.3877787807814457e-17},{"rt":1799,"stimulus":"bees-with-color/bee-A1SF.svg","response":1,"trial_type":"image-button-response","trial_index":115,"time_elapsed":192316,"internal_node_id":"0.0-4.0-0.54","subject_id":"5c9cb670b472d0001295f377","study_id":"6197b3f67c2b5cd3b6d9596a","session_id":"6197b9effeba6cdf31e01304","condition":"full-information","relevant_dimensions":["antennae","legs"],"bee_group":{"antennae":"B","wings":"X","pattern":"X","legs":"M"},"action":"avoid","summary":"bad-avoid","bonus":1.3877787807814457e-17},{"rt":1045,"stimulus":"\n                    <p><b>Action: <em>avoid</em></b></p>\n                    <p>This is the bee that you just saw.</p>\n                    <img src=\"bees-with-color/bee-A1SF.svg\" width=\"200\">\n                    <p><span class=\"redText\">Bad choice,</span> the bee was friendly.<br>Your bonus pay is unchanged, and remains at $0.10.</p>\n            ","response":0,"trial_type":"html-button-response","trial_index":116,"time_elapsed":193363,"internal_node_id":"0.0-4.0-1.54","subject_id":"5c9cb670b472d0001295f377","study_id":"6197b3f67c2b5cd3b6d9596a","session_id":"6197b9effeba6cdf31e01304","condition":"full-information","relevant_dimensions":["antennae","legs"],"bee_group":{"antennae":"B","wings":"X","pattern":"X","legs":"M"},"bonus":1.3877787807814457e-17},{"rt":1310,"stimulus":"bees-with-color/bee-A2SM.svg","response":0,"trial_type":"image-button-response","trial_index":117,"time_elapsed":194676,"internal_node_id":"0.0-4.0-0.55","subject_id":"5c9cb670b472d0001295f377","study_id":"6197b3f67c2b5cd3b6d9596a","session_id":"6197b9effeba6cdf31e01304","condition":"full-information","relevant_dimensions":["antennae","legs"],"bee_group":{"antennae":"B","wings":"X","pattern":"X","legs":"M"},"action":"harvest","summary":"good-harvest","bonus":1.3877787807814457e-17},{"rt":1004,"stimulus":"\n                    <p><b>Action: <em>harvest</em></b></p>\n                    <p>This is the bee that you just saw.</p>\n                    <img src=\"bees-with-color/bee-A2SM.svg\" width=\"200\">\n                    <p><span class=\"greenText\"><b>Successful harvest!</b></span><br>Your pay has increased by $0.02. Your bonus pay is now $0.12.</p>\n            ","response":0,"trial_type":"html-button-response","trial_index":118,"time_elapsed":195684,"internal_node_id":"0.0-4.0-1.55","subject_id":"5c9cb670b472d0001295f377","study_id":"6197b3f67c2b5cd3b6d9596a","session_id":"6197b9effeba6cdf31e01304","condition":"full-information","relevant_dimensions":["antennae","legs"],"bee_group":{"antennae":"B","wings":"X","pattern":"X","legs":"M"},"bonus":1.3877787807814457e-17},{"rt":1132,"stimulus":"bees-with-color/bee-B1DF.svg","response":1,"trial_type":"image-button-response","trial_index":119,"time_elapsed":196819,"internal_node_id":"0.0-4.0-0.56","subject_id":"5c9cb670b472d0001295f377","study_id":"6197b3f67c2b5cd3b6d9596a","session_id":"6197b9effeba6cdf31e01304","condition":"full-information","relevant_dimensions":["antennae","legs"],"bee_group":{"antennae":"B","wings":"X","pattern":"X","legs":"M"},"action":"avoid","summary":"bad-avoid","bonus":1.3877787807814457e-17},{"rt":926,"stimulus":"\n                    <p><b>Action: <em>avoid</em></b></p>\n                    <p>This is the bee that you just saw.</p>\n                    <img src=\"bees-with-color/bee-B1DF.svg\" width=\"200\">\n                    <p><span class=\"redText\">Bad choice,</span> the bee was friendly.<br>Your bonus pay is unchanged, and remains at $0.12.</p>\n            ","response":0,"trial_type":"html-button-response","trial_index":120,"time_elapsed":197747,"internal_node_id":"0.0-4.0-1.56","subject_id":"5c9cb670b472d0001295f377","study_id":"6197b3f67c2b5cd3b6d9596a","session_id":"6197b9effeba6cdf31e01304","condition":"full-information","relevant_dimensions":["antennae","legs"],"bee_group":{"antennae":"B","wings":"X","pattern":"X","legs":"M"},"bonus":1.3877787807814457e-17},{"rt":1664,"stimulus":"bees-with-color/bee-A2DF.svg","response":1,"trial_type":"image-button-response","trial_index":121,"time_elapsed":199412,"internal_node_id":"0.0-4.0-0.57","subject_id":"5c9cb670b472d0001295f377","study_id":"6197b3f67c2b5cd3b6d9596a","session_id":"6197b9effeba6cdf31e01304","condition":"full-information","relevant_dimensions":["antennae","legs"],"bee_group":{"antennae":"B","wings":"X","pattern":"X","legs":"M"},"action":"avoid","summary":"bad-avoid","bonus":1.3877787807814457e-17},{"rt":847,"stimulus":"\n                    <p><b>Action: <em>avoid</em></b></p>\n                    <p>This is the bee that you just saw.</p>\n                    <img src=\"bees-with-color/bee-A2DF.svg\" width=\"200\">\n                    <p><span class=\"redText\">Bad choice,</span> the bee was friendly.<br>Your bonus pay is unchanged, and remains at $0.12.</p>\n            ","response":0,"trial_type":"html-button-response","trial_index":122,"time_elapsed":200259,"internal_node_id":"0.0-4.0-1.57","subject_id":"5c9cb670b472d0001295f377","study_id":"6197b3f67c2b5cd3b6d9596a","session_id":"6197b9effeba6cdf31e01304","condition":"full-information","relevant_dimensions":["antennae","legs"],"bee_group":{"antennae":"B","wings":"X","pattern":"X","legs":"M"},"bonus":1.3877787807814457e-17},{"rt":910,"stimulus":"bees-with-color/bee-B2SF.svg","response":1,"trial_type":"image-button-response","trial_index":123,"time_elapsed":201171,"internal_node_id":"0.0-4.0-0.58","subject_id":"5c9cb670b472d0001295f377","study_id":"6197b3f67c2b5cd3b6d9596a","session_id":"6197b9effeba6cdf31e01304","condition":"full-information","relevant_dimensions":["antennae","legs"],"bee_group":{"antennae":"B","wings":"X","pattern":"X","legs":"M"},"action":"avoid","summary":"bad-avoid","bonus":1.3877787807814457e-17},{"rt":672,"stimulus":"\n                    <p><b>Action: <em>avoid</em></b></p>\n                    <p>This is the bee that you just saw.</p>\n                    <img src=\"bees-with-color/bee-B2SF.svg\" width=\"200\">\n                    <p><span class=\"redText\">Bad choice,</span> the bee was friendly.<br>Your bonus pay is unchanged, and remains at $0.12.</p>\n            ","response":0,"trial_type":"html-button-response","trial_index":124,"time_elapsed":201844,"internal_node_id":"0.0-4.0-1.58","subject_id":"5c9cb670b472d0001295f377","study_id":"6197b3f67c2b5cd3b6d9596a","session_id":"6197b9effeba6cdf31e01304","condition":"full-information","relevant_dimensions":["antennae","legs"],"bee_group":{"antennae":"B","wings":"X","pattern":"X","legs":"M"},"bonus":1.3877787807814457e-17},{"rt":677,"stimulus":"bees-with-color/bee-A1SM.svg","response":1,"trial_type":"image-button-response","trial_index":125,"time_elapsed":202523,"internal_node_id":"0.0-4.0-0.59","subject_id":"5c9cb670b472d0001295f377","study_id":"6197b3f67c2b5cd3b6d9596a","session_id":"6197b9effeba6cdf31e01304","condition":"full-information","relevant_dimensions":["antennae","legs"],"bee_group":{"antennae":"B","wings":"X","pattern":"X","legs":"M"},"action":"avoid","summary":"bad-avoid","bonus":1.3877787807814457e-17},{"rt":661,"stimulus":"\n                    <p><b>Action: <em>avoid</em></b></p>\n                    <p>This is the bee that you just saw.</p>\n                    <img src=\"bees-with-color/bee-A1SM.svg\" width=\"200\">\n                    <p><span class=\"redText\">Bad choice,</span> the bee was friendly.<br>Your bonus pay is unchanged, and remains at $0.12.</p>\n            ","response":0,"trial_type":"html-button-response","trial_index":126,"time_elapsed":203187,"internal_node_id":"0.0-4.0-1.59","subject_id":"5c9cb670b472d0001295f377","study_id":"6197b3f67c2b5cd3b6d9596a","session_id":"6197b9effeba6cdf31e01304","condition":"full-information","relevant_dimensions":["antennae","legs"],"bee_group":{"antennae":"B","wings":"X","pattern":"X","legs":"M"},"bonus":1.3877787807814457e-17},{"rt":615,"stimulus":"bees-with-color/bee-B2DM.svg","response":1,"trial_type":"image-button-response","trial_index":127,"time_elapsed":203804,"internal_node_id":"0.0-4.0-0.60","subject_id":"5c9cb670b472d0001295f377","study_id":"6197b3f67c2b5cd3b6d9596a","session_id":"6197b9effeba6cdf31e01304","condition":"full-information","relevant_dimensions":["antennae","legs"],"bee_group":{"antennae":"B","wings":"X","pattern":"X","legs":"M"},"action":"avoid","summary":"good-avoid","bonus":1.3877787807814457e-17},{"rt":638,"stimulus":"\n                    <p><b>Action: <em>avoid</em></b></p>\n                    <p>This is the bee that you just saw.</p>\n                    <img src=\"bees-with-color/bee-B2DM.svg\" width=\"200\">\n                    <p><span class=\"greenText\">Good choice!</span>  This bee would have stung you.<br>Your bonus pay is unchanged, and remains at $0.12.</p>\n            ","response":0,"trial_type":"html-button-response","trial_index":128,"time_elapsed":204443,"internal_node_id":"0.0-4.0-1.60","subject_id":"5c9cb670b472d0001295f377","study_id":"6197b3f67c2b5cd3b6d9596a","session_id":"6197b9effeba6cdf31e01304","condition":"full-information","relevant_dimensions":["antennae","legs"],"bee_group":{"antennae":"B","wings":"X","pattern":"X","legs":"M"},"bonus":1.3877787807814457e-17},{"rt":679,"stimulus":"bees-with-color/bee-A2SF.svg","response":1,"trial_type":"image-button-response","trial_index":129,"time_elapsed":205123,"internal_node_id":"0.0-4.0-0.61","subject_id":"5c9cb670b472d0001295f377","study_id":"6197b3f67c2b5cd3b6d9596a","session_id":"6197b9effeba6cdf31e01304","condition":"full-information","relevant_dimensions":["antennae","legs"],"bee_group":{"antennae":"B","wings":"X","pattern":"X","legs":"M"},"action":"avoid","summary":"bad-avoid","bonus":1.3877787807814457e-17},{"rt":686,"stimulus":"\n                    <p><b>Action: <em>avoid</em></b></p>\n                    <p>This is the bee that you just saw.</p>\n                    <img src=\"bees-with-color/bee-A2SF.svg\" width=\"200\">\n                    <p><span class=\"redText\">Bad choice,</span> the bee was friendly.<br>Your bonus pay is unchanged, and remains at $0.12.</p>\n            ","response":0,"trial_type":"html-button-response","trial_index":130,"time_elapsed":205812,"internal_node_id":"0.0-4.0-1.61","subject_id":"5c9cb670b472d0001295f377","study_id":"6197b3f67c2b5cd3b6d9596a","session_id":"6197b9effeba6cdf31e01304","condition":"full-information","relevant_dimensions":["antennae","legs"],"bee_group":{"antennae":"B","wings":"X","pattern":"X","legs":"M"},"bonus":1.3877787807814457e-17},{"rt":806,"stimulus":"bees-with-color/bee-B1DM.svg","response":1,"trial_type":"image-button-response","trial_index":131,"time_elapsed":206619,"internal_node_id":"0.0-4.0-0.62","subject_id":"5c9cb670b472d0001295f377","study_id":"6197b3f67c2b5cd3b6d9596a","session_id":"6197b9effeba6cdf31e01304","condition":"full-information","relevant_dimensions":["antennae","legs"],"bee_group":{"antennae":"B","wings":"X","pattern":"X","legs":"M"},"action":"avoid","summary":"good-avoid","bonus":1.3877787807814457e-17},{"rt":638,"stimulus":"\n                    <p><b>Action: <em>avoid</em></b></p>\n                    <p>This is the bee that you just saw.</p>\n                    <img src=\"bees-with-color/bee-B1DM.svg\" width=\"200\">\n                    <p><span class=\"greenText\">Good choice!</span>  This bee would have stung you.<br>Your bonus pay is unchanged, and remains at $0.12.</p>\n            ","response":0,"trial_type":"html-button-response","trial_index":132,"time_elapsed":207259,"internal_node_id":"0.0-4.0-1.62","subject_id":"5c9cb670b472d0001295f377","study_id":"6197b3f67c2b5cd3b6d9596a","session_id":"6197b9effeba6cdf31e01304","condition":"full-information","relevant_dimensions":["antennae","legs"],"bee_group":{"antennae":"B","wings":"X","pattern":"X","legs":"M"},"bonus":1.3877787807814457e-17},{"rt":766,"stimulus":"bees-with-color/bee-B2DF.svg","response":1,"trial_type":"image-button-response","trial_index":133,"time_elapsed":208027,"internal_node_id":"0.0-4.0-0.63","subject_id":"5c9cb670b472d0001295f377","study_id":"6197b3f67c2b5cd3b6d9596a","session_id":"6197b9effeba6cdf31e01304","condition":"full-information","relevant_dimensions":["antennae","legs"],"bee_group":{"antennae":"B","wings":"X","pattern":"X","legs":"M"},"action":"avoid","summary":"bad-avoid","bonus":1.3877787807814457e-17},{"rt":750,"stimulus":"\n                    <p><b>Action: <em>avoid</em></b></p>\n                    <p>This is the bee that you just saw.</p>\n                    <img src=\"bees-with-color/bee-B2DF.svg\" width=\"200\">\n                    <p><span class=\"redText\">Bad choice,</span> the bee was friendly.<br>Your bonus pay is unchanged, and remains at $0.12.</p>\n            ","response":0,"trial_type":"html-button-response","trial_index":134,"time_elapsed":208779,"internal_node_id":"0.0-4.0-1.63","subject_id":"5c9cb670b472d0001295f377","study_id":"6197b3f67c2b5cd3b6d9596a","session_id":"6197b9effeba6cdf31e01304","condition":"full-information","relevant_dimensions":["antennae","legs"],"bee_group":{"antennae":"B","wings":"X","pattern":"X","legs":"M"},"bonus":1.3877787807814457e-17},{"rt":9318,"stimulus":"You have completed the first part of this experiment.<br><br>You will now begin a shorter second part, in which you will receive no feedback.<br>The same rules regarding bonus pay apply.<br><br>Press any key to begin.","response":"κ","trial_type":"html-keyboard-response","trial_index":135,"time_elapsed":218099,"internal_node_id":"0.0-5.0","subject_id":"5c9cb670b472d0001295f377","study_id":"6197b3f67c2b5cd3b6d9596a","session_id":"6197b9effeba6cdf31e01304","condition":"full-information","relevant_dimensions":["antennae","legs"],"bee_group":{"antennae":"B","wings":"X","pattern":"X","legs":"M"},"bonus":1.3877787807814457e-17},{"rt":16142,"stimulus":"bees-with-color/bee-A2DF.svg","response":1,"trial_type":"image-button-response","trial_index":136,"time_elapsed":234243,"internal_node_id":"0.0-6.0-0.0","subject_id":"5c9cb670b472d0001295f377","study_id":"6197b3f67c2b5cd3b6d9596a","session_id":"6197b9effeba6cdf31e01304","condition":"full-information","relevant_dimensions":["antennae","legs"],"bee_group":{"antennae":"B","wings":"X","pattern":"X","legs":"M"},"bonus":1.3877787807814457e-17},{"rt":2636,"stimulus":"bees-with-color/bee-B2DM.svg","response":0,"trial_type":"image-button-response","trial_index":137,"time_elapsed":236884,"internal_node_id":"0.0-6.0-0.1","subject_id":"5c9cb670b472d0001295f377","study_id":"6197b3f67c2b5cd3b6d9596a","session_id":"6197b9effeba6cdf31e01304","condition":"full-information","relevant_dimensions":["antennae","legs"],"bee_group":{"antennae":"B","wings":"X","pattern":"X","legs":"M"},"bonus":1.3877787807814457e-17},{"rt":986,"stimulus":"bees-with-color/bee-A2SF.svg","response":0,"trial_type":"image-button-response","trial_index":138,"time_elapsed":237876,"internal_node_id":"0.0-6.0-0.2","subject_id":"5c9cb670b472d0001295f377","study_id":"6197b3f67c2b5cd3b6d9596a","session_id":"6197b9effeba6cdf31e01304","condition":"full-information","relevant_dimensions":["antennae","legs"],"bee_group":{"antennae":"B","wings":"X","pattern":"X","legs":"M"},"bonus":1.3877787807814457e-17},{"rt":845,"stimulus":"bees-with-color/bee-A1DM.svg","response":0,"trial_type":"image-button-response","trial_index":139,"time_elapsed":238724,"internal_node_id":"0.0-6.0-0.3","subject_id":"5c9cb670b472d0001295f377","study_id":"6197b3f67c2b5cd3b6d9596a","session_id":"6197b9effeba6cdf31e01304","condition":"full-information","relevant_dimensions":["antennae","legs"],"bee_group":{"antennae":"B","wings":"X","pattern":"X","legs":"M"},"bonus":1.3877787807814457e-17},{"rt":643,"stimulus":"bees-with-color/bee-A1DF.svg","response":0,"trial_type":"image-button-response","trial_index":140,"time_elapsed":239371,"internal_node_id":"0.0-6.0-0.4","subject_id":"5c9cb670b472d0001295f377","study_id":"6197b3f67c2b5cd3b6d9596a","session_id":"6197b9effeba6cdf31e01304","condition":"full-information","relevant_dimensions":["antennae","legs"],"bee_group":{"antennae":"B","wings":"X","pattern":"X","legs":"M"},"bonus":1.3877787807814457e-17},{"rt":1141,"stimulus":"bees-with-color/bee-A1SM.svg","response":1,"trial_type":"image-button-response","trial_index":141,"time_elapsed":240516,"internal_node_id":"0.0-6.0-0.5","subject_id":"5c9cb670b472d0001295f377","study_id":"6197b3f67c2b5cd3b6d9596a","session_id":"6197b9effeba6cdf31e01304","condition":"full-information","relevant_dimensions":["antennae","legs"],"bee_group":{"antennae":"B","wings":"X","pattern":"X","legs":"M"},"bonus":1.3877787807814457e-17},{"rt":524,"stimulus":"bees-with-color/bee-B1DF.svg","response":0,"trial_type":"image-button-response","trial_index":142,"time_elapsed":241043,"internal_node_id":"0.0-6.0-0.6","subject_id":"5c9cb670b472d0001295f377","study_id":"6197b3f67c2b5cd3b6d9596a","session_id":"6197b9effeba6cdf31e01304","condition":"full-information","relevant_dimensions":["antennae","legs"],"bee_group":{"antennae":"B","wings":"X","pattern":"X","legs":"M"},"bonus":1.3877787807814457e-17},{"rt":614,"stimulus":"bees-with-color/bee-B2SM.svg","response":0,"trial_type":"image-button-response","trial_index":143,"time_elapsed":241659,"internal_node_id":"0.0-6.0-0.7","subject_id":"5c9cb670b472d0001295f377","study_id":"6197b3f67c2b5cd3b6d9596a","session_id":"6197b9effeba6cdf31e01304","condition":"full-information","relevant_dimensions":["antennae","legs"],"bee_group":{"antennae":"B","wings":"X","pattern":"X","legs":"M"},"bonus":1.3877787807814457e-17},{"rt":341,"stimulus":"bees-with-color/bee-A1SF.svg","response":0,"trial_type":"image-button-response","trial_index":144,"time_elapsed":242004,"internal_node_id":"0.0-6.0-0.8","subject_id":"5c9cb670b472d0001295f377","study_id":"6197b3f67c2b5cd3b6d9596a","session_id":"6197b9effeba6cdf31e01304","condition":"full-information","relevant_dimensions":["antennae","legs"],"bee_group":{"antennae":"B","wings":"X","pattern":"X","legs":"M"},"bonus":1.3877787807814457e-17},{"rt":573,"stimulus":"bees-with-color/bee-A2DM.svg","response":1,"trial_type":"image-button-response","trial_index":145,"time_elapsed":242579,"internal_node_id":"0.0-6.0-0.9","subject_id":"5c9cb670b472d0001295f377","study_id":"6197b3f67c2b5cd3b6d9596a","session_id":"6197b9effeba6cdf31e01304","condition":"full-information","relevant_dimensions":["antennae","legs"],"bee_group":{"antennae":"B","wings":"X","pattern":"X","legs":"M"},"bonus":1.3877787807814457e-17},{"rt":527,"stimulus":"bees-with-color/bee-B1DM.svg","response":0,"trial_type":"image-button-response","trial_index":146,"time_elapsed":243109,"internal_node_id":"0.0-6.0-0.10","subject_id":"5c9cb670b472d0001295f377","study_id":"6197b3f67c2b5cd3b6d9596a","session_id":"6197b9effeba6cdf31e01304","condition":"full-information","relevant_dimensions":["antennae","legs"],"bee_group":{"antennae":"B","wings":"X","pattern":"X","legs":"M"},"bonus":1.3877787807814457e-17},{"rt":404,"stimulus":"bees-with-color/bee-B1SM.svg","response":0,"trial_type":"image-button-response","trial_index":147,"time_elapsed":243516,"internal_node_id":"0.0-6.0-0.11","subject_id":"5c9cb670b472d0001295f377","study_id":"6197b3f67c2b5cd3b6d9596a","session_id":"6197b9effeba6cdf31e01304","condition":"full-information","relevant_dimensions":["antennae","legs"],"bee_group":{"antennae":"B","wings":"X","pattern":"X","legs":"M"},"bonus":1.3877787807814457e-17},{"rt":229,"stimulus":"bees-with-color/bee-A2SM.svg","response":0,"trial_type":"image-button-response","trial_index":148,"time_elapsed":243747,"internal_node_id":"0.0-6.0-0.12","subject_id":"5c9cb670b472d0001295f377","study_id":"6197b3f67c2b5cd3b6d9596a","session_id":"6197b9effeba6cdf31e01304","condition":"full-information","relevant_dimensions":["antennae","legs"],"bee_group":{"antennae":"B","wings":"X","pattern":"X","legs":"M"},"bonus":1.3877787807814457e-17},{"rt":615,"stimulus":"bees-with-color/bee-B2DF.svg","response":1,"trial_type":"image-button-response","trial_index":149,"time_elapsed":244364,"internal_node_id":"0.0-6.0-0.13","subject_id":"5c9cb670b472d0001295f377","study_id":"6197b3f67c2b5cd3b6d9596a","session_id":"6197b9effeba6cdf31e01304","condition":"full-information","relevant_dimensions":["antennae","legs"],"bee_group":{"antennae":"B","wings":"X","pattern":"X","legs":"M"},"bonus":1.3877787807814457e-17},{"rt":519,"stimulus":"bees-with-color/bee-B2SF.svg","response":0,"trial_type":"image-button-response","trial_index":150,"time_elapsed":244885,"internal_node_id":"0.0-6.0-0.14","subject_id":"5c9cb670b472d0001295f377","study_id":"6197b3f67c2b5cd3b6d9596a","session_id":"6197b9effeba6cdf31e01304","condition":"full-information","relevant_dimensions":["antennae","legs"],"bee_group":{"antennae":"B","wings":"X","pattern":"X","legs":"M"},"bonus":1.3877787807814457e-17},{"rt":333,"stimulus":"bees-with-color/bee-B1SF.svg","response":0,"trial_type":"image-button-response","trial_index":151,"time_elapsed":245220,"internal_node_id":"0.0-6.0-0.15","subject_id":"5c9cb670b472d0001295f377","study_id":"6197b3f67c2b5cd3b6d9596a","session_id":"6197b9effeba6cdf31e01304","condition":"full-information","relevant_dimensions":["antennae","legs"],"bee_group":{"antennae":"B","wings":"X","pattern":"X","legs":"M"},"bonus":1.3877787807814457e-17},{"rt":791,"stimulus":"bees-with-color/bee-B2SF.svg","response":1,"trial_type":"image-button-response","trial_index":152,"time_elapsed":246011,"internal_node_id":"0.0-6.0-0.16","subject_id":"5c9cb670b472d0001295f377","study_id":"6197b3f67c2b5cd3b6d9596a","session_id":"6197b9effeba6cdf31e01304","condition":"full-information","relevant_dimensions":["antennae","legs"],"bee_group":{"antennae":"B","wings":"X","pattern":"X","legs":"M"},"bonus":1.3877787807814457e-17},{"rt":583,"stimulus":"bees-with-color/bee-B1DF.svg","response":0,"trial_type":"image-button-response","trial_index":153,"time_elapsed":246596,"internal_node_id":"0.0-6.0-0.17","subject_id":"5c9cb670b472d0001295f377","study_id":"6197b3f67c2b5cd3b6d9596a","session_id":"6197b9effeba6cdf31e01304","condition":"full-information","relevant_dimensions":["antennae","legs"],"bee_group":{"antennae":"B","wings":"X","pattern":"X","legs":"M"},"bonus":1.3877787807814457e-17},{"rt":382,"stimulus":"bees-with-color/bee-A2DF.svg","response":0,"trial_type":"image-button-response","trial_index":154,"time_elapsed":246979,"internal_node_id":"0.0-6.0-0.18","subject_id":"5c9cb670b472d0001295f377","study_id":"6197b3f67c2b5cd3b6d9596a","session_id":"6197b9effeba6cdf31e01304","condition":"full-information","relevant_dimensions":["antennae","legs"],"bee_group":{"antennae":"B","wings":"X","pattern":"X","legs":"M"},"bonus":1.3877787807814457e-17},{"rt":646,"stimulus":"bees-with-color/bee-B2DF.svg","response":0,"trial_type":"image-button-response","trial_index":155,"time_elapsed":247627,"internal_node_id":"0.0-6.0-0.19","subject_id":"5c9cb670b472d0001295f377","study_id":"6197b3f67c2b5cd3b6d9596a","session_id":"6197b9effeba6cdf31e01304","condition":"full-information","relevant_dimensions":["antennae","legs"],"bee_group":{"antennae":"B","wings":"X","pattern":"X","legs":"M"},"bonus":1.3877787807814457e-17},{"rt":670,"stimulus":"bees-with-color/bee-B1DM.svg","response":1,"trial_type":"image-button-response","trial_index":156,"time_elapsed":248299,"internal_node_id":"0.0-6.0-0.20","subject_id":"5c9cb670b472d0001295f377","study_id":"6197b3f67c2b5cd3b6d9596a","session_id":"6197b9effeba6cdf31e01304","condition":"full-information","relevant_dimensions":["antennae","legs"],"bee_group":{"antennae":"B","wings":"X","pattern":"X","legs":"M"},"bonus":1.3877787807814457e-17},{"rt":552,"stimulus":"bees-with-color/bee-B2SM.svg","response":0,"trial_type":"image-button-response","trial_index":157,"time_elapsed":248853,"internal_node_id":"0.0-6.0-0.21","subject_id":"5c9cb670b472d0001295f377","study_id":"6197b3f67c2b5cd3b6d9596a","session_id":"6197b9effeba6cdf31e01304","condition":"full-information","relevant_dimensions":["antennae","legs"],"bee_group":{"antennae":"B","wings":"X","pattern":"X","legs":"M"},"bonus":1.3877787807814457e-17},{"rt":662,"stimulus":"bees-with-color/bee-A1DM.svg","response":0,"trial_type":"image-button-response","trial_index":158,"time_elapsed":249516,"internal_node_id":"0.0-6.0-0.22","subject_id":"5c9cb670b472d0001295f377","study_id":"6197b3f67c2b5cd3b6d9596a","session_id":"6197b9effeba6cdf31e01304","condition":"full-information","relevant_dimensions":["antennae","legs"],"bee_group":{"antennae":"B","wings":"X","pattern":"X","legs":"M"},"bonus":1.3877787807814457e-17},{"rt":1039,"stimulus":"bees-with-color/bee-A2SF.svg","response":1,"trial_type":"image-button-response","trial_index":159,"time_elapsed":250555,"internal_node_id":"0.0-6.0-0.23","subject_id":"5c9cb670b472d0001295f377","study_id":"6197b3f67c2b5cd3b6d9596a","session_id":"6197b9effeba6cdf31e01304","condition":"full-information","relevant_dimensions":["antennae","legs"],"bee_group":{"antennae":"B","wings":"X","pattern":"X","legs":"M"},"bonus":1.3877787807814457e-17},{"rt":422,"stimulus":"bees-with-color/bee-A1SM.svg","response":1,"trial_type":"image-button-response","trial_index":1