[{"success":true,"trial_type":"fullscreen","trial_index":0,"time_elapsed":4918,"internal_node_id":"0.0-0.0","subject_id":"5f5e7de4c81d3672642cd612","study_id":"6197b3f67c2b5cd3b6d9596a","session_id":"619be321c07d74a31480f338","condition":"contingent","relevant_dimensions":["antennae","wings"],"bee_group":{"antennae":"B","wings":"2","pattern":"X","legs":"X"},"bonus":0.9400000000000012},{"success":true,"timeout":false,"failed_images":[],"failed_audio":[],"failed_video":[],"trial_type":"preload","trial_index":1,"time_elapsed":8032,"internal_node_id":"0.0-1.0","subject_id":"5f5e7de4c81d3672642cd612","study_id":"6197b3f67c2b5cd3b6d9596a","session_id":"619be321c07d74a31480f338","condition":"contingent","relevant_dimensions":["antennae","wings"],"bee_group":{"antennae":"B","wings":"2","pattern":"X","legs":"X"},"bonus":0.9400000000000012},{"rt":1605,"stimulus":"Welcome! Press any key to begin.","response":" ","trial_type":"html-keyboard-response","trial_index":2,"time_elapsed":9638,"internal_node_id":"0.0-2.0","subject_id":"5f5e7de4c81d3672642cd612","study_id":"6197b3f67c2b5cd3b6d9596a","session_id":"619be321c07d74a31480f338","condition":"contingent","relevant_dimensions":["antennae","wings"],"bee_group":{"antennae":"B","wings":"2","pattern":"X","legs":"X"},"bonus":0.9400000000000012},{"view_history":[{"page_index":0,"viewing_time":4415.299999998882},{"page_index":1,"viewing_time":10928.400000000373},{"page_index":2,"viewing_time":13394.200000001118},{"page_index":3,"viewing_time":13795.5},{"page_index":4,"viewing_time":6610.799999998882},{"page_index":5,"viewing_time":5121.5},{"page_index":6,"viewing_time":9823.400000000373},{"page_index":7,"viewing_time":4595.5},{"page_index":6,"viewing_time":2429.5999999996275},{"page_index":7,"viewing_time":2827.7000000011176},{"page_index":8,"viewing_time":6295.699999999255},{"page_index":9,"viewing_time":3870.5999999996275},{"page_index":8,"viewing_time":199.90000000037253},{"page_index":7,"viewing_time":5840.5},{"page_index":8,"viewing_time":3101.5},{"page_index":9,"viewing_time":3387.5999999996275},{"page_index":10,"viewing_time":1797.7000000011176},{"page_index":11,"viewing_time":7966.699999999255},{"page_index":12,"viewing_time":33932.90000000037},{"page_index":13,"viewing_time":1283.5999999996275},{"page_index":14,"viewing_time":1648}],"rt":143267.09999999963,"trial_type":"instructions","trial_index":3,"time_elapsed":152906,"internal_node_id":"0.0-3.0-0.0","subject_id":"5f5e7de4c81d3672642cd612","study_id":"6197b3f67c2b5cd3b6d9596a","session_id":"619be321c07d74a31480f338","condition":"contingent","relevant_dimensions":["antennae","wings"],"bee_group":{"antennae":"B","wings":"2","pattern":"X","legs":"X"},"bonus":0.9400000000000012},{"rt":11042.699999999255,"response":{"Q0":["Two or six legs","Stripes or spots on body","Single or double wings","Antennae or no antennae"]},"question_order":[0],"trial_type":"survey-multi-select","trial_index":4,"time_elapsed":163952,"internal_node_id":"0.0-3.0-1.0","subject_id":"5f5e7de4c81d3672642cd612","study_id":"6197b3f67c2b5cd3b6d9596a","session_id":"619be321c07d74a31480f338","condition":"contingent","relevant_dimensions":["antennae","wings"],"bee_group":{"antennae":"B","wings":"2","pattern":"X","legs":"X"},"correct":true,"bonus":0.9400000000000012},{"rt":24100,"response":{"Q1":"No.","Q2":"Based on the four features of the bee.","Q3":"You do not learn if it was friendly or dangerous, and do not alter your bonus."},"question_order":[0,1,2],"trial_type":"survey-multi-choice","trial_index":5,"time_elapsed":188057,"internal_node_id":"0.0-3.0-2.0","subject_id":"5f5e7de4c81d3672642cd612","study_id":"6197b3f67c2b5cd3b6d9596a","session_id":"619be321c07d74a31480f338","condition":"contingent","relevant_dimensions":["antennae","wings"],"bee_group":{"antennae":"B","wings":"2","pattern":"X","legs":"X"},"correct":true,"bonus":0.9400000000000012},{"rt":3072.5999999996275,"stimulus":"<p>Congrats, you got everything right<br>When you're ready, click the button below to continue to the experiment.</p>","response":0,"trial_type":"html-button-response","trial_index":6,"time_elapsed":191134,"internal_node_id":"0.0-3.0-3.0","subject_id":"5f5e7de4c81d3672642cd612","study_id":"6197b3f67c2b5cd3b6d9596a","session_id":"619be321c07d74a31480f338","condition":"contingent","relevant_dimensions":["antennae","wings"],"bee_group":{"antennae":"B","wings":"2","pattern":"X","legs":"X"},"bonus":0.9400000000000012},{"rt":8094.5,"stimulus":"bees-with-color/bee-B2DM.svg","response":0,"trial_type":"image-button-response","trial_index":7,"time_elapsed":199231,"internal_node_id":"0.0-4.0-0.0","subject_id":"5f5e7de4c81d3672642cd612","study_id":"6197b3f67c2b5cd3b6d9596a","session_id":"619be321c07d74a31480f338","condition":"contingent","relevant_dimensions":["antennae","wings"],"bee_group":{"antennae":"B","wings":"2","pattern":"X","legs":"X"},"action":"harvest","summary":"bad-harvest","bonus":0.9400000000000012},{"rt":13043.300000000745,"stimulus":"\n                    <p><b>Action: <em>harvest</em></b></p>\n                    <p>This is the bee that you just saw.</p>\n                    <img src=\"bees-with-color/bee-B2DM.svg\" width=\"200\">\n                    <p><span class=\"redText\">Bad choice, the bee was angry.</span><br><b>You have been stung!</b><br>Your pay has been decreased by $0.10. Your bonus pay is now $0.44.</p>\n            ","response":0,"trial_type":"html-button-response","trial_index":8,"time_elapsed":212277,"internal_node_id":"0.0-4.0-1.0","subject_id":"5f5e7de4c81d3672642cd612","study_id":"6197b3f67c2b5cd3b6d9596a","session_id":"619be321c07d74a31480f338","condition":"contingent","relevant_dimensions":["antennae","wings"],"bee_group":{"antennae":"B","wings":"2","pattern":"X","legs":"X"},"bonus":0.9400000000000012},{"rt":3362.5,"stimulus":"bees-with-color/bee-A2DM.svg","response":1,"trial_type":"image-button-response","trial_index":9,"time_elapsed":215642,"internal_node_id":"0.0-4.0-0.1","subject_id":"5f5e7de4c81d3672642cd612","study_id":"6197b3f67c2b5cd3b6d9596a","session_id":"619be321c07d74a31480f338","condition":"contingent","relevant_dimensions":["antennae","wings"],"bee_group":{"antennae":"B","wings":"2","pattern":"X","legs":"X"},"action":"avoid","summary":"bad-avoid","bonus":0.9400000000000012},{"rt":3540.9000000003725,"stimulus":"\n                    <p><b>Action: <em>avoid</em></b></p>\n                    <p>This is the bee that you just saw.</p>\n                    <img src=\"bees-with-color/bee-A2DM.svg\" width=\"200\">\n                    <p><br>Your bonus pay is unchanged, and remains at $0.44.</p>\n            ","response":0,"trial_type":"html-button-response","trial_index":10,"time_elapsed":219184,"internal_node_id":"0.0-4.0-1.1","subject_id":"5f5e7de4c81d3672642cd612","study_id":"6197b3f67c2b5cd3b6d9596a","session_id":"619be321c07d74a31480f338","condition":"contingent","relevant_dimensions":["antennae","wings"],"bee_group":{"antennae":"B","wings":"2","pattern":"X","legs":"X"},"bonus":0.9400000000000012},{"rt":1494.5,"stimulus":"bees-with-color/bee-B1DM.svg","response":0,"trial_type":"image-button-response","trial_index":11,"time_elapsed":220683,"internal_node_id":"0.0-4.0-0.2","subject_id":"5f5e7de4c81d3672642cd612","study_id":"6197b3f67c2b5cd3b6d9596a","session_id":"619be321c07d74a31480f338","condition":"contingent","relevant_dimensions":["antennae","wings"],"bee_group":{"antennae":"B","wings":"2","pattern":"X","legs":"X"},"action":"harvest","summary":"good-harvest","bonus":0.9400000000000012},{"rt":4629.799999998882,"stimulus":"\n                    <p><b>Action: <em>harvest</em></b></p>\n                    <p>This is the bee that you just saw.</p>\n                    <img src=\"bees-with-color/bee-B1DM.svg\" width=\"200\">\n                    <p><span class=\"greenText\"><b>Successful harvest!</b></span><br>Your pay has increased by $0.02. Your bonus pay is now $0.46.</p>\n            ","response":0,"trial_type":"html-button-response","trial_index":12,"time_elapsed":225314,"internal_node_id":"0.0-4.0-1.2","subject_id":"5f5e7de4c81d3672642cd612","study_id":"6197b3f67c2b5cd3b6d9596a","session_id":"619be321c07d74a31480f338","condition":"contingent","relevant_dimensions":["antennae","wings"],"bee_group":{"antennae":"B","wings":"2","pattern":"X","legs":"X"},"bonus":0.9400000000000012},{"rt":3306,"stimulus":"bees-with-color/bee-A2SM.svg","response":0,"trial_type":"image-button-response","trial_index":13,"time_elapsed":228622,"internal_node_id":"0.0-4.0-0.3","subject_id":"5f5e7de4c81d3672642cd612","study_id":"6197b3f67c2b5cd3b6d9596a","session_id":"619be321c07d74a31480f338","condition":"contingent","relevant_dimensions":["antennae","wings"],"bee_group":{"antennae":"B","wings":"2","pattern":"X","legs":"X"},"action":"harvest","summary":"good-harvest","bonus":0.9400000000000012},{"rt":2036.300000000745,"stimulus":"\n                    <p><b>Action: <em>harvest</em></b></p>\n                    <p>This is the bee that you just saw.</p>\n                    <img src=\"bees-with-color/bee-A2SM.svg\" width=\"200\">\n                    <p><span class=\"greenText\"><b>Successful harvest!</b></span><br>Your pay has increased by $0.02. Your bonus pay is now $0.48.</p>\n            ","response":0,"trial_type":"html-button-response","trial_index":14,"time_elapsed":230660,"internal_node_id":"0.0-4.0-1.3","subject_id":"5f5e7de4c81d3672642cd612","study_id":"6197b3f67c2b5cd3b6d9596a","session_id":"619be321c07d74a31480f338","condition":"contingent","relevant_dimensions":["antennae","wings"],"bee_group":{"antennae":"B","wings":"2","pattern":"X","legs":"X"},"bonus":0.9400000000000012},{"rt":2611.699999999255,"stimulus":"bees-with-color/bee-B1SM.svg","response":0,"trial_type":"image-button-response","trial_index":15,"time_elapsed":233273,"internal_node_id":"0.0-4.0-0.4","subject_id":"5f5e7de4c81d3672642cd612","study_id":"6197b3f67c2b5cd3b6d9596a","session_id":"619be321c07d74a31480f338","condition":"contingent","relevant_dimensions":["antennae","wings"],"bee_group":{"antennae":"B","wings":"2","pattern":"X","legs":"X"},"action":"harvest","summary":"good-harvest","bonus":0.9400000000000012},{"rt":1380.699999999255,"stimulus":"\n                    <p><b>Action: <em>harvest</em></b></p>\n                    <p>This is the bee that you just saw.</p>\n                    <img src=\"bees-with-color/bee-B1SM.svg\" width=\"200\">\n                    <p><span class=\"greenText\"><b>Successful harvest!</b></span><br>Your pay has increased by $0.02. Your bonus pay is now $0.50.</p>\n            ","response":0,"trial_type":"html-button-response","trial_index":16,"time_elapsed":234656,"internal_node_id":"0.0-4.0-1.4","subject_id":"5f5e7de4c81d3672642cd612","study_id":"6197b3f67c2b5cd3b6d9596a","session_id":"619be321c07d74a31480f338","condition":"contingent","relevant_dimensions":["antennae","wings"],"bee_group":{"antennae":"B","wings":"2","pattern":"X","legs":"X"},"bonus":0.9400000000000012},{"rt":4410.5,"stimulus":"bees-with-color/bee-A2SF.svg","response":0,"trial_type":"image-button-response","trial_index":17,"time_elapsed":239068,"internal_node_id":"0.0-4.0-0.5","subject_id":"5f5e7de4c81d3672642cd612","study_id":"6197b3f67c2b5cd3b6d9596a","session_id":"619be321c07d74a31480f338","condition":"contingent","relevant_dimensions":["antennae","wings"],"bee_group":{"antennae":"B","wings":"2","pattern":"X","legs":"X"},"action":"harvest","summary":"good-harvest","bonus":0.9400000000000012},{"rt":810.3000000007451,"stimulus":"\n                    <p><b>Action: <em>harvest</em></b></p>\n                    <p>This is the bee that you just saw.</p>\n                    <img src=\"bees-with-color/bee-A2SF.svg\" width=\"200\">\n                    <p><span class=\"greenText\"><b>Successful harvest!</b></span><br>Your pay has increased by $0.02. Your bonus pay is now $0.52.</p>\n            ","response":0,"trial_type":"html-button-response","trial_index":18,"time_elapsed":239879,"internal_node_id":"0.0-4.0-1.5","subject_id":"5f5e7de4c81d3672642cd612","study_id":"6197b3f67c2b5cd3b6d9596a","session_id":"619be321c07d74a31480f338","condition":"contingent","relevant_dimensions":["antennae","wings"],"bee_group":{"antennae":"B","wings":"2","pattern":"X","legs":"X"},"bonus":0.9400000000000012},{"rt":1283.8999999985099,"stimulus":"bees-with-color/bee-B2SF.svg","response":0,"trial_type":"image-button-response","trial_index":19,"time_elapsed":241165,"internal_node_id":"0.0-4.0-0.6","subject_id":"5f5e7de4c81d3672642cd612","study_id":"6197b3f67c2b5cd3b6d9596a","session_id":"619be321c07d74a31480f338","condition":"contingent","relevant_dimensions":["antennae","wings"],"bee_group":{"antennae":"B","wings":"2","pattern":"X","legs":"X"},"action":"harvest","summary":"bad-harvest","bonus":0.9400000000000012},{"rt":6267.5999999996275,"stimulus":"\n                    <p><b>Action: <em>harvest</em></b></p>\n                    <p>This is the bee that you just saw.</p>\n                    <img src=\"bees-with-color/bee-B2SF.svg\" width=\"200\">\n                    <p><span class=\"redText\">Bad choice, the bee was angry.</span><br><b>You have been stung!</b><br>Your pay has been decreased by $0.10. Your bonus pay is now $0.42.</p>\n            ","response":0,"trial_type":"html-button-response","trial_index":20,"time_elapsed":247434,"internal_node_id":"0.0-4.0-1.6","subject_id":"5f5e7de4c81d3672642cd612","study_id":"6197b3f67c2b5cd3b6d9596a","session_id":"619be321c07d74a31480f338","condition":"contingent","relevant_dimensions":["antennae","wings"],"bee_group":{"antennae":"B","wings":"2","pattern":"X","legs":"X"},"bonus":0.9400000000000012},{"rt":1268.5,"stimulus":"bees-with-color/bee-A1DF.svg","response":0,"trial_type":"image-button-response","trial_index":21,"time_elapsed":248704,"internal_node_id":"0.0-4.0-0.7","subject_id":"5f5e7de4c81d3672642cd612","study_id":"6197b3f67c2b5cd3b6d9596a","session_id":"619be321c07d74a31480f338","condition":"contingent","relevant_dimensions":["antennae","wings"],"bee_group":{"antennae":"B","wings":"2","pattern":"X","legs":"X"},"action":"harvest","summary":"good-harvest","bonus":0.9400000000000012},{"rt":759.9000000003725,"stimulus":"\n                    <p><b>Action: <em>harvest</em></b></p>\n                    <p>This is the bee that you just saw.</p>\n                    <img src=\"bees-with-color/bee-A1DF.svg\" width=\"200\">\n                    <p><span class=\"greenText\"><b>Successful harvest!</b></span><br>Your pay has increased by $0.02. Your bonus pay is now $0.44.</p>\n            ","response":0,"trial_type":"html-button-response","trial_index":22,"time_elapsed":249465,"internal_node_id":"0.0-4.0-1.7","subject_id":"5f5e7de4c81d3672642cd612","study_id":"6197b3f67c2b5cd3b6d9596a","session_id":"619be321c07d74a31480f338","condition":"contingent","relevant_dimensions":["antennae","wings"],"bee_group":{"antennae":"B","wings":"2","pattern":"X","legs":"X"},"bonus":0.9400000000000012},{"rt":1634.2000000011176,"stimulus":"bees-with-color/bee-A1DM.svg","response":0,"trial_type":"image-button-response","trial_index":23,"time_elapsed":251101,"internal_node_id":"0.0-4.0-0.8","subject_id":"5f5e7de4c81d3672642cd612","study_id":"6197b3f67c2b5cd3b6d9596a","session_id":"619be321c07d74a31480f338","condition":"contingent","relevant_dimensions":["antennae","wings"],"bee_group":{"antennae":"B","wings":"2","pattern":"X","legs":"X"},"action":"harvest","summary":"good-harvest","bonus":0.9400000000000012},{"rt":736.6999999992549,"stimulus":"\n                    <p><b>Action: <em>harvest</em></b></p>\n                    <p>This is the bee that you just saw.</p>\n                    <img src=\"bees-with-color/bee-A1DM.svg\" width=\"200\">\n                    <p><span class=\"greenText\"><b>Successful harvest!</b></span><br>Your pay has increased by $0.02. Your bonus pay is now $0.46.</p>\n            ","response":0,"trial_type":"html-button-response","trial_index":24,"time_elapsed":251839,"internal_node_id":"0.0-4.0-1.8","subject_id":"5f5e7de4c81d3672642cd612","study_id":"6197b3f67c2b5cd3b6d9596a","session_id":"619be321c07d74a31480f338","condition":"contingent","relevant_dimensions":["antennae","wings"],"bee_group":{"antennae":"B","wings":"2","pattern":"X","legs":"X"},"bonus":0.9400000000000012},{"rt":1099.3999999985099,"stimulus":"bees-with-color/bee-B1SF.svg","response":0,"trial_type":"image-button-response","trial_index":25,"time_elapsed":252940,"internal_node_id":"0.0-4.0-0.9","subject_id":"5f5e7de4c81d3672642cd612","study_id":"6197b3f67c2b5cd3b6d9596a","session_id":"619be321c07d74a31480f338","condition":"contingent","relevant_dimensions":["antennae","wings"],"bee_group":{"antennae":"B","wings":"2","pattern":"X","legs":"X"},"action":"harvest","summary":"good-harvest","bonus":0.9400000000000012},{"rt":606.3999999985099,"stimulus":"\n                    <p><b>Action: <em>harvest</em></b></p>\n                    <p>This is the bee that you just saw.</p>\n                    <img src=\"bees-with-color/bee-B1SF.svg\" width=\"200\">\n                    <p><span class=\"greenText\"><b>Successful harvest!</b></span><br>Your pay has increased by $0.02. Your bonus pay is now $0.48.</p>\n            ","response":0,"trial_type":"html-button-response","trial_index":26,"time_elapsed":253548,"internal_node_id":"0.0-4.0-1.9","subject_id":"5f5e7de4c81d3672642cd612","study_id":"6197b3f67c2b5cd3b6d9596a","session_id":"619be321c07d74a31480f338","condition":"contingent","relevant_dimensions":["antennae","wings"],"bee_group":{"antennae":"B","wings":"2","pattern":"X","legs":"X"},"bonus":0.9400000000000012},{"rt":1032.5999999996275,"stimulus":"bees-with-color/bee-B1DF.svg","response":0,"trial_type":"image-button-response","trial_index":27,"time_elapsed":254581,"internal_node_id":"0.0-4.0-0.10","subject_id":"5f5e7de4c81d3672642cd612","study_id":"6197b3f67c2b5cd3b6d9596a","session_id":"619be321c07d74a31480f338","condition":"contingent","relevant_dimensions":["antennae","wings"],"bee_group":{"antennae":"B","wings":"2","pattern":"X","legs":"X"},"action":"harvest","summary":"good-harvest","bonus":0.9400000000000012},{"rt":563.5999999996275,"stimulus":"\n                    <p><b>Action: <em>harvest</em></b></p>\n                    <p>This is the bee that you just saw.</p>\n                    <img src=\"bees-with-color/bee-B1DF.svg\" width=\"200\">\n                    <p><span class=\"greenText\"><b>Successful harvest!</b></span><br>Your pay has increased by $0.02. Your bonus pay is now $0.50.</p>\n            ","response":0,"trial_type":"html-button-response","trial_index":28,"time_elapsed":255147,"internal_node_id":"0.0-4.0-1.10","subject_id":"5f5e7de4c81d3672642cd612","study_id":"6197b3f67c2b5cd3b6d9596a","session_id":"619be321c07d74a31480f338","condition":"contingent","relevant_dimensions":["antennae","wings"],"bee_group":{"antennae":"B","wings":"2","pattern":"X","legs":"X"},"bonus":0.9400000000000012},{"rt":1664.7999999988824,"stimulus":"bees-with-color/bee-A2DF.svg","response":1,"trial_type":"image-button-response","trial_index":29,"time_elapsed":256813,"internal_node_id":"0.0-4.0-0.11","subject_id":"5f5e7de4c81d3672642cd612","study_id":"6197b3f67c2b5cd3b6d9596a","session_id":"619be321c07d74a31480f338","condition":"contingent","relevant_dimensions":["antennae","wings"],"bee_group":{"antennae":"B","wings":"2","pattern":"X","legs":"X"},"action":"avoid","summary":"bad-avoid","bonus":0.9400000000000012},{"rt":678,"stimulus":"\n                    <p><b>Action: <em>avoid</em></b></p>\n                    <p>This is the bee that you just saw.</p>\n                    <img src=\"bees-with-color/bee-A2DF.svg\" width=\"200\">\n                    <p><br>Your bonus pay is unchanged, and remains at $0.50.</p>\n            ","response":0,"trial_type":"html-button-response","trial_index":30,"time_elapsed":257492,"internal_node_id":"0.0-4.0-1.11","subject_id":"5f5e7de4c81d3672642cd612","study_id":"6197b3f67c2b5cd3b6d9596a","session_id":"619be321c07d74a31480f338","condition":"contingent","relevant_dimensions":["antennae","wings"],"bee_group":{"antennae":"B","wings":"2","pattern":"X","legs":"X"},"bonus":0.9400000000000012},{"rt":1182,"stimulus":"bees-with-color/bee-A1SF.svg","response":0,"trial_type":"image-button-response","trial_index":31,"time_elapsed":258675,"internal_node_id":"0.0-4.0-0.12","subject_id":"5f5e7de4c81d3672642cd612","study_id":"6197b3f67c2b5cd3b6d9596a","session_id":"619be321c07d74a31480f338","condition":"contingent","relevant_dimensions":["antennae","wings"],"bee_group":{"antennae":"B","wings":"2","pattern":"X","legs":"X"},"action":"harvest","summary":"good-harvest","bonus":0.9400000000000012},{"rt":610.9000000003725,"stimulus":"\n                    <p><b>Action: <em>harvest</em></b></p>\n                    <p>This is the bee that you just saw.</p>\n                    <img src=\"bees-with-color/bee-A1SF.svg\" width=\"200\">\n                    <p><span class=\"greenText\"><b>Successful harvest!</b></span><br>Your pay has increased by $0.02. Your bonus pay is now $0.52.</p>\n            ","response":0,"trial_type":"html-button-response","trial_index":32,"time_elapsed":259288,"internal_node_id":"0.0-4.0-1.12","subject_id":"5f5e7de4c81d3672642cd612","study_id":"6197b3f67c2b5cd3b6d9596a","session_id":"619be321c07d74a31480f338","condition":"contingent","relevant_dimensions":["antennae","wings"],"bee_group":{"antennae":"B","wings":"2","pattern":"X","legs":"X"},"bonus":0.9400000000000012},{"rt":1783.5,"stimulus":"bees-with-color/bee-B2SM.svg","response":0,"trial_type":"image-button-response","trial_index":33,"time_elapsed":261072,"internal_node_id":"0.0-4.0-0.13","subject_id":"5f5e7de4c81d3672642cd612","study_id":"6197b3f67c2b5cd3b6d9596a","session_id":"619be321c07d74a31480f338","condition":"contingent","relevant_dimensions":["antennae","wings"],"bee_group":{"antennae":"B","wings":"2","pattern":"X","legs":"X"},"action":"harvest","summary":"bad-harvest","bonus":0.9400000000000012},{"rt":3478.199999999255,"stimulus":"\n                    <p><b>Action: <em>harvest</em></b></p>\n                    <p>This is the bee that you just saw.</p>\n                    <img src=\"bees-with-color/bee-B2SM.svg\" width=\"200\">\n                    <p><span class=\"redText\">Bad choice, the bee was angry.</span><br><b>You have been stung!</b><br>Your pay has been decreased by $0.10. Your bonus pay is now $0.42.</p>\n            ","response":0,"trial_type":"html-button-response","trial_index":34,"time_elapsed":264553,"internal_node_id":"0.0-4.0-1.13","subject_id":"5f5e7de4c81d3672642cd612","study_id":"6197b3f67c2b5cd3b6d9596a","session_id":"619be321c07d74a31480f338","condition":"contingent","relevant_dimensions":["antennae","wings"],"bee_group":{"antennae":"B","wings":"2","pattern":"X","legs":"X"},"bonus":0.9400000000000012},{"rt":1150.1000000014901,"stimulus":"bees-with-color/bee-B2DF.svg","response":0,"trial_type":"image-button-response","trial_index":35,"time_elapsed":265704,"internal_node_id":"0.0-4.0-0.14","subject_id":"5f5e7de4c81d3672642cd612","study_id":"6197b3f67c2b5cd3b6d9596a","session_id":"619be321c07d74a31480f338","condition":"contingent","relevant_dimensions":["antennae","wings"],"bee_group":{"antennae":"B","wings":"2","pattern":"X","legs":"X"},"action":"harvest","summary":"bad-harvest","bonus":0.9400000000000012},{"rt":1054.300000000745,"stimulus":"\n                    <p><b>Action: <em>harvest</em></b></p>\n                    <p>This is the bee that you just saw.</p>\n                    <img src=\"bees-with-color/bee-B2DF.svg\" width=\"200\">\n                    <p><span class=\"redText\">Bad choice, the bee was angry.</span><br><b>You have been stung!</b><br>Your pay has been decreased by $0.10. Your bonus pay is now $0.32.</p>\n            ","response":0,"trial_type":"html-button-response","trial_index":36,"time_elapsed":266760,"internal_node_id":"0.0-4.0-1.14","subject_id":"5f5e7de4c81d3672642cd612","study_id":"6197b3f67c2b5cd3b6d9596a","session_id":"619be321c07d74a31480f338","condition":"contingent","relevant_dimensions":["antennae","wings"],"bee_group":{"antennae":"B","wings":"2","pattern":"X","legs":"X"},"bonus":0.9400000000000012},{"rt":2308.800000000745,"stimulus":"bees-with-color/bee-A1SM.svg","response":0,"trial_type":"image-button-response","trial_index":37,"time_elapsed":269070,"internal_node_id":"0.0-4.0-0.15","subject_id":"5f5e7de4c81d3672642cd612","study_id":"6197b3f67c2b5cd3b6d9596a","session_id":"619be321c07d74a31480f338","condition":"contingent","relevant_dimensions":["antennae","wings"],"bee_group":{"antennae":"B","wings":"2","pattern":"X","legs":"X"},"action":"harvest","summary":"good-harvest","bonus":0.9400000000000012},{"rt":681,"stimulus":"\n                    <p><b>Action: <em>harvest</em></b></p>\n                    <p>This is the bee that you just saw.</p>\n                    <img src=\"bees-with-color/bee-A1SM.svg\" width=\"200\">\n                    <p><span class=\"greenText\"><b>Successful harvest!</b></span><br>Your pay has increased by $0.02. Your bonus pay is now $0.34.</p>\n            ","response":0,"trial_type":"html-button-response","trial_index":38,"time_elapsed":269753,"internal_node_id":"0.0-4.0-1.15","subject_id":"5f5e7de4c81d3672642cd612","study_id":"6197b3f67c2b5cd3b6d9596a","session_id":"619be321c07d74a31480f338","condition":"contingent","relevant_dimensions":["antennae","wings"],"bee_group":{"antennae":"B","wings":"2","pattern":"X","legs":"X"},"bonus":0.9400000000000012},{"rt":722.3000000007451,"stimulus":"bees-with-color/bee-B1SF.svg","response":0,"trial_type":"image-button-response","trial_index":39,"time_elapsed":270476,"internal_node_id":"0.0-4.0-0.16","subject_id":"5f5e7de4c81d3672642cd612","study_id":"6197b3f67c2b5cd3b6d9596a","session_id":"619be321c07d74a31480f338","condition":"contingent","relevant_dimensions":["antennae","wings"],"bee_group":{"antennae":"B","wings":"2","pattern":"X","legs":"X"},"action":"harvest","summary":"good-harvest","bonus":0.9400000000000012},{"rt":554.5999999996275,"stimulus":"\n                    <p><b>Action: <em>harvest</em></b></p>\n                    <p>This is the bee that you just saw.</p>\n                    <img src=\"bees-with-color/bee-B1SF.svg\" width=\"200\">\n                    <p><span class=\"greenText\"><b>Successful harvest!</b></span><br>Your pay has increased by $0.02. Your bonus pay is now $0.36.</p>\n            ","response":0,"trial_type":"html-button-response","trial_index":40,"time_elapsed":271032,"internal_node_id":"0.0-4.0-1.16","subject_id":"5f5e7de4c81d3672642cd612","study_id":"6197b3f67c2b5cd3b6d9596a","session_id":"619be321c07d74a31480f338","condition":"contingent","relevant_dimensions":["antennae","wings"],"bee_group":{"antennae":"B","wings":"2","pattern":"X","legs":"X"},"bonus":0.9400000000000012},{"rt":1340.5,"stimulus":"bees-with-color/bee-A2DM.svg","response":1,"trial_type":"image-button-response","trial_index":41,"time_elapsed":272374,"internal_node_id":"0.0-4.0-0.17","subject_id":"5f5e7de4c81d3672642cd612","study_id":"6197b3f67c2b5cd3b6d9596a","session_id":"619be321c07d74a31480f338","condition":"contingent","relevant_dimensions":["antennae","wings"],"bee_group":{"antennae":"B","wings":"2","pattern":"X","legs":"X"},"action":"avoid","summary":"bad-avoid","bonus":0.9400000000000012},{"rt":874.6999999992549,"stimulus":"\n                    <p><b>Action: <em>avoid</em></b></p>\n                    <p>This is the bee that you just saw.</p>\n                    <img src=\"bees-with-color/bee-A2DM.svg\" width=\"200\">\n                    <p><br>Your bonus pay is unchanged, and remains at $0.36.</p>\n            ","response":0,"trial_type":"html-button-response","trial_index":42,"time_elapsed":273250,"internal_node_id":"0.0-4.0-1.17","subject_id":"5f5e7de4c81d3672642cd612","study_id":"6197b3f67c2b5cd3b6d9596a","session_id":"619be321c07d74a31480f338","condition":"contingent","relevant_dimensions":["antennae","wings"],"bee_group":{"antennae":"B","wings":"2","pattern":"X","legs":"X"},"bonus":0.9400000000000012},{"rt":996.9000000003725,"stimulus":"bees-with-color/bee-A1SM.svg","response":0,"trial_type":"image-button-response","trial_index":43,"time_elapsed":274248,"internal_node_id":"0.0-4.0-0.18","subject_id":"5f5e7de4c81d3672642cd612","study_id":"6197b3f67c2b5cd3b6d9596a","session_id":"619be321c07d74a31480f338","condition":"contingent","relevant_dimensions":["antennae","wings"],"bee_group":{"antennae":"B","wings":"2","pattern":"X","legs":"X"},"action":"harvest","summary":"good-harvest","bonus":0.9400000000000012},{"rt":620.4000000003725,"stimulus":"\n                    <p><b>Action: <em>harvest</em></b></p>\n                    <p>This is the bee that you just saw.</p>\n                    <img src=\"bees-with-color/bee-A1SM.svg\" width=\"200\">\n                    <p><span class=\"greenText\"><b>Successful harvest!</b></span><br>Your pay has increased by $0.02. Your bonus pay is now $0.38.</p>\n            ","response":0,"trial_type":"html-button-response","trial_index":44,"time_elapsed":274870,"internal_node_id":"0.0-4.0-1.18","subject_id":"5f5e7de4c81d3672642cd612","study_id":"6197b3f67c2b5cd3b6d9596a","session_id":"619be321c07d74a31480f338","condition":"contingent","relevant_dimensions":["antennae","wings"],"bee_group":{"antennae":"B","wings":"2","pattern":"X","legs":"X"},"bonus":0.9400000000000012},{"rt":1551.0999999996275,"stimulus":"bees-with-color/bee-B2SF.svg","response":1,"trial_type":"image-button-response","trial_index":45,"time_elapsed":276422,"internal_node_id":"0.0-4.0-0.19","subject_id":"5f5e7de4c81d3672642cd612","study_id":"6197b3f67c2b5cd3b6d9596a","session_id":"619be321c07d74a31480f338","condition":"contingent","relevant_dimensions":["antennae","wings"],"bee_group":{"antennae":"B","wings":"2","pattern":"X","legs":"X"},"action":"avoid","summary":"good-avoid","bonus":0.9400000000000012},{"rt":694.3000000007451,"stimulus":"\n                    <p><b>Action: <em>avoid</em></b></p>\n                    <p>This is the bee that you just saw.</p>\n                    <img src=\"bees-with-color/bee-B2SF.svg\" width=\"200\">\n                    <p><br>Your bonus pay is unchanged, and remains at $0.38.</p>\n            ","response":0,"trial_type":"html-button-response","trial_index":46,"time_elapsed":277118,"internal_node_id":"0.0-4.0-1.19","subject_id":"5f5e7de4c81d3672642cd612","study_id":"6197b3f67c2b5cd3b6d9596a","session_id":"619be321c07d74a31480f338","condition":"contingent","relevant_dimensions":["antennae","wings"],"bee_group":{"antennae":"B","wings":"2","pattern":"X","legs":"X"},"bonus":0.9400000000000012},{"rt":1516.8999999985099,"stimulus":"bees-with-color/bee-B1DF.svg","response":0,"trial_type":"image-button-response","trial_index":47,"time_elapsed":278636,"internal_node_id":"0.0-4.0-0.20","subject_id":"5f5e7de4c81d3672642cd612","study_id":"6197b3f67c2b5cd3b6d9596a","session_id":"619be321c07d74a31480f338","condition":"contingent","relevant_dimensions":["antennae","wings"],"bee_group":{"antennae":"B","wings":"2","pattern":"X","legs":"X"},"action":"harvest","summary":"good-harvest","bonus":0.9400000000000012},{"rt":626.4000000003725,"stimulus":"\n                    <p><b>Action: <em>harvest</em></b></p>\n                    <p>This is the bee that you just saw.</p>\n                    <img src=\"bees-with-color/bee-B1DF.svg\" width=\"200\">\n                    <p><span class=\"greenText\"><b>Successful harvest!</b></span><br>Your pay has increased by $0.02. Your bonus pay is now $0.40.</p>\n            ","response":0,"trial_type":"html-button-response","trial_index":48,"time_elapsed":279264,"internal_node_id":"0.0-4.0-1.20","subject_id":"5f5e7de4c81d3672642cd612","study_id":"6197b3f67c2b5cd3b6d9596a","session_id":"619be321c07d74a31480f338","condition":"contingent","relevant_dimensions":["antennae","wings"],"bee_group":{"antennae":"B","wings":"2","pattern":"X","legs":"X"},"bonus":0.9400000000000012},{"rt":1120,"stimulus":"bees-with-color/bee-B2DM.svg","response":1,"trial_type":"image-button-response","trial_index":49,"time_elapsed":280385,"internal_node_id":"0.0-4.0-0.21","subject_id":"5f5e7de4c81d3672642cd612","study_id":"6197b3f67c2b5cd3b6d9596a","session_id":"619be321c07d74a31480f338","condition":"contingent","relevant_dimensions":["antennae","wings"],"bee_group":{"antennae":"B","wings":"2","pattern":"X","legs":"X"},"action":"avoid","summary":"good-avoid","bonus":0.9400000000000012},{"rt":519.9000000003725,"stimulus":"\n                    <p><b>Action: <em>avoid</em></b></p>\n                    <p>This is the bee that you just saw.</p>\n                    <img src=\"bees-with-color/bee-B2DM.svg\" width=\"200\">\n                    <p><br>Your bonus pay is unchanged, and remains at $0.40.</p>\n            ","response":0,"trial_type":"html-button-response","trial_index":50,"time_elapsed":280907,"internal_node_id":"0.0-4.0-1.21","subject_id":"5f5e7de4c81d3672642cd612","study_id":"6197b3f67c2b5cd3b6d9596a","session_id":"619be321c07d74a31480f338","condition":"contingent","relevant_dimensions":["antennae","wings"],"bee_group":{"antennae":"B","wings":"2","pattern":"X","legs":"X"},"bonus":0.9400000000000012},{"rt":1200.5999999996275,"stimulus":"bees-with-color/bee-A1DM.svg","response":0,"trial_type":"image-button-response","trial_index":51,"time_elapsed":282108,"internal_node_id":"0.0-4.0-0.22","subject_id":"5f5e7de4c81d3672642cd612","study_id":"6197b3f67c2b5cd3b6d9596a","session_id":"619be321c07d74a31480f338","condition":"contingent","relevant_dimensions":["antennae","wings"],"bee_group":{"antennae":"B","wings":"2","pattern":"X","legs":"X"},"action":"harvest","summary":"good-harvest","bonus":0.9400000000000012},{"rt":564.9000000003725,"stimulus":"\n                    <p><b>Action: <em>harvest</em></b></p>\n                    <p>This is the bee that you just saw.</p>\n                    <img src=\"bees-with-color/bee-A1DM.svg\" width=\"200\">\n                    <p><span class=\"greenText\"><b>Successful harvest!</b></span><br>Your pay has increased by $0.02. Your bonus pay is now $0.42.</p>\n            ","response":0,"trial_type":"html-button-response","trial_index":52,"time_elapsed":282674,"internal_node_id":"0.0-4.0-1.22","subject_id":"5f5e7de4c81d3672642cd612","study_id":"6197b3f67c2b5cd3b6d9596a","session_id":"619be321c07d74a31480f338","condition":"contingent","relevant_dimensions":["antennae","wings"],"bee_group":{"antennae":"B","wings":"2","pattern":"X","legs":"X"},"bonus":0.9400000000000012},{"rt":771,"stimulus":"bees-with-color/bee-B1DM.svg","response":0,"trial_type":"image-button-response","trial_index":53,"time_elapsed":283446,"internal_node_id":"0.0-4.0-0.23","subject_id":"5f5e7de4c81d3672642cd612","study_id":"6197b3f67c2b5cd3b6d9596a","session_id":"619be321c07d74a31480f338","condition":"contingent","relevant_dimensions":["antennae","wings"],"bee_group":{"antennae":"B","wings":"2","pattern":"X","legs":"X"},"action":"harvest","summary":"good-harvest","bonus":0.9400000000000012},{"rt":653.5999999996275,"stimulus":"\n                    <p><b>Action: <em>harvest</em></b></p>\n                    <p>This is the bee that you just saw.</p>\n                    <img src=\"bees-with-color/bee-B1DM.svg\" width=\"200\">\n                    <p><span class=\"greenText\"><b>Successful harvest!</b></span><br>Your pay has increased by $0.02. Your bonus pay is now $0.44.</p>\n            ","response":0,"trial_type":"html-button-response","trial_index":54,"time_elapsed":284101,"internal_node_id":"0.0-4.0-1.23","subject_id":"5f5e7de4c81d3672642cd612","study_id":"6197b3f67c2b5cd3b6d9596a","session_id":"619be321c07d74a31480f338","condition":"contingent","relevant_dimensions":["antennae","wings"],"bee_group":{"antennae":"B","wings":"2","pattern":"X","legs":"X"},"bonus":0.9400000000000012},{"rt":1006.2999999988824,"stimulus":"bees-with-color/bee-B1SM.svg","response":0,"trial_type":"image-button-response","trial_index":55,"time_elapsed":285109,"internal_node_id":"0.0-4.0-0.24","subject_id":"5f5e7de4c81d3672642cd612","study_id":"6197b3f67c2b5cd3b6d9596a","session_id":"619be321c07d74a31480f338","condition":"contingent","relevant_dimensions":["antennae","wings"],"bee_group":{"antennae":"B","wings":"2","pattern":"X","legs":"X"},"action":"harvest","summary":"good-harvest","bonus":0.9400000000000012},{"rt":444.40000000037253,"stimulus":"\n                    <p><b>Action: <em>harvest</em></b></p>\n                    <p>This is the bee that you just saw.</p>\n                    <img src=\"bees-with-color/bee-B1SM.svg\" width=\"200\">\n                    <p><span class=\"greenText\"><b>Successful harvest!</b></span><br>Your pay has increased by $0.02. Your bonus pay is now $0.46.</p>\n            ","response":0,"trial_type":"html-button-response","trial_index":56,"time_elapsed":285554,"internal_node_id":"0.0-4.0-1.24","subject_id":"5f5e7de4c81d3672642cd612","study_id":"6197b3f67c2b5cd3b6d9596a","session_id":"619be321c07d74a31480f338","condition":"contingent","relevant_dimensions":["antennae","wings"],"bee_group":{"antennae":"B","wings":"2","pattern":"X","legs":"X"},"bonus":0.9400000000000012},{"rt":1540.5,"stimulus":"bees-with-color/bee-B2SM.svg","response":0,"trial_type":"image-button-response","trial_index":57,"time_elapsed":287096,"internal_node_id":"0.0-4.0-0.25","subject_id":"5f5e7de4c81d3672642cd612","study_id":"6197b3f67c2b5cd3b6d9596a","session_id":"619be321c07d74a31480f338","condition":"contingent","relevant_dimensions":["antennae","wings"],"bee_group":{"antennae":"B","wings":"2","pattern":"X","legs":"X"},"action":"harvest","summary":"bad-harvest","bonus":0.9400000000000012},{"rt":1456.9000000003725,"stimulus":"\n                    <p><b>Action: <em>harvest</em></b></p>\n                    <p>This is the bee that you just saw.</p>\n                    <img src=\"bees-with-color/bee-B2SM.svg\" width=\"200\">\n                    <p><span class=\"redText\">Bad choice, the bee was angry.</span><br><b>You have been stung!</b><br>Your pay has been decreased by $0.10. Your bonus pay is now $0.36.</p>\n            ","response":0,"trial_type":"html-button-response","trial_index":58,"time_elapsed":288554,"internal_node_id":"0.0-4.0-1.25","subject_id":"5f5e7de4c81d3672642cd612","study_id":"6197b3f67c2b5cd3b6d9596a","session_id":"619be321c07d74a31480f338","condition":"contingent","relevant_dimensions":["antennae","wings"],"bee_group":{"antennae":"B","wings":"2","pattern":"X","legs":"X"},"bonus":0.9400000000000012},{"rt":794.8000000007451,"stimulus":"bees-with-color/bee-B2DF.svg","response":0,"trial_type":"image-button-response","trial_index":59,"time_elapsed":289351,"internal_node_id":"0.0-4.0-0.26","subject_id":"5f5e7de4c81d3672642cd612","study_id":"6197b3f67c2b5cd3b6d9596a","session_id":"619be321c07d74a31480f338","condition":"contingent","relevant_dimensions":["antennae","wings"],"bee_group":{"antennae":"B","wings":"2","pattern":"X","legs":"X"},"action":"harvest","summary":"bad-harvest","bonus":0.9400000000000012},{"rt":509.80000000074506,"stimulus":"\n                    <p><b>Action: <em>harvest</em></b></p>\n                    <p>This is the bee that you just saw.</p>\n                    <img src=\"bees-with-color/bee-B2DF.svg\" width=\"200\">\n                    <p><span class=\"redText\">Bad choice, the bee was angry.</span><br><b>You have been stung!</b><br>Your pay has been decreased by $0.10. Your bonus pay is now $0.26.</p>\n            ","response":0,"trial_type":"html-button-response","trial_index":60,"time_elapsed":289862,"internal_node_id":"0.0-4.0-1.26","subject_id":"5f5e7de4c81d3672642cd612","study_id":"6197b3f67c2b5cd3b6d9596a","session_id":"619be321c07d74a31480f338","condition":"contingent","relevant_dimensions":["antennae","wings"],"bee_group":{"antennae":"B","wings":"2","pattern":"X","legs":"X"},"bonus":0.9400000000000012},{"rt":566.5,"stimulus":"bees-with-color/bee-A1DF.svg","response":0,"trial_type":"image-button-response","trial_index":61,"time_elapsed":290430,"internal_node_id":"0.0-4.0-0.27","subject_id":"5f5e7de4c81d3672642cd612","study_id":"6197b3f67c2b5cd3b6d9596a","session_id":"619be321c07d74a31480f338","condition":"contingent","relevant_dimensions":["antennae","wings"],"bee_group":{"antennae":"B","wings":"2","pattern":"X","legs":"X"},"action":"harvest","summary":"good-harvest","bonus":0.9400000000000012},{"rt":472.5,"stimulus":"\n                    <p><b>Action: <em>harvest</em></b></p>\n                    <p>This is the bee that you just saw.</p>\n                    <img src=\"bees-with-color/bee-A1DF.svg\" width=\"200\">\n                    <p><span class=\"greenText\"><b>Successful harvest!</b></span><br>Your pay has increased by $0.02. Your bonus pay is now $0.28.</p>\n            ","response":0,"trial_type":"html-button-response","trial_index":62,"time_elapsed":290904,"internal_node_id":"0.0-4.0-1.27","subject_id":"5f5e7de4c81d3672642cd612","study_id":"6197b3f67c2b5cd3b6d9596a","session_id":"619be321c07d74a31480f338","condition":"contingent","relevant_dimensions":["antennae","wings"],"bee_group":{"antennae":"B","wings":"2","pattern":"X","legs":"X"},"bonus":0.9400000000000012},{"rt":982,"stimulus":"bees-with-color/bee-A2SF.svg","response":0,"trial_type":"image-button-response","trial_index":63,"time_elapsed":291887,"internal_node_id":"0.0-4.0-0.28","subject_id":"5f5e7de4c81d3672642cd612","study_id":"6197b3f67c2b5cd3b6d9596a","session_id":"619be321c07d74a31480f338","condition":"contingent","relevant_dimensions":["antennae","wings"],"bee_group":{"antennae":"B","wings":"2","pattern":"X","legs":"X"},"action":"harvest","summary":"good-harvest","bonus":0.9400000000000012},{"rt":545.5,"stimulus":"\n                    <p><b>Action: <em>harvest</em></b></p>\n                    <p>This is the bee that you just saw.</p>\n                    <img src=\"bees-with-color/bee-A2SF.svg\" width=\"200\">\n                    <p><span class=\"greenText\"><b>Successful harvest!</b></span><br>Your pay has increased by $0.02. Your bonus pay is now $0.30.</p>\n            ","response":0,"trial_type":"html-button-response","trial_index":64,"time_elapsed":292434,"internal_node_id":"0.0-4.0-1.28","subject_id":"5f5e7de4c81d3672642cd612","study_id":"6197b3f67c2b5cd3b6d9596a","session_id":"619be321c07d74a31480f338","condition":"contingent","relevant_dimensions":["antennae","wings"],"bee_group":{"antennae":"B","wings":"2","pattern":"X","legs":"X"},"bonus":0.9400000000000012},{"rt":1058.5999999996275,"stimulus":"bees-with-color/bee-A2DF.svg","response":0,"trial_type":"image-button-response","trial_index":65,"time_elapsed":293494,"internal_node_id":"0.0-4.0-0.29","subject_id":"5f5e7de4c81d3672642cd612","study_id":"6197b3f67c2b5cd3b6d9596a","session_id":"619be321c07d74a31480f338","condition":"contingent","relevant_dimensions":["antennae","wings"],"bee_group":{"antennae":"B","wings":"2","pattern":"X","legs":"X"},"action":"harvest","summary":"good-harvest","bonus":0.9400000000000012},{"rt":444.80000000074506,"stimulus":"\n                    <p><b>Action: <em>harvest</em></b></p>\n                    <p>This is the bee that you just saw.</p>\n                    <img src=\"bees-with-color/bee-A2DF.svg\" width=\"200\">\n                    <p><span class=\"greenText\"><b>Successful harvest!</b></span><br>Your pay has increased by $0.02. Your bonus pay is now $0.32.</p>\n            ","response":0,"trial_type":"html-button-response","trial_index":66,"time_elapsed":293940,"internal_node_id":"0.0-4.0-1.29","subject_id":"5f5e7de4c81d3672642cd612","study_id":"6197b3f67c2b5cd3b6d9596a","session_id":"619be321c07d74a31480f338","condition":"contingent","relevant_dimensions":["antennae","wings"],"bee_group":{"antennae":"B","wings":"2","pattern":"X","legs":"X"},"bonus":0.9400000000000012},{"rt":1020.8000000007451,"stimulus":"bees-with-color/bee-A2SM.svg","response":1,"trial_type":"image-button-response","trial_index":67,"time_elapsed":294962,"internal_node_id":"0.0-4.0-0.30","subject_id":"5f5e7de4c81d3672642cd612","study_id":"6197b3f67c2b5cd3b6d9596a","session_id":"619be321c07d74a31480f338","condition":"contingent","relevant_dimensions":["antennae","wings"],"bee_group":{"antennae":"B","wings":"2","pattern":"X","legs":"X"},"action":"avoid","summary":"bad-avoid","bonus":0.9400000000000012},{"rt":657.8000000007451,"stimulus":"\n                    <p><b>Action: <em>avoid</em></b></p>\n                    <p>This is the bee that you just saw.</p>\n                    <img src=\"bees-with-color/bee-A2SM.svg\" width=\"200\">\n                    <p><br>Your bonus pay is unchanged, and remains at $0.32.</p>\n            ","response":0,"trial_type":"html-button-response","trial_index":68,"time_elapsed":295621,"internal_node_id":"0.0-4.0-1.30","subject_id":"5f5e7de4c81d3672642cd612","study_id":"6197b3f67c2b5cd3b6d9596a","session_id":"619be321c07d74a31480f338","condition":"contingent","relevant_dimensions":["antennae","wings"],"bee_group":{"antennae":"B","wings":"2","pattern":"X","legs":"X"},"bonus":0.9400000000000012},{"rt":948.2999999988824,"stimulus":"bees-with-color/bee-A1SF.svg","response":0,"trial_type":"image-button-response","trial_index":69,"time_elapsed":296571,"internal_node_id":"0.0-4.0-0.31","subject_id":"5f5e7de4c81d3672642cd612","study_id":"6197b3f67c2b5cd3b6d9596a","session_id":"619be321c07d74a31480f338","condition":"contingent","relevant_dimensions":["antennae","wings"],"bee_group":{"antennae":"B","wings":"2","pattern":"X","legs":"X"},"action":"harvest","summary":"good-harvest","bonus":0.9400000000000012},{"rt":405.40000000037253,"stimulus":"\n                    <p><b>Action: <em>harvest</em></b></p>\n                    <p>This is the bee that you just saw.</p>\n                    <img src=\"bees-with-color/bee-A1SF.svg\" width=\"200\">\n                    <p><span class=\"greenText\"><b>Successful harvest!</b></span><br>Your pay has increased by $0.02. Your bonus pay is now $0.34.</p>\n            ","response":0,"trial_type":"html-button-response","trial_index":70,"time_elapsed":296978,"internal_node_id":"0.0-4.0-1.31","subject_id":"5f5e7de4c81d3672642cd612","study_id":"6197b3f67c2b5cd3b6d9596a","session_id":"619be321c07d74a31480f338","condition":"contingent","relevant_dimensions":["antennae","wings"],"bee_group":{"antennae":"B","wings":"2","pattern":"X","legs":"X"},"bonus":0.9400000000000012},{"rt":1118.0999999996275,"stimulus":"bees-with-color/bee-B1DM.svg","response":0,"trial_type":"image-button-response","trial_index":71,"time_elapsed":298097,"internal_node_id":"0.0-4.0-0.32","subject_id":"5f5e7de4c81d3672642cd612","study_id":"6197b3f67c2b5cd3b6d9596a","session_id":"619be321c07d74a31480f338","condition":"contingent","relevant_dimensions":["antennae","wings"],"bee_group":{"antennae":"B","wings":"2","pattern":"X","legs":"X"},"action":"harvest","summary":"good-harvest","bonus":0.9400000000000012},{"rt":586.8999999985099,"stimulus":"\n                    <p><b>Action: <em>harvest</em></b></p>\n                    <p>This is the bee that you just saw.</p>\n                    <img src=\"bees-with-color/bee-B1DM.svg\" width=\"200\">\n                    <p><span class=\"greenText\"><b>Successful harvest!</b></span><br>Your pay has increased by $0.02. Your bonus pay is now $0.36.</p>\n            ","response":0,"trial_type":"html-button-response","trial_index":72,"time_elapsed":298685,"internal_node_id":"0.0-4.0-1.32","subject_id":"5f5e7de4c81d3672642cd612","study_id":"6197b3f67c2b5cd3b6d9596a","session_id":"619be321c07d74a31480f338","condition":"contingent","relevant_dimensions":["antennae","wings"],"bee_group":{"antennae":"B","wings":"2","pattern":"X","legs":"X"},"bonus":0.9400000000000012},{"rt":1072.7999999988824,"stimulus":"bees-with-color/bee-A1SM.svg","response":0,"trial_type":"image-button-response","trial_index":73,"time_elapsed":299759,"internal_node_id":"0.0-4.0-0.33","subject_id":"5f5e7de4c81d3672642cd612","study_id":"6197b3f67c2b5cd3b6d9596a","session_id":"619be321c07d74a31480f338","condition":"contingent","relevant_dimensions":["antennae","wings"],"bee_group":{"antennae":"B","wings":"2","pattern":"X","legs":"X"},"action":"harvest","summary":"good-harvest","bonus":0.9400000000000012},{"rt":526.7999999988824,"stimulus":"\n                    <p><b>Action: <em>harvest</em></b></p>\n                    <p>This is the bee that you just saw.</p>\n                    <img src=\"bees-with-color/bee-A1SM.svg\" width=\"200\">\n                    <p><span class=\"greenText\"><b>Successful harvest!</b></span><br>Your pay has increased by $0.02. Your bonus pay is now $0.38.</p>\n            ","response":0,"trial_type":"html-button-response","trial_index":74,"time_elapsed":300288,"internal_node_id":"0.0-4.0-1.33","subject_id":"5f5e7de4c81d3672642cd612","study_id":"6197b3f67c2b5cd3b6d9596a","session_id":"619be321c07d74a31480f338","condition":"contingent","relevant_dimensions":["antennae","wings"],"bee_group":{"antennae":"B","wings":"2","pattern":"X","legs":"X"},"bonus":0.9400000000000012},{"rt":1448.4000000003725,"stimulus":"bees-with-color/bee-A2SM.svg","response":1,"trial_type":"image-button-response","trial_index":75,"time_elapsed":301737,"internal_node_id":"0.0-4.0-0.34","subject_id":"5f5e7de4c81d3672642cd612","study_id":"6197b3f67c2b5cd3b6d9596a","session_id":"619be321c07d74a31480f338","condition":"contingent","relevant_dimensions":["antennae","wings"],"bee_group":{"antennae":"B","wings":"2","pattern":"X","legs":"X"},"action":"avoid","summary":"bad-avoid","bonus":0.9400000000000012},{"rt":350.30000000074506,"stimulus":"\n                    <p><b>Action: <em>avoid</em></b></p>\n                    <p>This is the bee that you just saw.</p>\n                    <img src=\"bees-with-color/bee-A2SM.svg\" width=\"200\">\n                    <p><br>Your bonus pay is unchanged, and remains at $0.38.</p>\n            ","response":0,"trial_type":"html-button-response","trial_index":76,"time_elapsed":302089,"internal_node_id":"0.0-4.0-1.34","subject_id":"5f5e7de4c81d3672642cd612","study_id":"6197b3f67c2b5cd3b6d9596a","session_id":"619be321c07d74a31480f338","condition":"contingent","relevant_dimensions":["antennae","wings"],"bee_group":{"antennae":"B","wings":"2","pattern":"X","legs":"X"},"bonus":0.9400000000000012},{"rt":951.4000000003725,"stimulus":"bees-with-color/bee-B2SM.svg","response":1,"trial_type":"image-button-response","trial_index":77,"time_elapsed":303041,"internal_node_id":"0.0-4.0-0.35","subject_id":"5f5e7de4c81d3672642cd612","study_id":"6197b3f67c2b5cd3b6d9596a","session_id":"619be321c07d74a31480f338","condition":"contingent","relevant_dimensions":["antennae","wings"],"bee_group":{"antennae":"B","wings":"2","pattern":"X","legs":"X"},"action":"avoid","summary":"good-avoid","bonus":0.9400000000000012},{"rt":276.2999999988824,"stimulus":"\n                    <p><b>Action: <em>avoid</em></b></p>\n                    <p>This is the bee that you just saw.</p>\n                    <img src=\"bees-with-color/bee-B2SM.svg\" width=\"200\">\n                    <p><br>Your bonus pay is unchanged, and remains at $0.38.</p>\n            ","response":0,"trial_type":"html-button-response","trial_index":78,"time_elapsed":303319,"internal_node_id":"0.0-4.0-1.35","subject_id":"5f5e7de4c81d3672642cd612","study_id":"6197b3f67c2b5cd3b6d9596a","session_id":"619be321c07d74a31480f338","condition":"contingent","relevant_dimensions":["antennae","wings"],"bee_group":{"antennae":"B","wings":"2","pattern":"X","legs":"X"},"bonus":0.9400000000000012},{"rt":872.3000000007451,"stimulus":"bees-with-color/bee-A1DM.svg","response":0,"trial_type":"image-button-response","trial_index":79,"time_elapsed":304193,"internal_node_id":"0.0-4.0-0.36","subject_id":"5f5e7de4c81d3672642cd612","study_id":"6197b3f67c2b5cd3b6d9596a","session_id":"619be321c07d74a31480f338","condition":"contingent","relevant_dimensions":["antennae","wings"],"bee_group":{"antennae":"B","wings":"2","pattern":"X","legs":"X"},"action":"harvest","summary":"good-harvest","bonus":0.9400000000000012},{"rt":816.1999999992549,"stimulus":"\n                    <p><b>Action: <em>harvest</em></b></p>\n                    <p>This is the bee that you just saw.</p>\n                    <img src=\"bees-with-color/bee-A1DM.svg\" width=\"200\">\n                    <p><span class=\"greenText\"><b>Successful harvest!</b></span><br>Your pay has increased by $0.02. Your bonus pay is now $0.40.</p>\n            ","response":0,"trial_type":"html-button-response","trial_index":80,"time_elapsed":305010,"internal_node_id":"0.0-4.0-1.36","subject_id":"5f5e7de4c81d3672642cd612","study_id":"6197b3f67c2b5cd3b6d9596a","session_id":"619be321c07d74a31480f338","condition":"contingent","relevant_dimensions":["antennae","wings"],"bee_group":{"antennae":"B","wings":"2","pattern":"X","legs":"X"},"bonus":0.9400000000000012},{"rt":1202.7999999988824,"stimulus":"bees-with-color/bee-B2DM.svg","response":1,"trial_type":"image-button-response","trial_index":81,"time_elapsed":306214,"internal_node_id":"0.0-4.0-0.37","subject_id":"5f5e7de4c81d3672642cd612","study_id":"6197b3f67c2b5cd3b6d9596a","session_id":"619be321c07d74a31480f338","condition":"contingent","relevant_dimensions":["antennae","wings"],"bee_group":{"antennae":"B","wings":"2","pattern":"X","legs":"X"},"action":"avoid","summary":"good-avoid","bonus":0.9400000000000012},{"rt":847.0999999996275,"stimulus":"\n                    <p><b>Action: <em>avoid</em></b></p>\n                    <p>This is the bee that you just saw.</p>\n                    <img src=\"bees-with-color/bee-B2DM.svg\" width=\"200\">\n                    <p><br>Your bonus pay is unchanged, and remains at $0.40.</p>\n            ","response":0,"trial_type":"html-button-response","trial_index":82,"time_elapsed":307063,"internal_node_id":"0.0-4.0-1.37","subject_id":"5f5e7de4c81d3672642cd612","study_id":"6197b3f67c2b5cd3b6d9596a","session_id":"619be321c07d74a31480f338","condition":"contingent","relevant_dimensions":["antennae","wings"],"bee_group":{"antennae":"B","wings":"2","pattern":"X","legs":"X"},"bonus":0.9400000000000012},{"rt":1163,"stimulus":"bees-with-color/bee-A1SF.svg","response":0,"trial_type":"image-button-response","trial_index":83,"time_elapsed":308227,"internal_node_id":"0.0-4.0-0.38","subject_id":"5f5e7de4c81d3672642cd612","study_id":"6197b3f67c2b5cd3b6d9596a","session_id":"619be321c07d74a31480f338","condition":"contingent","relevant_dimensions":["antennae","wings"],"bee_group":{"antennae":"B","wings":"2","pattern":"X","legs":"X"},"action":"harvest","summary":"good-harvest","bonus":0.9400000000000012},{"rt":518,"stimulus":"\n                    <p><b>Action: <em>harvest</em></b></p>\n                    <p>This is the bee that you just saw.</p>\n                    <img src=\"bees-with-color/bee-A1SF.svg\" width=\"200\">\n                    <p><span class=\"greenText\"><b>Successful harvest!</b></span><br>Your pay has increased by $0.02. Your bonus pay is now $0.42.</p>\n            ","response":0,"trial_type":"html-button-response","trial_index":84,"time_elapsed":308746,"internal_node_id":"0.0-4.0-1.38","subject_id":"5f5e7de4c81d3672642cd612","study_id":"6197b3f67c2b5cd3b6d9596a","session_id":"619be321c07d74a31480f338","condition":"contingent","relevant_dimensions":["antennae","wings"],"bee_group":{"antennae":"B","wings":"2","pattern":"X","legs":"X"},"bonus":0.9400000000000012},{"rt":2505.2000000011176,"stimulus":"bees-with-color/bee-A2DF.svg","response":0,"trial_type":"image-button-response","trial_index":85,"time_elapsed":311253,"internal_node_id":"0.0-4.0-0.39","subject_id":"5f5e7de4c81d3672642cd612","study_id":"6197b3f67c2b5cd3b6d9596a","session_id":"619be321c07d74a31480f338","condition":"contingent","relevant_dimensions":["antennae","wings"],"bee_group":{"antennae":"B","wings":"2","pattern":"X","legs":"X"},"action":"harvest","summary":"good-harvest","bonus":0.9400000000000012},{"rt":462,"stimulus":"\n                    <p><b>Action: <em>harvest</em></b></p>\n                    <p>This is the bee that you just saw.</p>\n                    <img src=\"bees-with-color/bee-A2DF.svg\" width=\"200\">\n                    <p><span class=\"greenText\"><b>Successful harvest!</b></span><br>Your pay has increased by $0.02. Your bonus pay is now $0.44.</p>\n            ","response":0,"trial_type":"html-button-response","trial_index":86,"time_elapsed":311716,"internal_node_id":"0.0-4.0-1.39","subject_id":"5f5e7de4c81d3672642cd612","study_id":"6197b3f67c2b5cd3b6d9596a","session_id":"619be321c07d74a31480f338","condition":"contingent","relevant_dimensions":["antennae","wings"],"bee_group":{"antennae":"B","wings":"2","pattern":"X","legs":"X"},"bonus":0.9400000000000012},{"rt":3212.9000000003725,"stimulus":"bees-with-color/bee-A2SF.svg","response":0,"trial_type":"image-button-response","trial_index":87,"time_elapsed":314930,"internal_node_id":"0.0-4.0-0.40","subject_id":"5f5e7de4c81d3672642cd612","study_id":"6197b3f67c2b5cd3b6d9596a","session_id":"619be321c07d74a31480f338","condition":"contingent","relevant_dimensions":["antennae","wings"],"bee_group":{"antennae":"B","wings":"2","pattern":"X","legs":"X"},"action":"harvest","summary":"good-harvest","bonus":0.9400000000000012},{"rt":622.2999999988824,"stimulus":"\n                    <p><b>Action: <em>harvest</em></b></p>\n                    <p>This is the bee that you just saw.</p>\n                    <img src=\"bees-with-color/bee-A2SF.svg\" width=\"200\">\n                    <p><span class=\"greenText\"><b>Successful harvest!</b></span><br>Your pay has increased by $0.02. Your bonus pay is now $0.46.</p>\n            ","response":0,"trial_type":"html-button-response","trial_index":88,"time_elapsed":315554,"internal_node_id":"0.0-4.0-1.40","subject_id":"5f5e7de4c81d3672642cd612","study_id":"6197b3f67c2b5cd3b6d9596a","session_id":"619be321c07d74a31480f338","condition":"contingent","relevant_dimensions":["antennae","wings"],"bee_group":{"antennae":"B","wings":"2","pattern":"X","legs":"X"},"bonus":0.9400000000000012},{"rt":2343.800000000745,"stimulus":"bees-with-color/bee-A1DF.svg","response":0,"trial_type":"image-button-response","trial_index":89,"time_elapsed":317899,"internal_node_id":"0.0-4.0-0.41","subject_id":"5f5e7de4c81d3672642cd612","study_id":"6197b3f67c2b5cd3b6d9596a","session_id":"619be321c07d74a31480f338","condition":"contingent","relevant_dimensions":["antennae","wings"],"bee_group":{"antennae":"B","wings":"2","pattern":"X","legs":"X"},"action":"harvest","summary":"good-harvest","bonus":0.9400000000000012},{"rt":1222.4000000003725,"stimulus":"\n                    <p><b>Action: <em>harvest</em></b></p>\n                    <p>This is the bee that you just saw.</p>\n                    <img src=\"bees-with-color/bee-A1DF.svg\" width=\"200\">\n                    <p><span class=\"greenText\"><b>Successful harvest!</b></span><br>Your pay has increased by $0.02. Your bonus pay is now $0.48.</p>\n            ","response":0,"trial_type":"html-button-response","trial_index":90,"time_elapsed":319123,"internal_node_id":"0.0-4.0-1.41","subject_id":"5f5e7de4c81d3672642cd612","study_id":"6197b3f67c2b5cd3b6d9596a","session_id":"619be321c07d74a31480f338","condition":"contingent","relevant_dimensions":["antennae","wings"],"bee_group":{"antennae":"B","wings":"2","pattern":"X","legs":"X"},"bonus":0.9400000000000012},{"rt":2509.7999999988824,"stimulus":"bees-with-color/bee-B2SF.svg","response":1,"trial_type":"image-button-response","trial_index":91,"time_elapsed":321634,"internal_node_id":"0.0-4.0-0.42","subject_id":"5f5e7de4c81d3672642cd612","study_id":"6197b3f67c2b5cd3b6d9596a","session_id":"619be321c07d74a31480f338","condition":"contingent","relevant_dimensions":["antennae","wings"],"bee_group":{"antennae":"B","wings":"2","pattern":"X","legs":"X"},"action":"avoid","summary":"good-avoid","bonus":0.9400000000000012},{"rt":525,"stimulus":"\n                    <p><b>Action: <em>avoid</em></b></p>\n                    <p>This is the bee that you just saw.</p>\n                    <img src=\"bees-with-color/bee-B2SF.svg\" width=\"200\">\n                    <p><br>Your bonus pay is unchanged, and remains at $0.48.</p>\n            ","response":0,"trial_type":"html-button-response","trial_index":92,"time_elapsed":322161,"internal_node_id":"0.0-4.0-1.42","subject_id":"5f5e7de4c81d3672642cd612","study_id":"6197b3f67c2b5cd3b6d9596a","session_id":"619be321c07d74a31480f338","condition":"contingent","relevant_dimensions":["antennae","wings"],"bee_group":{"antennae":"B","wings":"2","pattern":"X","legs":"X"},"bonus":0.9400000000000012},{"rt":1342.0999999996275,"stimulus":"bees-with-color/bee-B1SM.svg","response":0,"trial_type":"image-button-response","trial_index":93,"time_elapsed":323505,"internal_node_id":"0.0-4.0-0.43","subject_id":"5f5e7de4c81d3672642cd612","study_id":"6197b3f67c2b5cd3b6d9596a","session_id":"619be321c07d74a31480f338","condition":"contingent","relevant_dimensions":["antennae","wings"],"bee_group":{"antennae":"B","wings":"2","pattern":"X","legs":"X"},"action":"harvest","summary":"good-harvest","bonus":0.9400000000000012},{"rt":437,"stimulus":"\n                    <p><b>Action: <em>harvest</em></b></p>\n                    <p>This is the bee that you just saw.</p>\n                    <img src=\"bees-with-color/bee-B1SM.svg\" width=\"200\">\n                    <p><span class=\"greenText\"><b>Successful harvest!</b></span><br>Your pay has increased by $0.02. Your bonus pay is now $0.50.</p>\n            ","response":0,"trial_type":"html-button-response","trial_index":94,"time_elapsed":323943,"internal_node_id":"0.0-4.0-1.43","subject_id":"5f5e7de4c81d3672642cd612","study_id":"6197b3f67c2b5cd3b6d9596a","session_id":"619be321c07d74a31480f338","condition":"contingent","relevant_dimensions":["antennae","wings"],"bee_group":{"antennae":"B","wings":"2","pattern":"X","legs":"X"},"bonus":0.9400000000000012},{"rt":1018.6999999992549,"stimulus":"bees-with-color/bee-B1SF.svg","response":0,"trial_type":"image-button-response","trial_index":95,"time_elapsed":324963,"internal_node_id":"0.0-4.0-0.44","subject_id":"5f5e7de4c81d3672642cd612","study_id":"6197b3f67c2b5cd3b6d9596a","session_id":"619be321c07d74a31480f338","condition":"contingent","relevant_dimensions":["antennae","wings"],"bee_group":{"antennae":"B","wings":"2","pattern":"X","legs":"X"},"action":"harvest","summary":"good-harvest","bonus":0.9400000000000012},{"rt":590.5999999996275,"stimulus":"\n                    <p><b>Action: <em>harvest</em></b></p>\n                    <p>This is the bee that you just saw.</p>\n                    <img src=\"bees-with-color/bee-B1SF.svg\" width=\"200\">\n                    <p><span class=\"greenText\"><b>Successful harvest!</b></span><br>Your pay has increased by $0.02. Your bonus pay is now $0.52.</p>\n            ","response":0,"trial_type":"html-button-response","trial_index":96,"time_elapsed":325555,"internal_node_id":"0.0-4.0-1.44","subject_id":"5f5e7de4c81d3672642cd612","study_id":"6197b3f67c2b5cd3b6d9596a","session_id":"619be321c07d74a31480f338","condition":"contingent","relevant_dimensions":["antennae","wings"],"bee_group":{"antennae":"B","wings":"2","pattern":"X","legs":"X"},"bonus":0.9400000000000012},{"rt":1010.7000000011176,"stimulus":"bees-with-color/bee-A2DM.svg","response":1,"trial_type":"image-button-response","trial_index":97,"time_elapsed":326567,"internal_node_id":"0.0-4.0-0.45","subject_id":"5f5e7de4c81d3672642cd612","study_id":"6197b3f67c2b5cd3b6d9596a","session_id":"619be321c07d74a31480f338","condition":"contingent","relevant_dimensions":["antennae","wings"],"bee_group":{"antennae":"B","wings":"2","pattern":"X","legs":"X"},"action":"avoid","summary":"bad-avoid","bonus":0.9400000000000012},{"rt":682.5,"stimulus":"\n                    <p><b>Action: <em>avoid</em></b></p>\n                    <p>This is the bee that you just saw.</p>\n                    <img src=\"bees-with-color/bee-A2DM.svg\" width=\"200\">\n                    <p><br>Your bonus pay is unchanged, and remains at $0.52.</p>\n            ","response":0,"trial_type":"html-button-response","trial_index":98,"time_elapsed":327250,"internal_node_id":"0.0-4.0-1.45","subject_id":"5f5e7de4c81d3672642cd612","study_id":"6197b3f67c2b5cd3b6d9596a","session_id":"619be321c07d74a31480f338","condition":"contingent","relevant_dimensions":["antennae","wings"],"bee_group":{"antennae":"B","wings":"2","pattern":"X","legs":"X"},"bonus":0.9400000000000012},{"rt":2148.5999999996275,"stimulus":"bees-with-color/bee-B1DF.svg","response":0,"trial_type":"image-button-response","trial_index":99,"time_elapsed":329400,"internal_node_id":"0.0-4.0-0.46","subject_id":"5f5e7de4c81d3672642cd612","study_id":"6197b3f67c2b5cd3b6d9596a","session_id":"619be321c07d74a31480f338","condition":"contingent","relevant_dimensions":["antennae","wings"],"bee_group":{"antennae":"B","wings":"2","pattern":"X","legs":"X"},"action":"harvest","summary":"good-harvest","bonus":0.9400000000000012},{"rt":565.0999999996275,"stimulus":"\n                    <p><b>Action: <em>harvest</em></b></p>\n                    <p>This is the bee that you just saw.</p>\n                    <img src=\"bees-with-color/bee-B1DF.svg\" width=\"200\">\n                    <p><span class=\"greenText\"><b>Successful harvest!</b></span><br>Your pay has increased by $0.02. Your bonus pay is now $0.54.</p>\n            ","response":0,"trial_type":"html-button-response","trial_index":100,"time_elapsed":329966,"internal_node_id":"0.0-4.0-1.46","subject_id":"5f5e7de4c81d3672642cd612","study_id":"6197b3f67c2b5cd3b6d9596a","session_id":"619be321c07d74a31480f338","condition":"contingent","relevant_dimensions":["antennae","wings"],"bee_group":{"antennae":"B","wings":"2","pattern":"X","legs":"X"},"bonus":0.9400000000000012},{"rt":1474.7000000011176,"stimulus":"bees-with-color/bee-B2DF.svg","response":0,"trial_type":"image-button-response","trial_index":101,"time_elapsed":331442,"internal_node_id":"0.0-4.0-0.47","subject_id":"5f5e7de4c81d3672642cd612","study_id":"6197b3f67c2b5cd3b6d9596a","session_id":"619be321c07d74a31480f338","condition":"contingent","relevant_dimensions":["antennae","wings"],"bee_group":{"antennae":"B","wings":"2","pattern":"X","legs":"X"},"action":"harvest","summary":"bad-harvest","bonus":0.9400000000000012},{"rt":2026.800000000745,"stimulus":"\n                    <p><b>Action: <em>harvest</em></b></p>\n                    <p>This is the bee that you just saw.</p>\n                    <img src=\"bees-with-color/bee-B2DF.svg\" width=\"200\">\n                    <p><span class=\"redText\">Bad choice, the bee was angry.</span><br><b>You have been stung!</b><br>Your pay has been decreased by $0.10. Your bonus pay is now $0.44.</p>\n            ","response":0,"trial_type":"html-button-response","trial_index":102,"time_elapsed":333470,"internal_node_id":"0.0-4.0-1.47","subject_id":"5f5e7de4c81d3672642cd612","study_id":"6197b3f67c2b5cd3b6d9596a","session_id":"619be321c07d74a31480f338","condition":"contingent","relevant_dimensions":["antennae","wings"],"bee_group":{"antennae":"B","wings":"2","pattern":"X","legs":"X"},"bonus":0.9400000000000012},{"rt":1590.4000000003725,"stimulus":"bees-with-color/bee-A2DF.svg","response":0,"trial_type":"image-button-response","trial_index":103,"time_elapsed":335062,"internal_node_id":"0.0-4.0-0.48","subject_id":"5f5e7de4c81d3672642cd612","study_id":"6197b3f67c2b5cd3b6d9596a","session_id":"619be321c07d74a31480f338","condition":"contingent","relevant_dimensions":["antennae","wings"],"bee_group":{"antennae":"B","wings":"2","pattern":"X","legs":"X"},"action":"harvest","summary":"good-harvest","bonus":0.9400000000000012},{"rt":471.7000000011176,"stimulus":"\n                    <p><b>Action: <em>harvest</em></b></p>\n                    <p>This is the bee that you just saw.</p>\n                    <img src=\"bees-with-color/bee-A2DF.svg\" width=\"200\">\n                    <p><span class=\"greenText\"><b>Successful harvest!</b></span><br>Your pay has increased by $0.02. Your bonus pay is now $0.46.</p>\n            ","response":0,"trial_type":"html-button-response","trial_index":104,"time_elapsed":335535,"internal_node_id":"0.0-4.0-1.48","subject_id":"5f5e7de4c81d3672642cd612","study_id":"6197b3f67c2b5cd3b6d9596a","session_id":"619be321c07d74a31480f338","condition":"contingent","relevant_dimensions":["antennae","wings"],"bee_group":{"antennae":"B","wings":"2","pattern":"X","legs":"X"},"bonus":0.9400000000000012},{"rt":1260.300000000745,"stimulus":"bees-with-color/bee-B2SF.svg","response":1,"trial_type":"image-button-response","trial_index":105,"time_elapsed":336797,"internal_node_id":"0.0-4.0-0.49","subject_id":"5f5e7de4c81d3672642cd612","study_id":"6197b3f67c2b5cd3b6d9596a","session_id":"619be321c07d74a31480f338","condition":"contingent","relevant_dimensions":["antennae","wings"],"bee_group":{"antennae":"B","wings":"2","pattern":"X","legs":"X"},"action":"avoid","summary":"good-avoid","bonus":0.9400000000000012},{"rt":487.90000000037253,"stimulus":"\n                    <p><b>Action: <em>avoid</em></b></p>\n                    <p>This is the bee that you just saw.</p>\n                    <img src=\"bees-with-color/bee-B2SF.svg\" width=\"200\">\n                    <p><br>Your bonus pay is unchanged, and remains at $0.46.</p>\n            ","response":0,"trial_type":"html-button-response","trial_index":106,"time_elapsed":337286,"internal_node_id":"0.0-4.0-1.49","subject_id":"5f5e7de4c81d3672642cd612","study_id":"6197b3f67c2b5cd3b6d9596a","session_id":"619be321c07d74a31480f338","condition":"contingent","relevant_dimensions":["antennae","wings"],"bee_group":{"antennae":"B","wings":"2","pattern":"X","legs":"X"},"bonus":0.9400000000000012},{"rt":904.4000000003725,"stimulus":"bees-with-color/bee-A1SF.svg","response":0,"trial_type":"image-button-response","trial_index":107,"time_elapsed":338192,"internal_node_id":"0.0-4.0-0.50","subject_id":"5f5e7de4c81d3672642cd612","study_id":"6197b3f67c2b5cd3b6d9596a","session_id":"619be321c07d74a31480f338","condition":"contingent","relevant_dimensions":["antennae","wings"],"bee_group":{"antennae":"B","wings":"2","pattern":"X","legs":"X"},"action":"harvest","summary":"good-harvest","bonus":0.9400000000000012},{"rt":535.9000000003725,"stimulus":"\n                    <p><b>Action: <em>harvest</em></b></p>\n                    <p>This is the bee that you just saw.</p>\n                    <img src=\"bees-with-color/bee-A1SF.svg\" width=\"200\">\n                    <p><span class=\"greenText\"><b>Successful harvest!</b></span><br>Your pay has increased by $0.02. Your bonus pay is now $0.48.</p>\n            ","response":0,"trial_type":"html-button-response","trial_index":108,"time_elapsed":338729,"internal_node_id":"0.0-4.0-1.50","subject_id":"5f5e7de4c81d3672642cd612","study_id":"6197b3f67c2b5cd3b6d9596a","session_id":"619be321c07d74a31480f338","condition":"contingent","relevant_dimensions":["antennae","wings"],"bee_group":{"antennae":"B","wings":"2","pattern":"X","legs":"X"},"bonus":0.9400000000000012},{"rt":1200.5999999996275,"stimulus":"bees-with-color/bee-B1SM.svg","response":0,"trial_type":"image-button-response","trial_index":109,"time_elapsed":339931,"internal_node_id":"0.0-4.0-0.51","subject_id":"5f5e7de4c81d3672642cd612","study_id":"6197b3f67c2b5cd3b6d9596a","session_id":"619be321c07d74a31480f338","condition":"contingent","relevant_dimensions":["antennae","wings"],"bee_group":{"antennae":"B","wings":"2","pattern":"X","legs":"X"},"action":"harvest","summary":"good-harvest","bonus":0.9400000000000012},{"rt":588,"stimulus":"\n                    <p><b>Action: <em>harvest</em></b></p>\n                    <p>This is the bee that you just saw.</p>\n                    <img src=\"bees-with-color/bee-B1SM.svg\" width=\"200\">\n                    <p><span class=\"greenText\"><b>Successful harvest!</b></span><br>Your pay has increased by $0.02. Your bonus pay is now $0.50.</p>\n            ","response":0,"trial_type":"html-button-response","trial_index":110,"time_elapsed":340521,"internal_node_id":"0.0-4.0-1.51","subject_id":"5f5e7de4c81d3672642cd612","study_id":"6197b3f67c2b5cd3b6d9596a","session_id":"619be321c07d74a31480f338","condition":"contingent","relevant_dimensions":["antennae","wings"],"bee_group":{"antennae":"B","wings":"2","pattern":"X","legs":"X"},"bonus":0.9400000000000012},{"rt":3953.9000000003725,"stimulus":"bees-with-color/bee-B1DF.svg","response":0,"trial_type":"image-button-response","trial_index":111,"time_elapsed":344476,"internal_node_id":"0.0-4.0-0.52","subject_id":"5f5e7de4c81d3672642cd612","study_id":"6197b3f67c2b5cd3b6d9596a","session_id":"619be321c07d74a31480f338","condition":"contingent","relevant_dimensions":["antennae","wings"],"bee_group":{"antennae":"B","wings":"2","pattern":"X","legs":"X"},"action":"harvest","summary":"good-harvest","bonus":0.9400000000000012},{"rt":1090.9000000003725,"stimulus":"\n                    <p><b>Action: <em>harvest</em></b></p>\n                    <p>This is the bee that you just saw.</p>\n                    <img src=\"bees-with-color/bee-B1DF.svg\" width=\"200\">\n                    <p><span class=\"greenText\"><b>Successful harvest!</b></span><br>Your pay has increased by $0.02. Your bonus pay is now $0.52.</p>\n            ","response":0,"trial_type":"html-button-response","trial_index":112,"time_elapsed":345568,"internal_node_id":"0.0-4.0-1.52","subject_id":"5f5e7de4c81d3672642cd612","study_id":"6197b3f67c2b5cd3b6d9596a","session_id":"619be321c07d74a31480f338","condition":"contingent","relevant_dimensions":["antennae","wings"],"bee_group":{"antennae":"B","wings":"2","pattern":"X","legs":"X"},"bonus":0.9400000000000012},{"rt":1486.5,"stimulus":"bees-with-color/bee-A1SM.svg","response":0,"trial_type":"image-button-response","trial_index":113,"time_elapsed":347056,"internal_node_id":"0.0-4.0-0.53","subject_id":"5f5e7de4c81d3672642cd612","study_id":"6197b3f67c2b5cd3b6d9596a","session_id":"619be321c07d74a31480f338","condition":"contingent","relevant_dimensions":["antennae","wings"],"bee_group":{"antennae":"B","wings":"2","pattern":"X","legs":"X"},"action":"harvest","summary":"good-harvest","bonus":0.9400000000000012},{"rt":878.3000000007451,"stimulus":"\n                    <p><b>Action: <em>harvest</em></b></p>\n                    <p>This is the bee that you just saw.</p>\n                    <img src=\"bees-with-color/bee-A1SM.svg\" width=\"200\">\n                    <p><span class=\"greenText\"><b>Successful harvest!</b></span><br>Your pay has increased by $0.02. Your bonus pay is now $0.54.</p>\n            ","response":0,"trial_type":"html-button-response","trial_index":114,"time_elapsed":347936,"internal_node_id":"0.0-4.0-1.53","subject_id":"5f5e7de4c81d3672642cd612","study_id":"6197b3f67c2b5cd3b6d9596a","session_id":"619be321c07d74a31480f338","condition":"contingent","relevant_dimensions":["antennae","wings"],"bee_group":{"antennae":"B","wings":"2","pattern":"X","legs":"X"},"bonus":0.9400000000000012},{"rt":1137.0999999996275,"stimulus":"bees-with-color/bee-B2DF.svg","response":1,"trial_type":"image-button-response","trial_index":115,"time_elapsed":349074,"internal_node_id":"0.0-4.0-0.54","subject_id":"5f5e7de4c81d3672642cd612","study_id":"6197b3f67c2b5cd3b6d9596a","session_id":"619be321c07d74a31480f338","condition":"contingent","relevant_dimensions":["antennae","wings"],"bee_group":{"antennae":"B","wings":"2","pattern":"X","legs":"X"},"action":"avoid","summary":"good-avoid","bonus":0.9400000000000012},{"rt":760.5,"stimulus":"\n                    <p><b>Action: <em>avoid</em></b></p>\n                    <p>This is the bee that you just saw.</p>\n                    <img src=\"bees-with-color/bee-B2DF.svg\" width=\"200\">\n                    <p><br>Your bonus pay is unchanged, and remains at $0.54.</p>\n            ","response":0,"trial_type":"html-button-response","trial_index":116,"time_elapsed":349836,"internal_node_id":"0.0-4.0-1.54","subject_id":"5f5e7de4c81d3672642cd612","study_id":"6197b3f67c2b5cd3b6d9596a","session_id":"619be321c07d74a31480f338","condition":"contingent","relevant_dimensions":["antennae","wings"],"bee_group":{"antennae":"B","wings":"2","pattern":"X","legs":"X"},"bonus":0.9400000000000012},{"rt":2711,"stimulus":"bees-with-color/bee-A2SF.svg","response":1,"trial_type":"image-button-response","trial_index":117,"time_elapsed":352548,"internal_node_id":"0.0-4.0-0.55","subject_id":"5f5e7de4c81d3672642cd612","study_id":"6197b3f67c2b5cd3b6d9596a","session_id":"619be321c07d74a31480f338","condition":"contingent","relevant_dimensions":["antennae","wings"],"bee_group":{"antennae":"B","wings":"2","pattern":"X","legs":"X"},"action":"avoid","summary":"bad-avoid","bonus":0.9400000000000012},{"rt":474.30000000074506,"stimulus":"\n                    <p><b>Action: <em>avoid</em></b></p>\n                    <p>This is the bee that you just saw.</p>\n                    <img src=\"bees-with-color/bee-A2SF.svg\" width=\"200\">\n                    <p><br>Your bonus pay is unchanged, and remains at $0.54.</p>\n            ","response":0,"trial_type":"html-button-response","trial_index":118,"time_elapsed":353024,"internal_node_id":"0.0-4.0-1.55","subject_id":"5f5e7de4c81d3672642cd612","study_id":"6197b3f67c2b5cd3b6d9596a","session_id":"619be321c07d74a31480f338","condition":"contingent","relevant_dimensions":["antennae","wings"],"bee_group":{"antennae":"B","wings":"2","pattern":"X","legs":"X"},"bonus":0.9400000000000012},{"rt":1117.4000000003725,"stimulus":"bees-with-color/bee-B1SF.svg","response":0,"trial_type":"image-button-response","trial_index":119,"time_elapsed":354143,"internal_node_id":"0.0-4.0-0.56","subject_id":"5f5e7de4c81d3672642cd612","study_id":"6197b3f67c2b5cd3b6d9596a","session_id":"619be321c07d74a31480f338","condition":"contingent","relevant_dimensions":["antennae","wings"],"bee_group":{"antennae":"B","wings":"2","pattern":"X","legs":"X"},"action":"harvest","summary":"good-harvest","bonus":0.9400000000000012},{"rt":939.1999999992549,"stimulus":"\n                    <p><b>Action: <em>harvest</em></b></p>\n                    <p>This is the bee that you just saw.</p>\n                    <img src=\"bees-with-color/bee-B1SF.svg\" width=\"200\">\n                    <p><span class=\"greenText\"><b>Successful harvest!</b></span><br>Your pay has increased by $0.02. Your bonus pay is now $0.56.</p>\n            ","response":0,"trial_type":"html-button-response","trial_index":120,"time_elapsed":355084,"internal_node_id":"0.0-4.0-1.56","subject_id":"5f5e7de4c81d3672642cd612","study_id":"6197b3f67c2b5cd3b6d9596a","session_id":"619be321c07d74a31480f338","condition":"contingent","relevant_dimensions":["antennae","wings"],"bee_group":{"antennae":"B","wings":"2","pattern":"X","legs":"X"},"bonus":0.9400000000000012},{"rt":1369.5,"stimulus":"bees-with-color/bee-A2SM.svg","response":1,"trial_type":"image-button-response","trial_index":121,"time_elapsed":356455,"internal_node_id":"0.0-4.0-0.57","subject_id":"5f5e7de4c81d3672642cd612","study_id":"6197b3f67c2b5cd3b6d9596a","session_id":"619be321c07d74a31480f338","condition":"contingent","relevant_dimensions":["antennae","wings"],"bee_group":{"antennae":"B","wings":"2","pattern":"X","legs":"X"},"action":"avoid","summary":"bad-avoid","bonus":0.9400000000000012},{"rt":428.2999999988824,"stimulus":"\n                    <p><b>Action: <em>avoid</em></b></p>\n                    <p>This is the bee that you just saw.</p>\n                    <img src=\"bees-with-color/bee-A2SM.svg\" width=\"200\">\n                    <p><br>Your bonus pay is unchanged, and remains at $0.56.</p>\n            ","response":0,"trial_type":"html-button-response","trial_index":122,"time_elapsed":356885,"internal_node_id":"0.0-4.0-1.57","subject_id":"5f5e7de4c81d3672642cd612","study_id":"6197b3f67c2b5cd3b6d9596a","session_id":"619be321c07d74a31480f338","condition":"contingent","relevant_dimensions":["antennae","wings"],"bee_group":{"antennae":"B","wings":"2","pattern":"X","legs":"X"},"bonus":0.9400000000000012},{"rt":1230,"stimulus":"bees-with-color/bee-B2DM.svg","response":1,"trial_type":"image-button-response","trial_index":123,"time_elapsed":358117,"internal_node_id":"0.0-4.0-0.58","subject_id":"5f5e7de4c81d3672642cd612","study_id":"6197b3f67c2b5cd3b6d9596a","session_id":"619be321c07d74a31480f338","condition":"contingent","relevant_dimensions":["antennae","wings"],"bee_group":{"antennae":"B","wings":"2","pattern":"X","legs":"X"},"action":"avoid","summary":"good-avoid","bonus":0.9400000000000012},{"rt":392.30000000074506,"stimulus":"\n                    <p><b>Action: <em>avoid</em></b></p>\n                    <p>This is the bee that you just saw.</p>\n                    <img src=\"bees-with-color/bee-B2DM.svg\" width=\"200\">\n                    <p><br>Your bonus pay is unchanged, and remains at $0.56.</p>\n            ","response":0,"trial_type":"html-button-response","trial_index":124,"time_elapsed":358510,"internal_node_id":"0.0-4.0-1.58","subject_id":"5f5e7de4c81d3672642cd612","study_id":"6197b3f67c2b5cd3b6d9596a","session_id":"619be321c07d74a31480f338","condition":"contingent","relevant_dimensions":["antennae","wings"],"bee_group":{"antennae":"B","wings":"2","pattern":"X","legs":"X"},"bonus":0.9400000000000012},{"rt":867.0999999996275,"stimulus":"bees-with-color/bee-A2DM.svg","response":1,"trial_type":"image-button-response","trial_index":125,"time_elapsed":359378,"internal_node_id":"0.0-4.0-0.59","subject_id":"5f5e7de4c81d3672642cd612","study_id":"6197b3f67c2b5cd3b6d9596a","session_id":"619be321c07d74a31480f338","condition":"contingent","relevant_dimensions":["antennae","wings"],"bee_group":{"antennae":"B","wings":"2","pattern":"X","legs":"X"},"action":"avoid","summary":"bad-avoid","bonus":0.9400000000000012},{"rt":501.19999999925494,"stimulus":"\n                    <p><b>Action: <em>avoid</em></b></p>\n                    <p>This is the bee that you just saw.</p>\n                    <img src=\"bees-with-color/bee-A2DM.svg\" width=\"200\">\n                    <p><br>Your bonus pay is unchanged, and remains at $0.56.</p>\n            ","response":0,"trial_type":"html-button-response","trial_index":126,"time_elapsed":359881,"internal_node_id":"0.0-4.0-1.59","subject_id":"5f5e7de4c81d3672642cd612","study_id":"6197b3f67c2b5cd3b6d9596a","session_id":"619be321c07d74a31480f338","condition":"contingent","relevant_dimensions":["antennae","wings"],"bee_group":{"antennae":"B","wings":"2","pattern":"X","legs":"X"},"bonus":0.9400000000000012},{"rt":1514.5999999996275,"stimulus":"bees-with-color/bee-B2SM.svg","response":1,"trial_type":"image-button-response","trial_index":127,"time_elapsed":361397,"internal_node_id":"0.0-4.0-0.60","subject_id":"5f5e7de4c81d3672642cd612","study_id":"6197b3f67c2b5cd3b6d9596a","session_id":"619be321c07d74a31480f338","condition":"contingent","relevant_dimensions":["antennae","wings"],"bee_group":{"antennae":"B","wings":"2","pattern":"X","legs":"X"},"action":"avoid","summary":"good-avoid","bonus":0.9400000000000012},{"rt":346.59999999962747,"stimulus":"\n                    <p><b>Action: <em>avoid</em></b></p>\n                    <p>This is the bee that you just saw.</p>\n                    <img src=\"bees-with-color/bee-B2SM.svg\" width=\"200\">\n                    <p><br>Your bonus pay is unchanged, and remains at $0.56.</p>\n            ","response":0,"trial_type":"html-button-response","trial_index":128,"time_elapsed":361744,"internal_node_id":"0.0-4.0-1.60","subject_id":"5f5e7de4c81d3672642cd612","study_id":"6197b3f67c2b5cd3b6d9596a","session_id":"619be321c07d74a31480f338","condition":"contingent","relevant_dimensions":["antennae","wings"],"bee_group":{"antennae":"B","wings":"2","pattern":"X","legs":"X"},"bonus":0.9400000000000012},{"rt":787.0999999996275,"stimulus":"bees-with-color/bee-A1DF.svg","response":0,"trial_type":"image-button-response","trial_index":129,"time_elapsed":362533,"internal_node_id":"0.0-4.0-0.61","subject_id":"5f5e7de4c81d3672642cd612","study_id":"6197b3f67c2b5cd3b6d9596a","session_id":"619be321c07d74a31480f338","condition":"contingent","relevant_dimensions":["antennae","wings"],"bee_group":{"antennae":"B","wings":"2","pattern":"X","legs":"X"},"action":"harvest","summary":"good-harvest","bonus":0.9400000000000012},{"rt":634.6999999992549,"stimulus":"\n                    <p><b>Action: <em>harvest</em></b></p>\n                    <p>This is the bee that you just saw.</p>\n                    <img src=\"bees-with-color/bee-A1DF.svg\" width=\"200\">\n                    <p><span class=\"greenText\"><b>Successful harvest!</b></span><br>Your pay has increased by $0.02. Your bonus pay is now $0.58.</p>\n            ","response":0,"trial_type":"html-button-response","trial_index":130,"time_elapsed":363169,"internal_node_id":"0.0-4.0-1.61","subject_id":"5f5e7de4c81d3672642cd612","study_id":"6197b3f67c2b5cd3b6d9596a","session_id":"619be321c07d74a31480f338","condition":"contingent","relevant_dimensions":["antennae","wings"],"bee_group":{"antennae":"B","wings":"2","pattern":"X","legs":"X"},"bonus":0.9400000000000012},{"rt":976.1999999992549,"stimulus":"bees-with-color/bee-B1DM.svg","response":0,"trial_type":"image-button-response","trial_index":131,"time_elapsed":364146,"internal_node_id":"0.0-4.0-0.62","subject_id":"5f5e7de4c81d3672642cd612","study_id":"6197b3f67c2b5cd3b6d9596a","session_id":"619be321c07d74a31480f338","condition":"contingent","relevant_dimensions":["antennae","wings"],"bee_group":{"antennae":"B","wings":"2","pattern":"X","legs":"X"},"action":"harvest","summary":"good-harvest","bonus":0.9400000000000012},{"rt":459.40000000037253,"stimulus":"\n                    <p><b>Action: <em>harvest</em></b></p>\n                    <p>This is the bee that you just saw.</p>\n                    <img src=\"bees-with-color/bee-B1DM.svg\" width=\"200\">\n                    <p><span class=\"greenText\"><b>Successful harvest!</b></span><br>Your pay has increased by $0.02. Your bonus pay is now $0.60.</p>\n            ","response":0,"trial_type":"html-button-response","trial_index":132,"time_elapsed":364607,"internal_node_id":"0.0-4.0-1.62","subject_id":"5f5e7de4c81d3672642cd612","study_id":"6197b3f67c2b5cd3b6d9596a","session_id":"619be321c07d74a31480f338","condition":"contingent","relevant_dimensions":["antennae","wings"],"bee_group":{"antennae":"B","wings":"2","pattern":"X","legs":"X"},"bonus":0.9400000000000012},{"rt":950.7000000011176,"stimulus":"bees-with-color/bee-A1DM.svg","response":0,"trial_type":"image-button-response","trial_index":133,"time_elapsed":365558,"internal_node_id":"0.0-4.0-0.63","subject_id":"5f5e7de4c81d3672642cd612","study_id":"6197b3f67c2b5cd3b6d9596a","session_id":"619be321c07d74a31480f338","condition":"contingent","relevant_dimensions":["antennae","wings"],"bee_group":{"antennae":"B","wings":"2","pattern":"X","legs":"X"},"action":"harvest","summary":"good-harvest","bonus":0.9400000000000012},{"rt":698.8000000007451,"stimulus":"\n                    <p><b>Action: <em>harvest</em></b></p>\n                    <p>This is the bee that you just saw.</p>\n                    <img src=\"bees-with-color/bee-A1DM.svg\" width=\"200\">\n                    <p><span class=\"greenText\"><b>Successful harvest!</b></span><br>Your pay has increased by $0.02. Your bonus pay is now $0.62.</p>\n            ","response":0,"trial_type":"html-button-response","trial_index":134,"time_elapsed":366258,"internal_node_id":"0.0-4.0-1.63","subject_id":"5f5e7de4c81d3672642cd612","study_id":"6197b3f67c2b5cd3b6d9596a","session_id":"619be321c07d74a31480f338","condition":"contingent","relevant_dimensions":["antennae","wings"],"bee_group":{"antennae":"B","wings":"2","pattern":"X","legs":"X"},"bonus":0.9400000000000012},{"rt":8199.699999999255,"stimulus":"You have completed the first part of this experiment.<br><br>You will now begin a shorter second part, in which you will receive no feedback.<br>The same rules regarding bonus pay apply.<br><br>Press any key to begin.","response":" ","trial_type":"html-keyboard-response","trial_index":135,"time_elapsed":374459,"internal_node_id":"0.0-5.0","subject_id":"5f5e7de4c81d3672642cd612","study_id":"6197b3f67c2b5cd3b6d9596a","session_id":"619be321c07d74a31480f338","condition":"contingent","relevant_dimensions":["antennae","wings"],"bee_group":{"antennae":"B","wings":"2","pattern":"X","legs":"X"},"bonus":0.9400000000000012},{"rt":1646.9000000003725,"stimulus":"bees-with-color/bee-A1DM.svg","response":0,"trial_type":"image-button-response","trial_index":136,"time_elapsed":376115,"internal_node_id":"0.0-6.0-0.0","subject_id":"5f5e7de4c81d3672642cd612","study_id":"6197b3f67c2b5cd3b6d9596a","session_id":"619be321c07d74a31480f338","condition":"contingent","relevant_dimensions":["antennae","wings"],"bee_group":{"antennae":"B","wings":"2","pattern":"X","legs":"X"},"bonus":0.9400000000000012},{"rt":6135.800000000745,"stimulus":"bees-with-color/bee-A2DF.svg","response":0,"trial_type":"image-button-response","trial_index":137,"time_elapsed":382253,"internal_node_id":"0.0-6.0-0.1","subject_id":"5f5e7de4c81d3672642cd612","study_id":"6197b3f67c2b5cd3b6d9596a","session_id":"619be321c07d74a31480f338","condition":"contingent","relevant_dimensions":["antennae","wings"],"bee_group":{"antennae":"B","wings":"2","pattern":"X","legs":"X"},"bonus":0.9400000000000012},{"rt":1279.2999999988824,"stimulus":"bees-with-color/bee-A1SF.svg","response":0,"trial_type":"image-button-response","trial_index":138,"time_elapsed":383535,"internal_node_id":"0.0-6.0-0.2","subject_id":"5f5e7de4c81d3672642cd612","study_id":"6197b3f67c2b5cd3b6d9596a","session_id":"619be321c07d74a31480f338","condition":"contingent","relevant_dimensions":["antennae","wings"],"bee_group":{"antennae":"B","wings":"2","pattern":"X","legs":"X"},"bonus":0.9400000000000012},{"rt":4961.9000000003725,"stimulus":"bees-with-color/bee-B1DM.svg","response":1,"trial_type":"image-button-response","trial_index":139,"time_elapsed":388499,"internal_node_id":"0.0-6.0-0.3","subject_id":"5f5e7de4c81d3672642cd612","study_id":"6197b3f67c2b5cd3b6d9596a","session_id":"619be321c07d74a31480f338","condition":"contingent","relevant_dimensions":["antennae","wings"],"bee_group":{"antennae":"B","wings":"2","pattern":"X","legs":"X"},"bonus":0.9400000000000012},{"rt":603.3999999985099,"stimulus":"bees-with-color/bee-A2SM.svg","response":1,"trial_type":"image-button-response","trial_index":140,"time_elapsed":389105,"internal_node_id":"0.0-6.0-0.4","subject_id":"5f5e7de4c81d3672642cd612","study_id":"6197b3f67c2b5cd3b6d9596a","session_id":"619be321c07d74a31480f338","condition":"contingent","relevant_dimensions":["antennae","wings"],"bee_group":{"antennae":"B","wings":"2","pattern":"X","legs":"X"},"bonus":0.9400000000000012},{"rt":984,"stimulus":"bees-with-color/bee-B2DM.svg","response":1,"trial_type":"image-button-response","trial_index":141,"time_elapsed":390091,"internal_node_id":"0.0-6.0-0.5","subject_id":"5f5e7de4c81d3672642cd612","study_id":"6197b3f67c2b5cd3b6d9596a","session_id":"619be321c07d74a31480f338","condition":"contingent","relevant_dimensions":["antennae","wings"],"bee_group":{"antennae":"B","wings":"2","pattern":"X","legs":"X"},"bonus":0.9400000000000012},{"rt":1105.7999999988824,"stimulus":"bees-with-color/bee-B2SF.svg","response":1,"trial_type":"image-button-response","trial_index":142,"time_elapsed":391198,"internal_node_id":"0.0-6.0-0.6","subject_id":"5f5e7de4c81d3672642cd612","study_id":"6197b3f67c2b5cd3b6d9596a","session_id":"619be321c07d74a31480f338","condition":"contingent","relevant_dimensions":["antennae","wings"],"bee_group":{"antennae":"B","wings":"2","pattern":"X","legs":"X"},"bonus":0.9400000000000012},{"rt":799.2999999988824,"stimulus":"bees-with-color/bee-B1DF.svg","response":0,"trial_type":"image-button-response","trial_index":143,"time_elapsed":391999,"internal_node_id":"0.0-6.0-0.7","subject_id":"5f5e7de4c81d3672642cd612","study_id":"6197b3f67c2b5cd3b6d9596a","session_id":"619be321c07d74a31480f338","condition":"contingent","relevant_dimensions":["antennae","wings"],"bee_group":{"antennae":"B","wings":"2","pattern":"X","legs":"X"},"bonus":0.9400000000000012},{"rt":1184.199999999255,"stimulus":"bees-with-color/bee-A1SM.svg","response":0,"trial_type":"image-button-response","trial_index":144,"time_elapsed":393186,"internal_node_id":"0.0-6.0-0.8","subject_id":"5f5e7de4c81d3672642cd612","study_id":"6197b3f67c2b5cd3b6d9596a","session_id":"619be321c07d74a31480f338","condition":"contingent","relevant_dimensions":["antennae","wings"],"bee_group":{"antennae":"B","wings":"2","pattern":"X","legs":"X"},"bonus":0.9400000000000012},{"rt":1335.9000000003725,"stimulus":"bees-with-color/bee-B2SM.svg","response":1,"trial_type":"image-button-response","trial_index":145,"time_elapsed":394523,"internal_node_id":"0.0-6.0-0.9","subject_id":"5f5e7de4c81d3672642cd612","study_id":"6197b3f67c2b5cd3b6d9596a","session_id":"619be321c07d74a31480f338","condition":"contingent","relevant_dimensions":["antennae","wings"],"bee_group":{"antennae":"B","wings":"2","pattern":"X","legs":"X"},"bonus":0.9400000000000012},{"rt":1163.5999999996275,"stimulus":"bees-with-color/bee-B1SF.svg","response":0,"trial_type":"image-button-response","trial_index":146,"time_elapsed":395689,"internal_node_id":"0.0-6.0-0.10","subject_id":"5f5e7de4c81d3672642cd612","study_id":"6197b3f67c2b5cd3b6d9596a","session_id":"619be321c07d74a31480f338","condition":"contingent","relevant_dimensions":["antennae","wings"],"bee_group":{"antennae":"B","wings":"2","pattern":"X","legs":"X"},"bonus":0.9400000000000012},{"rt":4975.199999999255,"stimulus":"bees-with-color/bee-A2SF.svg","response":1,"trial_type":"image-button-response","trial_index":147,"time_elapsed":400667,"internal_node_id":"0.0-6.0-0.11","subject_id":"5f5e7de4c81d3672642cd612","study_id":"6197b3f67c2b5cd3b6d9596a","session_id":"619be321c07d74a31480f338","condition":"contingent","relevant_dimensions":["antennae","wings"],"bee_group":{"antennae":"B","wings":"2","pattern":"X","legs":"X"},"bonus":0.9400000000000012},{"rt":1369.699999999255,"stimulus":"bees-with-color/bee-B1SM.svg","response":0,"trial_type":"image-button-response","trial_index":148,"time_elapsed":402039,"internal_node_id":"0.0-6.0-0.12","subject_id":"5f5e7de4c81d3672642cd612","study_id":"6197b3f67c2b5cd3b6d9596a","session_id":"619be321c07d74a31480f338","condition":"contingent","relevant_dimensions":["antennae","wings"],"bee_group":{"antennae":"B","wings":"2","pattern":"X","legs":"X"},"bonus":0.9400000000000012},{"rt":946.2999999988824,"stimulus":"bees-with-color/bee-B2DF.svg","response":1,"trial_type":"image-button-response","trial_index":149,"time_elapsed":402987,"internal_node_id":"0.0-6.0-0.13","subject_id":"5f5e7de4c81d3672642cd612","study_id":"6197b3f67c2b5cd3b6d9596a","session_id":"619be321c07d74a31480f338","condition":"contingent","relevant_dimensions":["antennae","wings"],"bee_group":{"antennae":"B","wings":"2","pattern":"X","legs":"X"},"bonus":0.9400000000000012},{"rt":945.2999999988824,"stimulus":"bees-with-color/bee-A2DM.svg","response":1,"trial_type":"image-button-response","trial_index":150,"time_elapsed":403935,"internal_node_id":"0.0-6.0-0.14","subject_id":"5f5e7de4c81d3672642cd612","study_id":"6197b3f67c2b5cd3b6d9596a","session_id":"619be321c07d74a31480f338","condition":"contingent","relevant_dimensions":["antennae","wings"],"bee_group":{"antennae":"B","wings":"2","pattern":"X","legs":"X"},"bonus":0.9400000000000012},{"rt":865.0999999996275,"stimulus":"bees-with-color/bee-A1DF.svg","response":0,"trial_type":"image-button-response","trial_index":151,"time_elapsed":404802,"internal_node_id":"0.0-6.0-0.15","subject_id":"5f5e7de4c81d3672642cd612","study_id":"6197b3f67c2b5cd3b6d9596a","session_id":"619be321c07d74a31480f338","condition":"contingent","relevant_dimensions":["antennae","wings"],"bee_group":{"antennae":"B","wings":"2","pattern":"X","legs":"X"},"bonus":0.9400000000000012},{"rt":1314.4000000003725,"stimulus":"bees-with-color/bee-B2DF.svg","response":1,"trial_type":"image-button-response","trial_index":152,"time_elapsed":406118,"internal_node_id":"0.0-6.0-0.16","subject_id":"5f5e7de4c81d3672642cd612","study_id":"6197b3f67c2b5cd3b6d9596a","session_id":"619be321c07d74a31480f338","condition":"contingent","relevant_dimensions":["antennae","wings"],"bee_group":{"antennae":"B","wings":"2","pattern":"X","legs":"X"},"bonus":0.9400000000000012},{"rt":2132.9000000003725,"stimulus":"bees-with-color/bee-A2DM.svg","response":1,"trial_type":"image-button-response","trial_index":153,"time_elapsed":408253,"internal_node_id":"0.0-6.0-0.17","subject_id":"5f5e7de4c81d3672642cd612","study_id":"6197b3f67c2b5cd3b6d9596a","session_id":"619be321c07d74a31480f338","condition":"contingent","relevant_dimensions":["antennae","wings"],"bee_group":{"antennae":"B","wings":"2","pattern":"X","legs":"X"},"bonus":0.9400000000000012},{"rt":1150.5,"stimulus":"bees-with-color/bee-A1DM.svg","response":0,"trial_type":"image-button-response","trial_index":154,"time_elapsed":409405,"internal_node_id":"0.0-6.0-0.18","subject_id":"5f5e7de4c81d3672642cd612","study_id":"6197b3f67c2b5cd3b6d9596a","session_id":"619be321c07d74a31480f338","condition":"contingent","relevant_dimensions":["antennae","wings"],"bee_group":{"antennae":"B","wings":"2","pattern":"X","legs":"X"},"bonus":0.9400000000000012},{"rt":700.2000000011176,"stimulus":"bees-with-color/bee-A2SM.svg","response":1,"trial_type":"image-button-response","trial_index":155,"time_elapsed":410107,"internal_node_id":"0.0-6.0-0.19","subject_id":"5f5e7de4c81d3672642cd612","study_id":"6197b3f67c2b5cd3b6d9596a","session_id":"619be321c07d74a31480f338","condition":"contingent","relevant_dimensions":["antennae","wings"],"bee_group":{"antennae":"B","wings":"2","pattern":"X","legs":"X"},"bonus":0.9400000000000012},{"rt":1038.5,"stimulus":"bees-with-color/bee-A2DF.svg","response":1,"trial_type":"image-button-response","trial_index":156,"time_elapsed":411147,"internal_node_id":"0.0-6.0-0.20","subject_id":"5f5e7de4c81d3672642cd612","study_id":"6197b3f67c2b5cd3b6d9596a","session_id":"619be321c07d74a31480f338","condition":"contingent","relevant_dimensions":["antennae","wings"],"bee_group":{"antennae":"B","wings":"2","pattern":"X","legs":"X"},"bonus":0.9400000000000012},{"rt":1045.9000000003725,"stimulus":"bees-with-color/bee-B2DM.svg","response":1,"trial_type":"image-button-response","trial_index":157,"time_elapsed":412194,"internal_node_id":"0.0-6.0-0.21","subject_id":"5f5e7de4c81d3672642cd612","study_id":"6197b3f67c2b5cd3b6d9596a","session_id":"619be321c07d74a31480f338","condition":"contingent","relevant_dimensions":["antennae","wings"],"bee_group":{"antennae":"B","wings":"2","pattern":"X","legs":"X"},"bonus":0.9400000000000012},{"rt":2053.5,"stimulus":"bees-with-color/bee-B1SF.svg","response":0,"trial_type":"image-button-response","trial_index":158,"time_elapsed":414249,"internal_node_id":"0.0-6.0-0.22","subject_id":"5f5e7de4c81d3672642cd612","study_id":"6197b3f67c2b5cd3b6d9596a","session_id":"619be321c07d74a31480f338","condition":"contingent","relevant_dimensions":["antennae","wings"],"bee_group":{"antennae":"B","wings":"2","pattern":"X","legs":"X"},"bonus":0.9400000000000012},{"rt":1034.699999999255,"stimulus":"bees-with-color/bee-B1DF.svg","response":0,"trial_type":"image-button-response","trial_index":159,"time_elapsed":415286,"internal_node_id":"0.0-6.0-0.23","subject_id":"5f5e7de4c81d3672642cd612","study_id":"6197b3f67c2b5cd3b6d9596a","session_id":"619be321c07d74a31480f338","condition":"contingent","relevant_dimensions":["antennae","wings"],"bee_group":{"antennae":"B","wings":"2","pattern":"X","legs":"X"},"bonus":0.9400000000000012},{"rt":1832,"stimulus":"bees-with-color/bee-B2SF.svg","response":1,"trial_type":"image-button-response","trial_index":160,"time_elapsed":417119,"internal_node_id":"0.0-6.0-0.24","subject_id":"5f5e7de4c81d3672642cd612","study_id":"6197b3f67c2b5cd3b6d9596a","session_id":"619be321c07d74a31480f338","condition":"contingent","relevant_dimensions":["antennae","wings"],"bee_group":{"antennae":"B","wings":"2","pattern":"X","legs":"X"},"bonus":0.9400000000000012},{"rt":786.1999999992549,"stimulus":"bees-with-color/bee-B1SM.svg","response":0,"trial_type":"image-button-response