[{"success":true,"trial_type":"fullscreen","trial_index":0,"time_elapsed":642433,"internal_node_id":"0.0-0.0","subject_id":"6112d602d7819e6a35a0c95b","study_id":"6197b3f67c2b5cd3b6d9596a","session_id":"6197b9f1a340ba86976bb6fa","condition":"full-information","relevant_dimensions":["pattern","legs"],"bee_group":{"antennae":"X","wings":"X","pattern":"D","legs":"F"},"bonus":0.5200000000000002},{"success":true,"timeout":false,"failed_images":[],"failed_audio":[],"failed_video":[],"trial_type":"preload","trial_index":1,"time_elapsed":644561,"internal_node_id":"0.0-1.0","subject_id":"6112d602d7819e6a35a0c95b","study_id":"6197b3f67c2b5cd3b6d9596a","session_id":"6197b9f1a340ba86976bb6fa","condition":"full-information","relevant_dimensions":["pattern","legs"],"bee_group":{"antennae":"X","wings":"X","pattern":"D","legs":"F"},"bonus":0.5200000000000002},{"rt":2052.89999999851,"stimulus":"Welcome! Press any key to begin.","response":" ","trial_type":"html-keyboard-response","trial_index":2,"time_elapsed":646614,"internal_node_id":"0.0-2.0","subject_id":"6112d602d7819e6a35a0c95b","study_id":"6197b3f67c2b5cd3b6d9596a","session_id":"6197b9f1a340ba86976bb6fa","condition":"full-information","relevant_dimensions":["pattern","legs"],"bee_group":{"antennae":"X","wings":"X","pattern":"D","legs":"F"},"bonus":0.5200000000000002},{"view_history":[{"page_index":0,"viewing_time":10603.300000000745},{"page_index":1,"viewing_time":16353.699999999255},{"page_index":2,"viewing_time":7221.300000000745},{"page_index":3,"viewing_time":12514.89999999851},{"page_index":4,"viewing_time":10925.800000000745},{"page_index":5,"viewing_time":14972.10000000149},{"page_index":6,"viewing_time":13635.699999999255},{"page_index":7,"viewing_time":3631.300000000745},{"page_index":8,"viewing_time":3888.2999999970198},{"page_index":9,"viewing_time":12268.10000000149},{"page_index":10,"viewing_time":1623.5},{"page_index":11,"viewing_time":50021.199999999255},{"page_index":12,"viewing_time":16978.699999999255},{"page_index":13,"viewing_time":895.9000000022352},{"page_index":14,"viewing_time":2175.199999999255}],"rt":177709.5,"trial_type":"instructions","trial_index":3,"time_elapsed":824325,"internal_node_id":"0.0-3.0-0.0","subject_id":"6112d602d7819e6a35a0c95b","study_id":"6197b3f67c2b5cd3b6d9596a","session_id":"6197b9f1a340ba86976bb6fa","condition":"full-information","relevant_dimensions":["pattern","legs"],"bee_group":{"antennae":"X","wings":"X","pattern":"D","legs":"F"},"bonus":0.5200000000000002},{"rt":13322.099999997765,"response":{"Q0":["Two or six legs","Stripes or spots on body","Single or double wings","Antennae or no antennae"]},"question_order":[0],"trial_type":"survey-multi-select","trial_index":4,"time_elapsed":837650,"internal_node_id":"0.0-3.0-1.0","subject_id":"6112d602d7819e6a35a0c95b","study_id":"6197b3f67c2b5cd3b6d9596a","session_id":"6197b9f1a340ba86976bb6fa","condition":"full-information","relevant_dimensions":["pattern","legs"],"bee_group":{"antennae":"X","wings":"X","pattern":"D","legs":"F"},"correct":true,"bonus":0.5200000000000002},{"rt":16218,"response":{"Q1":"No.","Q2":"Based on the four features of the bee.","Q3":"You learn if it was friendly or dangerous, but do not alter your bonus."},"question_order":[0,1,2],"trial_type":"survey-multi-choice","trial_index":5,"time_elapsed":853869,"internal_node_id":"0.0-3.0-2.0","subject_id":"6112d602d7819e6a35a0c95b","study_id":"6197b3f67c2b5cd3b6d9596a","session_id":"6197b9f1a340ba86976bb6fa","condition":"full-information","relevant_dimensions":["pattern","legs"],"bee_group":{"antennae":"X","wings":"X","pattern":"D","legs":"F"},"correct":true,"bonus":0.5200000000000002},{"rt":1917.7999999970198,"stimulus":"<p>Congrats, you got everything right<br>When you're ready, click the button below to continue to the experiment.</p>","response":0,"trial_type":"html-button-response","trial_index":6,"time_elapsed":855788,"internal_node_id":"0.0-3.0-3.0","subject_id":"6112d602d7819e6a35a0c95b","study_id":"6197b3f67c2b5cd3b6d9596a","session_id":"6197b9f1a340ba86976bb6fa","condition":"full-information","relevant_dimensions":["pattern","legs"],"bee_group":{"antennae":"X","wings":"X","pattern":"D","legs":"F"},"bonus":0.5200000000000002},{"rt":25786,"stimulus":"bees-with-color/bee-A1DM.svg","response":0,"trial_type":"image-button-response","trial_index":7,"time_elapsed":881576,"internal_node_id":"0.0-4.0-0.0","subject_id":"6112d602d7819e6a35a0c95b","study_id":"6197b3f67c2b5cd3b6d9596a","session_id":"6197b9f1a340ba86976bb6fa","condition":"full-information","relevant_dimensions":["pattern","legs"],"bee_group":{"antennae":"X","wings":"X","pattern":"D","legs":"F"},"action":"harvest","summary":"good-harvest","bonus":0.5200000000000002},{"rt":5444.10000000149,"stimulus":"\n                    <p><b>Action: <em>harvest</em></b></p>\n                    <p>This is the bee that you just saw.</p>\n                    <img src=\"bees-with-color/bee-A1DM.svg\" width=\"200\">\n                    <p><span class=\"greenText\"><b>Successful harvest!</b></span><br>Your pay has increased by $0.02. Your bonus pay is now $0.56.</p>\n            ","response":0,"trial_type":"html-button-response","trial_index":8,"time_elapsed":887022,"internal_node_id":"0.0-4.0-1.0","subject_id":"6112d602d7819e6a35a0c95b","study_id":"6197b3f67c2b5cd3b6d9596a","session_id":"6197b9f1a340ba86976bb6fa","condition":"full-information","relevant_dimensions":["pattern","legs"],"bee_group":{"antennae":"X","wings":"X","pattern":"D","legs":"F"},"bonus":0.5200000000000002},{"rt":13523.10000000149,"stimulus":"bees-with-color/bee-B2DM.svg","response":0,"trial_type":"image-button-response","trial_index":9,"time_elapsed":900547,"internal_node_id":"0.0-4.0-0.1","subject_id":"6112d602d7819e6a35a0c95b","study_id":"6197b3f67c2b5cd3b6d9596a","session_id":"6197b9f1a340ba86976bb6fa","condition":"full-information","relevant_dimensions":["pattern","legs"],"bee_group":{"antennae":"X","wings":"X","pattern":"D","legs":"F"},"action":"harvest","summary":"good-harvest","bonus":0.5200000000000002},{"rt":5182,"stimulus":"\n                    <p><b>Action: <em>harvest</em></b></p>\n                    <p>This is the bee that you just saw.</p>\n                    <img src=\"bees-with-color/bee-B2DM.svg\" width=\"200\">\n                    <p><span class=\"greenText\"><b>Successful harvest!</b></span><br>Your pay has increased by $0.02. Your bonus pay is now $0.58.</p>\n            ","response":0,"trial_type":"html-button-response","trial_index":10,"time_elapsed":905730,"internal_node_id":"0.0-4.0-1.1","subject_id":"6112d602d7819e6a35a0c95b","study_id":"6197b3f67c2b5cd3b6d9596a","session_id":"6197b9f1a340ba86976bb6fa","condition":"full-information","relevant_dimensions":["pattern","legs"],"bee_group":{"antennae":"X","wings":"X","pattern":"D","legs":"F"},"bonus":0.5200000000000002},{"rt":65388.300000000745,"stimulus":"bees-with-color/bee-A1SF.svg","response":0,"trial_type":"image-button-response","trial_index":11,"time_elapsed":971119,"internal_node_id":"0.0-4.0-0.2","subject_id":"6112d602d7819e6a35a0c95b","study_id":"6197b3f67c2b5cd3b6d9596a","session_id":"6197b9f1a340ba86976bb6fa","condition":"full-information","relevant_dimensions":["pattern","legs"],"bee_group":{"antennae":"X","wings":"X","pattern":"D","legs":"F"},"action":"harvest","summary":"good-harvest","bonus":0.5200000000000002},{"rt":3526.60000000149,"stimulus":"\n                    <p><b>Action: <em>harvest</em></b></p>\n                    <p>This is the bee that you just saw.</p>\n                    <img src=\"bees-with-color/bee-A1SF.svg\" width=\"200\">\n                    <p><span class=\"greenText\"><b>Successful harvest!</b></span><br>Your pay has increased by $0.02. Your bonus pay is now $0.60.</p>\n            ","response":0,"trial_type":"html-button-response","trial_index":12,"time_elapsed":974647,"internal_node_id":"0.0-4.0-1.2","subject_id":"6112d602d7819e6a35a0c95b","study_id":"6197b3f67c2b5cd3b6d9596a","session_id":"6197b9f1a340ba86976bb6fa","condition":"full-information","relevant_dimensions":["pattern","legs"],"bee_group":{"antennae":"X","wings":"X","pattern":"D","legs":"F"},"bonus":0.5200000000000002},{"rt":17194.699999999255,"stimulus":"bees-with-color/bee-A2SF.svg","response":0,"trial_type":"image-button-response","trial_index":13,"time_elapsed":991843,"internal_node_id":"0.0-4.0-0.3","subject_id":"6112d602d7819e6a35a0c95b","study_id":"6197b3f67c2b5cd3b6d9596a","session_id":"6197b9f1a340ba86976bb6fa","condition":"full-information","relevant_dimensions":["pattern","legs"],"bee_group":{"antennae":"X","wings":"X","pattern":"D","legs":"F"},"action":"harvest","summary":"good-harvest","bonus":0.5200000000000002},{"rt":9485.199999999255,"stimulus":"\n                    <p><b>Action: <em>harvest</em></b></p>\n                    <p>This is the bee that you just saw.</p>\n                    <img src=\"bees-with-color/bee-A2SF.svg\" width=\"200\">\n                    <p><span class=\"greenText\"><b>Successful harvest!</b></span><br>Your pay has increased by $0.02. Your bonus pay is now $0.62.</p>\n            ","response":0,"trial_type":"html-button-response","trial_index":14,"time_elapsed":1001329,"internal_node_id":"0.0-4.0-1.3","subject_id":"6112d602d7819e6a35a0c95b","study_id":"6197b3f67c2b5cd3b6d9596a","session_id":"6197b9f1a340ba86976bb6fa","condition":"full-information","relevant_dimensions":["pattern","legs"],"bee_group":{"antennae":"X","wings":"X","pattern":"D","legs":"F"},"bonus":0.5200000000000002},{"rt":31388.300000000745,"stimulus":"bees-with-color/bee-B1SM.svg","response":0,"trial_type":"image-button-response","trial_index":15,"time_elapsed":1032718,"internal_node_id":"0.0-4.0-0.4","subject_id":"6112d602d7819e6a35a0c95b","study_id":"6197b3f67c2b5cd3b6d9596a","session_id":"6197b9f1a340ba86976bb6fa","condition":"full-information","relevant_dimensions":["pattern","legs"],"bee_group":{"antennae":"X","wings":"X","pattern":"D","legs":"F"},"action":"harvest","summary":"good-harvest","bonus":0.5200000000000002},{"rt":3766.199999999255,"stimulus":"\n                    <p><b>Action: <em>harvest</em></b></p>\n                    <p>This is the bee that you just saw.</p>\n                    <img src=\"bees-with-color/bee-B1SM.svg\" width=\"200\">\n                    <p><span class=\"greenText\"><b>Successful harvest!</b></span><br>Your pay has increased by $0.02. Your bonus pay is now $0.64.</p>\n            ","response":0,"trial_type":"html-button-response","trial_index":16,"time_elapsed":1036485,"internal_node_id":"0.0-4.0-1.4","subject_id":"6112d602d7819e6a35a0c95b","study_id":"6197b3f67c2b5cd3b6d9596a","session_id":"6197b9f1a340ba86976bb6fa","condition":"full-information","relevant_dimensions":["pattern","legs"],"bee_group":{"antennae":"X","wings":"X","pattern":"D","legs":"F"},"bonus":0.5200000000000002},{"rt":20731,"stimulus":"bees-with-color/bee-A2SM.svg","response":0,"trial_type":"image-button-response","trial_index":17,"time_elapsed":1057217,"internal_node_id":"0.0-4.0-0.5","subject_id":"6112d602d7819e6a35a0c95b","study_id":"6197b3f67c2b5cd3b6d9596a","session_id":"6197b9f1a340ba86976bb6fa","condition":"full-information","relevant_dimensions":["pattern","legs"],"bee_group":{"antennae":"X","wings":"X","pattern":"D","legs":"F"},"action":"harvest","summary":"good-harvest","bonus":0.5200000000000002},{"rt":12147,"stimulus":"\n                    <p><b>Action: <em>harvest</em></b></p>\n                    <p>This is the bee that you just saw.</p>\n                    <img src=\"bees-with-color/bee-A2SM.svg\" width=\"200\">\n                    <p><span class=\"greenText\"><b>Successful harvest!</b></span><br>Your pay has increased by $0.02. Your bonus pay is now $0.66.</p>\n            ","response":0,"trial_type":"html-button-response","trial_index":18,"time_elapsed":1069364,"internal_node_id":"0.0-4.0-1.5","subject_id":"6112d602d7819e6a35a0c95b","study_id":"6197b3f67c2b5cd3b6d9596a","session_id":"6197b9f1a340ba86976bb6fa","condition":"full-information","relevant_dimensions":["pattern","legs"],"bee_group":{"antennae":"X","wings":"X","pattern":"D","legs":"F"},"bonus":0.5200000000000002},{"rt":12428.199999999255,"stimulus":"bees-with-color/bee-B1DF.svg","response":0,"trial_type":"image-button-response","trial_index":19,"time_elapsed":1081794,"internal_node_id":"0.0-4.0-0.6","subject_id":"6112d602d7819e6a35a0c95b","study_id":"6197b3f67c2b5cd3b6d9596a","session_id":"6197b9f1a340ba86976bb6fa","condition":"full-information","relevant_dimensions":["pattern","legs"],"bee_group":{"antennae":"X","wings":"X","pattern":"D","legs":"F"},"action":"harvest","summary":"bad-harvest","bonus":0.5200000000000002},{"rt":4773,"stimulus":"\n                    <p><b>Action: <em>harvest</em></b></p>\n                    <p>This is the bee that you just saw.</p>\n                    <img src=\"bees-with-color/bee-B1DF.svg\" width=\"200\">\n                    <p><span class=\"redText\">Bad choice, the bee was angry.</span><br><b>You have been stung!</b><br>Your pay has been decreased by $0.10. Your bonus pay is now $0.56.</p>\n            ","response":0,"trial_type":"html-button-response","trial_index":20,"time_elapsed":1086568,"internal_node_id":"0.0-4.0-1.6","subject_id":"6112d602d7819e6a35a0c95b","study_id":"6197b3f67c2b5cd3b6d9596a","session_id":"6197b9f1a340ba86976bb6fa","condition":"full-information","relevant_dimensions":["pattern","legs"],"bee_group":{"antennae":"X","wings":"X","pattern":"D","legs":"F"},"bonus":0.5200000000000002},{"rt":16881.800000000745,"stimulus":"bees-with-color/bee-A1DF.svg","response":0,"trial_type":"image-button-response","trial_index":21,"time_elapsed":1103451,"internal_node_id":"0.0-4.0-0.7","subject_id":"6112d602d7819e6a35a0c95b","study_id":"6197b3f67c2b5cd3b6d9596a","session_id":"6197b9f1a340ba86976bb6fa","condition":"full-information","relevant_dimensions":["pattern","legs"],"bee_group":{"antennae":"X","wings":"X","pattern":"D","legs":"F"},"action":"harvest","summary":"bad-harvest","bonus":0.5200000000000002},{"rt":4557.300000000745,"stimulus":"\n                    <p><b>Action: <em>harvest</em></b></p>\n                    <p>This is the bee that you just saw.</p>\n                    <img src=\"bees-with-color/bee-A1DF.svg\" width=\"200\">\n                    <p><span class=\"redText\">Bad choice, the bee was angry.</span><br><b>You have been stung!</b><br>Your pay has been decreased by $0.10. Your bonus pay is now $0.46.</p>\n            ","response":0,"trial_type":"html-button-response","trial_index":22,"time_elapsed":1108009,"internal_node_id":"0.0-4.0-1.7","subject_id":"6112d602d7819e6a35a0c95b","study_id":"6197b3f67c2b5cd3b6d9596a","session_id":"6197b9f1a340ba86976bb6fa","condition":"full-information","relevant_dimensions":["pattern","legs"],"bee_group":{"antennae":"X","wings":"X","pattern":"D","legs":"F"},"bonus":0.5200000000000002},{"rt":16464,"stimulus":"bees-with-color/bee-B2SF.svg","response":0,"trial_type":"image-button-response","trial_index":23,"time_elapsed":1124475,"internal_node_id":"0.0-4.0-0.8","subject_id":"6112d602d7819e6a35a0c95b","study_id":"6197b3f67c2b5cd3b6d9596a","session_id":"6197b9f1a340ba86976bb6fa","condition":"full-information","relevant_dimensions":["pattern","legs"],"bee_group":{"antennae":"X","wings":"X","pattern":"D","legs":"F"},"action":"harvest","summary":"good-harvest","bonus":0.5200000000000002},{"rt":40399.900000002235,"stimulus":"\n                    <p><b>Action: <em>harvest</em></b></p>\n                    <p>This is the bee that you just saw.</p>\n                    <img src=\"bees-with-color/bee-B2SF.svg\" width=\"200\">\n                    <p><span class=\"greenText\"><b>Successful harvest!</b></span><br>Your pay has increased by $0.02. Your bonus pay is now $0.48.</p>\n            ","response":0,"trial_type":"html-button-response","trial_index":24,"time_elapsed":1164877,"internal_node_id":"0.0-4.0-1.8","subject_id":"6112d602d7819e6a35a0c95b","study_id":"6197b3f67c2b5cd3b6d9596a","session_id":"6197b9f1a340ba86976bb6fa","condition":"full-information","relevant_dimensions":["pattern","legs"],"bee_group":{"antennae":"X","wings":"X","pattern":"D","legs":"F"},"bonus":0.5200000000000002},{"rt":34112.699999999255,"stimulus":"bees-with-color/bee-A2DM.svg","response":0,"trial_type":"image-button-response","trial_index":25,"time_elapsed":1198991,"internal_node_id":"0.0-4.0-0.9","subject_id":"6112d602d7819e6a35a0c95b","study_id":"6197b3f67c2b5cd3b6d9596a","session_id":"6197b9f1a340ba86976bb6fa","condition":"full-information","relevant_dimensions":["pattern","legs"],"bee_group":{"antennae":"X","wings":"X","pattern":"D","legs":"F"},"action":"harvest","summary":"good-harvest","bonus":0.5200000000000002},{"rt":2013.9000000022352,"stimulus":"\n                    <p><b>Action: <em>harvest</em></b></p>\n                    <p>This is the bee that you just saw.</p>\n                    <img src=\"bees-with-color/bee-A2DM.svg\" width=\"200\">\n                    <p><span class=\"greenText\"><b>Successful harvest!</b></span><br>Your pay has increased by $0.02. Your bonus pay is now $0.50.</p>\n            ","response":0,"trial_type":"html-button-response","trial_index":26,"time_elapsed":1201006,"internal_node_id":"0.0-4.0-1.9","subject_id":"6112d602d7819e6a35a0c95b","study_id":"6197b3f67c2b5cd3b6d9596a","session_id":"6197b9f1a340ba86976bb6fa","condition":"full-information","relevant_dimensions":["pattern","legs"],"bee_group":{"antennae":"X","wings":"X","pattern":"D","legs":"F"},"bonus":0.5200000000000002},{"rt":99869.10000000149,"stimulus":"bees-with-color/bee-B2SM.svg","response":0,"trial_type":"image-button-response","trial_index":27,"time_elapsed":1300877,"internal_node_id":"0.0-4.0-0.10","subject_id":"6112d602d7819e6a35a0c95b","study_id":"6197b3f67c2b5cd3b6d9596a","session_id":"6197b9f1a340ba86976bb6fa","condition":"full-information","relevant_dimensions":["pattern","legs"],"bee_group":{"antennae":"X","wings":"X","pattern":"D","legs":"F"},"action":"harvest","summary":"good-harvest","bonus":0.5200000000000002},{"rt":17167.199999999255,"stimulus":"\n                    <p><b>Action: <em>harvest</em></b></p>\n                    <p>This is the bee that you just saw.</p>\n                    <img src=\"bees-with-color/bee-B2SM.svg\" width=\"200\">\n                    <p><span class=\"greenText\"><b>Successful harvest!</b></span><br>Your pay has increased by $0.02. Your bonus pay is now $0.52.</p>\n            ","response":0,"trial_type":"html-button-response","trial_index":28,"time_elapsed":1318045,"internal_node_id":"0.0-4.0-1.10","subject_id":"6112d602d7819e6a35a0c95b","study_id":"6197b3f67c2b5cd3b6d9596a","session_id":"6197b9f1a340ba86976bb6fa","condition":"full-information","relevant_dimensions":["pattern","legs"],"bee_group":{"antennae":"X","wings":"X","pattern":"D","legs":"F"},"bonus":0.5200000000000002},{"rt":111474.09999999776,"stimulus":"bees-with-color/bee-B1SF.svg","response":1,"trial_type":"image-button-response","trial_index":29,"time_elapsed":1429521,"internal_node_id":"0.0-4.0-0.11","subject_id":"6112d602d7819e6a35a0c95b","study_id":"6197b3f67c2b5cd3b6d9596a","session_id":"6197b9f1a340ba86976bb6fa","condition":"full-information","relevant_dimensions":["pattern","legs"],"bee_group":{"antennae":"X","wings":"X","pattern":"D","legs":"F"},"action":"avoid","summary":"bad-avoid","bonus":0.5200000000000002},{"rt":23762.300000000745,"stimulus":"\n                    <p><b>Action: <em>avoid</em></b></p>\n                    <p>This is the bee that you just saw.</p>\n                    <img src=\"bees-with-color/bee-B1SF.svg\" width=\"200\">\n                    <p><span class=\"redText\">Bad choice,</span> the bee was friendly.<br>Your bonus pay is unchanged, and remains at $0.52.</p>\n            ","response":0,"trial_type":"html-button-response","trial_index":30,"time_elapsed":1453284,"internal_node_id":"0.0-4.0-1.11","subject_id":"6112d602d7819e6a35a0c95b","study_id":"6197b3f67c2b5cd3b6d9596a","session_id":"6197b9f1a340ba86976bb6fa","condition":"full-information","relevant_dimensions":["pattern","legs"],"bee_group":{"antennae":"X","wings":"X","pattern":"D","legs":"F"},"bonus":0.5200000000000002},{"rt":62987.599999997765,"stimulus":"bees-with-color/bee-A1SM.svg","response":1,"trial_type":"image-button-response","trial_index":31,"time_elapsed":1516272,"internal_node_id":"0.0-4.0-0.12","subject_id":"6112d602d7819e6a35a0c95b","study_id":"6197b3f67c2b5cd3b6d9596a","session_id":"6197b9f1a340ba86976bb6fa","condition":"full-information","relevant_dimensions":["pattern","legs"],"bee_group":{"antennae":"X","wings":"X","pattern":"D","legs":"F"},"action":"avoid","summary":"bad-avoid","bonus":0.5200000000000002},{"rt":1413.5,"stimulus":"\n                    <p><b>Action: <em>avoid</em></b></p>\n                    <p>This is the bee that you just saw.</p>\n                    <img src=\"bees-with-color/bee-A1SM.svg\" width=\"200\">\n                    <p><span class=\"redText\">Bad choice,</span> the bee was friendly.<br>Your bonus pay is unchanged, and remains at $0.52.</p>\n            ","response":0,"trial_type":"html-button-response","trial_index":32,"time_elapsed":1517687,"internal_node_id":"0.0-4.0-1.12","subject_id":"6112d602d7819e6a35a0c95b","study_id":"6197b3f67c2b5cd3b6d9596a","session_id":"6197b9f1a340ba86976bb6fa","condition":"full-information","relevant_dimensions":["pattern","legs"],"bee_group":{"antennae":"X","wings":"X","pattern":"D","legs":"F"},"bonus":0.5200000000000002},{"rt":399.1000000014901,"stimulus":"bees-with-color/bee-A2DF.svg","response":1,"trial_type":"image-button-response","trial_index":33,"time_elapsed":1518087,"internal_node_id":"0.0-4.0-0.13","subject_id":"6112d602d7819e6a35a0c95b","study_id":"6197b3f67c2b5cd3b6d9596a","session_id":"6197b9f1a340ba86976bb6fa","condition":"full-information","relevant_dimensions":["pattern","legs"],"bee_group":{"antennae":"X","wings":"X","pattern":"D","legs":"F"},"action":"avoid","summary":"good-avoid","bonus":0.5200000000000002},{"rt":454.20000000298023,"stimulus":"\n                    <p><b>Action: <em>avoid</em></b></p>\n                    <p>This is the bee that you just saw.</p>\n                    <img src=\"bees-with-color/bee-A2DF.svg\" width=\"200\">\n                    <p><span class=\"greenText\">Good choice!</span>  This bee would have stung you.<br>Your bonus pay is unchanged, and remains at $0.52.</p>\n            ","response":0,"trial_type":"html-button-response","trial_index":34,"time_elapsed":1518543,"internal_node_id":"0.0-4.0-1.13","subject_id":"6112d602d7819e6a35a0c95b","study_id":"6197b3f67c2b5cd3b6d9596a","session_id":"6197b9f1a340ba86976bb6fa","condition":"full-information","relevant_dimensions":["pattern","legs"],"bee_group":{"antennae":"X","wings":"X","pattern":"D","legs":"F"},"bonus":0.5200000000000002},{"rt":432,"stimulus":"bees-with-color/bee-B2DF.svg","response":1,"trial_type":"image-button-response","trial_index":35,"time_elapsed":1518975,"internal_node_id":"0.0-4.0-0.14","subject_id":"6112d602d7819e6a35a0c95b","study_id":"6197b3f67c2b5cd3b6d9596a","session_id":"6197b9f1a340ba86976bb6fa","condition":"full-information","relevant_dimensions":["pattern","legs"],"bee_group":{"antennae":"X","wings":"X","pattern":"D","legs":"F"},"action":"avoid","summary":"good-avoid","bonus":0.5200000000000002},{"rt":462.69999999925494,"stimulus":"\n                    <p><b>Action: <em>avoid</em></b></p>\n                    <p>This is the bee that you just saw.</p>\n                    <img src=\"bees-with-color/bee-B2DF.svg\" width=\"200\">\n                    <p><span class=\"greenText\">Good choice!</span>  This bee would have stung you.<br>Your bonus pay is unchanged, and remains at $0.52.</p>\n            ","response":0,"trial_type":"html-button-response","trial_index":36,"time_elapsed":1519439,"internal_node_id":"0.0-4.0-1.14","subject_id":"6112d602d7819e6a35a0c95b","study_id":"6197b3f67c2b5cd3b6d9596a","session_id":"6197b9f1a340ba86976bb6fa","condition":"full-information","relevant_dimensions":["pattern","legs"],"bee_group":{"antennae":"X","wings":"X","pattern":"D","legs":"F"},"bonus":0.5200000000000002},{"rt":383.30000000074506,"stimulus":"bees-with-color/bee-B1DM.svg","response":1,"trial_type":"image-button-response","trial_index":37,"time_elapsed":1519823,"internal_node_id":"0.0-4.0-0.15","subject_id":"6112d602d7819e6a35a0c95b","study_id":"6197b3f67c2b5cd3b6d9596a","session_id":"6197b9f1a340ba86976bb6fa","condition":"full-information","relevant_dimensions":["pattern","legs"],"bee_group":{"antennae":"X","wings":"X","pattern":"D","legs":"F"},"action":"avoid","summary":"bad-avoid","bonus":0.5200000000000002},{"rt":470.79999999701977,"stimulus":"\n                    <p><b>Action: <em>avoid</em></b></p>\n                    <p>This is the bee that you just saw.</p>\n                    <img src=\"bees-with-color/bee-B1DM.svg\" width=\"200\">\n                    <p><span class=\"redText\">Bad choice,</span> the bee was friendly.<br>Your bonus pay is unchanged, and remains at $0.52.</p>\n            ","response":0,"trial_type":"html-button-response","trial_index":38,"time_elapsed":1520295,"internal_node_id":"0.0-4.0-1.15","subject_id":"6112d602d7819e6a35a0c95b","study_id":"6197b3f67c2b5cd3b6d9596a","session_id":"6197b9f1a340ba86976bb6fa","condition":"full-information","relevant_dimensions":["pattern","legs"],"bee_group":{"antennae":"X","wings":"X","pattern":"D","legs":"F"},"bonus":0.5200000000000002},{"rt":406.30000000074506,"stimulus":"bees-with-color/bee-A2DM.svg","response":1,"trial_type":"image-button-response","trial_index":39,"time_elapsed":1520702,"internal_node_id":"0.0-4.0-0.16","subject_id":"6112d602d7819e6a35a0c95b","study_id":"6197b3f67c2b5cd3b6d9596a","session_id":"6197b9f1a340ba86976bb6fa","condition":"full-information","relevant_dimensions":["pattern","legs"],"bee_group":{"antennae":"X","wings":"X","pattern":"D","legs":"F"},"action":"avoid","summary":"bad-avoid","bonus":0.5200000000000002},{"rt":423.5,"stimulus":"\n                    <p><b>Action: <em>avoid</em></b></p>\n                    <p>This is the bee that you just saw.</p>\n                    <img src=\"bees-with-color/bee-A2DM.svg\" width=\"200\">\n                    <p><span class=\"redText\">Bad choice,</span> the bee was friendly.<br>Your bonus pay is unchanged, and remains at $0.52.</p>\n            ","response":0,"trial_type":"html-button-response","trial_index":40,"time_elapsed":1521126,"internal_node_id":"0.0-4.0-1.16","subject_id":"6112d602d7819e6a35a0c95b","study_id":"6197b3f67c2b5cd3b6d9596a","session_id":"6197b9f1a340ba86976bb6fa","condition":"full-information","relevant_dimensions":["pattern","legs"],"bee_group":{"antennae":"X","wings":"X","pattern":"D","legs":"F"},"bonus":0.5200000000000002},{"rt":366.8999999985099,"stimulus":"bees-with-color/bee-A1DM.svg","response":1,"trial_type":"image-button-response","trial_index":41,"time_elapsed":1521494,"internal_node_id":"0.0-4.0-0.17","subject_id":"6112d602d7819e6a35a0c95b","study_id":"6197b3f67c2b5cd3b6d9596a","session_id":"6197b9f1a340ba86976bb6fa","condition":"full-information","relevant_dimensions":["pattern","legs"],"bee_group":{"antennae":"X","wings":"X","pattern":"D","legs":"F"},"action":"avoid","summary":"bad-avoid","bonus":0.5200000000000002},{"rt":383.5,"stimulus":"\n                    <p><b>Action: <em>avoid</em></b></p>\n                    <p>This is the bee that you just saw.</p>\n                    <img src=\"bees-with-color/bee-A1DM.svg\" width=\"200\">\n                    <p><span class=\"redText\">Bad choice,</span> the bee was friendly.<br>Your bonus pay is unchanged, and remains at $0.52.</p>\n            ","response":0,"trial_type":"html-button-response","trial_index":42,"time_elapsed":1521878,"internal_node_id":"0.0-4.0-1.17","subject_id":"6112d602d7819e6a35a0c95b","study_id":"6197b3f67c2b5cd3b6d9596a","session_id":"6197b9f1a340ba86976bb6fa","condition":"full-information","relevant_dimensions":["pattern","legs"],"bee_group":{"antennae":"X","wings":"X","pattern":"D","legs":"F"},"bonus":0.5200000000000002},{"rt":319.0999999977648,"stimulus":"bees-with-color/bee-B2DM.svg","response":1,"trial_type":"image-button-response","trial_index":43,"time_elapsed":1522198,"internal_node_id":"0.0-4.0-0.18","subject_id":"6112d602d7819e6a35a0c95b","study_id":"6197b3f67c2b5cd3b6d9596a","session_id":"6197b9f1a340ba86976bb6fa","condition":"full-information","relevant_dimensions":["pattern","legs"],"bee_group":{"antennae":"X","wings":"X","pattern":"D","legs":"F"},"action":"avoid","summary":"bad-avoid","bonus":0.5200000000000002},{"rt":407.4000000022352,"stimulus":"\n                    <p><b>Action: <em>avoid</em></b></p>\n                    <p>This is the bee that you just saw.</p>\n                    <img src=\"bees-with-color/bee-B2DM.svg\" width=\"200\">\n                    <p><span class=\"redText\">Bad choice,</span> the bee was friendly.<br>Your bonus pay is unchanged, and remains at $0.52.</p>\n            ","response":0,"trial_type":"html-button-response","trial_index":44,"time_elapsed":1522606,"internal_node_id":"0.0-4.0-1.18","subject_id":"6112d602d7819e6a35a0c95b","study_id":"6197b3f67c2b5cd3b6d9596a","session_id":"6197b9f1a340ba86976bb6fa","condition":"full-information","relevant_dimensions":["pattern","legs"],"bee_group":{"antennae":"X","wings":"X","pattern":"D","legs":"F"},"bonus":0.5200000000000002},{"rt":343,"stimulus":"bees-with-color/bee-A2DF.svg","response":1,"trial_type":"image-button-response","trial_index":45,"time_elapsed":1522950,"internal_node_id":"0.0-4.0-0.19","subject_id":"6112d602d7819e6a35a0c95b","study_id":"6197b3f67c2b5cd3b6d9596a","session_id":"6197b9f1a340ba86976bb6fa","condition":"full-information","relevant_dimensions":["pattern","legs"],"bee_group":{"antennae":"X","wings":"X","pattern":"D","legs":"F"},"action":"avoid","summary":"good-avoid","bonus":0.5200000000000002},{"rt":407.19999999925494,"stimulus":"\n                    <p><b>Action: <em>avoid</em></b></p>\n                    <p>This is the bee that you just saw.</p>\n                    <img src=\"bees-with-color/bee-A2DF.svg\" width=\"200\">\n                    <p><span class=\"greenText\">Good choice!</span>  This bee would have stung you.<br>Your bonus pay is unchanged, and remains at $0.52.</p>\n            ","response":0,"trial_type":"html-button-response","trial_index":46,"time_elapsed":1523358,"internal_node_id":"0.0-4.0-1.19","subject_id":"6112d602d7819e6a35a0c95b","study_id":"6197b3f67c2b5cd3b6d9596a","session_id":"6197b9f1a340ba86976bb6fa","condition":"full-information","relevant_dimensions":["pattern","legs"],"bee_group":{"antennae":"X","wings":"X","pattern":"D","legs":"F"},"bonus":0.5200000000000002},{"rt":334.80000000074506,"stimulus":"bees-with-color/bee-A2SM.svg","response":1,"trial_type":"image-button-response","trial_index":47,"time_elapsed":1523694,"internal_node_id":"0.0-4.0-0.20","subject_id":"6112d602d7819e6a35a0c95b","study_id":"6197b3f67c2b5cd3b6d9596a","session_id":"6197b9f1a340ba86976bb6fa","condition":"full-information","relevant_dimensions":["pattern","legs"],"bee_group":{"antennae":"X","wings":"X","pattern":"D","legs":"F"},"action":"avoid","summary":"bad-avoid","bonus":0.5200000000000002},{"rt":367.4000000022352,"stimulus":"\n                    <p><b>Action: <em>avoid</em></b></p>\n                    <p>This is the bee that you just saw.</p>\n                    <img src=\"bees-with-color/bee-A2SM.svg\" width=\"200\">\n                    <p><span class=\"redText\">Bad choice,</span> the bee was friendly.<br>Your bonus pay is unchanged, and remains at $0.52.</p>\n            ","response":0,"trial_type":"html-button-response","trial_index":48,"time_elapsed":1524062,"internal_node_id":"0.0-4.0-1.20","subject_id":"6112d602d7819e6a35a0c95b","study_id":"6197b3f67c2b5cd3b6d9596a","session_id":"6197b9f1a340ba86976bb6fa","condition":"full-information","relevant_dimensions":["pattern","legs"],"bee_group":{"antennae":"X","wings":"X","pattern":"D","legs":"F"},"bonus":0.5200000000000002},{"rt":311.5,"stimulus":"bees-with-color/bee-A1DF.svg","response":1,"trial_type":"image-button-response","trial_index":49,"time_elapsed":1524374,"internal_node_id":"0.0-4.0-0.21","subject_id":"6112d602d7819e6a35a0c95b","study_id":"6197b3f67c2b5cd3b6d9596a","session_id":"6197b9f1a340ba86976bb6fa","condition":"full-information","relevant_dimensions":["pattern","legs"],"bee_group":{"antennae":"X","wings":"X","pattern":"D","legs":"F"},"action":"avoid","summary":"good-avoid","bonus":0.5200000000000002},{"rt":341.30000000074506,"stimulus":"\n                    <p><b>Action: <em>avoid</em></b></p>\n                    <p>This is the bee that you just saw.</p>\n                    <img src=\"bees-with-color/bee-A1DF.svg\" width=\"200\">\n                    <p><span class=\"greenText\">Good choice!</span>  This bee would have stung you.<br>Your bonus pay is unchanged, and remains at $0.52.</p>\n            ","response":0,"trial_type":"html-button-response","trial_index":50,"time_elapsed":1524717,"internal_node_id":"0.0-4.0-1.21","subject_id":"6112d602d7819e6a35a0c95b","study_id":"6197b3f67c2b5cd3b6d9596a","session_id":"6197b9f1a340ba86976bb6fa","condition":"full-information","relevant_dimensions":["pattern","legs"],"bee_group":{"antennae":"X","wings":"X","pattern":"D","legs":"F"},"bonus":0.5200000000000002},{"rt":319.3999999985099,"stimulus":"bees-with-color/bee-B2SF.svg","response":1,"trial_type":"image-button-response","trial_index":51,"time_elapsed":1525037,"internal_node_id":"0.0-4.0-0.22","subject_id":"6112d602d7819e6a35a0c95b","study_id":"6197b3f67c2b5cd3b6d9596a","session_id":"6197b9f1a340ba86976bb6fa","condition":"full-information","relevant_dimensions":["pattern","legs"],"bee_group":{"antennae":"X","wings":"X","pattern":"D","legs":"F"},"action":"avoid","summary":"bad-avoid","bonus":0.5200000000000002},{"rt":374.8999999985099,"stimulus":"\n                    <p><b>Action: <em>avoid</em></b></p>\n                    <p>This is the bee that you just saw.</p>\n                    <img src=\"bees-with-color/bee-B2SF.svg\" width=\"200\">\n                    <p><span class=\"redText\">Bad choice,</span> the bee was friendly.<br>Your bonus pay is unchanged, and remains at $0.52.</p>\n            ","response":0,"trial_type":"html-button-response","trial_index":52,"time_elapsed":1525413,"internal_node_id":"0.0-4.0-1.22","subject_id":"6112d602d7819e6a35a0c95b","study_id":"6197b3f67c2b5cd3b6d9596a","session_id":"6197b9f1a340ba86976bb6fa","condition":"full-information","relevant_dimensions":["pattern","legs"],"bee_group":{"antennae":"X","wings":"X","pattern":"D","legs":"F"},"bonus":0.5200000000000002},{"rt":335.19999999925494,"stimulus":"bees-with-color/bee-B1SF.svg","response":1,"trial_type":"image-button-response","trial_index":53,"time_elapsed":1525749,"internal_node_id":"0.0-4.0-0.23","subject_id":"6112d602d7819e6a35a0c95b","study_id":"6197b3f67c2b5cd3b6d9596a","session_id":"6197b9f1a340ba86976bb6fa","condition":"full-information","relevant_dimensions":["pattern","legs"],"bee_group":{"antennae":"X","wings":"X","pattern":"D","legs":"F"},"action":"avoid","summary":"bad-avoid","bonus":0.5200000000000002},{"rt":390.8999999985099,"stimulus":"\n                    <p><b>Action: <em>avoid</em></b></p>\n                    <p>This is the bee that you just saw.</p>\n                    <img src=\"bees-with-color/bee-B1SF.svg\" width=\"200\">\n                    <p><span class=\"redText\">Bad choice,</span> the bee was friendly.<br>Your bonus pay is unchanged, and remains at $0.52.</p>\n            ","response":0,"trial_type":"html-button-response","trial_index":54,"time_elapsed":1526141,"internal_node_id":"0.0-4.0-1.23","subject_id":"6112d602d7819e6a35a0c95b","study_id":"6197b3f67c2b5cd3b6d9596a","session_id":"6197b9f1a340ba86976bb6fa","condition":"full-information","relevant_dimensions":["pattern","legs"],"bee_group":{"antennae":"X","wings":"X","pattern":"D","legs":"F"},"bonus":0.5200000000000002},{"rt":335.5,"stimulus":"bees-with-color/bee-A1SF.svg","response":1,"trial_type":"image-button-response","trial_index":55,"time_elapsed":1526477,"internal_node_id":"0.0-4.0-0.24","subject_id":"6112d602d7819e6a35a0c95b","study_id":"6197b3f67c2b5cd3b6d9596a","session_id":"6197b9f1a340ba86976bb6fa","condition":"full-information","relevant_dimensions":["pattern","legs"],"bee_group":{"antennae":"X","wings":"X","pattern":"D","legs":"F"},"action":"avoid","summary":"bad-avoid","bonus":0.5200000000000002},{"rt":479.0999999977648,"stimulus":"\n                    <p><b>Action: <em>avoid</em></b></p>\n                    <p>This is the bee that you just saw.</p>\n                    <img src=\"bees-with-color/bee-A1SF.svg\" width=\"200\">\n                    <p><span class=\"redText\">Bad choice,</span> the bee was friendly.<br>Your bonus pay is unchanged, and remains at $0.52.</p>\n            ","response":0,"trial_type":"html-button-response","trial_index":56,"time_elapsed":1526957,"internal_node_id":"0.0-4.0-1.24","subject_id":"6112d602d7819e6a35a0c95b","study_id":"6197b3f67c2b5cd3b6d9596a","session_id":"6197b9f1a340ba86976bb6fa","condition":"full-information","relevant_dimensions":["pattern","legs"],"bee_group":{"antennae":"X","wings":"X","pattern":"D","legs":"F"},"bonus":0.5200000000000002},{"rt":326.8999999985099,"stimulus":"bees-with-color/bee-B2DF.svg","response":1,"trial_type":"image-button-response","trial_index":57,"time_elapsed":1527285,"internal_node_id":"0.0-4.0-0.25","subject_id":"6112d602d7819e6a35a0c95b","study_id":"6197b3f67c2b5cd3b6d9596a","session_id":"6197b9f1a340ba86976bb6fa","condition":"full-information","relevant_dimensions":["pattern","legs"],"bee_group":{"antennae":"X","wings":"X","pattern":"D","legs":"F"},"action":"avoid","summary":"good-avoid","bonus":0.5200000000000002},{"rt":423,"stimulus":"\n                    <p><b>Action: <em>avoid</em></b></p>\n                    <p>This is the bee that you just saw.</p>\n                    <img src=\"bees-with-color/bee-B2DF.svg\" width=\"200\">\n                    <p><span class=\"greenText\">Good choice!</span>  This bee would have stung you.<br>Your bonus pay is unchanged, and remains at $0.52.</p>\n            ","response":0,"trial_type":"html-button-response","trial_index":58,"time_elapsed":1527709,"internal_node_id":"0.0-4.0-1.25","subject_id":"6112d602d7819e6a35a0c95b","study_id":"6197b3f67c2b5cd3b6d9596a","session_id":"6197b9f1a340ba86976bb6fa","condition":"full-information","relevant_dimensions":["pattern","legs"],"bee_group":{"antennae":"X","wings":"X","pattern":"D","legs":"F"},"bonus":0.5200000000000002},{"rt":431.4000000022352,"stimulus":"bees-with-color/bee-B1SM.svg","response":1,"trial_type":"image-button-response","trial_index":59,"time_elapsed":1528141,"internal_node_id":"0.0-4.0-0.26","subject_id":"6112d602d7819e6a35a0c95b","study_id":"6197b3f67c2b5cd3b6d9596a","session_id":"6197b9f1a340ba86976bb6fa","condition":"full-information","relevant_dimensions":["pattern","legs"],"bee_group":{"antennae":"X","wings":"X","pattern":"D","legs":"F"},"action":"avoid","summary":"bad-avoid","bonus":0.5200000000000002},{"rt":373.8999999985099,"stimulus":"\n                    <p><b>Action: <em>avoid</em></b></p>\n                    <p>This is the bee that you just saw.</p>\n                    <img src=\"bees-with-color/bee-B1SM.svg\" width=\"200\">\n                    <p><span class=\"redText\">Bad choice,</span> the bee was friendly.<br>Your bonus pay is unchanged, and remains at $0.52.</p>\n            ","response":0,"trial_type":"html-button-response","trial_index":60,"time_elapsed":1528516,"internal_node_id":"0.0-4.0-1.26","subject_id":"6112d602d7819e6a35a0c95b","study_id":"6197b3f67c2b5cd3b6d9596a","session_id":"6197b9f1a340ba86976bb6fa","condition":"full-information","relevant_dimensions":["pattern","legs"],"bee_group":{"antennae":"X","wings":"X","pattern":"D","legs":"F"},"bonus":0.5200000000000002},{"rt":383.19999999925494,"stimulus":"bees-with-color/bee-A1SM.svg","response":1,"trial_type":"image-button-response","trial_index":61,"time_elapsed":1528900,"internal_node_id":"0.0-4.0-0.27","subject_id":"6112d602d7819e6a35a0c95b","study_id":"6197b3f67c2b5cd3b6d9596a","session_id":"6197b9f1a340ba86976bb6fa","condition":"full-information","relevant_dimensions":["pattern","legs"],"bee_group":{"antennae":"X","wings":"X","pattern":"D","legs":"F"},"action":"avoid","summary":"bad-avoid","bonus":0.5200000000000002},{"rt":999.1999999992549,"stimulus":"\n                    <p><b>Action: <em>avoid</em></b></p>\n                    <p>This is the bee that you just saw.</p>\n                    <img src=\"bees-with-color/bee-A1SM.svg\" width=\"200\">\n                    <p><span class=\"redText\">Bad choice,</span> the bee was friendly.<br>Your bonus pay is unchanged, and remains at $0.52.</p>\n            ","response":0,"trial_type":"html-button-response","trial_index":62,"time_elapsed":1529900,"internal_node_id":"0.0-4.0-1.27","subject_id":"6112d602d7819e6a35a0c95b","study_id":"6197b3f67c2b5cd3b6d9596a","session_id":"6197b9f1a340ba86976bb6fa","condition":"full-information","relevant_dimensions":["pattern","legs"],"bee_group":{"antennae":"X","wings":"X","pattern":"D","legs":"F"},"bonus":0.5200000000000002},{"rt":407.69999999925494,"stimulus":"bees-with-color/bee-B1DM.svg","response":1,"trial_type":"image-button-response","trial_index":63,"time_elapsed":1530308,"internal_node_id":"0.0-4.0-0.28","subject_id":"6112d602d7819e6a35a0c95b","study_id":"6197b3f67c2b5cd3b6d9596a","session_id":"6197b9f1a340ba86976bb6fa","condition":"full-information","relevant_dimensions":["pattern","legs"],"bee_group":{"antennae":"X","wings":"X","pattern":"D","legs":"F"},"action":"avoid","summary":"bad-avoid","bonus":0.5200000000000002},{"rt":423.4000000022352,"stimulus":"\n                    <p><b>Action: <em>avoid</em></b></p>\n                    <p>This is the bee that you just saw.</p>\n                    <img src=\"bees-with-color/bee-B1DM.svg\" width=\"200\">\n                    <p><span class=\"redText\">Bad choice,</span> the bee was friendly.<br>Your bonus pay is unchanged, and remains at $0.52.</p>\n            ","response":0,"trial_type":"html-button-response","trial_index":64,"time_elapsed":1530732,"internal_node_id":"0.0-4.0-1.28","subject_id":"6112d602d7819e6a35a0c95b","study_id":"6197b3f67c2b5cd3b6d9596a","session_id":"6197b9f1a340ba86976bb6fa","condition":"full-information","relevant_dimensions":["pattern","legs"],"bee_group":{"antennae":"X","wings":"X","pattern":"D","legs":"F"},"bonus":0.5200000000000002},{"rt":334.8999999985099,"stimulus":"bees-with-color/bee-B1DF.svg","response":1,"trial_type":"image-button-response","trial_index":65,"time_elapsed":1531068,"internal_node_id":"0.0-4.0-0.29","subject_id":"6112d602d7819e6a35a0c95b","study_id":"6197b3f67c2b5cd3b6d9596a","session_id":"6197b9f1a340ba86976bb6fa","condition":"full-information","relevant_dimensions":["pattern","legs"],"bee_group":{"antennae":"X","wings":"X","pattern":"D","legs":"F"},"action":"avoid","summary":"good-avoid","bonus":0.5200000000000002},{"rt":367.19999999925494,"stimulus":"\n                    <p><b>Action: <em>avoid</em></b></p>\n                    <p>This is the bee that you just saw.</p>\n                    <img src=\"bees-with-color/bee-B1DF.svg\" width=\"200\">\n                    <p><span class=\"greenText\">Good choice!</span>  This bee would have stung you.<br>Your bonus pay is unchanged, and remains at $0.52.</p>\n            ","response":0,"trial_type":"html-button-response","trial_index":66,"time_elapsed":1531436,"internal_node_id":"0.0-4.0-1.29","subject_id":"6112d602d7819e6a35a0c95b","study_id":"6197b3f67c2b5cd3b6d9596a","session_id":"6197b9f1a340ba86976bb6fa","condition":"full-information","relevant_dimensions":["pattern","legs"],"bee_group":{"antennae":"X","wings":"X","pattern":"D","legs":"F"},"bonus":0.5200000000000002},{"rt":359.3999999985099,"stimulus":"bees-with-color/bee-B2SM.svg","response":1,"trial_type":"image-button-response","trial_index":67,"time_elapsed":1531796,"internal_node_id":"0.0-4.0-0.30","subject_id":"6112d602d7819e6a35a0c95b","study_id":"6197b3f67c2b5cd3b6d9596a","session_id":"6197b9f1a340ba86976bb6fa","condition":"full-information","relevant_dimensions":["pattern","legs"],"bee_group":{"antennae":"X","wings":"X","pattern":"D","legs":"F"},"action":"avoid","summary":"bad-avoid","bonus":0.5200000000000002},{"rt":766.3000000007451,"stimulus":"\n                    <p><b>Action: <em>avoid</em></b></p>\n                    <p>This is the bee that you just saw.</p>\n                    <img src=\"bees-with-color/bee-B2SM.svg\" width=\"200\">\n                    <p><span class=\"redText\">Bad choice,</span> the bee was friendly.<br>Your bonus pay is unchanged, and remains at $0.52.</p>\n            ","response":0,"trial_type":"html-button-response","trial_index":68,"time_elapsed":1532563,"internal_node_id":"0.0-4.0-1.30","subject_id":"6112d602d7819e6a35a0c95b","study_id":"6197b3f67c2b5cd3b6d9596a","session_id":"6197b9f1a340ba86976bb6fa","condition":"full-information","relevant_dimensions":["pattern","legs"],"bee_group":{"antennae":"X","wings":"X","pattern":"D","legs":"F"},"bonus":0.5200000000000002},{"rt":287.19999999925494,"stimulus":"bees-with-color/bee-A2SF.svg","response":1,"trial_type":"image-button-response","trial_index":69,"time_elapsed":1532851,"internal_node_id":"0.0-4.0-0.31","subject_id":"6112d602d7819e6a35a0c95b","study_id":"6197b3f67c2b5cd3b6d9596a","session_id":"6197b9f1a340ba86976bb6fa","condition":"full-information","relevant_dimensions":["pattern","legs"],"bee_group":{"antennae":"X","wings":"X","pattern":"D","legs":"F"},"action":"avoid","summary":"bad-avoid","bonus":0.5200000000000002},{"rt":359.19999999925494,"stimulus":"\n                    <p><b>Action: <em>avoid</em></b></p>\n                    <p>This is the bee that you just saw.</p>\n                    <img src=\"bees-with-color/bee-A2SF.svg\" width=\"200\">\n                    <p><span class=\"redText\">Bad choice,</span> the bee was friendly.<br>Your bonus pay is unchanged, and remains at $0.52.</p>\n            ","response":0,"trial_type":"html-button-response","trial_index":70,"time_elapsed":1533211,"internal_node_id":"0.0-4.0-1.31","subject_id":"6112d602d7819e6a35a0c95b","study_id":"6197b3f67c2b5cd3b6d9596a","session_id":"6197b9f1a340ba86976bb6fa","condition":"full-information","relevant_dimensions":["pattern","legs"],"bee_group":{"antennae":"X","wings":"X","pattern":"D","legs":"F"},"bonus":0.5200000000000002},{"rt":327.3999999985099,"stimulus":"bees-with-color/bee-B1DM.svg","response":1,"trial_type":"image-button-response","trial_index":71,"time_elapsed":1533539,"internal_node_id":"0.0-4.0-0.32","subject_id":"6112d602d7819e6a35a0c95b","study_id":"6197b3f67c2b5cd3b6d9596a","session_id":"6197b9f1a340ba86976bb6fa","condition":"full-information","relevant_dimensions":["pattern","legs"],"bee_group":{"antennae":"X","wings":"X","pattern":"D","legs":"F"},"action":"avoid","summary":"bad-avoid","bonus":0.5200000000000002},{"rt":351,"stimulus":"\n                    <p><b>Action: <em>avoid</em></b></p>\n                    <p>This is the bee that you just saw.</p>\n                    <img src=\"bees-with-color/bee-B1DM.svg\" width=\"200\">\n                    <p><span class=\"redText\">Bad choice,</span> the bee was friendly.<br>Your bonus pay is unchanged, and remains at $0.52.</p>\n            ","response":0,"trial_type":"html-button-response","trial_index":72,"time_elapsed":1533891,"internal_node_id":"0.0-4.0-1.32","subject_id":"6112d602d7819e6a35a0c95b","study_id":"6197b3f67c2b5cd3b6d9596a","session_id":"6197b9f1a340ba86976bb6fa","condition":"full-information","relevant_dimensions":["pattern","legs"],"bee_group":{"antennae":"X","wings":"X","pattern":"D","legs":"F"},"bonus":0.5200000000000002},{"rt":350.5,"stimulus":"bees-with-color/bee-B2SF.svg","response":1,"trial_type":"image-button-response","trial_index":73,"time_elapsed":1534243,"internal_node_id":"0.0-4.0-0.33","subject_id":"6112d602d7819e6a35a0c95b","study_id":"6197b3f67c2b5cd3b6d9596a","session_id":"6197b9f1a340ba86976bb6fa","condition":"full-information","relevant_dimensions":["pattern","legs"],"bee_group":{"antennae":"X","wings":"X","pattern":"D","legs":"F"},"action":"avoid","summary":"bad-avoid","bonus":0.5200000000000002},{"rt":1175.5,"stimulus":"\n                    <p><b>Action: <em>avoid</em></b></p>\n                    <p>This is the bee that you just saw.</p>\n                    <img src=\"bees-with-color/bee-B2SF.svg\" width=\"200\">\n                    <p><span class=\"redText\">Bad choice,</span> the bee was friendly.<br>Your bonus pay is unchanged, and remains at $0.52.</p>\n            ","response":0,"trial_type":"html-button-response","trial_index":74,"time_elapsed":1535419,"internal_node_id":"0.0-4.0-1.33","subject_id":"6112d602d7819e6a35a0c95b","study_id":"6197b3f67c2b5cd3b6d9596a","session_id":"6197b9f1a340ba86976bb6fa","condition":"full-information","relevant_dimensions":["pattern","legs"],"bee_group":{"antennae":"X","wings":"X","pattern":"D","legs":"F"},"bonus":0.5200000000000002},{"rt":590.8000000007451,"stimulus":"bees-with-color/bee-B1DF.svg","response":1,"trial_type":"image-button-response","trial_index":75,"time_elapsed":1536011,"internal_node_id":"0.0-4.0-0.34","subject_id":"6112d602d7819e6a35a0c95b","study_id":"6197b3f67c2b5cd3b6d9596a","session_id":"6197b9f1a340ba86976bb6fa","condition":"full-information","relevant_dimensions":["pattern","legs"],"bee_group":{"antennae":"X","wings":"X","pattern":"D","legs":"F"},"action":"avoid","summary":"good-avoid","bonus":0.5200000000000002},{"rt":950.3000000007451,"stimulus":"\n                    <p><b>Action: <em>avoid</em></b></p>\n                    <p>This is the bee that you just saw.</p>\n                    <img src=\"bees-with-color/bee-B1DF.svg\" width=\"200\">\n                    <p><span class=\"greenText\">Good choice!</span>  This bee would have stung you.<br>Your bonus pay is unchanged, and remains at $0.52.</p>\n            ","response":0,"trial_type":"html-button-response","trial_index":76,"time_elapsed":1536962,"internal_node_id":"0.0-4.0-1.34","subject_id":"6112d602d7819e6a35a0c95b","study_id":"6197b3f67c2b5cd3b6d9596a","session_id":"6197b9f1a340ba86976bb6fa","condition":"full-information","relevant_dimensions":["pattern","legs"],"bee_group":{"antennae":"X","wings":"X","pattern":"D","legs":"F"},"bonus":0.5200000000000002},{"rt":391.6000000014901,"stimulus":"bees-with-color/bee-A2SF.svg","response":1,"trial_type":"image-button-response","trial_index":77,"time_elapsed":1537354,"internal_node_id":"0.0-4.0-0.35","subject_id":"6112d602d7819e6a35a0c95b","study_id":"6197b3f67c2b5cd3b6d9596a","session_id":"6197b9f1a340ba86976bb6fa","condition":"full-information","relevant_dimensions":["pattern","legs"],"bee_group":{"antennae":"X","wings":"X","pattern":"D","legs":"F"},"action":"avoid","summary":"bad-avoid","bonus":0.5200000000000002},{"rt":455,"stimulus":"\n                    <p><b>Action: <em>avoid</em></b></p>\n                    <p>This is the bee that you just saw.</p>\n                    <img src=\"bees-with-color/bee-A2SF.svg\" width=\"200\">\n                    <p><span class=\"redText\">Bad choice,</span> the bee was friendly.<br>Your bonus pay is unchanged, and remains at $0.52.</p>\n            ","response":0,"trial_type":"html-button-response","trial_index":78,"time_elapsed":1537810,"internal_node_id":"0.0-4.0-1.35","subject_id":"6112d602d7819e6a35a0c95b","study_id":"6197b3f67c2b5cd3b6d9596a","session_id":"6197b9f1a340ba86976bb6fa","condition":"full-information","relevant_dimensions":["pattern","legs"],"bee_group":{"antennae":"X","wings":"X","pattern":"D","legs":"F"},"bonus":0.5200000000000002},{"rt":351.19999999925494,"stimulus":"bees-with-color/bee-A2SM.svg","response":1,"trial_type":"image-button-response","trial_index":79,"time_elapsed":1538162,"internal_node_id":"0.0-4.0-0.36","subject_id":"6112d602d7819e6a35a0c95b","study_id":"6197b3f67c2b5cd3b6d9596a","session_id":"6197b9f1a340ba86976bb6fa","condition":"full-information","relevant_dimensions":["pattern","legs"],"bee_group":{"antennae":"X","wings":"X","pattern":"D","legs":"F"},"action":"avoid","summary":"bad-avoid","bonus":0.5200000000000002},{"rt":431.19999999925494,"stimulus":"\n                    <p><b>Action: <em>avoid</em></b></p>\n                    <p>This is the bee that you just saw.</p>\n                    <img src=\"bees-with-color/bee-A2SM.svg\" width=\"200\">\n                    <p><span class=\"redText\">Bad choice,</span> the bee was friendly.<br>Your bonus pay is unchanged, and remains at $0.52.</p>\n            ","response":0,"trial_type":"html-button-response","trial_index":80,"time_elapsed":1538594,"internal_node_id":"0.0-4.0-1.36","subject_id":"6112d602d7819e6a35a0c95b","study_id":"6197b3f67c2b5cd3b6d9596a","session_id":"6197b9f1a340ba86976bb6fa","condition":"full-information","relevant_dimensions":["pattern","legs"],"bee_group":{"antennae":"X","wings":"X","pattern":"D","legs":"F"},"bonus":0.5200000000000002},{"rt":447.69999999925494,"stimulus":"bees-with-color/bee-B2SM.svg","response":1,"trial_type":"image-button-response","trial_index":81,"time_elapsed":1539042,"internal_node_id":"0.0-4.0-0.37","subject_id":"6112d602d7819e6a35a0c95b","study_id":"6197b3f67c2b5cd3b6d9596a","session_id":"6197b9f1a340ba86976bb6fa","condition":"full-information","relevant_dimensions":["pattern","legs"],"bee_group":{"antennae":"X","wings":"X","pattern":"D","legs":"F"},"action":"avoid","summary":"bad-avoid","bonus":0.5200000000000002},{"rt":446.80000000074506,"stimulus":"\n                    <p><b>Action: <em>avoid</em></b></p>\n                    <p>This is the bee that you just saw.</p>\n                    <img src=\"bees-with-color/bee-B2SM.svg\" width=\"200\">\n                    <p><span class=\"redText\">Bad choice,</span> the bee was friendly.<br>Your bonus pay is unchanged, and remains at $0.52.</p>\n            ","response":0,"trial_type":"html-button-response","trial_index":82,"time_elapsed":1539490,"internal_node_id":"0.0-4.0-1.37","subject_id":"6112d602d7819e6a35a0c95b","study_id":"6197b3f67c2b5cd3b6d9596a","session_id":"6197b9f1a340ba86976bb6fa","condition":"full-information","relevant_dimensions":["pattern","legs"],"bee_group":{"antennae":"X","wings":"X","pattern":"D","legs":"F"},"bonus":0.5200000000000002},{"rt":374.69999999925494,"stimulus":"bees-with-color/bee-A1DM.svg","response":1,"trial_type":"image-button-response","trial_index":83,"time_elapsed":1539866,"internal_node_id":"0.0-4.0-0.38","subject_id":"6112d602d7819e6a35a0c95b","study_id":"6197b3f67c2b5cd3b6d9596a","session_id":"6197b9f1a340ba86976bb6fa","condition":"full-information","relevant_dimensions":["pattern","legs"],"bee_group":{"antennae":"X","wings":"X","pattern":"D","legs":"F"},"action":"avoid","summary":"bad-avoid","bonus":0.5200000000000002},{"rt":831.3000000007451,"stimulus":"\n                    <p><b>Action: <em>avoid</em></b></p>\n                    <p>This is the bee that you just saw.</p>\n                    <img src=\"bees-with-color/bee-A1DM.svg\" width=\"200\">\n                    <p><span class=\"redText\">Bad choice,</span> the bee was friendly.<br>Your bonus pay is unchanged, and remains at $0.52.</p>\n            ","response":0,"trial_type":"html-button-response","trial_index":84,"time_elapsed":1540698,"internal_node_id":"0.0-4.0-1.38","subject_id":"6112d602d7819e6a35a0c95b","study_id":"6197b3f67c2b5cd3b6d9596a","session_id":"6197b9f1a340ba86976bb6fa","condition":"full-information","relevant_dimensions":["pattern","legs"],"bee_group":{"antennae":"X","wings":"X","pattern":"D","legs":"F"},"bonus":0.5200000000000002},{"rt":454.30000000074506,"stimulus":"bees-with-color/bee-A2DF.svg","response":1,"trial_type":"image-button-response","trial_index":85,"time_elapsed":1541153,"internal_node_id":"0.0-4.0-0.39","subject_id":"6112d602d7819e6a35a0c95b","study_id":"6197b3f67c2b5cd3b6d9596a","session_id":"6197b9f1a340ba86976bb6fa","condition":"full-information","relevant_dimensions":["pattern","legs"],"bee_group":{"antennae":"X","wings":"X","pattern":"D","legs":"F"},"action":"avoid","summary":"good-avoid","bonus":0.5200000000000002},{"rt":822.6999999992549,"stimulus":"\n                    <p><b>Action: <em>avoid</em></b></p>\n                    <p>This is the bee that you just saw.</p>\n                    <img src=\"bees-with-color/bee-A2DF.svg\" width=\"200\">\n                    <p><span class=\"greenText\">Good choice!</span>  This bee would have stung you.<br>Your bonus pay is unchanged, and remains at $0.52.</p>\n            ","response":0,"trial_type":"html-button-response","trial_index":86,"time_elapsed":1541977,"internal_node_id":"0.0-4.0-1.39","subject_id":"6112d602d7819e6a35a0c95b","study_id":"6197b3f67c2b5cd3b6d9596a","session_id":"6197b9f1a340ba86976bb6fa","condition":"full-information","relevant_dimensions":["pattern","legs"],"bee_group":{"antennae":"X","wings":"X","pattern":"D","legs":"F"},"bonus":0.5200000000000002},{"rt":511.6000000014901,"stimulus":"bees-with-color/bee-A1DF.svg","response":1,"trial_type":"image-button-response","trial_index":87,"time_elapsed":1542489,"internal_node_id":"0.0-4.0-0.40","subject_id":"6112d602d7819e6a35a0c95b","study_id":"6197b3f67c2b5cd3b6d9596a","session_id":"6197b9f1a340ba86976bb6fa","condition":"full-information","relevant_dimensions":["pattern","legs"],"bee_group":{"antennae":"X","wings":"X","pattern":"D","legs":"F"},"action":"avoid","summary":"good-avoid","bonus":0.5200000000000002},{"rt":382.69999999925494,"stimulus":"\n                    <p><b>Action: <em>avoid</em></b></p>\n                    <p>This is the bee that you just saw.</p>\n                    <img src=\"bees-with-color/bee-A1DF.svg\" width=\"200\">\n                    <p><span class=\"greenText\">Good choice!</span>  This bee would have stung you.<br>Your bonus pay is unchanged, and remains at $0.52.</p>\n            ","response":0,"trial_type":"html-button-response","trial_index":88,"time_elapsed":1542873,"internal_node_id":"0.0-4.0-1.40","subject_id":"6112d602d7819e6a35a0c95b","study_id":"6197b3f67c2b5cd3b6d9596a","session_id":"6197b9f1a340ba86976bb6fa","condition":"full-information","relevant_dimensions":["pattern","legs"],"bee_group":{"antennae":"X","wings":"X","pattern":"D","legs":"F"},"bonus":0.5200000000000002},{"rt":542.9000000022352,"stimulus":"bees-with-color/bee-B1SM.svg","response":1,"trial_type":"image-button-response","trial_index":89,"time_elapsed":1543417,"internal_node_id":"0.0-4.0-0.41","subject_id":"6112d602d7819e6a35a0c95b","study_id":"6197b3f67c2b5cd3b6d9596a","session_id":"6197b9f1a340ba86976bb6fa","condition":"full-information","relevant_dimensions":["pattern","legs"],"bee_group":{"antennae":"X","wings":"X","pattern":"D","legs":"F"},"action":"avoid","summary":"bad-avoid","bonus":0.5200000000000002},{"rt":750.8999999985099,"stimulus":"\n                    <p><b>Action: <em>avoid</em></b></p>\n                    <p>This is the bee that you just saw.</p>\n                    <img src=\"bees-with-color/bee-B1SM.svg\" width=\"200\">\n                    <p><span class=\"redText\">Bad choice,</span> the bee was friendly.<br>Your bonus pay is unchanged, and remains at $0.52.</p>\n            ","response":0,"trial_type":"html-button-response","trial_index":90,"time_elapsed":1544169,"internal_node_id":"0.0-4.0-1.41","subject_id":"6112d602d7819e6a35a0c95b","study_id":"6197b3f67c2b5cd3b6d9596a","session_id":"6197b9f1a340ba86976bb6fa","condition":"full-information","relevant_dimensions":["pattern","legs"],"bee_group":{"antennae":"X","wings":"X","pattern":"D","legs":"F"},"bonus":0.5200000000000002},{"rt":415.0999999977648,"stimulus":"bees-with-color/bee-B2DF.svg","response":1,"trial_type":"image-button-response","trial_index":91,"time_elapsed":1544585,"internal_node_id":"0.0-4.0-0.42","subject_id":"6112d602d7819e6a35a0c95b","study_id":"6197b3f67c2b5cd3b6d9596a","session_id":"6197b9f1a340ba86976bb6fa","condition":"full-information","relevant_dimensions":["pattern","legs"],"bee_group":{"antennae":"X","wings":"X","pattern":"D","legs":"F"},"action":"avoid","summary":"good-avoid","bonus":0.5200000000000002},{"rt":679,"stimulus":"\n                    <p><b>Action: <em>avoid</em></b></p>\n                    <p>This is the bee that you just saw.</p>\n                    <img src=\"bees-with-color/bee-B2DF.svg\" width=\"200\">\n                    <p><span class=\"greenText\">Good choice!</span>  This bee would have stung you.<br>Your bonus pay is unchanged, and remains at $0.52.</p>\n            ","response":0,"trial_type":"html-button-response","trial_index":92,"time_elapsed":1545265,"internal_node_id":"0.0-4.0-1.42","subject_id":"6112d602d7819e6a35a0c95b","study_id":"6197b3f67c2b5cd3b6d9596a","session_id":"6197b9f1a340ba86976bb6fa","condition":"full-information","relevant_dimensions":["pattern","legs"],"bee_group":{"antennae":"X","wings":"X","pattern":"D","legs":"F"},"bonus":0.5200000000000002},{"rt":559.3999999985099,"stimulus":"bees-with-color/bee-A2DM.svg","response":1,"trial_type":"image-button-response","trial_index":93,"time_elapsed":1545825,"internal_node_id":"0.0-4.0-0.43","subject_id":"6112d602d7819e6a35a0c95b","study_id":"6197b3f67c2b5cd3b6d9596a","session_id":"6197b9f1a340ba86976bb6fa","condition":"full-information","relevant_dimensions":["pattern","legs"],"bee_group":{"antennae":"X","wings":"X","pattern":"D","legs":"F"},"action":"avoid","summary":"bad-avoid","bonus":0.5200000000000002},{"rt":542.1999999992549,"stimulus":"\n                    <p><b>Action: <em>avoid</em></b></p>\n                    <p>This is the bee that you just saw.</p>\n                    <img src=\"bees-with-color/bee-A2DM.svg\" width=\"200\">\n                    <p><span class=\"redText\">Bad choice,</span> the bee was friendly.<br>Your bonus pay is unchanged, and remains at $0.52.</p>\n            ","response":0,"trial_type":"html-button-response","trial_index":94,"time_elapsed":1546368,"internal_node_id":"0.0-4.0-1.43","subject_id":"6112d602d7819e6a35a0c95b","study_id":"6197b3f67c2b5cd3b6d9596a","session_id":"6197b9f1a340ba86976bb6fa","condition":"full-information","relevant_dimensions":["pattern","legs"],"bee_group":{"antennae":"X","wings":"X","pattern":"D","legs":"F"},"bonus":0.5200000000000002},{"rt":479.29999999701977,"stimulus":"bees-with-color/bee-A1SM.svg","response":1,"trial_type":"image-button-response","trial_index":95,"time_elapsed":1546848,"internal_node_id":"0.0-4.0-0.44","subject_id":"6112d602d7819e6a35a0c95b","study_id":"6197b3f67c2b5cd3b6d9596a","session_id":"6197b9f1a340ba86976bb6fa","condition":"full-information","relevant_dimensions":["pattern","legs"],"bee_group":{"antennae":"X","wings":"X","pattern":"D","legs":"F"},"action":"avoid","summary":"bad-avoid","bonus":0.5200000000000002},{"rt":767.1000000014901,"stimulus":"\n                    <p><b>Action: <em>avoid</em></b></p>\n                    <p>This is the bee that you just saw.</p>\n                    <img src=\"bees-with-color/bee-A1SM.svg\" width=\"200\">\n                    <p><span class=\"redText\">Bad choice,</span> the bee was friendly.<br>Your bonus pay is unchanged, and remains at $0.52.</p>\n            ","response":0,"trial_type":"html-button-response","trial_index":96,"time_elapsed":1547616,"internal_node_id":"0.0-4.0-1.44","subject_id":"6112d602d7819e6a35a0c95b","study_id":"6197b3f67c2b5cd3b6d9596a","session_id":"6197b9f1a340ba86976bb6fa","condition":"full-information","relevant_dimensions":["pattern","legs"],"bee_group":{"antennae":"X","wings":"X","pattern":"D","legs":"F"},"bonus":0.5200000000000002},{"rt":311.5,"stimulus":"bees-with-color/bee-B1SF.svg","response":1,"trial_type":"image-button-response","trial_index":97,"time_elapsed":1547928,"internal_node_id":"0.0-4.0-0.45","subject_id":"6112d602d7819e6a35a0c95b","study_id":"6197b3f67c2b5cd3b6d9596a","session_id":"6197b9f1a340ba86976bb6fa","condition":"full-information","relevant_dimensions":["pattern","legs"],"bee_group":{"antennae":"X","wings":"X","pattern":"D","legs":"F"},"action":"avoid","summary":"bad-avoid","bonus":0.5200000000000002},{"rt":415.19999999925494,"stimulus":"\n                    <p><b>Action: <em>avoid</em></b></p>\n                    <p>This is the bee that you just saw.</p>\n                    <img src=\"bees-with-color/bee-B1SF.svg\" width=\"200\">\n                    <p><span class=\"redText\">Bad choice,</span> the bee was friendly.<br>Your bonus pay is unchanged, and remains at $0.52.</p>\n            ","response":0,"trial_type":"html-button-response","trial_index":98,"time_elapsed":1548344,"internal_node_id":"0.0-4.0-1.45","subject_id":"6112d602d7819e6a35a0c95b","study_id":"6197b3f67c2b5cd3b6d9596a","session_id":"6197b9f1a340ba86976bb6fa","condition":"full-information","relevant_dimensions":["pattern","legs"],"bee_group":{"antennae":"X","wings":"X","pattern":"D","legs":"F"},"bonus":0.5200000000000002},{"rt":311.69999999925494,"stimulus":"bees-with-color/bee-A1SF.svg","response":1,"trial_type":"image-button-response","trial_index":99,"time_elapsed":1548656,"internal_node_id":"0.0-4.0-0.46","subject_id":"6112d602d7819e6a35a0c95b","study_id":"6197b3f67c2b5cd3b6d9596a","session_id":"6197b9f1a340ba86976bb6fa","condition":"full-information","relevant_dimensions":["pattern","legs"],"bee_group":{"antennae":"X","wings":"X","pattern":"D","legs":"F"},"action":"avoid","summary":"bad-avoid","bonus":0.5200000000000002},{"rt":390.5,"stimulus":"\n                    <p><b>Action: <em>avoid</em></b></p>\n                    <p>This is the bee that you just saw.</p>\n                    <img src=\"bees-with-color/bee-A1SF.svg\" width=\"200\">\n                    <p><span class=\"redText\">Bad choice,</span> the bee was friendly.<br>Your bonus pay is unchanged, and remains at $0.52.</p>\n            ","response":0,"trial_type":"html-button-response","trial_index":100,"time_elapsed":1549048,"internal_node_id":"0.0-4.0-1.46","subject_id":"6112d602d7819e6a35a0c95b","study_id":"6197b3f67c2b5cd3b6d9596a","session_id":"6197b9f1a340ba86976bb6fa","condition":"full-information","relevant_dimensions":["pattern","legs"],"bee_group":{"antennae":"X","wings":"X","pattern":"D","legs":"F"},"bonus":0.5200000000000002},{"rt":574.6999999992549,"stimulus":"bees-with-color/bee-B2DM.svg","response":1,"trial_type":"image-button-response","trial_index":101,"time_elapsed":1549623,"internal_node_id":"0.0-4.0-0.47","subject_id":"6112d602d7819e6a35a0c95b","study_id":"6197b3f67c2b5cd3b6d9596a","session_id":"6197b9f1a340ba86976bb6fa","condition":"full-information","relevant_dimensions":["pattern","legs"],"bee_group":{"antennae":"X","wings":"X","pattern":"D","legs":"F"},"action":"avoid","summary":"bad-avoid","bonus":0.5200000000000002},{"rt":726.8000000007451,"stimulus":"\n                    <p><b>Action: <em>avoid</em></b></p>\n                    <p>This is the bee that you just saw.</p>\n                    <img src=\"bees-with-color/bee-B2DM.svg\" width=\"200\">\n                    <p><span class=\"redText\">Bad choice,</span> the bee was friendly.<br>Your bonus pay is unchanged, and remains at $0.52.</p>\n            ","response":0,"trial_type":"html-button-response","trial_index":102,"time_elapsed":1550351,"internal_node_id":"0.0-4.0-1.47","subject_id":"6112d602d7819e6a35a0c95b","study_id":"6197b3f67c2b5cd3b6d9596a","session_id":"6197b9f1a340ba86976bb6fa","condition":"full-information","relevant_dimensions":["pattern","legs"],"bee_group":{"antennae":"X","wings":"X","pattern":"D","legs":"F"},"bonus":0.5200000000000002},{"rt":367.30000000074506,"stimulus":"bees-with-color/bee-A1SM.svg","response":1,"trial_type":"image-button-response","trial_index":103,"time_elapsed":1550719,"internal_node_id":"0.0-4.0-0.48","subject_id":"6112d602d7819e6a35a0c95b","study_id":"6197b3f67c2b5cd3b6d9596a","session_id":"6197b9f1a340ba86976bb6fa","condition":"full-information","relevant_dimensions":["pattern","legs"],"bee_group":{"antennae":"X","wings":"X","pattern":"D","legs":"F"},"action":"avoid","summary":"bad-avoid","bonus":0.5200000000000002},{"rt":551.1000000014901,"stimulus":"\n                    <p><b>Action: <em>avoid</em></b></p>\n                    <p>This is the bee that you just saw.</p>\n                    <img src=\"bees-with-color/bee-A1SM.svg\" width=\"200\">\n                    <p><span class=\"redText\">Bad choice,</span> the bee was friendly.<br>Your bonus pay is unchanged, and remains at $0.52.</p>\n            ","response":0,"trial_type":"html-button-response","trial_index":104,"time_elapsed":1551271,"internal_node_id":"0.0-4.0-1.48","subject_id":"6112d602d7819e6a35a0c95b","study_id":"6197b3f67c2b5cd3b6d9596a","session_id":"6197b9f1a340ba86976bb6fa","condition":"full-information","relevant_dimensions":["pattern","legs"],"bee_group":{"antennae":"X","wings":"X","pattern":"D","legs":"F"},"bonus":0.5200000000000002},{"rt":295.30000000074506,"stimulus":"bees-with-color/bee-B2DF.svg","response":1,"trial_type":"image-button-response","trial_index":105,"time_elapsed":1551568,"internal_node_id":"0.0-4.0-0.49","subject_id":"6112d602d7819e6a35a0c95b","study_id":"6197b3f67c2b5cd3b6d9596a","session_id":"6197b9f1a340ba86976bb6fa","condition":"full-information","relevant_dimensions":["pattern","legs"],"bee_group":{"antennae":"X","wings":"X","pattern":"D","legs":"F"},"action":"avoid","summary":"good-avoid","bonus":0.5200000000000002},{"rt":375.0999999977648,"stimulus":"\n                    <p><b>Action: <em>avoid</em></b></p>\n                    <p>This is the bee that you just saw.</p>\n                    <img src=\"bees-with-color/bee-B2DF.svg\" width=\"200\">\n                    <p><span class=\"greenText\">Good choice!</span>  This bee would have stung you.<br>Your bonus pay is unchanged, and remains at $0.52.</p>\n            ","response":0,"trial_type":"html-button-response","trial_index":106,"time_elapsed":1551943,"internal_node_id":"0.0-4.0-1.49","subject_id":"6112d602d7819e6a35a0c95b","study_id":"6197b3f67c2b5cd3b6d9596a","session_id":"6197b9f1a340ba86976bb6fa","condition":"full-information","relevant_dimensions":["pattern","legs"],"bee_group":{"antennae":"X","wings":"X","pattern":"D","legs":"F"},"bonus":0.5200000000000002},{"rt":279,"stimulus":"bees-with-color/bee-B1SF.svg","response":1,"trial_type":"image-button-response","trial_index":107,"time_elapsed":1552223,"internal_node_id":"0.0-4.0-0.50","subject_id":"6112d602d7819e6a35a0c95b","study_id":"6197b3f67c2b5cd3b6d9596a","session_id":"6197b9f1a340ba86976bb6fa","condition":"full-information","relevant_dimensions":["pattern","legs"],"bee_group":{"antennae":"X","wings":"X","pattern":"D","legs":"F"},"action":"avoid","summary":"bad-avoid","bonus":0.5200000000000002},{"rt":318.3999999985099,"stimulus":"\n                    <p><b>Action: <em>avoid</em></b></p>\n                    <p>This is the bee that you just saw.</p>\n                    <img src=\"bees-with-color/bee-B1SF.svg\" width=\"200\">\n                    <p><span class=\"redText\">Bad choice,</span> the bee was friendly.<br>Your bonus pay is unchanged, and remains at $0.52.</p>\n            ","response":0,"trial_type":"html-button-response","trial_index":108,"time_elapsed":1552542,"internal_node_id":"0.0-4.0-1.50","subject_id":"6112d602d7819e6a35a0c95b","study_id":"6197b3f67c2b5cd3b6d9596a","session_id":"6197b9f1a340ba86976bb6fa","condition":"full-information","relevant_dimensions":["pattern","legs"],"bee_group":{"antennae":"X","wings":"X","pattern":"D","legs":"F"},"bonus":0.5200000000000002},{"rt":335.6000000014901,"stimulus":"bees-with-color/bee-B2SM.svg","response":1,"trial_type":"image-button-response","trial_index":109,"time_elapsed":1552879,"internal_node_id":"0.0-4.0-0.51","subject_id":"6112d602d7819e6a35a0c95b","study_id":"6197b3f67c2b5cd3b6d9596a","session_id":"6197b9f1a340ba86976bb6fa","condition":"full-information","relevant_dimensions":["pattern","legs"],"bee_group":{"antennae":"X","wings":"X","pattern":"D","legs":"F"},"action":"avoid","summary":"bad-avoid","bonus":0.5200000000000002},{"rt":327,"stimulus":"\n                    <p><b>Action: <em>avoid</em></b></p>\n                    <p>This is the bee that you just saw.</p>\n                    <img src=\"bees-with-color/bee-B2SM.svg\" width=\"200\">\n                    <p><span class=\"redText\">Bad choice,</span> the bee was friendly.<br>Your bonus pay is unchanged, and remains at $0.52.</p>\n            ","response":0,"trial_type":"html-button-response","trial_index":110,"time_elapsed":1553207,"internal_node_id":"0.0-4.0-1.51","subject_id":"6112d602d7819e6a35a0c95b","study_id":"6197b3f67c2b5cd3b6d9596a","session_id":"6197b9f1a340ba86976bb6fa","condition":"full-information","relevant_dimensions":["pattern","legs"],"bee_group":{"antennae":"X","wings":"X","pattern":"D","legs":"F"},"bonus":0.5200000000000002},{"rt":294.5,"stimulus":"bees-with-color/bee-B1DF.svg","response":1,"trial_type":"image-button-response","trial_index":111,"time_elapsed":1553502,"internal_node_id":"0.0-4.0-0.52","subject_id":"6112d602d7819e6a35a0c95b","study_id":"6197b3f67c2b5cd3b6d9596a","session_id":"6197b9f1a340ba86976bb6fa","condition":"full-information","relevant_dimensions":["pattern","legs"],"bee_group":{"antennae":"X","wings":"X","pattern":"D","legs":"F"},"action":"avoid","summary":"good-avoid","bonus":0.5200000000000002},{"rt":335.3999999985099,"stimulus":"\n                    <p><b>Action: <em>avoid</em></b></p>\n                    <p>This is the bee that you just saw.</p>\n                    <img src=\"bees-with-color/bee-B1DF.svg\" width=\"200\">\n                    <p><span class=\"greenText\">Good choice!</span>  This bee would have stung you.<br>Your bonus pay is unchanged, and remains at $0.52.</p>\n            ","response":0,"trial_type":"html-button-response","trial_index":112,"time_elapsed":1553839,"internal_node_id":"0.0-4.0-1.52","subject_id":"6112d602d7819e6a35a0c95b","study_id":"6197b3f67c2b5cd3b6d9596a","session_id":"6197b9f1a340ba86976bb6fa","condition":"full-information","relevant_dimensions":["pattern","legs"],"bee_group":{"antennae":"X","wings":"X","pattern":"D","legs":"F"},"bonus":0.5200000000000002},{"rt":278.8999999985099,"stimulus":"bees-with-color/bee-A1SF.svg","response":1,"trial_type":"image-button-response","trial_index":113,"time_elapsed":1554119,"internal_node_id":"0.0-4.0-0.53","subject_id":"6112d602d7819e6a35a0c95b","study_id":"6197b3f67c2b5cd3b6d9596a","session_id":"6197b9f1a340ba86976bb6fa","condition":"full-information","relevant_dimensions":["pattern","legs"],"bee_group":{"antennae":"X","wings":"X","pattern":"D","legs":"F"},"action":"avoid","summary":"bad-avoid","bonus":0.5200000000000002},{"rt":319,"stimulus":"\n                    <p><b>Action: <em>avoid</em></b></p>\n                    <p>This is the bee that you just saw.</p>\n                    <img src=\"bees-with-color/bee-A1SF.svg\" width=\"200\">\n                    <p><span class=\"redText\">Bad choice,</span> the bee was friendly.<br>Your bonus pay is unchanged, and remains at $0.52.</p>\n            ","response":0,"trial_type":"html-button-response","trial_index":114,"time_elapsed":1554438,"internal_node_id":"0.0-4.0-1.53","subject_id":"6112d602d7819e6a35a0c95b","study_id":"6197b3f67c2b5cd3b6d9596a","session_id":"6197b9f1a340ba86976bb6fa","condition":"full-information","relevant_dimensions":["pattern","legs"],"bee_group":{"antennae":"X","wings":"X","pattern":"D","legs":"F"},"bonus":0.5200000000000002},{"rt":286.8999999985099,"stimulus":"bees-with-color/bee-B2DM.svg","response":1,"trial_type":"image-button-response","trial_index":115,"time_elapsed":1554726,"internal_node_id":"0.0-4.0-0.54","subject_id":"6112d602d7819e6a35a0c95b","study_id":"6197b3f67c2b5cd3b6d9596a","session_id":"6197b9f1a340ba86976bb6fa","condition":"full-information","relevant_dimensions":["pattern","legs"],"bee_group":{"antennae":"X","wings":"X","pattern":"D","legs":"F"},"action":"avoid","summary":"bad-avoid","bonus":0.5200000000000002},{"rt":1294.5999999977648,"stimulus":"\n                    <p><b>Action: <em>avoid</em></b></p>\n                    <p>This is the bee that you just saw.</p>\n                    <img src=\"bees-with-color/bee-B2DM.svg\" width=\"200\">\n                    <p><span class=\"redText\">Bad choice,</span> the bee was friendly.<br>Your bonus pay is unchanged, and remains at $0.52.</p>\n            ","response":0,"trial_type":"html-button-response","trial_index":116,"time_elapsed":1556022,"internal_node_id":"0.0-4.0-1.54","subject_id":"6112d602d7819e6a35a0c95b","study_id":"6197b3f67c2b5cd3b6d9596a","session_id":"6197b9f1a340ba86976bb6fa","condition":"full-information","relevant_dimensions":["pattern","legs"],"bee_group":{"antennae":"X","wings":"X","pattern":"D","legs":"F"},"bonus":0.5200000000000002},{"rt":301.3999999985099,"stimulus":"bees-with-color/bee-B1DM.svg","response":1,"trial_type":"image-button-response","trial_index":117,"time_elapsed":1556325,"internal_node_id":"0.0-4.0-0.55","subject_id":"6112d602d7819e6a35a0c95b","study_id":"6197b3f67c2b5cd3b6d9596a","session_id":"6197b9f1a340ba86976bb6fa","condition":"full-information","relevant_dimensions":["pattern","legs"],"bee_group":{"antennae":"X","wings":"X","pattern":"D","legs":"F"},"action":"avoid","summary":"bad-avoid","bonus":0.5200000000000002},{"rt":351.20000000298023,"stimulus":"\n                    <p><b>Action: <em>avoid</em></b></p>\n                    <p>This is the bee that you just saw.</p>\n                    <img src=\"bees-with-color/bee-B1DM.svg\" width=\"200\">\n                    <p><span class=\"redText\">Bad choice,</span> the bee was friendly.<br>Your bonus pay is unchanged, and remains at $0.52.</p>\n            ","response":0,"trial_type":"html-button-response","trial_index":118,"time_elapsed":1556677,"internal_node_id":"0.0-4.0-1.55","subject_id":"6112d602d7819e6a35a0c95b","study_id":"6197b3f67c2b5cd3b6d9596a","session_id":"6197b9f1a340ba86976bb6fa","condition":"full-information","relevant_dimensions":["pattern","legs"],"bee_group":{"antennae":"X","wings":"X","pattern":"D","legs":"F"},"bonus":0.5200000000000002},{"rt":287.30000000074506,"stimulus":"bees-with-color/bee-A2SM.svg","response":1,"trial_type":"image-button-response","trial_index":119,"time_elapsed":1556965,"internal_node_id":"0.0-4.0-0.56","subject_id":"6112d602d7819e6a35a0c95b","study_id":"6197b3f67c2b5cd3b6d9596a","session_id":"6197b9f1a340ba86976bb6fa","condition":"full-information","relevant_dimensions":["pattern","legs"],"bee_group":{"antennae":"X","wings":"X","pattern":"D","legs":"F"},"action":"avoid","summary":"bad-avoid","bonus":0.5200000000000002},{"rt":327.29999999701977,"stimulus":"\n                    <p><b>Action: <em>avoid</em></b></p>\n                    <p>This is the bee that you just saw.</p>\n                    <img src=\"bees-with-color/bee-A2SM.svg\" width=\"200\">\n                    <p><span class=\"redText\">Bad choice,</span> the bee was friendly.<br>Your bonus pay is unchanged, and remains at $0.52.</p>\n            ","response":0,"trial_type":"html-button-response","trial_index":120,"time_elapsed":1557293,"internal_node_id":"0.0-4.0-1.56","subject_id":"6112d602d7819e6a35a0c95b","study_id":"6197b3f67c2b5cd3b6d9596a","session_id":"6197b9f1a340ba86976bb6fa","condition":"full-information","relevant_dimensions":["pattern","legs"],"bee_group":{"antennae":"X","wings":"X","pattern":"D","legs":"F"},"bonus":0.5200000000000002},{"rt":279.19999999925494,"stimulus":"bees-with-color/bee-B2SF.svg","response":1,"trial_type":"image-button-response","trial_index":121,"time_elapsed":1557573,"internal_node_id":"0.0-4.0-0.57","subject_id":"6112d602d7819e6a35a0c95b","study_id":"6197b3f67c2b5cd3b6d9596a","session_id":"6197b9f1a340ba86976bb6fa","condition":"full-information","relevant_dimensions":["pattern","legs"],"bee_group":{"antennae":"X","wings":"X","pattern":"D","legs":"F"},"action":"avoid","summary":"bad-avoid","bonus":0.5200000000000002},{"rt":718.9000000022352,"stimulus":"\n                    <p><b>Action: <em>avoid</em></b></p>\n                    <p>This is the bee that you just saw.</p>\n                    <img src=\"bees-with-color/bee-B2SF.svg\" width=\"200\">\n                    <p><span class=\"redText\">Bad choice,</span> the bee was friendly.<br>Your bonus pay is unchanged, and remains at $0.52.</p>\n            ","response":0,"trial_type":"html-button-response","trial_index":122,"time_elapsed":1558293,"internal_node_id":"0.0-4.0-1.57","subject_id":"6112d602d7819e6a35a0c95b","study_id":"6197b3f67c2b5cd3b6d9596a","session_id":"6197b9f1a340ba86976bb6fa","condition":"full-information","relevant_dimensions":["pattern","legs"],"bee_group":{"antennae":"X","wings":"X","pattern":"D","legs":"F"},"bonus":0.5200000000000002},{"rt":271.30000000074506,"stimulus":"bees-with-color/bee-A2DF.svg","response":1,"trial_type":"image-button-response","trial_index":123,"time_elapsed":1558565,"internal_node_id":"0.0-4.0-0.58","subject_id":"6112d602d7819e6a35a0c95b","study_id":"6197b3f67c2b5cd3b6d9596a","session_id":"6197b9f1a340ba86976bb6fa","condition":"full-information","relevant_dimensions":["pattern","legs"],"bee_group":{"antennae":"X","wings":"X","pattern":"D","legs":"F"},"action":"avoid","summary":"good-avoid","bonus":0.5200000000000002},{"rt":359.19999999925494,"stimulus":"\n                    <p><b>Action: <em>avoid</em></b></p>\n                    <p>This is the bee that you just saw.</p>\n                    <img src=\"bees-with-color/bee-A2DF.svg\" width=\"200\">\n                    <p><span class=\"greenText\">Good choice!</span>  This bee would have stung you.<br>Your bonus pay is unchanged, and remains at $0.52.</p>\n            ","response":0,"trial_type":"html-button-response","trial_index":124,"time_elapsed":1558925,"internal_node_id":"0.0-4.0-1.58","subject_id":"6112d602d7819e6a35a0c95b","study_id":"6197b3f67c2b5cd3b6d9596a","session_id":"6197b9f1a340ba86976bb6fa","condition":"full-information","relevant_dimensions":["pattern","legs"],"bee_group":{"antennae":"X","wings":"X","pattern":"D","legs":"F"},"bonus":0.5200000000000002},{"rt":310.1000000014901,"stimulus":"bees-with-color/bee-B1SM.svg","response":1,"trial_type":"image-button-response","trial_index":125,"time_elapsed":1559236,"internal_node_id":"0.0-4.0-0.59","subject_id":"6112d602d7819e6a35a0c95b","study_id":"6197b3f67c2b5cd3b6d9596a","session_id":"6197b9f1a340ba86976bb6fa","condition":"full-information","relevant_dimensions":["pattern","legs"],"bee_group":{"antennae":"X","wings":"X","pattern":"D","legs":"F"},"action":"avoid","summary":"bad-avoid","bonus":0.5200000000000002},{"rt":334.80000000074506,"stimulus":"\n                    <p><b>Action: <em>avoid</em></b></p>\n                    <p>This is the bee that you just saw.</p>\n                    <img src=\"bees-with-color/bee-B1SM.svg\" width=\"200\">\n                    <p><span class=\"redText\">Bad choice,</span> the bee was friendly.<br>Your bonus pay is unchanged, and remains at $0.52.</p>\n            ","response":0,"trial_type":"html-button-response","trial_index":126,"time_elapsed":1559572,"internal_node_id":"0.0-4.0-1.59","subject_id":"6112d602d7819e6a35a0c95b","study_id":"6197b3f67c2b5cd3b6d9596a","session_id":"6197b9f1a340ba86976bb6fa","condition":"full-information","relevant_dimensions":["pattern","legs"],"bee_group":{"antennae":"X","wings":"X","pattern":"D","legs":"F"},"bonus":0.5200000000000002},{"rt":295.19999999925494,"stimulus":"bees-with-color/bee-A2SF.svg","response":1,"trial_type":"image-button-response","trial_index":127,"time_elapsed":1559868,"internal_node_id":"0.0-4.0-0.60","subject_id":"6112d602d7819e6a35a0c95b","study_id":"6197b3f67c2b5cd3b6d9596a","session_id":"6197b9f1a340ba86976bb6fa","condition":"full-information","relevant_dimensions":["pattern","legs"],"bee_group":{"antennae":"X","wings":"X","pattern":"D","legs":"F"},"action":"avoid","summary":"bad-avoid","bonus":0.5200000000000002},{"rt":351.29999999701977,"stimulus":"\n                    <p><b>Action: <em>avoid</em></b></p>\n                    <p>This is the bee that you just saw.</p>\n                    <img src=\"bees-with-color/bee-A2SF.svg\" width=\"200\">\n                    <p><span class=\"redText\">Bad choice,</span> the bee was friendly.<br>Your bonus pay is unchanged, and remains at $0.52.</p>\n            ","response":0,"trial_type":"html-button-response","trial_index":128,"time_elapsed":1560220,"internal_node_id":"0.0-4.0-1.60","subject_id":"6112d602d7819e6a35a0c95b","study_id":"6197b3f67c2b5cd3b6d9596a","session_id":"6197b9f1a340ba86976bb6fa","condition":"full-information","relevant_dimensions":["pattern","legs"],"bee_group":{"antennae":"X","wings":"X","pattern":"D","legs":"F"},"bonus":0.5200000000000002},{"rt":358.80000000074506,"stimulus":"bees-with-color/bee-A1DF.svg","response":1,"trial_type":"image-button-response","trial_index":129,"time_elapsed":1560580,"internal_node_id":"0.0-4.0-0.61","subject_id":"6112d602d7819e6a35a0c95b","study_id":"6197b3f67c2b5cd3b6d9596a","session_id":"6197b9f1a340ba86976bb6fa","condition":"full-information","relevant_dimensions":["pattern","legs"],"bee_group":{"antennae":"X","wings":"X","pattern":"D","legs":"F"},"action":"avoid","summary":"good-avoid","bonus":0.5200000000000002},{"rt":983.7000000029802,"stimulus":"\n                    <p><b>Action: <em>avoid</em></b></p>\n                    <p>This is the bee that you just saw.</p>\n                    <img src=\"bees-with-color/bee-A1DF.svg\" width=\"200\">\n                    <p><span class=\"greenText\">Good choice!</span>  This bee would have stung you.<br>Your bonus pay is unchanged, and remains at $0.52.</p>\n            ","response":0,"trial_type":"html-button-response","trial_index":130,"time_elapsed":1561565,"internal_node_id":"0.0-4.0-1.61","subject_id":"6112d602d7819e6a35a0c95b","study_id":"6197b3f67c2b5cd3b6d9596a","session_id":"6197b9f1a340ba86976bb6fa","condition":"full-information","relevant_dimensions":["pattern","legs"],"bee_group":{"antennae":"X","wings":"X","pattern":"D","legs":"F"},"bonus":0.5200000000000002},{"rt":287.1000000014901,"stimulus":"bees-with-color/bee-A1DM.svg","response":1,"trial_type":"image-button-response","trial_index":131,"time_elapsed":1561852,"internal_node_id":"0.0-4.0-0.62","subject_id":"6112d602d7819e6a35a0c95b","study_id":"6197b3f67c2b5cd3b6d9596a","session_id":"6197b9f1a340ba86976bb6fa","condition":"full-information","relevant_dimensions":["pattern","legs"],"bee_group":{"antennae":"X","wings":"X","pattern":"D","legs":"F"},"action":"avoid","summary":"bad-avoid","bonus":0.5200000000000002},{"rt":374,"stimulus":"\n                    <p><b>Action: <em>avoid</em></b></p>\n                    <p>This is the bee that you just saw.</p>\n                    <img src=\"bees-with-color/bee-A1DM.svg\" width=\"200\">\n                    <p><span class=\"redText\">Bad choice,</span> the bee was friendly.<br>Your bonus pay is unchanged, and remains at $0.52.</p>\n            ","response":0,"trial_type":"html-button-response","trial_index":132,"time_elapsed":1562227,"internal_node_id":"0.0-4.0-1.62","subject_id":"6112d602d7819e6a35a0c95b","study_id":"6197b3f67c2b5cd3b6d9596a","session_id":"6197b9f1a340ba86976bb6fa","condition":"full-information","relevant_dimensions":["pattern","legs"],"bee_group":{"antennae":"X","wings":"X","pattern":"D","legs":"F"},"bonus":0.5200000000000002},{"rt":415.30000000074506,"stimulus":"bees-with-color/bee-A2DM.svg","response":1,"trial_type":"image-button-response","trial_index":133,"time_elapsed":1562643,"internal_node_id":"0.0-4.0-0.63","subject_id":"6112d602d7819e6a35a0c95b","study_id":"6197b3f67c2b5cd3b6d9596a","session_id":"6197b9f1a340ba86976bb6fa","condition":"full-information","relevant_dimensions":["pattern","legs"],"bee_group":{"antennae":"X","wings":"X","pattern":"D","legs":"F"},"action":"avoid","summary":"bad-avoid","bonus":0.5200000000000002},{"rt":367.20000000298023,"stimulus":"\n                    <p><b>Action: <em>avoid</em></b></p>\n                    <p>This is the bee that you just saw.</p>\n                    <img src=\"bees-with-color/bee-A2DM.svg\" width=\"200\">\n                    <p><span class=\"redText\">Bad choice,</span> the bee was friendly.<br>Your bonus pay is unchanged, and remains at $0.52.</p>\n            ","response":0,"trial_type":"html-button-response","trial_index":134,"time_elapsed":1563011,"internal_node_id":"0.0-4.0-1.63","subject_id":"6112d602d7819e6a35a0c95b","study_id":"6197b3f67c2b5cd3b6d9596a","session_id":"6197b9f1a340ba86976bb6fa","condition":"full-information","relevant_dimensions":["pattern","legs"],"bee_group":{"antennae":"X","wings":"X","pattern":"D","legs":"F"},"bonus":0.5200000000000002},{"rt":8218.70000000298,"stimulus":"You have completed the first part of this experiment.<br><br>You will now begin a shorter second part, in which you will receive no feedback.<br>The same rules regarding bonus pay apply.<br><br>Press any key to begin.","response":"h","trial_type":"html-keyboard-response","trial_index":135,"time_elapsed":1571230,"internal_node_id":"0.0-5.0","subject_id":"6112d602d7819e6a35a0c95b","study_id":"6197b3f67c2b5cd3b6d9596a","session_id":"6197b9f1a340ba86976bb6fa","condition":"full-information","relevant_dimensions":["pattern","legs"],"bee_group":{"antennae":"X","wings":"X","pattern":"D","legs":"F"},"bonus":0.5200000000000002},{"rt":2654.699999999255,"stimulus":"bees-with-color/bee-A2SM.svg","response":1,"trial_type":"image-button-response","trial_index":136,"time_elapsed":1573888,"internal_node_id":"0.0-6.0-0.0","subject_id":"6112d602d7819e6a35a0c95b","study_id":"6197b3f67c2b5cd3b6d9596a","session_id":"6197b9f1a340ba86976bb6fa","condition":"full-information","relevant_dimensions":["pattern","legs"],"bee_group":{"antennae":"X","wings":"X","pattern":"D","legs":"F"},"bonus":0.5200000000000002},{"rt":950,"stimulus":"bees-with-color/bee-A2DM.svg","response":1,"trial_type":"image-button-response","trial_index":137,"time_elapsed":1574840,"internal_node_id":"0.0-6.0-0.1","subject_id":"6112d602d7819e6a35a0c95b","study_id":"6197b3f67c2b5cd3b6d9596a","session_id":"6197b9f1a340ba86976bb6fa","condition":"full-information","relevant_dimensions":["pattern","legs"],"bee_group":{"antennae":"X","wings":"X","pattern":"D","legs":"F"},"bonus":0.5200000000000002},{"rt":438.6000000014901,"stimulus":"bees-with-color/bee-A2SF.svg","response":1,"trial_type":"image-button-response","trial_index":138,"time_elapsed":1575280,"internal_node_id":"0.0-6.0-0.2","subject_id":"6112d602d7819e6a35a0c95b","study_id":"6197b3f67c2b5cd3b6d9596a","session_id":"6197b9f1a340ba86976bb6fa","condition":"full-information","relevant_dimensions":["pattern","legs"],"bee_group":{"antennae":"X","wings":"X","pattern":"D","legs":"F"},"bonus":0.5200000000000002},{"rt":303,"stimulus":"bees-with-color/bee-B1DF.svg","response":1,"trial_type":"image-button-response","trial_index":139,"time_elapsed":1575584,"internal_node_id":"0.0-6.0-0.3","subject_id":"6112d602d7819e6a35a0c95b","study_id":"6197b3f67c2b5cd3b6d9596a","session_id":"6197b9f1a340ba86976bb6fa","condition":"full-information","relevant_dimensions":["pattern","legs"],"bee_group":{"antennae":"X","wings":"X","pattern":"D","legs":"F"},"bonus":0.5200000000000002},{"rt":278.8999999985099,"stimulus":"bees-with-color/bee-A1DM.svg","response":1,"trial_type":"image-button-response","trial_index":140,"time_elapsed":1575864,"internal_node_id":"0.0-6.0-0.4","subject_id":"6112d602d7819e6a35a0c95b","study_id":"6197b3f67c2b5cd3b6d9596a","session_id":"6197b9f1a340ba86976bb6fa","condition":"full-information","relevant_dimensions":["pattern","legs"],"bee_group":{"antennae":"X","wings":"X","pattern":"D","legs":"F"},"bonus":0.5200000000000002},{"rt":245.5,"stimulus":"bees-with-color/bee-B2SM.svg","response":1,"trial_type":"image-button-response","trial_index":141,"time_elapsed":1576111,"internal_node_id":"0.0-6.0-0.5","subject_id":"6112d602d7819e6a35a0c95b","study_id":"6197b3f67c2b5cd3b6d9596a","session_id":"6197b9f1a340ba86976bb6fa","condition":"full-information","relevant_dimensions":["pattern","legs"],"bee_group":{"antennae":"X","wings":"X","pattern":"D","legs":"F"},"bonus":0.5200000000000002},{"rt":207.39999999850988,"stimulus":"bees-with-color/bee-B2DF.svg","response":1,"trial_type":"image-button-response","trial_index":142,"time_elapsed":1576320,"internal_node_id":"0.0-6.0-0.6","subject_id":"6112d602d7819e6a35a0c95b","study_id":"6197b3f67c2b5cd3b6d9596a","session_id":"6197b9f1a340ba86976bb6fa","condition":"full-information","relevant_dimensions":["pattern","legs"],"bee_group":{"antennae":"X","wings":"X","pattern":"D","legs":"F"},"bonus":0.5200000000000002},{"rt":166.30000000074506,"stimulus":"bees-with-color/bee-A1SM.svg","response":1,"trial_type":"image-button-response","trial_index":143,"time_elapsed":1576488,"internal_node_id":"0.0-6.0-0.7","subject_id":"6112d602d7819e6a35a0c95b","study_id":"6197b3f67c2b5cd3b6d9596a","session_id":"6197b9f1a340ba86976bb6fa","condition":"full-information","relevant_dimensions":["pattern","legs"],"bee_group":{"antennae":"X","wings":"X","pattern":"D","legs":"F"},"bonus":0.5200000000000002},{"rt":172.90000000223517,"stimulus":"bees-with-color/bee-A2DF.svg","response":1,"trial_type":"image-button-response","trial_index":144,"time_elapsed":1576663,"internal_node_id":"0.0-6.0-0.8","subject_id":"6112d602d7819e6a35a0c95b","study_id":"6197b3f67c2b5cd3b6d9596a","session_id":"6197b9f1a340ba86976bb6fa","condition":"full-information","relevant_dimensions":["pattern","legs"],"bee_group":{"antennae":"X","wings":"X","pattern":"D","legs":"F"},"bonus":0.5200000000000002},{"rt":167,"stimulus":"bees-with-color/bee-B2SF.svg","response":1,"trial_type":"image-button-response","trial_index":145,"time_elapsed":1576831,"internal_node_id":"0.0-6.0-0.9","subject_id":"6112d602d7819e6a35a0c95b","study_id":"6197b3f67c2b5cd3b6d9596a","session_id":"6197b9f1a340ba86976bb6fa","condition":"full-information","relevant_dimensions":["pattern","legs"],"bee_group":{"antennae":"X","wings":"X","pattern":"D","legs":"F"},"bonus":0.5200000000000002},{"rt":143.09999999776483,"stimulus":"bees-with-color/bee-B1DM.svg","response":1,"trial_type":"image-button-response","trial_index":146,"time_elapsed":1576976,"internal_node_id":"0.0-6.0-0.10","subject_id":"6112d602d7819e6a35a0c95b","study_id":"6197b3f67c2b5cd3b6d9596a","session_id":"6197b9f1a340ba86976bb6fa","condition":"full-information","relevant_dimensions":["pattern","legs"],"bee_group":{"antennae":"X","wings":"X","pattern":"D","legs":"F"},"bonus":0.5200000000000002},{"rt":150.39999999850988,"stimulus":"bees-with-color/bee-B2DM.svg","response":1,"trial_type":"image-button-response","trial_index":147,"time_elapsed":1577127,"internal_node_id":"0.0-6.0-0.11","subject_id":"6112d602d7819e6a35a0c95b","study_id":"6197b3f67c2b5cd3b6d9596a","session_id":"6197b9f1a340ba86976bb6fa","condition":"full-information","relevant_dimensions":["pattern","legs"],"bee_group":{"antennae":"X","wings":"X","pattern":"D","legs":"F"},"bonus":0.5200000000000002},{"rt":142.59999999776483,"stimulus":"bees-with-color/bee-B1SM.svg","response":1,"trial_type":"image-button-response","trial_index":148,"time_elapsed":1577271,"internal_node_id":"0.0-6.0-0.12","subject_id":"6112d602d7819e6a35a0c95b","study_id":"6197b3f67c2b5cd3b6d9596a","session_id":"6197b9f1a340ba86976bb6fa","condition":"full-information","relevant_dimensions":["pattern","legs"],"bee_group":{"antennae":"X","wings":"X","pattern":"D","legs":"F"},"bonus":0.5200000000000002},{"rt":159.10000000149012,"stimulus":"bees-with-color/bee-A1SF.svg","response":1,"trial_type":"image-button-response","trial_index":149,"time_elapsed":1577431,"internal_node_id":"0.0-6.0-0.13","subject_id":"6112d602d7819e6a35a0c95b","study_id":"6197b3f67c2b5cd3b6d9596a","session_id":"6197b9f1a340ba86976bb6fa","condition":"full-information","relevant_dimensions":["pattern","legs"],"bee_group":{"antennae":"X","wings":"X","pattern":"D","legs":"F"},"bonus":0.5200000000000002},{"rt":158.5,"stimulus":"bees-with-color/bee-A1DF.svg","response":1,"trial_type":"image-button-response","trial_index":150,"time_elapsed":1577591,"internal_node_id":"0.0-6.0-0.14","subject_id":"6112d602d7819e6a35a0c95b","study_id":"6197b3f67c2b5cd3b6d9596a","session_id":"6197b9f1a340ba86976bb6fa","condition":"full-information","relevant_dimensions":["pattern","legs"],"bee_group":{"antennae":"X","wings":"X","pattern":"D","legs":"F"},"bonus":0.5200000000000002},{"rt":150.89999999850988,"stimulus":"bees-with-color/bee-B1SF.svg","response":1,"trial_type":"image-button-response","trial_index":151,"time_elapsed":1577743,"internal_node_id":"0.0-6.0-0.15","subject_id":"6112d602d7819e6a35a0c95b","study_id":"6197b3f67c2b5cd3b6d9596a","session_id":"6197b9f1a340ba86976bb6fa","condition":"full-information","relevant_dimensions":["pattern","legs"],"bee_group":{"antennae":"X","wings":"X","pattern":"D","legs":"F"},"bonus":0.5200000000000002},{"rt":150.89999999850988,"stimulus":"bees-with-color/bee-A1SF.svg","response":1,"trial_type":"image-button-response","trial_index":152,"time_elapsed":1577895,"internal_node_id":"0.0-6.0-0.16","subject_id":"6112d602d7819e6a35a0c95b","study_id":"6197b3f67c2b5cd3b6d9596a","session_id":"6197b9f1a340ba86976bb6fa","condition":"full-information","relevant_dimensions":["pattern","legs"],"bee_group":{"antennae":"X","wings":"X","pattern":"D","legs":"F"},"bonus":0.5200000000000002},{"rt":150.69999999925494,"stimulus":"bees-with-color/bee-A1SM.svg","response":1,"trial_type":"image-button-response","trial_index":153,"time_elapsed":1578047,"internal_node_id":"0.0-6.0-0.17","subject_id":"6112d602d7819e6a35a0c95b","study_id":"6197b3f67c2b5cd3b6d9596a","session_id":"6197b9f1a340ba86976bb6fa","condition":"full-information","relevant_dimensions":["pattern","legs"],"bee_group":{"antennae":"X","wings":"X","pattern":"D","legs":"F"},"bonus":0.5200000000000002},{"rt":151.40000000223517,"stimulus":"bees-with-color/bee-B1DM.svg","response":1,"trial_type":"image-button-response","trial_index":154,"time_elapsed":1578200,"internal_node_id":"0.0-6.0-0.18","subject_id":"6112d602d7819e6a35a0c95b","study_id":"6197b3f67c2b5cd3b6d9596a","session_id":"6197b9f1a340ba86976bb6fa","condition":"full-information","relevant_dimensions":["pattern","legs"],"bee_group":{"antennae":"X","wings":"X","pattern":"D","legs":"F"},"bonus":0.5200000000000002},{"rt":150.69999999925494,"stimulus":"bees-with-color/bee-A2DF.svg","response":1,"trial_type":"image-button-response","trial_index":155,"time_elapsed":1578351,"internal_node_id":"0.0-6.0-0.19","subject_id":"6112d602d7819e6a35a0c95b","study_id":"6197b3f67c2b5cd3b6d9596a","session_id":"6197b9f1a340ba86976bb6fa","condition":"full-information","relevant_dimensions":["pattern","legs"],"bee_group":{"antennae":"X","wings":"X","pattern":"D","legs":"F"},"bonus":0.5200000000000002},{"rt":167.29999999701977,"stimulus":"bees-with-color/bee-B1DF.svg","response":1,"trial_type":"image-button-response","trial_index":156,"time_elapsed":1578519,"internal_node_id":"0.0-6.0-0.20","subject_id":"6112d602d7819e6a35a0c95b","study_id":"6197b3f67c2b5cd3b6d9596a","session_id":"6197b9f1a340ba86976bb6fa","condition":"full-information","relevant_dimensions":["pattern","legs"],"bee_group":{"antennae":"X","wings":"X","pattern":"D","legs":"F"},"bonus":0.5200000000000002},{"rt":158.80000000074506,"stimulus":"bees-with-color/bee-B1SM.svg","response":1,"trial_type":"image-button-response","trial_index":157,"time_elapsed":1578679,"internal_node_id":"0.0-6.0-0.21","subject_id":"6112d602d7819e6a35a0c95b","study_id":"6197b3f67c2b5cd3b6d9596a","session_id":"6197b9f1a340ba86976bb6fa","condition":"full-information","relevant_dimensions":["pattern","legs"],"bee_group":{"antennae":"X","wings":"X","pattern":"D","legs":"F"},"bonus":0.5200000000000002},{"rt":151,"stimulus":"bees-with-color/bee-A2DM.svg","response":1,"trial_type":"image-button-response","trial_index":158,"time_elapsed":1578831,"internal_node_id":"0.0-6.0-0.22","subject_id":"6112d602d7819e6a35a0c95b","study_id":"6197b3f67c2b5cd3b6d9596