[{"success":true,"trial_type":"fullscreen","trial_index":0,"time_elapsed":2200,"internal_node_id":"0.0-0.0","subject_id":"5fcd71a4176c9c2269b0234b","study_id":"60edd13110225f80f9f3709b","session_id":"6196c1f7346dec94041c2ded","condition":"contingent","relevant_dimensions":["antennae","wings"],"bee_group":{"antennae":"A","wings":"1","pattern":"X","legs":"X"},"bonus":0.720000000000001},{"success":true,"timeout":false,"failed_images":[],"failed_audio":[],"failed_video":[],"trial_type":"preload","trial_index":1,"time_elapsed":2333,"internal_node_id":"0.0-1.0","subject_id":"5fcd71a4176c9c2269b0234b","study_id":"60edd13110225f80f9f3709b","session_id":"6196c1f7346dec94041c2ded","condition":"contingent","relevant_dimensions":["antennae","wings"],"bee_group":{"antennae":"A","wings":"1","pattern":"X","legs":"X"},"bonus":0.720000000000001},{"rt":4226.155000011204,"stimulus":"Welcome! Press any key to begin.","response":"enter","trial_type":"html-keyboard-response","trial_index":2,"time_elapsed":6561,"internal_node_id":"0.0-2.0","subject_id":"5fcd71a4176c9c2269b0234b","study_id":"60edd13110225f80f9f3709b","session_id":"6196c1f7346dec94041c2ded","condition":"contingent","relevant_dimensions":["antennae","wings"],"bee_group":{"antennae":"A","wings":"1","pattern":"X","legs":"X"},"bonus":0.720000000000001},{"view_history":[{"page_index":0,"viewing_time":2423.2199999969453},{"page_index":1,"viewing_time":17916.31000000052},{"page_index":2,"viewing_time":10337.404999998398},{"page_index":3,"viewing_time":12252.250000019558},{"page_index":4,"viewing_time":13434.849999990547},{"page_index":5,"viewing_time":2488.8600000122096},{"page_index":6,"viewing_time":1237.5349999929313},{"page_index":7,"viewing_time":2035.3199999954086},{"page_index":8,"viewing_time":430.9650000068359},{"page_index":9,"viewing_time":466.1949999863282},{"page_index":10,"viewing_time":450.0500000140164},{"page_index":11,"viewing_time":13678.619999991497},{"page_index":12,"viewing_time":2917.365000001155},{"page_index":13,"viewing_time":1494.685000012396},{"page_index":14,"viewing_time":627.0499999809545}],"rt":82191.25999999233,"trial_type":"instructions","trial_index":3,"time_elapsed":88755,"internal_node_id":"0.0-3.0-0.0","subject_id":"5fcd71a4176c9c2269b0234b","study_id":"60edd13110225f80f9f3709b","session_id":"6196c1f7346dec94041c2ded","condition":"contingent","relevant_dimensions":["antennae","wings"],"bee_group":{"antennae":"A","wings":"1","pattern":"X","legs":"X"},"bonus":0.720000000000001},{"rt":7279.689999995753,"response":{"Q0":["Two or six legs","Stripes or spots on body","Single or double wings","Antennae or no antennae"]},"question_order":[0],"trial_type":"survey-multi-select","trial_index":4,"time_elapsed":96044,"internal_node_id":"0.0-3.0-1.0","subject_id":"5fcd71a4176c9c2269b0234b","study_id":"60edd13110225f80f9f3709b","session_id":"6196c1f7346dec94041c2ded","condition":"contingent","relevant_dimensions":["antennae","wings"],"bee_group":{"antennae":"A","wings":"1","pattern":"X","legs":"X"},"correct":true,"bonus":0.720000000000001},{"rt":38975.96000001067,"response":{"Q1":"No.","Q2":"Based on the four features of the bee.","Q3":"You do not learn if it was friendly or dangerous, and do not alter your bonus."},"question_order":[0,1,2],"trial_type":"survey-multi-choice","trial_index":5,"time_elapsed":135026,"internal_node_id":"0.0-3.0-2.0","subject_id":"5fcd71a4176c9c2269b0234b","study_id":"60edd13110225f80f9f3709b","session_id":"6196c1f7346dec94041c2ded","condition":"contingent","relevant_dimensions":["antennae","wings"],"bee_group":{"antennae":"A","wings":"1","pattern":"X","legs":"X"},"correct":true,"bonus":0.720000000000001},{"rt":6205.310000019381,"stimulus":"<p>Congrats, you got everything right<br>When you're ready, click the button below to continue to the experiment.</p>","response":0,"trial_type":"html-button-response","trial_index":6,"time_elapsed":141235,"internal_node_id":"0.0-3.0-3.0","subject_id":"5fcd71a4176c9c2269b0234b","study_id":"60edd13110225f80f9f3709b","session_id":"6196c1f7346dec94041c2ded","condition":"contingent","relevant_dimensions":["antennae","wings"],"bee_group":{"antennae":"A","wings":"1","pattern":"X","legs":"X"},"bonus":0.720000000000001},{"rt":21312.18499998795,"stimulus":"bees-with-color/bee-A1SM.svg","response":0,"trial_type":"image-button-response","trial_index":7,"time_elapsed":162551,"internal_node_id":"0.0-4.0-0.0","subject_id":"5fcd71a4176c9c2269b0234b","study_id":"60edd13110225f80f9f3709b","session_id":"6196c1f7346dec94041c2ded","condition":"contingent","relevant_dimensions":["antennae","wings"],"bee_group":{"antennae":"A","wings":"1","pattern":"X","legs":"X"},"action":"harvest","summary":"bad-harvest","bonus":0.720000000000001},{"rt":12894.969999993918,"stimulus":"\n                    <p><b>Action: <em>harvest</em></b></p>\n                    <p>This is the bee that you just saw.</p>\n                    <img src=\"bees-with-color/bee-A1SM.svg\" width=\"200\">\n                    <p><span class=\"redText\">Bad choice, the bee was angry.</span><br><b>You have been stung!</b><br>Your pay has been decreased by $0.10. Your bonus pay is now $0.44.</p>\n            ","response":0,"trial_type":"html-button-response","trial_index":8,"time_elapsed":175434,"internal_node_id":"0.0-4.0-1.0","subject_id":"5fcd71a4176c9c2269b0234b","study_id":"60edd13110225f80f9f3709b","session_id":"6196c1f7346dec94041c2ded","condition":"contingent","relevant_dimensions":["antennae","wings"],"bee_group":{"antennae":"A","wings":"1","pattern":"X","legs":"X"},"bonus":0.720000000000001},{"rt":2993.0999999924097,"stimulus":"bees-with-color/bee-A2SM.svg","response":1,"trial_type":"image-button-response","trial_index":9,"time_elapsed":178428,"internal_node_id":"0.0-4.0-0.1","subject_id":"5fcd71a4176c9c2269b0234b","study_id":"60edd13110225f80f9f3709b","session_id":"6196c1f7346dec94041c2ded","condition":"contingent","relevant_dimensions":["antennae","wings"],"bee_group":{"antennae":"A","wings":"1","pattern":"X","legs":"X"},"action":"avoid","summary":"bad-avoid","bonus":0.720000000000001},{"rt":7697.639999998501,"stimulus":"\n                    <p><b>Action: <em>avoid</em></b></p>\n                    <p>This is the bee that you just saw.</p>\n                    <img src=\"bees-with-color/bee-A2SM.svg\" width=\"200\">\n                    <p><br>Your bonus pay is unchanged, and remains at $0.44.</p>\n            ","response":0,"trial_type":"html-button-response","trial_index":10,"time_elapsed":186125,"internal_node_id":"0.0-4.0-1.1","subject_id":"5fcd71a4176c9c2269b0234b","study_id":"60edd13110225f80f9f3709b","session_id":"6196c1f7346dec94041c2ded","condition":"contingent","relevant_dimensions":["antennae","wings"],"bee_group":{"antennae":"A","wings":"1","pattern":"X","legs":"X"},"bonus":0.720000000000001},{"rt":3434.385000000475,"stimulus":"bees-with-color/bee-B1SF.svg","response":1,"trial_type":"image-button-response","trial_index":11,"time_elapsed":189561,"internal_node_id":"0.0-4.0-0.2","subject_id":"5fcd71a4176c9c2269b0234b","study_id":"60edd13110225f80f9f3709b","session_id":"6196c1f7346dec94041c2ded","condition":"contingent","relevant_dimensions":["antennae","wings"],"bee_group":{"antennae":"A","wings":"1","pattern":"X","legs":"X"},"action":"avoid","summary":"bad-avoid","bonus":0.720000000000001},{"rt":4111.800000013318,"stimulus":"\n                    <p><b>Action: <em>avoid</em></b></p>\n                    <p>This is the bee that you just saw.</p>\n                    <img src=\"bees-with-color/bee-B1SF.svg\" width=\"200\">\n                    <p><br>Your bonus pay is unchanged, and remains at $0.44.</p>\n            ","response":0,"trial_type":"html-button-response","trial_index":12,"time_elapsed":193674,"internal_node_id":"0.0-4.0-1.2","subject_id":"5fcd71a4176c9c2269b0234b","study_id":"60edd13110225f80f9f3709b","session_id":"6196c1f7346dec94041c2ded","condition":"contingent","relevant_dimensions":["antennae","wings"],"bee_group":{"antennae":"A","wings":"1","pattern":"X","legs":"X"},"bonus":0.720000000000001},{"rt":6896.160000003874,"stimulus":"bees-with-color/bee-A2DF.svg","response":1,"trial_type":"image-button-response","trial_index":13,"time_elapsed":200571,"internal_node_id":"0.0-4.0-0.3","subject_id":"5fcd71a4176c9c2269b0234b","study_id":"60edd13110225f80f9f3709b","session_id":"6196c1f7346dec94041c2ded","condition":"contingent","relevant_dimensions":["antennae","wings"],"bee_group":{"antennae":"A","wings":"1","pattern":"X","legs":"X"},"action":"avoid","summary":"bad-avoid","bonus":0.720000000000001},{"rt":4022.0200000039767,"stimulus":"\n                    <p><b>Action: <em>avoid</em></b></p>\n                    <p>This is the bee that you just saw.</p>\n                    <img src=\"bees-with-color/bee-A2DF.svg\" width=\"200\">\n                    <p><br>Your bonus pay is unchanged, and remains at $0.44.</p>\n            ","response":0,"trial_type":"html-button-response","trial_index":14,"time_elapsed":204596,"internal_node_id":"0.0-4.0-1.3","subject_id":"5fcd71a4176c9c2269b0234b","study_id":"60edd13110225f80f9f3709b","session_id":"6196c1f7346dec94041c2ded","condition":"contingent","relevant_dimensions":["antennae","wings"],"bee_group":{"antennae":"A","wings":"1","pattern":"X","legs":"X"},"bonus":0.720000000000001},{"rt":2406.695000012405,"stimulus":"bees-with-color/bee-A1DF.svg","response":0,"trial_type":"image-button-response","trial_index":15,"time_elapsed":207005,"internal_node_id":"0.0-4.0-0.4","subject_id":"5fcd71a4176c9c2269b0234b","study_id":"60edd13110225f80f9f3709b","session_id":"6196c1f7346dec94041c2ded","condition":"contingent","relevant_dimensions":["antennae","wings"],"bee_group":{"antennae":"A","wings":"1","pattern":"X","legs":"X"},"action":"harvest","summary":"bad-harvest","bonus":0.720000000000001},{"rt":4528.064999991329,"stimulus":"\n                    <p><b>Action: <em>harvest</em></b></p>\n                    <p>This is the bee that you just saw.</p>\n                    <img src=\"bees-with-color/bee-A1DF.svg\" width=\"200\">\n                    <p><span class=\"redText\">Bad choice, the bee was angry.</span><br><b>You have been stung!</b><br>Your pay has been decreased by $0.10. Your bonus pay is now $0.34.</p>\n            ","response":0,"trial_type":"html-button-response","trial_index":16,"time_elapsed":211534,"internal_node_id":"0.0-4.0-1.4","subject_id":"5fcd71a4176c9c2269b0234b","study_id":"60edd13110225f80f9f3709b","session_id":"6196c1f7346dec94041c2ded","condition":"contingent","relevant_dimensions":["antennae","wings"],"bee_group":{"antennae":"A","wings":"1","pattern":"X","legs":"X"},"bonus":0.720000000000001},{"rt":7128.190000017639,"stimulus":"bees-with-color/bee-B1SM.svg","response":1,"trial_type":"image-button-response","trial_index":17,"time_elapsed":218665,"internal_node_id":"0.0-4.0-0.5","subject_id":"5fcd71a4176c9c2269b0234b","study_id":"60edd13110225f80f9f3709b","session_id":"6196c1f7346dec94041c2ded","condition":"contingent","relevant_dimensions":["antennae","wings"],"bee_group":{"antennae":"A","wings":"1","pattern":"X","legs":"X"},"action":"avoid","summary":"bad-avoid","bonus":0.720000000000001},{"rt":2760.7999999891035,"stimulus":"\n                    <p><b>Action: <em>avoid</em></b></p>\n                    <p>This is the bee that you just saw.</p>\n                    <img src=\"bees-with-color/bee-B1SM.svg\" width=\"200\">\n                    <p><br>Your bonus pay is unchanged, and remains at $0.34.</p>\n            ","response":0,"trial_type":"html-button-response","trial_index":18,"time_elapsed":221427,"internal_node_id":"0.0-4.0-1.5","subject_id":"5fcd71a4176c9c2269b0234b","study_id":"60edd13110225f80f9f3709b","session_id":"6196c1f7346dec94041c2ded","condition":"contingent","relevant_dimensions":["antennae","wings"],"bee_group":{"antennae":"A","wings":"1","pattern":"X","legs":"X"},"bonus":0.720000000000001},{"rt":3250.4400000034366,"stimulus":"bees-with-color/bee-B2DF.svg","response":0,"trial_type":"image-button-response","trial_index":19,"time_elapsed":224680,"internal_node_id":"0.0-4.0-0.6","subject_id":"5fcd71a4176c9c2269b0234b","study_id":"60edd13110225f80f9f3709b","session_id":"6196c1f7346dec94041c2ded","condition":"contingent","relevant_dimensions":["antennae","wings"],"bee_group":{"antennae":"A","wings":"1","pattern":"X","legs":"X"},"action":"harvest","summary":"good-harvest","bonus":0.720000000000001},{"rt":2103.709999995772,"stimulus":"\n                    <p><b>Action: <em>harvest</em></b></p>\n                    <p>This is the bee that you just saw.</p>\n                    <img src=\"bees-with-color/bee-B2DF.svg\" width=\"200\">\n                    <p><span class=\"greenText\"><b>Successful harvest!</b></span><br>Your pay has increased by $0.02. Your bonus pay is now $0.36.</p>\n            ","response":0,"trial_type":"html-button-response","trial_index":20,"time_elapsed":226786,"internal_node_id":"0.0-4.0-1.6","subject_id":"5fcd71a4176c9c2269b0234b","study_id":"60edd13110225f80f9f3709b","session_id":"6196c1f7346dec94041c2ded","condition":"contingent","relevant_dimensions":["antennae","wings"],"bee_group":{"antennae":"A","wings":"1","pattern":"X","legs":"X"},"bonus":0.720000000000001},{"rt":3669.0250000101514,"stimulus":"bees-with-color/bee-A2SF.svg","response":0,"trial_type":"image-button-response","trial_index":21,"time_elapsed":230457,"internal_node_id":"0.0-4.0-0.7","subject_id":"5fcd71a4176c9c2269b0234b","study_id":"60edd13110225f80f9f3709b","session_id":"6196c1f7346dec94041c2ded","condition":"contingent","relevant_dimensions":["antennae","wings"],"bee_group":{"antennae":"A","wings":"1","pattern":"X","legs":"X"},"action":"harvest","summary":"good-harvest","bonus":0.720000000000001},{"rt":1733.490000013262,"stimulus":"\n                    <p><b>Action: <em>harvest</em></b></p>\n                    <p>This is the bee that you just saw.</p>\n                    <img src=\"bees-with-color/bee-A2SF.svg\" width=\"200\">\n                    <p><span class=\"greenText\"><b>Successful harvest!</b></span><br>Your pay has increased by $0.02. Your bonus pay is now $0.38.</p>\n            ","response":0,"trial_type":"html-button-response","trial_index":22,"time_elapsed":232193,"internal_node_id":"0.0-4.0-1.7","subject_id":"5fcd71a4176c9c2269b0234b","study_id":"60edd13110225f80f9f3709b","session_id":"6196c1f7346dec94041c2ded","condition":"contingent","relevant_dimensions":["antennae","wings"],"bee_group":{"antennae":"A","wings":"1","pattern":"X","legs":"X"},"bonus":0.720000000000001},{"rt":1861.590000014985,"stimulus":"bees-with-color/bee-A1SF.svg","response":1,"trial_type":"image-button-response","trial_index":23,"time_elapsed":234056,"internal_node_id":"0.0-4.0-0.8","subject_id":"5fcd71a4176c9c2269b0234b","study_id":"60edd13110225f80f9f3709b","session_id":"6196c1f7346dec94041c2ded","condition":"contingent","relevant_dimensions":["antennae","wings"],"bee_group":{"antennae":"A","wings":"1","pattern":"X","legs":"X"},"action":"avoid","summary":"good-avoid","bonus":0.720000000000001},{"rt":3913.3049999945797,"stimulus":"\n                    <p><b>Action: <em>avoid</em></b></p>\n                    <p>This is the bee that you just saw.</p>\n                    <img src=\"bees-with-color/bee-A1SF.svg\" width=\"200\">\n                    <p><br>Your bonus pay is unchanged, and remains at $0.38.</p>\n            ","response":0,"trial_type":"html-button-response","trial_index":24,"time_elapsed":237972,"internal_node_id":"0.0-4.0-1.8","subject_id":"5fcd71a4176c9c2269b0234b","study_id":"60edd13110225f80f9f3709b","session_id":"6196c1f7346dec94041c2ded","condition":"contingent","relevant_dimensions":["antennae","wings"],"bee_group":{"antennae":"A","wings":"1","pattern":"X","legs":"X"},"bonus":0.720000000000001},{"rt":3476.230000000214,"stimulus":"bees-with-color/bee-B1DM.svg","response":0,"trial_type":"image-button-response","trial_index":25,"time_elapsed":241450,"internal_node_id":"0.0-4.0-0.9","subject_id":"5fcd71a4176c9c2269b0234b","study_id":"60edd13110225f80f9f3709b","session_id":"6196c1f7346dec94041c2ded","condition":"contingent","relevant_dimensions":["antennae","wings"],"bee_group":{"antennae":"A","wings":"1","pattern":"X","legs":"X"},"action":"harvest","summary":"good-harvest","bonus":0.720000000000001},{"rt":2649.089999991702,"stimulus":"\n                    <p><b>Action: <em>harvest</em></b></p>\n                    <p>This is the bee that you just saw.</p>\n                    <img src=\"bees-with-color/bee-B1DM.svg\" width=\"200\">\n                    <p><span class=\"greenText\"><b>Successful harvest!</b></span><br>Your pay has increased by $0.02. Your bonus pay is now $0.40.</p>\n            ","response":0,"trial_type":"html-button-response","trial_index":26,"time_elapsed":244102,"internal_node_id":"0.0-4.0-1.9","subject_id":"5fcd71a4176c9c2269b0234b","study_id":"60edd13110225f80f9f3709b","session_id":"6196c1f7346dec94041c2ded","condition":"contingent","relevant_dimensions":["antennae","wings"],"bee_group":{"antennae":"A","wings":"1","pattern":"X","legs":"X"},"bonus":0.720000000000001},{"rt":2986.080000002403,"stimulus":"bees-with-color/bee-B1DF.svg","response":0,"trial_type":"image-button-response","trial_index":27,"time_elapsed":247090,"internal_node_id":"0.0-4.0-0.10","subject_id":"5fcd71a4176c9c2269b0234b","study_id":"60edd13110225f80f9f3709b","session_id":"6196c1f7346dec94041c2ded","condition":"contingent","relevant_dimensions":["antennae","wings"],"bee_group":{"antennae":"A","wings":"1","pattern":"X","legs":"X"},"action":"harvest","summary":"good-harvest","bonus":0.720000000000001},{"rt":1651.754999998957,"stimulus":"\n                    <p><b>Action: <em>harvest</em></b></p>\n                    <p>This is the bee that you just saw.</p>\n                    <img src=\"bees-with-color/bee-B1DF.svg\" width=\"200\">\n                    <p><span class=\"greenText\"><b>Successful harvest!</b></span><br>Your pay has increased by $0.02. Your bonus pay is now $0.42.</p>\n            ","response":0,"trial_type":"html-button-response","trial_index":28,"time_elapsed":248744,"internal_node_id":"0.0-4.0-1.10","subject_id":"5fcd71a4176c9c2269b0234b","study_id":"60edd13110225f80f9f3709b","session_id":"6196c1f7346dec94041c2ded","condition":"contingent","relevant_dimensions":["antennae","wings"],"bee_group":{"antennae":"A","wings":"1","pattern":"X","legs":"X"},"bonus":0.720000000000001},{"rt":3772.1350000065286,"stimulus":"bees-with-color/bee-B2SM.svg","response":0,"trial_type":"image-button-response","trial_index":29,"time_elapsed":252519,"internal_node_id":"0.0-4.0-0.11","subject_id":"5fcd71a4176c9c2269b0234b","study_id":"60edd13110225f80f9f3709b","session_id":"6196c1f7346dec94041c2ded","condition":"contingent","relevant_dimensions":["antennae","wings"],"bee_group":{"antennae":"A","wings":"1","pattern":"X","legs":"X"},"action":"harvest","summary":"good-harvest","bonus":0.720000000000001},{"rt":1581.0199999832548,"stimulus":"\n                    <p><b>Action: <em>harvest</em></b></p>\n                    <p>This is the bee that you just saw.</p>\n                    <img src=\"bees-with-color/bee-B2SM.svg\" width=\"200\">\n                    <p><span class=\"greenText\"><b>Successful harvest!</b></span><br>Your pay has increased by $0.02. Your bonus pay is now $0.44.</p>\n            ","response":0,"trial_type":"html-button-response","trial_index":30,"time_elapsed":254102,"internal_node_id":"0.0-4.0-1.11","subject_id":"5fcd71a4176c9c2269b0234b","study_id":"60edd13110225f80f9f3709b","session_id":"6196c1f7346dec94041c2ded","condition":"contingent","relevant_dimensions":["antennae","wings"],"bee_group":{"antennae":"A","wings":"1","pattern":"X","legs":"X"},"bonus":0.720000000000001},{"rt":3716.629999980796,"stimulus":"bees-with-color/bee-A1DM.svg","response":0,"trial_type":"image-button-response","trial_index":31,"time_elapsed":257821,"internal_node_id":"0.0-4.0-0.12","subject_id":"5fcd71a4176c9c2269b0234b","study_id":"60edd13110225f80f9f3709b","session_id":"6196c1f7346dec94041c2ded","condition":"contingent","relevant_dimensions":["antennae","wings"],"bee_group":{"antennae":"A","wings":"1","pattern":"X","legs":"X"},"action":"harvest","summary":"bad-harvest","bonus":0.720000000000001},{"rt":1643.9799999934621,"stimulus":"\n                    <p><b>Action: <em>harvest</em></b></p>\n                    <p>This is the bee that you just saw.</p>\n                    <img src=\"bees-with-color/bee-A1DM.svg\" width=\"200\">\n                    <p><span class=\"redText\">Bad choice, the bee was angry.</span><br><b>You have been stung!</b><br>Your pay has been decreased by $0.10. Your bonus pay is now $0.34.</p>\n            ","response":0,"trial_type":"html-button-response","trial_index":32,"time_elapsed":259467,"internal_node_id":"0.0-4.0-1.12","subject_id":"5fcd71a4176c9c2269b0234b","study_id":"60edd13110225f80f9f3709b","session_id":"6196c1f7346dec94041c2ded","condition":"contingent","relevant_dimensions":["antennae","wings"],"bee_group":{"antennae":"A","wings":"1","pattern":"X","legs":"X"},"bonus":0.720000000000001},{"rt":2487.71499999566,"stimulus":"bees-with-color/bee-B2SF.svg","response":0,"trial_type":"image-button-response","trial_index":33,"time_elapsed":261958,"internal_node_id":"0.0-4.0-0.13","subject_id":"5fcd71a4176c9c2269b0234b","study_id":"60edd13110225f80f9f3709b","session_id":"6196c1f7346dec94041c2ded","condition":"contingent","relevant_dimensions":["antennae","wings"],"bee_group":{"antennae":"A","wings":"1","pattern":"X","legs":"X"},"action":"harvest","summary":"good-harvest","bonus":0.720000000000001},{"rt":3707.2150000021793,"stimulus":"\n                    <p><b>Action: <em>harvest</em></b></p>\n                    <p>This is the bee that you just saw.</p>\n                    <img src=\"bees-with-color/bee-B2SF.svg\" width=\"200\">\n                    <p><span class=\"greenText\"><b>Successful harvest!</b></span><br>Your pay has increased by $0.02. Your bonus pay is now $0.36.</p>\n            ","response":0,"trial_type":"html-button-response","trial_index":34,"time_elapsed":265667,"internal_node_id":"0.0-4.0-1.13","subject_id":"5fcd71a4176c9c2269b0234b","study_id":"60edd13110225f80f9f3709b","session_id":"6196c1f7346dec94041c2ded","condition":"contingent","relevant_dimensions":["antennae","wings"],"bee_group":{"antennae":"A","wings":"1","pattern":"X","legs":"X"},"bonus":0.720000000000001},{"rt":2761.0200000053737,"stimulus":"bees-with-color/bee-B2DM.svg","response":0,"trial_type":"image-button-response","trial_index":35,"time_elapsed":268430,"internal_node_id":"0.0-4.0-0.14","subject_id":"5fcd71a4176c9c2269b0234b","study_id":"60edd13110225f80f9f3709b","session_id":"6196c1f7346dec94041c2ded","condition":"contingent","relevant_dimensions":["antennae","wings"],"bee_group":{"antennae":"A","wings":"1","pattern":"X","legs":"X"},"action":"harvest","summary":"good-harvest","bonus":0.720000000000001},{"rt":1699.1850000049453,"stimulus":"\n                    <p><b>Action: <em>harvest</em></b></p>\n                    <p>This is the bee that you just saw.</p>\n                    <img src=\"bees-with-color/bee-B2DM.svg\" width=\"200\">\n                    <p><span class=\"greenText\"><b>Successful harvest!</b></span><br>Your pay has increased by $0.02. Your bonus pay is now $0.38.</p>\n            ","response":0,"trial_type":"html-button-response","trial_index":36,"time_elapsed":270133,"internal_node_id":"0.0-4.0-1.14","subject_id":"5fcd71a4176c9c2269b0234b","study_id":"60edd13110225f80f9f3709b","session_id":"6196c1f7346dec94041c2ded","condition":"contingent","relevant_dimensions":["antennae","wings"],"bee_group":{"antennae":"A","wings":"1","pattern":"X","legs":"X"},"bonus":0.720000000000001},{"rt":2062.2999999905005,"stimulus":"bees-with-color/bee-A2DM.svg","response":0,"trial_type":"image-button-response","trial_index":37,"time_elapsed":272197,"internal_node_id":"0.0-4.0-0.15","subject_id":"5fcd71a4176c9c2269b0234b","study_id":"60edd13110225f80f9f3709b","session_id":"6196c1f7346dec94041c2ded","condition":"contingent","relevant_dimensions":["antennae","wings"],"bee_group":{"antennae":"A","wings":"1","pattern":"X","legs":"X"},"action":"harvest","summary":"good-harvest","bonus":0.720000000000001},{"rt":2655.0749999878462,"stimulus":"\n                    <p><b>Action: <em>harvest</em></b></p>\n                    <p>This is the bee that you just saw.</p>\n                    <img src=\"bees-with-color/bee-A2DM.svg\" width=\"200\">\n                    <p><span class=\"greenText\"><b>Successful harvest!</b></span><br>Your pay has increased by $0.02. Your bonus pay is now $0.40.</p>\n            ","response":0,"trial_type":"html-button-response","trial_index":38,"time_elapsed":274855,"internal_node_id":"0.0-4.0-1.15","subject_id":"5fcd71a4176c9c2269b0234b","study_id":"60edd13110225f80f9f3709b","session_id":"6196c1f7346dec94041c2ded","condition":"contingent","relevant_dimensions":["antennae","wings"],"bee_group":{"antennae":"A","wings":"1","pattern":"X","legs":"X"},"bonus":0.720000000000001},{"rt":3419.354999990901,"stimulus":"bees-with-color/bee-B2DF.svg","response":0,"trial_type":"image-button-response","trial_index":39,"time_elapsed":278277,"internal_node_id":"0.0-4.0-0.16","subject_id":"5fcd71a4176c9c2269b0234b","study_id":"60edd13110225f80f9f3709b","session_id":"6196c1f7346dec94041c2ded","condition":"contingent","relevant_dimensions":["antennae","wings"],"bee_group":{"antennae":"A","wings":"1","pattern":"X","legs":"X"},"action":"harvest","summary":"good-harvest","bonus":0.720000000000001},{"rt":1508.2600000023376,"stimulus":"\n                    <p><b>Action: <em>harvest</em></b></p>\n                    <p>This is the bee that you just saw.</p>\n                    <img src=\"bees-with-color/bee-B2DF.svg\" width=\"200\">\n                    <p><span class=\"greenText\"><b>Successful harvest!</b></span><br>Your pay has increased by $0.02. Your bonus pay is now $0.42.</p>\n            ","response":0,"trial_type":"html-button-response","trial_index":40,"time_elapsed":279788,"internal_node_id":"0.0-4.0-1.16","subject_id":"5fcd71a4176c9c2269b0234b","study_id":"60edd13110225f80f9f3709b","session_id":"6196c1f7346dec94041c2ded","condition":"contingent","relevant_dimensions":["antennae","wings"],"bee_group":{"antennae":"A","wings":"1","pattern":"X","legs":"X"},"bonus":0.720000000000001},{"rt":4031.184999999823,"stimulus":"bees-with-color/bee-A2SF.svg","response":0,"trial_type":"image-button-response","trial_index":41,"time_elapsed":283821,"internal_node_id":"0.0-4.0-0.17","subject_id":"5fcd71a4176c9c2269b0234b","study_id":"60edd13110225f80f9f3709b","session_id":"6196c1f7346dec94041c2ded","condition":"contingent","relevant_dimensions":["antennae","wings"],"bee_group":{"antennae":"A","wings":"1","pattern":"X","legs":"X"},"action":"harvest","summary":"good-harvest","bonus":0.720000000000001},{"rt":1580.6900000025053,"stimulus":"\n                    <p><b>Action: <em>harvest</em></b></p>\n                    <p>This is the bee that you just saw.</p>\n                    <img src=\"bees-with-color/bee-A2SF.svg\" width=\"200\">\n                    <p><span class=\"greenText\"><b>Successful harvest!</b></span><br>Your pay has increased by $0.02. Your bonus pay is now $0.44.</p>\n            ","response":0,"trial_type":"html-button-response","trial_index":42,"time_elapsed":285404,"internal_node_id":"0.0-4.0-1.17","subject_id":"5fcd71a4176c9c2269b0234b","study_id":"60edd13110225f80f9f3709b","session_id":"6196c1f7346dec94041c2ded","condition":"contingent","relevant_dimensions":["antennae","wings"],"bee_group":{"antennae":"A","wings":"1","pattern":"X","legs":"X"},"bonus":0.720000000000001},{"rt":2133.8249999971595,"stimulus":"bees-with-color/bee-A1SF.svg","response":1,"trial_type":"image-button-response","trial_index":43,"time_elapsed":287541,"internal_node_id":"0.0-4.0-0.18","subject_id":"5fcd71a4176c9c2269b0234b","study_id":"60edd13110225f80f9f3709b","session_id":"6196c1f7346dec94041c2ded","condition":"contingent","relevant_dimensions":["antennae","wings"],"bee_group":{"antennae":"A","wings":"1","pattern":"X","legs":"X"},"action":"avoid","summary":"good-avoid","bonus":0.720000000000001},{"rt":2618.190000008326,"stimulus":"\n                    <p><b>Action: <em>avoid</em></b></p>\n                    <p>This is the bee that you just saw.</p>\n                    <img src=\"bees-with-color/bee-A1SF.svg\" width=\"200\">\n                    <p><br>Your bonus pay is unchanged, and remains at $0.44.</p>\n            ","response":0,"trial_type":"html-button-response","trial_index":44,"time_elapsed":290161,"internal_node_id":"0.0-4.0-1.18","subject_id":"5fcd71a4176c9c2269b0234b","study_id":"60edd13110225f80f9f3709b","session_id":"6196c1f7346dec94041c2ded","condition":"contingent","relevant_dimensions":["antennae","wings"],"bee_group":{"antennae":"A","wings":"1","pattern":"X","legs":"X"},"bonus":0.720000000000001},{"rt":4069.324999989476,"stimulus":"bees-with-color/bee-A2DM.svg","response":1,"trial_type":"image-button-response","trial_index":45,"time_elapsed":294233,"internal_node_id":"0.0-4.0-0.19","subject_id":"5fcd71a4176c9c2269b0234b","study_id":"60edd13110225f80f9f3709b","session_id":"6196c1f7346dec94041c2ded","condition":"contingent","relevant_dimensions":["antennae","wings"],"bee_group":{"antennae":"A","wings":"1","pattern":"X","legs":"X"},"action":"avoid","summary":"bad-avoid","bonus":0.720000000000001},{"rt":2664.8600000189617,"stimulus":"\n                    <p><b>Action: <em>avoid</em></b></p>\n                    <p>This is the bee that you just saw.</p>\n                    <img src=\"bees-with-color/bee-A2DM.svg\" width=\"200\">\n                    <p><br>Your bonus pay is unchanged, and remains at $0.44.</p>\n            ","response":0,"trial_type":"html-button-response","trial_index":46,"time_elapsed":296900,"internal_node_id":"0.0-4.0-1.19","subject_id":"5fcd71a4176c9c2269b0234b","study_id":"60edd13110225f80f9f3709b","session_id":"6196c1f7346dec94041c2ded","condition":"contingent","relevant_dimensions":["antennae","wings"],"bee_group":{"antennae":"A","wings":"1","pattern":"X","legs":"X"},"bonus":0.720000000000001},{"rt":1957.989999995334,"stimulus":"bees-with-color/bee-B1DF.svg","response":1,"trial_type":"image-button-response","trial_index":47,"time_elapsed":298861,"internal_node_id":"0.0-4.0-0.20","subject_id":"5fcd71a4176c9c2269b0234b","study_id":"60edd13110225f80f9f3709b","session_id":"6196c1f7346dec94041c2ded","condition":"contingent","relevant_dimensions":["antennae","wings"],"bee_group":{"antennae":"A","wings":"1","pattern":"X","legs":"X"},"action":"avoid","summary":"bad-avoid","bonus":0.720000000000001},{"rt":1203.094999975292,"stimulus":"\n                    <p><b>Action: <em>avoid</em></b></p>\n                    <p>This is the bee that you just saw.</p>\n                    <img src=\"bees-with-color/bee-B1DF.svg\" width=\"200\">\n                    <p><br>Your bonus pay is unchanged, and remains at $0.44.</p>\n            ","response":0,"trial_type":"html-button-response","trial_index":48,"time_elapsed":300066,"internal_node_id":"0.0-4.0-1.20","subject_id":"5fcd71a4176c9c2269b0234b","study_id":"60edd13110225f80f9f3709b","session_id":"6196c1f7346dec94041c2ded","condition":"contingent","relevant_dimensions":["antennae","wings"],"bee_group":{"antennae":"A","wings":"1","pattern":"X","legs":"X"},"bonus":0.720000000000001},{"rt":3380.1600000006147,"stimulus":"bees-with-color/bee-A2DF.svg","response":0,"trial_type":"image-button-response","trial_index":49,"time_elapsed":303448,"internal_node_id":"0.0-4.0-0.21","subject_id":"5fcd71a4176c9c2269b0234b","study_id":"60edd13110225f80f9f3709b","session_id":"6196c1f7346dec94041c2ded","condition":"contingent","relevant_dimensions":["antennae","wings"],"bee_group":{"antennae":"A","wings":"1","pattern":"X","legs":"X"},"action":"harvest","summary":"good-harvest","bonus":0.720000000000001},{"rt":1195.384999999078,"stimulus":"\n                    <p><b>Action: <em>harvest</em></b></p>\n                    <p>This is the bee that you just saw.</p>\n                    <img src=\"bees-with-color/bee-A2DF.svg\" width=\"200\">\n                    <p><span class=\"greenText\"><b>Successful harvest!</b></span><br>Your pay has increased by $0.02. Your bonus pay is now $0.46.</p>\n            ","response":0,"trial_type":"html-button-response","trial_index":50,"time_elapsed":304646,"internal_node_id":"0.0-4.0-1.21","subject_id":"5fcd71a4176c9c2269b0234b","study_id":"60edd13110225f80f9f3709b","session_id":"6196c1f7346dec94041c2ded","condition":"contingent","relevant_dimensions":["antennae","wings"],"bee_group":{"antennae":"A","wings":"1","pattern":"X","legs":"X"},"bonus":0.720000000000001},{"rt":1604.0999999968335,"stimulus":"bees-with-color/bee-A1DF.svg","response":1,"trial_type":"image-button-response","trial_index":51,"time_elapsed":306252,"internal_node_id":"0.0-4.0-0.22","subject_id":"5fcd71a4176c9c2269b0234b","study_id":"60edd13110225f80f9f3709b","session_id":"6196c1f7346dec94041c2ded","condition":"contingent","relevant_dimensions":["antennae","wings"],"bee_group":{"antennae":"A","wings":"1","pattern":"X","legs":"X"},"action":"avoid","summary":"good-avoid","bonus":0.720000000000001},{"rt":1420.0800000107847,"stimulus":"\n                    <p><b>Action: <em>avoid</em></b></p>\n                    <p>This is the bee that you just saw.</p>\n                    <img src=\"bees-with-color/bee-A1DF.svg\" width=\"200\">\n                    <p><br>Your bonus pay is unchanged, and remains at $0.46.</p>\n            ","response":0,"trial_type":"html-button-response","trial_index":52,"time_elapsed":307675,"internal_node_id":"0.0-4.0-1.22","subject_id":"5fcd71a4176c9c2269b0234b","study_id":"60edd13110225f80f9f3709b","session_id":"6196c1f7346dec94041c2ded","condition":"contingent","relevant_dimensions":["antennae","wings"],"bee_group":{"antennae":"A","wings":"1","pattern":"X","legs":"X"},"bonus":0.720000000000001},{"rt":1500.7350000087172,"stimulus":"bees-with-color/bee-B2SM.svg","response":0,"trial_type":"image-button-response","trial_index":53,"time_elapsed":309178,"internal_node_id":"0.0-4.0-0.23","subject_id":"5fcd71a4176c9c2269b0234b","study_id":"60edd13110225f80f9f3709b","session_id":"6196c1f7346dec94041c2ded","condition":"contingent","relevant_dimensions":["antennae","wings"],"bee_group":{"antennae":"A","wings":"1","pattern":"X","legs":"X"},"action":"harvest","summary":"good-harvest","bonus":0.720000000000001},{"rt":1178.490000020247,"stimulus":"\n                    <p><b>Action: <em>harvest</em></b></p>\n                    <p>This is the bee that you just saw.</p>\n                    <img src=\"bees-with-color/bee-B2SM.svg\" width=\"200\">\n                    <p><span class=\"greenText\"><b>Successful harvest!</b></span><br>Your pay has increased by $0.02. Your bonus pay is now $0.48.</p>\n            ","response":0,"trial_type":"html-button-response","trial_index":54,"time_elapsed":310359,"internal_node_id":"0.0-4.0-1.23","subject_id":"5fcd71a4176c9c2269b0234b","study_id":"60edd13110225f80f9f3709b","session_id":"6196c1f7346dec94041c2ded","condition":"contingent","relevant_dimensions":["antennae","wings"],"bee_group":{"antennae":"A","wings":"1","pattern":"X","legs":"X"},"bonus":0.720000000000001},{"rt":1226.6700000036508,"stimulus":"bees-with-color/bee-B1DM.svg","response":1,"trial_type":"image-button-response","trial_index":55,"time_elapsed":311588,"internal_node_id":"0.0-4.0-0.24","subject_id":"5fcd71a4176c9c2269b0234b","study_id":"60edd13110225f80f9f3709b","session_id":"6196c1f7346dec94041c2ded","condition":"contingent","relevant_dimensions":["antennae","wings"],"bee_group":{"antennae":"A","wings":"1","pattern":"X","legs":"X"},"action":"avoid","summary":"bad-avoid","bonus":0.720000000000001},{"rt":1267.5300000119023,"stimulus":"\n                    <p><b>Action: <em>avoid</em></b></p>\n                    <p>This is the bee that you just saw.</p>\n                    <img src=\"bees-with-color/bee-B1DM.svg\" width=\"200\">\n                    <p><br>Your bonus pay is unchanged, and remains at $0.48.</p>\n            ","response":0,"trial_type":"html-button-response","trial_index":56,"time_elapsed":312857,"internal_node_id":"0.0-4.0-1.24","subject_id":"5fcd71a4176c9c2269b0234b","study_id":"60edd13110225f80f9f3709b","session_id":"6196c1f7346dec94041c2ded","condition":"contingent","relevant_dimensions":["antennae","wings"],"bee_group":{"antennae":"A","wings":"1","pattern":"X","legs":"X"},"bonus":0.720000000000001},{"rt":1990.090000006603,"stimulus":"bees-with-color/bee-B2SF.svg","response":0,"trial_type":"image-button-response","trial_index":57,"time_elapsed":314849,"internal_node_id":"0.0-4.0-0.25","subject_id":"5fcd71a4176c9c2269b0234b","study_id":"60edd13110225f80f9f3709b","session_id":"6196c1f7346dec94041c2ded","condition":"contingent","relevant_dimensions":["antennae","wings"],"bee_group":{"antennae":"A","wings":"1","pattern":"X","legs":"X"},"action":"harvest","summary":"good-harvest","bonus":0.720000000000001},{"rt":1123.024999978952,"stimulus":"\n                    <p><b>Action: <em>harvest</em></b></p>\n                    <p>This is the bee that you just saw.</p>\n                    <img src=\"bees-with-color/bee-B2SF.svg\" width=\"200\">\n                    <p><span class=\"greenText\"><b>Successful harvest!</b></span><br>Your pay has increased by $0.02. Your bonus pay is now $0.50.</p>\n            ","response":0,"trial_type":"html-button-response","trial_index":58,"time_elapsed":315974,"internal_node_id":"0.0-4.0-1.25","subject_id":"5fcd71a4176c9c2269b0234b","study_id":"60edd13110225f80f9f3709b","session_id":"6196c1f7346dec94041c2ded","condition":"contingent","relevant_dimensions":["antennae","wings"],"bee_group":{"antennae":"A","wings":"1","pattern":"X","legs":"X"},"bonus":0.720000000000001},{"rt":1170.9300000220537,"stimulus":"bees-with-color/bee-A1DM.svg","response":1,"trial_type":"image-button-response","trial_index":59,"time_elapsed":317147,"internal_node_id":"0.0-4.0-0.26","subject_id":"5fcd71a4176c9c2269b0234b","study_id":"60edd13110225f80f9f3709b","session_id":"6196c1f7346dec94041c2ded","condition":"contingent","relevant_dimensions":["antennae","wings"],"bee_group":{"antennae":"A","wings":"1","pattern":"X","legs":"X"},"action":"avoid","summary":"good-avoid","bonus":0.720000000000001},{"rt":1203.4700000076555,"stimulus":"\n                    <p><b>Action: <em>avoid</em></b></p>\n                    <p>This is the bee that you just saw.</p>\n                    <img src=\"bees-with-color/bee-A1DM.svg\" width=\"200\">\n                    <p><br>Your bonus pay is unchanged, and remains at $0.50.</p>\n            ","response":0,"trial_type":"html-button-response","trial_index":60,"time_elapsed":318353,"internal_node_id":"0.0-4.0-1.26","subject_id":"5fcd71a4176c9c2269b0234b","study_id":"60edd13110225f80f9f3709b","session_id":"6196c1f7346dec94041c2ded","condition":"contingent","relevant_dimensions":["antennae","wings"],"bee_group":{"antennae":"A","wings":"1","pattern":"X","legs":"X"},"bonus":0.720000000000001},{"rt":2424.6599999896716,"stimulus":"bees-with-color/bee-B1SM.svg","response":0,"trial_type":"image-button-response","trial_index":61,"time_elapsed":320779,"internal_node_id":"0.0-4.0-0.27","subject_id":"5fcd71a4176c9c2269b0234b","study_id":"60edd13110225f80f9f3709b","session_id":"6196c1f7346dec94041c2ded","condition":"contingent","relevant_dimensions":["antennae","wings"],"bee_group":{"antennae":"A","wings":"1","pattern":"X","legs":"X"},"action":"harvest","summary":"good-harvest","bonus":0.720000000000001},{"rt":1492.1200000098906,"stimulus":"\n                    <p><b>Action: <em>harvest</em></b></p>\n                    <p>This is the bee that you just saw.</p>\n                    <img src=\"bees-with-color/bee-B1SM.svg\" width=\"200\">\n                    <p><span class=\"greenText\"><b>Successful harvest!</b></span><br>Your pay has increased by $0.02. Your bonus pay is now $0.52.</p>\n            ","response":0,"trial_type":"html-button-response","trial_index":62,"time_elapsed":322273,"internal_node_id":"0.0-4.0-1.27","subject_id":"5fcd71a4176c9c2269b0234b","study_id":"60edd13110225f80f9f3709b","session_id":"6196c1f7346dec94041c2ded","condition":"contingent","relevant_dimensions":["antennae","wings"],"bee_group":{"antennae":"A","wings":"1","pattern":"X","legs":"X"},"bonus":0.720000000000001},{"rt":1596.6649999900255,"stimulus":"bees-with-color/bee-B1SF.svg","response":0,"trial_type":"image-button-response","trial_index":63,"time_elapsed":323872,"internal_node_id":"0.0-4.0-0.28","subject_id":"5fcd71a4176c9c2269b0234b","study_id":"60edd13110225f80f9f3709b","session_id":"6196c1f7346dec94041c2ded","condition":"contingent","relevant_dimensions":["antennae","wings"],"bee_group":{"antennae":"A","wings":"1","pattern":"X","legs":"X"},"action":"harvest","summary":"good-harvest","bonus":0.720000000000001},{"rt":1074.0900000091642,"stimulus":"\n                    <p><b>Action: <em>harvest</em></b></p>\n                    <p>This is the bee that you just saw.</p>\n                    <img src=\"bees-with-color/bee-B1SF.svg\" width=\"200\">\n                    <p><span class=\"greenText\"><b>Successful harvest!</b></span><br>Your pay has increased by $0.02. Your bonus pay is now $0.54.</p>\n            ","response":0,"trial_type":"html-button-response","trial_index":64,"time_elapsed":324948,"internal_node_id":"0.0-4.0-1.28","subject_id":"5fcd71a4176c9c2269b0234b","study_id":"60edd13110225f80f9f3709b","session_id":"6196c1f7346dec94041c2ded","condition":"contingent","relevant_dimensions":["antennae","wings"],"bee_group":{"antennae":"A","wings":"1","pattern":"X","legs":"X"},"bonus":0.720000000000001},{"rt":1678.5049999889452,"stimulus":"bees-with-color/bee-A1SM.svg","response":0,"trial_type":"image-button-response","trial_index":65,"time_elapsed":326628,"internal_node_id":"0.0-4.0-0.29","subject_id":"5fcd71a4176c9c2269b0234b","study_id":"60edd13110225f80f9f3709b","session_id":"6196c1f7346dec94041c2ded","condition":"contingent","relevant_dimensions":["antennae","wings"],"bee_group":{"antennae":"A","wings":"1","pattern":"X","legs":"X"},"action":"harvest","summary":"bad-harvest","bonus":0.720000000000001},{"rt":1595.8849999879021,"stimulus":"\n                    <p><b>Action: <em>harvest</em></b></p>\n                    <p>This is the bee that you just saw.</p>\n                    <img src=\"bees-with-color/bee-A1SM.svg\" width=\"200\">\n                    <p><span class=\"redText\">Bad choice, the bee was angry.</span><br><b>You have been stung!</b><br>Your pay has been decreased by $0.10. Your bonus pay is now $0.44.</p>\n            ","response":0,"trial_type":"html-button-response","trial_index":66,"time_elapsed":328226,"internal_node_id":"0.0-4.0-1.29","subject_id":"5fcd71a4176c9c2269b0234b","study_id":"60edd13110225f80f9f3709b","session_id":"6196c1f7346dec94041c2ded","condition":"contingent","relevant_dimensions":["antennae","wings"],"bee_group":{"antennae":"A","wings":"1","pattern":"X","legs":"X"},"bonus":0.720000000000001},{"rt":6651.63500001654,"stimulus":"bees-with-color/bee-A2SM.svg","response":0,"trial_type":"image-button-response","trial_index":67,"time_elapsed":334880,"internal_node_id":"0.0-4.0-0.30","subject_id":"5fcd71a4176c9c2269b0234b","study_id":"60edd13110225f80f9f3709b","session_id":"6196c1f7346dec94041c2ded","condition":"contingent","relevant_dimensions":["antennae","wings"],"bee_group":{"antennae":"A","wings":"1","pattern":"X","legs":"X"},"action":"harvest","summary":"good-harvest","bonus":0.720000000000001},{"rt":1299.2550000199117,"stimulus":"\n                    <p><b>Action: <em>harvest</em></b></p>\n                    <p>This is the bee that you just saw.</p>\n                    <img src=\"bees-with-color/bee-A2SM.svg\" width=\"200\">\n                    <p><span class=\"greenText\"><b>Successful harvest!</b></span><br>Your pay has increased by $0.02. Your bonus pay is now $0.46.</p>\n            ","response":0,"trial_type":"html-button-response","trial_index":68,"time_elapsed":336181,"internal_node_id":"0.0-4.0-1.30","subject_id":"5fcd71a4176c9c2269b0234b","study_id":"60edd13110225f80f9f3709b","session_id":"6196c1f7346dec94041c2ded","condition":"contingent","relevant_dimensions":["antennae","wings"],"bee_group":{"antennae":"A","wings":"1","pattern":"X","legs":"X"},"bonus":0.720000000000001},{"rt":2684.0700000175275,"stimulus":"bees-with-color/bee-B2DM.svg","response":0,"trial_type":"image-button-response","trial_index":69,"time_elapsed":338874,"internal_node_id":"0.0-4.0-0.31","subject_id":"5fcd71a4176c9c2269b0234b","study_id":"60edd13110225f80f9f3709b","session_id":"6196c1f7346dec94041c2ded","condition":"contingent","relevant_dimensions":["antennae","wings"],"bee_group":{"antennae":"A","wings":"1","pattern":"X","legs":"X"},"action":"harvest","summary":"good-harvest","bonus":0.720000000000001},{"rt":1187.3449999839067,"stimulus":"\n                    <p><b>Action: <em>harvest</em></b></p>\n                    <p>This is the bee that you just saw.</p>\n                    <img src=\"bees-with-color/bee-B2DM.svg\" width=\"200\">\n                    <p><span class=\"greenText\"><b>Successful harvest!</b></span><br>Your pay has increased by $0.02. Your bonus pay is now $0.48.</p>\n            ","response":0,"trial_type":"html-button-response","trial_index":70,"time_elapsed":340063,"internal_node_id":"0.0-4.0-1.31","subject_id":"5fcd71a4176c9c2269b0234b","study_id":"60edd13110225f80f9f3709b","session_id":"6196c1f7346dec94041c2ded","condition":"contingent","relevant_dimensions":["antennae","wings"],"bee_group":{"antennae":"A","wings":"1","pattern":"X","legs":"X"},"bonus":0.720000000000001},{"rt":1123.8350000057835,"stimulus":"bees-with-color/bee-A1DM.svg","response":1,"trial_type":"image-button-response","trial_index":71,"time_elapsed":341189,"internal_node_id":"0.0-4.0-0.32","subject_id":"5fcd71a4176c9c2269b0234b","study_id":"60edd13110225f80f9f3709b","session_id":"6196c1f7346dec94041c2ded","condition":"contingent","relevant_dimensions":["antennae","wings"],"bee_group":{"antennae":"A","wings":"1","pattern":"X","legs":"X"},"action":"avoid","summary":"good-avoid","bonus":0.720000000000001},{"rt":1057.1199999831151,"stimulus":"\n                    <p><b>Action: <em>avoid</em></b></p>\n                    <p>This is the bee that you just saw.</p>\n                    <img src=\"bees-with-color/bee-A1DM.svg\" width=\"200\">\n                    <p><br>Your bonus pay is unchanged, and remains at $0.48.</p>\n            ","response":0,"trial_type":"html-button-response","trial_index":72,"time_elapsed":342248,"internal_node_id":"0.0-4.0-1.32","subject_id":"5fcd71a4176c9c2269b0234b","study_id":"60edd13110225f80f9f3709b","session_id":"6196c1f7346dec94041c2ded","condition":"contingent","relevant_dimensions":["antennae","wings"],"bee_group":{"antennae":"A","wings":"1","pattern":"X","legs":"X"},"bonus":0.720000000000001},{"rt":1549.3200000200886,"stimulus":"bees-with-color/bee-B2DM.svg","response":0,"trial_type":"image-button-response","trial_index":73,"time_elapsed":343799,"internal_node_id":"0.0-4.0-0.33","subject_id":"5fcd71a4176c9c2269b0234b","study_id":"60edd13110225f80f9f3709b","session_id":"6196c1f7346dec94041c2ded","condition":"contingent","relevant_dimensions":["antennae","wings"],"bee_group":{"antennae":"A","wings":"1","pattern":"X","legs":"X"},"action":"harvest","summary":"good-harvest","bonus":0.720000000000001},{"rt":1387.5999999872874,"stimulus":"\n                    <p><b>Action: <em>harvest</em></b></p>\n                    <p>This is the bee that you just saw.</p>\n                    <img src=\"bees-with-color/bee-B2DM.svg\" width=\"200\">\n                    <p><span class=\"greenText\"><b>Successful harvest!</b></span><br>Your pay has increased by $0.02. Your bonus pay is now $0.50.</p>\n            ","response":0,"trial_type":"html-button-response","trial_index":74,"time_elapsed":345189,"internal_node_id":"0.0-4.0-1.33","subject_id":"5fcd71a4176c9c2269b0234b","study_id":"60edd13110225f80f9f3709b","session_id":"6196c1f7346dec94041c2ded","condition":"contingent","relevant_dimensions":["antennae","wings"],"bee_group":{"antennae":"A","wings":"1","pattern":"X","legs":"X"},"bonus":0.720000000000001},{"rt":1364.014999999199,"stimulus":"bees-with-color/bee-A1SM.svg","response":1,"trial_type":"image-button-response","trial_index":75,"time_elapsed":346555,"internal_node_id":"0.0-4.0-0.34","subject_id":"5fcd71a4176c9c2269b0234b","study_id":"60edd13110225f80f9f3709b","session_id":"6196c1f7346dec94041c2ded","condition":"contingent","relevant_dimensions":["antennae","wings"],"bee_group":{"antennae":"A","wings":"1","pattern":"X","legs":"X"},"action":"avoid","summary":"good-avoid","bonus":0.720000000000001},{"rt":1267.0649999927264,"stimulus":"\n                    <p><b>Action: <em>avoid</em></b></p>\n                    <p>This is the bee that you just saw.</p>\n                    <img src=\"bees-with-color/bee-A1SM.svg\" width=\"200\">\n                    <p><br>Your bonus pay is unchanged, and remains at $0.50.</p>\n            ","response":0,"trial_type":"html-button-response","trial_index":76,"time_elapsed":347824,"internal_node_id":"0.0-4.0-1.34","subject_id":"5fcd71a4176c9c2269b0234b","study_id":"60edd13110225f80f9f3709b","session_id":"6196c1f7346dec94041c2ded","condition":"contingent","relevant_dimensions":["antennae","wings"],"bee_group":{"antennae":"A","wings":"1","pattern":"X","legs":"X"},"bonus":0.720000000000001},{"rt":1685.5100000102539,"stimulus":"bees-with-color/bee-B2SF.svg","response":0,"trial_type":"image-button-response","trial_index":77,"time_elapsed":349512,"internal_node_id":"0.0-4.0-0.35","subject_id":"5fcd71a4176c9c2269b0234b","study_id":"60edd13110225f80f9f3709b","session_id":"6196c1f7346dec94041c2ded","condition":"contingent","relevant_dimensions":["antennae","wings"],"bee_group":{"antennae":"A","wings":"1","pattern":"X","legs":"X"},"action":"harvest","summary":"good-harvest","bonus":0.720000000000001},{"rt":968.2700000121258,"stimulus":"\n                    <p><b>Action: <em>harvest</em></b></p>\n                    <p>This is the bee that you just saw.</p>\n                    <img src=\"bees-with-color/bee-B2SF.svg\" width=\"200\">\n                    <p><span class=\"greenText\"><b>Successful harvest!</b></span><br>Your pay has increased by $0.02. Your bonus pay is now $0.52.</p>\n            ","response":0,"trial_type":"html-button-response","trial_index":78,"time_elapsed":350482,"internal_node_id":"0.0-4.0-1.35","subject_id":"5fcd71a4176c9c2269b0234b","study_id":"60edd13110225f80f9f3709b","session_id":"6196c1f7346dec94041c2ded","condition":"contingent","relevant_dimensions":["antennae","wings"],"bee_group":{"antennae":"A","wings":"1","pattern":"X","legs":"X"},"bonus":0.720000000000001},{"rt":1471.3650000048801,"stimulus":"bees-with-color/bee-A2DF.svg","response":0,"trial_type":"image-button-response","trial_index":79,"time_elapsed":351955,"internal_node_id":"0.0-4.0-0.36","subject_id":"5fcd71a4176c9c2269b0234b","study_id":"60edd13110225f80f9f3709b","session_id":"6196c1f7346dec94041c2ded","condition":"contingent","relevant_dimensions":["antennae","wings"],"bee_group":{"antennae":"A","wings":"1","pattern":"X","legs":"X"},"action":"harvest","summary":"good-harvest","bonus":0.720000000000001},{"rt":1050.1599999843165,"stimulus":"\n                    <p><b>Action: <em>harvest</em></b></p>\n                    <p>This is the bee that you just saw.</p>\n                    <img src=\"bees-with-color/bee-A2DF.svg\" width=\"200\">\n                    <p><span class=\"greenText\"><b>Successful harvest!</b></span><br>Your pay has increased by $0.02. Your bonus pay is now $0.54.</p>\n            ","response":0,"trial_type":"html-button-response","trial_index":80,"time_elapsed":353008,"internal_node_id":"0.0-4.0-1.36","subject_id":"5fcd71a4176c9c2269b0234b","study_id":"60edd13110225f80f9f3709b","session_id":"6196c1f7346dec94041c2ded","condition":"contingent","relevant_dimensions":["antennae","wings"],"bee_group":{"antennae":"A","wings":"1","pattern":"X","legs":"X"},"bonus":0.720000000000001},{"rt":1331.5849999780767,"stimulus":"bees-with-color/bee-B1DF.svg","response":1,"trial_type":"image-button-response","trial_index":81,"time_elapsed":354341,"internal_node_id":"0.0-4.0-0.37","subject_id":"5fcd71a4176c9c2269b0234b","study_id":"60edd13110225f80f9f3709b","session_id":"6196c1f7346dec94041c2ded","condition":"contingent","relevant_dimensions":["antennae","wings"],"bee_group":{"antennae":"A","wings":"1","pattern":"X","legs":"X"},"action":"avoid","summary":"bad-avoid","bonus":0.720000000000001},{"rt":945.5799999996088,"stimulus":"\n                    <p><b>Action: <em>avoid</em></b></p>\n                    <p>This is the bee that you just saw.</p>\n                    <img src=\"bees-with-color/bee-B1DF.svg\" width=\"200\">\n                    <p><br>Your bonus pay is unchanged, and remains at $0.54.</p>\n            ","response":0,"trial_type":"html-button-response","trial_index":82,"time_elapsed":355289,"internal_node_id":"0.0-4.0-1.37","subject_id":"5fcd71a4176c9c2269b0234b","study_id":"60edd13110225f80f9f3709b","session_id":"6196c1f7346dec94041c2ded","condition":"contingent","relevant_dimensions":["antennae","wings"],"bee_group":{"antennae":"A","wings":"1","pattern":"X","legs":"X"},"bonus":0.720000000000001},{"rt":1484.7200000076555,"stimulus":"bees-with-color/bee-A2DM.svg","response":0,"trial_type":"image-button-response","trial_index":83,"time_elapsed":356775,"internal_node_id":"0.0-4.0-0.38","subject_id":"5fcd71a4176c9c2269b0234b","study_id":"60edd13110225f80f9f3709b","session_id":"6196c1f7346dec94041c2ded","condition":"contingent","relevant_dimensions":["antennae","wings"],"bee_group":{"antennae":"A","wings":"1","pattern":"X","legs":"X"},"action":"harvest","summary":"good-harvest","bonus":0.720000000000001},{"rt":977.7400000020862,"stimulus":"\n                    <p><b>Action: <em>harvest</em></b></p>\n                    <p>This is the bee that you just saw.</p>\n                    <img src=\"bees-with-color/bee-A2DM.svg\" width=\"200\">\n                    <p><span class=\"greenText\"><b>Successful harvest!</b></span><br>Your pay has increased by $0.02. Your bonus pay is now $0.56.</p>\n            ","response":0,"trial_type":"html-button-response","trial_index":84,"time_elapsed":357756,"internal_node_id":"0.0-4.0-1.38","subject_id":"5fcd71a4176c9c2269b0234b","study_id":"60edd13110225f80f9f3709b","session_id":"6196c1f7346dec94041c2ded","condition":"contingent","relevant_dimensions":["antennae","wings"],"bee_group":{"antennae":"A","wings":"1","pattern":"X","legs":"X"},"bonus":0.720000000000001},{"rt":1404.3949999904726,"stimulus":"bees-with-color/bee-B1SM.svg","response":1,"trial_type":"image-button-response","trial_index":85,"time_elapsed":359162,"internal_node_id":"0.0-4.0-0.39","subject_id":"5fcd71a4176c9c2269b0234b","study_id":"60edd13110225f80f9f3709b","session_id":"6196c1f7346dec94041c2ded","condition":"contingent","relevant_dimensions":["antennae","wings"],"bee_group":{"antennae":"A","wings":"1","pattern":"X","legs":"X"},"action":"avoid","summary":"bad-avoid","bonus":0.720000000000001},{"rt":1066.16000001668,"stimulus":"\n                    <p><b>Action: <em>avoid</em></b></p>\n                    <p>This is the bee that you just saw.</p>\n                    <img src=\"bees-with-color/bee-B1SM.svg\" width=\"200\">\n                    <p><br>Your bonus pay is unchanged, and remains at $0.56.</p>\n            ","response":0,"trial_type":"html-button-response","trial_index":86,"time_elapsed":360231,"internal_node_id":"0.0-4.0-1.39","subject_id":"5fcd71a4176c9c2269b0234b","study_id":"60edd13110225f80f9f3709b","session_id":"6196c1f7346dec94041c2ded","condition":"contingent","relevant_dimensions":["antennae","wings"],"bee_group":{"antennae":"A","wings":"1","pattern":"X","legs":"X"},"bonus":0.720000000000001},{"rt":1386.8899999943096,"stimulus":"bees-with-color/bee-B1SF.svg","response":1,"trial_type":"image-button-response","trial_index":87,"time_elapsed":361621,"internal_node_id":"0.0-4.0-0.40","subject_id":"5fcd71a4176c9c2269b0234b","study_id":"60edd13110225f80f9f3709b","session_id":"6196c1f7346dec94041c2ded","condition":"contingent","relevant_dimensions":["antennae","wings"],"bee_group":{"antennae":"A","wings":"1","pattern":"X","legs":"X"},"action":"avoid","summary":"bad-avoid","bonus":0.720000000000001},{"rt":1058.9899999904446,"stimulus":"\n                    <p><b>Action: <em>avoid</em></b></p>\n                    <p>This is the bee that you just saw.</p>\n                    <img src=\"bees-with-color/bee-B1SF.svg\" width=\"200\">\n                    <p><br>Your bonus pay is unchanged, and remains at $0.56.</p>\n            ","response":0,"trial_type":"html-button-response","trial_index":88,"time_elapsed":362682,"internal_node_id":"0.0-4.0-1.40","subject_id":"5fcd71a4176c9c2269b0234b","study_id":"60edd13110225f80f9f3709b","session_id":"6196c1f7346dec94041c2ded","condition":"contingent","relevant_dimensions":["antennae","wings"],"bee_group":{"antennae":"A","wings":"1","pattern":"X","legs":"X"},"bonus":0.720000000000001},{"rt":1412.655000021914,"stimulus":"bees-with-color/bee-B1DM.svg","response":1,"trial_type":"image-button-response","trial_index":89,"time_elapsed":364096,"internal_node_id":"0.0-4.0-0.41","subject_id":"5fcd71a4176c9c2269b0234b","study_id":"60edd13110225f80f9f3709b","session_id":"6196c1f7346dec94041c2ded","condition":"contingent","relevant_dimensions":["antennae","wings"],"bee_group":{"antennae":"A","wings":"1","pattern":"X","legs":"X"},"action":"avoid","summary":"bad-avoid","bonus":0.720000000000001},{"rt":1010.2400000032503,"stimulus":"\n                    <p><b>Action: <em>avoid</em></b></p>\n                    <p>This is the bee that you just saw.</p>\n                    <img src=\"bees-with-color/bee-B1DM.svg\" width=\"200\">\n                    <p><br>Your bonus pay is unchanged, and remains at $0.56.</p>\n            ","response":0,"trial_type":"html-button-response","trial_index":90,"time_elapsed":365108,"internal_node_id":"0.0-4.0-1.41","subject_id":"5fcd71a4176c9c2269b0234b","study_id":"60edd13110225f80f9f3709b","session_id":"6196c1f7346dec94041c2ded","condition":"contingent","relevant_dimensions":["antennae","wings"],"bee_group":{"antennae":"A","wings":"1","pattern":"X","legs":"X"},"bonus":0.720000000000001},{"rt":1283.2449999987148,"stimulus":"bees-with-color/bee-A1SF.svg","response":1,"trial_type":"image-button-response","trial_index":91,"time_elapsed":366394,"internal_node_id":"0.0-4.0-0.42","subject_id":"5fcd71a4176c9c2269b0234b","study_id":"60edd13110225f80f9f3709b","session_id":"6196c1f7346dec94041c2ded","condition":"contingent","relevant_dimensions":["antennae","wings"],"bee_group":{"antennae":"A","wings":"1","pattern":"X","legs":"X"},"action":"avoid","summary":"good-avoid","bonus":0.720000000000001},{"rt":1049.9350000172853,"stimulus":"\n                    <p><b>Action: <em>avoid</em></b></p>\n                    <p>This is the bee that you just saw.</p>\n                    <img src=\"bees-with-color/bee-A1SF.svg\" width=\"200\">\n                    <p><br>Your bonus pay is unchanged, and remains at $0.56.</p>\n            ","response":0,"trial_type":"html-button-response","trial_index":92,"time_elapsed":367446,"internal_node_id":"0.0-4.0-1.42","subject_id":"5fcd71a4176c9c2269b0234b","study_id":"60edd13110225f80f9f3709b","session_id":"6196c1f7346dec94041c2ded","condition":"contingent","relevant_dimensions":["antennae","wings"],"bee_group":{"antennae":"A","wings":"1","pattern":"X","legs":"X"},"bonus":0.720000000000001},{"rt":954.0149999957066,"stimulus":"bees-with-color/bee-A2SM.svg","response":1,"trial_type":"image-button-response","trial_index":93,"time_elapsed":368403,"internal_node_id":"0.0-4.0-0.43","subject_id":"5fcd71a4176c9c2269b0234b","study_id":"60edd13110225f80f9f3709b","session_id":"6196c1f7346dec94041c2ded","condition":"contingent","relevant_dimensions":["antennae","wings"],"bee_group":{"antennae":"A","wings":"1","pattern":"X","legs":"X"},"action":"avoid","summary":"bad-avoid","bonus":0.720000000000001},{"rt":1347.9449999867938,"stimulus":"\n                    <p><b>Action: <em>avoid</em></b></p>\n                    <p>This is the bee that you just saw.</p>\n                    <img src=\"bees-with-color/bee-A2SM.svg\" width=\"200\">\n                    <p><br>Your bonus pay is unchanged, and remains at $0.56.</p>\n            ","response":0,"trial_type":"html-button-response","trial_index":94,"time_elapsed":369753,"internal_node_id":"0.0-4.0-1.43","subject_id":"5fcd71a4176c9c2269b0234b","study_id":"60edd13110225f80f9f3709b","session_id":"6196c1f7346dec94041c2ded","condition":"contingent","relevant_dimensions":["antennae","wings"],"bee_group":{"antennae":"A","wings":"1","pattern":"X","legs":"X"},"bonus":0.720000000000001},{"rt":1106.5550000057556,"stimulus":"bees-with-color/bee-B2SM.svg","response":0,"trial_type":"image-button-response","trial_index":95,"time_elapsed":370861,"internal_node_id":"0.0-4.0-0.44","subject_id":"5fcd71a4176c9c2269b0234b","study_id":"60edd13110225f80f9f3709b","session_id":"6196c1f7346dec94041c2ded","condition":"contingent","relevant_dimensions":["antennae","wings"],"bee_group":{"antennae":"A","wings":"1","pattern":"X","legs":"X"},"action":"harvest","summary":"good-harvest","bonus":0.720000000000001},{"rt":1026.6549999942072,"stimulus":"\n                    <p><b>Action: <em>harvest</em></b></p>\n                    <p>This is the bee that you just saw.</p>\n                    <img src=\"bees-with-color/bee-B2SM.svg\" width=\"200\">\n                    <p><span class=\"greenText\"><b>Successful harvest!</b></span><br>Your pay has increased by $0.02. Your bonus pay is now $0.58.</p>\n            ","response":0,"trial_type":"html-button-response","trial_index":96,"time_elapsed":371890,"internal_node_id":"0.0-4.0-1.44","subject_id":"5fcd71a4176c9c2269b0234b","study_id":"60edd13110225f80f9f3709b","session_id":"6196c1f7346dec94041c2ded","condition":"contingent","relevant_dimensions":["antennae","wings"],"bee_group":{"antennae":"A","wings":"1","pattern":"X","legs":"X"},"bonus":0.720000000000001},{"rt":2047.1850000030827,"stimulus":"bees-with-color/bee-B2DF.svg","response":0,"trial_type":"image-button-response","trial_index":97,"time_elapsed":373939,"internal_node_id":"0.0-4.0-0.45","subject_id":"5fcd71a4176c9c2269b0234b","study_id":"60edd13110225f80f9f3709b","session_id":"6196c1f7346dec94041c2ded","condition":"contingent","relevant_dimensions":["antennae","wings"],"bee_group":{"antennae":"A","wings":"1","pattern":"X","legs":"X"},"action":"harvest","summary":"good-harvest","bonus":0.720000000000001},{"rt":1049.924999999348,"stimulus":"\n                    <p><b>Action: <em>harvest</em></b></p>\n                    <p>This is the bee that you just saw.</p>\n                    <img src=\"bees-with-color/bee-B2DF.svg\" width=\"200\">\n                    <p><span class=\"greenText\"><b>Successful harvest!</b></span><br>Your pay has increased by $0.02. Your bonus pay is now $0.60.</p>\n            ","response":0,"trial_type":"html-button-response","trial_index":98,"time_elapsed":374990,"internal_node_id":"0.0-4.0-1.45","subject_id":"5fcd71a4176c9c2269b0234b","study_id":"60edd13110225f80f9f3709b","session_id":"6196c1f7346dec94041c2ded","condition":"contingent","relevant_dimensions":["antennae","wings"],"bee_group":{"antennae":"A","wings":"1","pattern":"X","legs":"X"},"bonus":0.720000000000001},{"rt":1660.6150000006892,"stimulus":"bees-with-color/bee-A1DF.svg","response":1,"trial_type":"image-button-response","trial_index":99,"time_elapsed":376653,"internal_node_id":"0.0-4.0-0.46","subject_id":"5fcd71a4176c9c2269b0234b","study_id":"60edd13110225f80f9f3709b","session_id":"6196c1f7346dec94041c2ded","condition":"contingent","relevant_dimensions":["antennae","wings"],"bee_group":{"antennae":"A","wings":"1","pattern":"X","legs":"X"},"action":"avoid","summary":"good-avoid","bonus":0.720000000000001},{"rt":1211.3400000089314,"stimulus":"\n                    <p><b>Action: <em>avoid</em></b></p>\n                    <p>This is the bee that you just saw.</p>\n                    <img src=\"bees-with-color/bee-A1DF.svg\" width=\"200\">\n                    <p><br>Your bonus pay is unchanged, and remains at $0.60.</p>\n            ","response":0,"trial_type":"html-button-response","trial_index":100,"time_elapsed":377866,"internal_node_id":"0.0-4.0-1.46","subject_id":"5fcd71a4176c9c2269b0234b","study_id":"60edd13110225f80f9f3709b","session_id":"6196c1f7346dec94041c2ded","condition":"contingent","relevant_dimensions":["antennae","wings"],"bee_group":{"antennae":"A","wings":"1","pattern":"X","legs":"X"},"bonus":0.720000000000001},{"rt":1259.5600000058766,"stimulus":"bees-with-color/bee-A2SF.svg","response":0,"trial_type":"image-button-response","trial_index":101,"time_elapsed":379128,"internal_node_id":"0.0-4.0-0.47","subject_id":"5fcd71a4176c9c2269b0234b","study_id":"60edd13110225f80f9f3709b","session_id":"6196c1f7346dec94041c2ded","condition":"contingent","relevant_dimensions":["antennae","wings"],"bee_group":{"antennae":"A","wings":"1","pattern":"X","legs":"X"},"action":"harvest","summary":"good-harvest","bonus":0.720000000000001},{"rt":1138.745000003837,"stimulus":"\n                    <p><b>Action: <em>harvest</em></b></p>\n                    <p>This is the bee that you just saw.</p>\n                    <img src=\"bees-with-color/bee-A2SF.svg\" width=\"200\">\n                    <p><span class=\"greenText\"><b>Successful harvest!</b></span><br>Your pay has increased by $0.02. Your bonus pay is now $0.62.</p>\n            ","response":0,"trial_type":"html-button-response","trial_index":102,"time_elapsed":380269,"internal_node_id":"0.0-4.0-1.47","subject_id":"5fcd71a4176c9c2269b0234b","study_id":"60edd13110225f80f9f3709b","session_id":"6196c1f7346dec94041c2ded","condition":"contingent","relevant_dimensions":["antennae","wings"],"bee_group":{"antennae":"A","wings":"1","pattern":"X","legs":"X"},"bonus":0.720000000000001},{"rt":2488.6850000184495,"stimulus":"bees-with-color/bee-B1SF.svg","response":1,"trial_type":"image-button-response","trial_index":103,"time_elapsed":382760,"internal_node_id":"0.0-4.0-0.48","subject_id":"5fcd71a4176c9c2269b0234b","study_id":"60edd13110225f80f9f3709b","session_id":"6196c1f7346dec94041c2ded","condition":"contingent","relevant_dimensions":["antennae","wings"],"bee_group":{"antennae":"A","wings":"1","pattern":"X","legs":"X"},"action":"avoid","summary":"bad-avoid","bonus":0.720000000000001},{"rt":978.4999999974389,"stimulus":"\n                    <p><b>Action: <em>avoid</em></b></p>\n                    <p>This is the bee that you just saw.</p>\n                    <img src=\"bees-with-color/bee-B1SF.svg\" width=\"200\">\n                    <p><br>Your bonus pay is unchanged, and remains at $0.62.</p>\n            ","response":0,"trial_type":"html-button-response","trial_index":104,"time_elapsed":383740,"internal_node_id":"0.0-4.0-1.48","subject_id":"5fcd71a4176c9c2269b0234b","study_id":"60edd13110225f80f9f3709b","session_id":"6196c1f7346dec94041c2ded","condition":"contingent","relevant_dimensions":["antennae","wings"],"bee_group":{"antennae":"A","wings":"1","pattern":"X","legs":"X"},"bonus":0.720000000000001},{"rt":2689.6899999992456,"stimulus":"bees-with-color/bee-B1SM.svg","response":0,"trial_type":"image-button-response","trial_index":105,"time_elapsed":386431,"internal_node_id":"0.0-4.0-0.49","subject_id":"5fcd71a4176c9c2269b0234b","study_id":"60edd13110225f80f9f3709b","session_id":"6196c1f7346dec94041c2ded","condition":"contingent","relevant_dimensions":["antennae","wings"],"bee_group":{"antennae":"A","wings":"1","pattern":"X","legs":"X"},"action":"harvest","summary":"good-harvest","bonus":0.720000000000001},{"rt":1187.0050000143237,"stimulus":"\n                    <p><b>Action: <em>harvest</em></b></p>\n                    <p>This is the bee that you just saw.</p>\n                    <img src=\"bees-with-color/bee-B1SM.svg\" width=\"200\">\n                    <p><span class=\"greenText\"><b>Successful harvest!</b></span><br>Your pay has increased by $0.02. Your bonus pay is now $0.64.</p>\n            ","response":0,"trial_type":"html-button-response","trial_index":106,"time_elapsed":387620,"internal_node_id":"0.0-4.0-1.49","subject_id":"5fcd71a4176c9c2269b0234b","study_id":"60edd13110225f80f9f3709b","session_id":"6196c1f7346dec94041c2ded","condition":"contingent","relevant_dimensions":["antennae","wings"],"bee_group":{"antennae":"A","wings":"1","pattern":"X","legs":"X"},"bonus":0.720000000000001},{"rt":3516.5049999777693,"stimulus":"bees-with-color/bee-B2DM.svg","response":1,"trial_type":"image-button-response","trial_index":107,"time_elapsed":391140,"internal_node_id":"0.0-4.0-0.50","subject_id":"5fcd71a4176c9c2269b0234b","study_id":"60edd13110225f80f9f3709b","session_id":"6196c1f7346dec94041c2ded","condition":"contingent","relevant_dimensions":["antennae","wings"],"bee_group":{"antennae":"A","wings":"1","pattern":"X","legs":"X"},"action":"avoid","summary":"bad-avoid","bonus":0.720000000000001},{"rt":969.7099999757484,"stimulus":"\n                    <p><b>Action: <em>avoid</em></b></p>\n                    <p>This is the bee that you just saw.</p>\n                    <img src=\"bees-with-color/bee-B2DM.svg\" width=\"200\">\n                    <p><br>Your bonus pay is unchanged, and remains at $0.64.</p>\n            ","response":0,"trial_type":"html-button-response","trial_index":108,"time_elapsed":392112,"internal_node_id":"0.0-4.0-1.50","subject_id":"5fcd71a4176c9c2269b0234b","study_id":"60edd13110225f80f9f3709b","session_id":"6196c1f7346dec94041c2ded","condition":"contingent","relevant_dimensions":["antennae","wings"],"bee_group":{"antennae":"A","wings":"1","pattern":"X","legs":"X"},"bonus":0.720000000000001},{"rt":1516.410000011092,"stimulus":"bees-with-color/bee-B2SF.svg","response":0,"trial_type":"image-button-response","trial_index":109,"time_elapsed":393631,"internal_node_id":"0.0-4.0-0.51","subject_id":"5fcd71a4176c9c2269b0234b","study_id":"60edd13110225f80f9f3709b","session_id":"6196c1f7346dec94041c2ded","condition":"contingent","relevant_dimensions":["antennae","wings"],"bee_group":{"antennae":"A","wings":"1","pattern":"X","legs":"X"},"action":"harvest","summary":"good-harvest","bonus":0.720000000000001},{"rt":1051.0950000025332,"stimulus":"\n                    <p><b>Action: <em>harvest</em></b></p>\n                    <p>This is the bee that you just saw.</p>\n                    <img src=\"bees-with-color/bee-B2SF.svg\" width=\"200\">\n                    <p><span class=\"greenText\"><b>Successful harvest!</b></span><br>Your pay has increased by $0.02. Your bonus pay is now $0.66.</p>\n            ","response":0,"trial_type":"html-button-response","trial_index":110,"time_elapsed":394684,"internal_node_id":"0.0-4.0-1.51","subject_id":"5fcd71a4176c9c2269b0234b","study_id":"60edd13110225f80f9f3709b","session_id":"6196c1f7346dec94041c2ded","condition":"contingent","relevant_dimensions":["antennae","wings"],"bee_group":{"antennae":"A","wings":"1","pattern":"X","legs":"X"},"bonus":0.720000000000001},{"rt":1258.9349999907427,"stimulus":"bees-with-color/bee-B1DF.svg","response":1,"trial_type":"image-button-response","trial_index":111,"time_elapsed":395945,"internal_node_id":"0.0-4.0-0.52","subject_id":"5fcd71a4176c9c2269b0234b","study_id":"60edd13110225f80f9f3709b","session_id":"6196c1f7346dec94041c2ded","condition":"contingent","relevant_dimensions":["antennae","wings"],"bee_group":{"antennae":"A","wings":"1","pattern":"X","legs":"X"},"action":"avoid","summary":"bad-avoid","bonus":0.720000000000001},{"rt":1146.7699999921024,"stimulus":"\n                    <p><b>Action: <em>avoid</em></b></p>\n                    <p>This is the bee that you just saw.</p>\n                    <img src=\"bees-with-color/bee-B1DF.svg\" width=\"200\">\n                    <p><br>Your bonus pay is unchanged, and remains at $0.66.</p>\n            ","response":0,"trial_type":"html-button-response","trial_index":112,"time_elapsed":397094,"internal_node_id":"0.0-4.0-1.52","subject_id":"5fcd71a4176c9c2269b0234b","study_id":"60edd13110225f80f9f3709b","session_id":"6196c1f7346dec94041c2ded","condition":"contingent","relevant_dimensions":["antennae","wings"],"bee_group":{"antennae":"A","wings":"1","pattern":"X","legs":"X"},"bonus":0.720000000000001},{"rt":1612.5000000174623,"stimulus":"bees-with-color/bee-A2SM.svg","response":0,"trial_type":"image-button-response","trial_index":113,"time_elapsed":398708,"internal_node_id":"0.0-4.0-0.53","subject_id":"5fcd71a4176c9c2269b0234b","study_id":"60edd13110225f80f9f3709b","session_id":"6196c1f7346dec94041c2ded","condition":"contingent","relevant_dimensions":["antennae","wings"],"bee_group":{"antennae":"A","wings":"1","pattern":"X","legs":"X"},"action":"harvest","summary":"good-harvest","bonus":0.720000000000001},{"rt":1163.890000025276,"stimulus":"\n                    <p><b>Action: <em>harvest</em></b></p>\n                    <p>This is the bee that you just saw.</p>\n                    <img src=\"bees-with-color/bee-A2SM.svg\" width=\"200\">\n                    <p><span class=\"greenText\"><b>Successful harvest!</b></span><br>Your pay has increased by $0.02. Your bonus pay is now $0.68.</p>\n            ","response":0,"trial_type":"html-button-response","trial_index":114,"time_elapsed":399874,"internal_node_id":"0.0-4.0-1.53","subject_id":"5fcd71a4176c9c2269b0234b","study_id":"60edd13110225f80f9f3709b","session_id":"6196c1f7346dec94041c2ded","condition":"contingent","relevant_dimensions":["antennae","wings"],"bee_group":{"antennae":"A","wings":"1","pattern":"X","legs":"X"},"bonus":0.720000000000001},{"rt":1749.7799999837298,"stimulus":"bees-with-color/bee-A1SF.svg","response":0,"trial_type":"image-button-response","trial_index":115,"time_elapsed":401626,"internal_node_id":"0.0-4.0-0.54","subject_id":"5fcd71a4176c9c2269b0234b","study_id":"60edd13110225f80f9f3709b","session_id":"6196c1f7346dec94041c2ded","condition":"contingent","relevant_dimensions":["antennae","wings"],"bee_group":{"antennae":"A","wings":"1","pattern":"X","legs":"X"},"action":"harvest","summary":"bad-harvest","bonus":0.720000000000001},{"rt":1211.8950000149198,"stimulus":"\n                    <p><b>Action: <em>harvest</em></b></p>\n                    <p>This is the bee that you just saw.</p>\n                    <img src=\"bees-with-color/bee-A1SF.svg\" width=\"200\">\n                    <p><span class=\"redText\">Bad choice, the bee was angry.</span><br><b>You have been stung!</b><br>Your pay has been decreased by $0.10. Your bonus pay is now $0.58.</p>\n            ","response":0,"trial_type":"html-button-response","trial_index":116,"time_elapsed":402840,"internal_node_id":"0.0-4.0-1.54","subject_id":"5fcd71a4176c9c2269b0234b","study_id":"60edd13110225f80f9f3709b","session_id":"6196c1f7346dec94041c2ded","condition":"contingent","relevant_dimensions":["antennae","wings"],"bee_group":{"antennae":"A","wings":"1","pattern":"X","legs":"X"},"bonus":0.720000000000001},{"rt":2745.5250000057276,"stimulus":"bees-with-color/bee-A1SM.svg","response":1,"trial_type":"image-button-response","trial_index":117,"time_elapsed":405588,"internal_node_id":"0.0-4.0-0.55","subject_id":"5fcd71a4176c9c2269b0234b","study_id":"60edd13110225f80f9f3709b","session_id":"6196c1f7346dec94041c2ded","condition":"contingent","relevant_dimensions":["antennae","wings"],"bee_group":{"antennae":"A","wings":"1","pattern":"X","legs":"X"},"action":"avoid","summary":"good-avoid","bonus":0.720000000000001},{"rt":961.9499999971595,"stimulus":"\n                    <p><b>Action: <em>avoid</em></b></p>\n                    <p>This is the bee that you just saw.</p>\n                    <img src=\"bees-with-color/bee-A1SM.svg\" width=\"200\">\n                    <p><br>Your bonus pay is unchanged, and remains at $0.58.</p>\n            ","response":0,"trial_type":"html-button-response","trial_index":118,"time_elapsed":406553,"internal_node_id":"0.0-4.0-1.55","subject_id":"5fcd71a4176c9c2269b0234b","study_id":"60edd13110225f80f9f3709b","session_id":"6196c1f7346dec94041c2ded","condition":"contingent","relevant_dimensions":["antennae","wings"],"bee_group":{"antennae":"A","wings":"1","pattern":"X","legs":"X"},"bonus":0.720000000000001},{"rt":1483.4199999750126,"stimulus":"bees-with-color/bee-A2SF.svg","response":0,"trial_type":"image-button-response","trial_index":119,"time_elapsed":408038,"internal_node_id":"0.0-4.0-0.56","subject_id":"5fcd71a4176c9c2269b0234b","study_id":"60edd13110225f80f9f3709b","session_id":"6196c1f7346dec94041c2ded","condition":"contingent","relevant_dimensions":["antennae","wings"],"bee_group":{"antennae":"A","wings":"1","pattern":"X","legs":"X"},"action":"harvest","summary":"good-harvest","bonus":0.720000000000001},{"rt":1010.710000002291,"stimulus":"\n                    <p><b>Action: <em>harvest</em></b></p>\n                    <p>This is the bee that you just saw.</p>\n                    <img src=\"bees-with-color/bee-A2SF.svg\" width=\"200\">\n                    <p><span class=\"greenText\"><b>Successful harvest!</b></span><br>Your pay has increased by $0.02. Your bonus pay is now $0.60.</p>\n            ","response":0,"trial_type":"html-button-response","trial_index":120,"time_elapsed":409051,"internal_node_id":"0.0-4.0-1.56","subject_id":"5fcd71a4176c9c2269b0234b","study_id":"60edd13110225f80f9f3709b","session_id":"6196c1f7346dec94041c2ded","condition":"contingent","relevant_dimensions":["antennae","wings"],"bee_group":{"antennae":"A","wings":"1","pattern":"X","legs":"X"},"bonus":0.720000000000001},{"rt":1629.6950000105426,"stimulus":"bees-with-color/bee-B2DF.svg","response":0,"trial_type":"image-button-response","trial_index":121,"time_elapsed":410682,"internal_node_id":"0.0-4.0-0.57","subject_id":"5fcd71a4176c9c2269b0234b","study_id":"60edd13110225f80f9f3709b","session_id":"6196c1f7346dec94041c2ded","condition":"contingent","relevant_dimensions":["antennae","wings"],"bee_group":{"antennae":"A","wings":"1","pattern":"X","legs":"X"},"action":"harvest","summary":"good-harvest","bonus":0.720000000000001},{"rt":1058.244999992894,"stimulus":"\n                    <p><b>Action: <em>harvest</em></b></p>\n                    <p>This is the bee that you just saw.</p>\n                    <img src=\"bees-with-color/bee-B2DF.svg\" width=\"200\">\n                    <p><span class=\"greenText\"><b>Successful harvest!</b></span><br>Your pay has increased by $0.02. Your bonus pay is now $0.62.</p>\n            ","response":0,"trial_type":"html-button-response","trial_index":122,"time_elapsed":411742,"internal_node_id":"0.0-4.0-1.57","subject_id":"5fcd71a4176c9c2269b0234b","study_id":"60edd13110225f80f9f3709b","session_id":"6196c1f7346dec94041c2ded","condition":"contingent","relevant_dimensions":["antennae","wings"],"bee_group":{"antennae":"A","wings":"1","pattern":"X","legs":"X"},"bonus":0.720000000000001},{"rt":1919.4300000090152,"stimulus":"bees-with-color/bee-A1DF.svg","response":1,"trial_type":"image-button-response","trial_index":123,"time_elapsed":413663,"internal_node_id":"0.0-4.0-0.58","subject_id":"5fcd71a4176c9c2269b0234b","study_id":"60edd13110225f80f9f3709b","session_id":"6196c1f7346dec94041c2ded","condition":"contingent","relevant_dimensions":["antennae","wings"],"bee_group":{"antennae":"A","wings":"1","pattern":"X","legs":"X"},"action":"avoid","summary":"good-avoid","bonus":0.720000000000001},{"rt":1081.3649999909103,"stimulus":"\n                    <p><b>Action: <em>avoid</em></b></p>\n                    <p>This is the bee that you just saw.</p>\n                    <img src=\"bees-with-color/bee-A1DF.svg\" width=\"200\">\n                    <p><br>Your bonus pay is unchanged, and remains at $0.62.</p>\n            ","response":0,"trial_type":"html-button-response","trial_index":124,"time_elapsed":414748,"internal_node_id":"0.0-4.0-1.58","subject_id":"5fcd71a4176c9c2269b0234b","study_id":"60edd13110225f80f9f3709b","session_id":"6196c1f7346dec94041c2ded","condition":"contingent","relevant_dimensions":["antennae","wings"],"bee_group":{"antennae":"A","wings":"1","pattern":"X","legs":"X"},"bonus":0.720000000000001},{"rt":1122.9000000166707,"stimulus":"bees-with-color/bee-A1DM.svg","response":1,"trial_type":"image-button-response","trial_index":125,"time_elapsed":415874,"internal_node_id":"0.0-4.0-0.59","subject_id":"5fcd71a4176c9c2269b0234b","study_id":"60edd13110225f80f9f3709b","session_id":"6196c1f7346dec94041c2ded","condition":"contingent","relevant_dimensions":["antennae","wings"],"bee_group":{"antennae":"A","wings":"1","pattern":"X","legs":"X"},"action":"avoid","summary":"good-avoid","bonus":0.720000000000001},{"rt":898.0699999956414,"stimulus":"\n                    <p><b>Action: <em>avoid</em></b></p>\n                    <p>This is the bee that you just saw.</p>\n                    <img src=\"bees-with-color/bee-A1DM.svg\" width=\"200\">\n                    <p><br>Your bonus pay is unchanged, and remains at $0.62.</p>\n            ","response":0,"trial_type":"html-button-response","trial_index":126,"time_elapsed":416774,"internal_node_id":"0.0-4.0-1.59","subject_id":"5fcd71a4176c9c2269b0234b","study_id":"60edd13110225f80f9f3709b","session_id":"6196c1f7346dec94041c2ded","condition":"contingent","relevant_dimensions":["antennae","wings"],"bee_group":{"antennae":"A","wings":"1","pattern":"X","legs":"X"},"bonus":0.720000000000001},{"rt":1219.1100000054576,"stimulus":"bees-with-color/bee-B2SM.svg","response":0,"trial_type":"image-button-response","trial_index":127,"time_elapsed":417994,"internal_node_id":"0.0-4.0-0.60","subject_id":"5fcd71a4176c9c2269b0234b","study_id":"60edd13110225f80f9f3709b","session_id":"6196c1f7346dec94041c2ded","condition":"contingent","relevant_dimensions":["antennae","wings"],"bee_group":{"antennae":"A","wings":"1","pattern":"X","legs":"X"},"action":"harvest","summary":"good-harvest","bonus":0.720000000000001},{"rt":1025.9499999810942,"stimulus":"\n                    <p><b>Action: <em>harvest</em></b></p>\n                    <p>This is the bee that you just saw.</p>\n                    <img src=\"bees-with-color/bee-B2SM.svg\" width=\"200\">\n                    <p><span class=\"greenText\"><b>Successful harvest!</b></span><br>Your pay has increased by $0.02. Your bonus pay is now $0.64.</p>\n            ","response":0,"trial_type":"html-button-response","trial_index":128,"time_elapsed":419023,"internal_node_id":"0.0-4.0-1.60","subject_id":"5fcd71a4176c9c2269b0234b","study_id":"60edd13110225f80f9f3709b","session_id":"6196c1f7346dec94041c2ded","condition":"contingent","relevant_dimensions":["antennae","wings"],"bee_group":{"antennae":"A","wings":"1","pattern":"X","legs":"X"},"bonus":0.720000000000001},{"rt":1396.4799999957904,"stimulus":"bees-with-color/bee-B1DM.svg","response":1,"trial_type":"image-button-response","trial_index":129,"time_elapsed":420421,"internal_node_id":"0.0-4.0-0.61","subject_id":"5fcd71a4176c9c2269b0234b","study_id":"60edd13110225f80f9f3709b","session_id":"6196c1f7346dec94041c2ded","condition":"contingent","relevant_dimensions":["antennae","wings"],"bee_group":{"antennae":"A","wings":"1","pattern":"X","legs":"X"},"action":"avoid","summary":"bad-avoid","bonus":0.720000000000001},{"rt":1010.9049999737181,"stimulus":"\n                    <p><b>Action: <em>avoid</em></b></p>\n                    <p>This is the bee that you just saw.</p>\n                    <img src=\"bees-with-color/bee-B1DM.svg\" width=\"200\">\n                    <p><br>Your bonus pay is unchanged, and remains at $0.64.</p>\n            ","response":0,"trial_type":"html-button-response","trial_index":130,"time_elapsed":421434,"internal_node_id":"0.0-4.0-1.61","subject_id":"5fcd71a4176c9c2269b0234b","study_id":"60edd13110225f80f9f3709b","session_id":"6196c1f7346dec94041c2ded","condition":"contingent","relevant_dimensions":["antennae","wings"],"bee_group":{"antennae":"A","wings":"1","pattern":"X","legs":"X"},"bonus":0.720000000000001},{"rt":2023.3299999963492,"stimulus":"bees-with-color/bee-A2DF.svg","response":0,"trial_type":"image-button-response","trial_index":131,"time_elapsed":423459,"internal_node_id":"0.0-4.0-0.62","subject_id":"5fcd71a4176c9c2269b0234b","study_id":"60edd13110225f80f9f3709b","session_id":"6196c1f7346dec94041c2ded","condition":"contingent","relevant_dimensions":["antennae","wings"],"bee_group":{"antennae":"A","wings":"1","pattern":"X","legs":"X"},"action":"harvest","summary":"good-harvest","bonus":0.720000000000001},{"rt":1186.649999988731,"stimulus":"\n                    <p><b>Action: <em>harvest</em></b></p>\n                    <p>This is the bee that you just saw.</p>\n                    <img src=\"bees-with-color/bee-A2DF.svg\" width=\"200\">\n                    <p><span class=\"greenText\"><b>Successful harvest!</b></span><br>Your pay has increased by $0.02. Your bonus pay is now $0.66.</p>\n            ","response":0,"trial_type":"html-button-response","trial_index":132,"time_elapsed":424648,"internal_node_id":"0.0-4.0-1.62","subject_id":"5fcd71a4176c9c2269b0234b","study_id":"60edd13110225f80f9f3709b","session_id":"6196c1f7346dec94041c2ded","condition":"contingent","relevant_dimensions":["antennae","wings"],"bee_group":{"antennae":"A","wings":"1","pattern":"X","legs":"X"},"bonus":0.720000000000001},{"rt":2054.60000000312,"stimulus":"bees-with-color/bee-A2DM.svg","response":1,"trial_type":"image-button-response","trial_index":133,"time_elapsed":426705,"internal_node_id":"0.0-4.0-0.63","subject_id":"5fcd71a4176c9c2269b0234b","study_id":"60edd13110225f80f9f3709b","session_id":"6196c1f7346dec94041c2ded","condition":"contingent","relevant_dimensions":["antennae","wings"],"bee_group":{"antennae":"A","wings":"1","pattern":"X","legs":"X"},"action":"avoid","summary":"bad-avoid","bonus":0.720000000000001},{"rt":1034.8999999987427,"stimulus":"\n                    <p><b>Action: <em>avoid</em></b></p>\n                    <p>This is the bee that you just saw.</p>\n                    <img src=\"bees-with-color/bee-A2DM.svg\" width=\"200\">\n                    <p><br>Your bonus pay is unchanged, and remains at $0.66.</p>\n            ","response":0,"trial_type":"html-button-response","trial_index":134,"time_elapsed":427742,"internal_node_id":"0.0-4.0-1.63","subject_id":"5fcd71a4176c9c2269b0234b","study_id":"60edd13110225f80f9f3709b","session_id":"6196c1f7346dec94041c2ded","condition":"contingent","relevant_dimensions":["antennae","wings"],"bee_group":{"antennae":"A","wings":"1","pattern":"X","legs":"X"},"bonus":0.720000000000001},{"rt":8028.240000014193,"stimulus":"You have completed the first part of this experiment.<br><br>You will now begin a shorter second part, in which you will receive no feedback.<br>The same rules regarding bonus pay apply.<br><br>Press any key to begin.","response":"enter","trial_type":"html-keyboard-response","trial_index":135,"time_elapsed":435772,"internal_node_id":"0.0-5.0","subject_id":"5fcd71a4176c9c2269b0234b","study_id":"60edd13110225f80f9f3709b","session_id":"6196c1f7346dec94041c2ded","condition":"contingent","relevant_dimensions":["antennae","wings"],"bee_group":{"antennae":"A","wings":"1","pattern":"X","legs":"X"},"bonus":0.720000000000001},{"rt":3537.7449999796227,"stimulus":"bees-with-color/bee-A2DM.svg","response":0,"trial_type":"image-button-response","trial_index":136,"time_elapsed":439323,"internal_node_id":"0.0-6.0-0.0","subject_id":"5fcd71a4176c9c2269b0234b","study_id":"60edd13110225f80f9f3709b","session_id":"6196c1f7346dec94041c2ded","condition":"contingent","relevant_dimensions":["antennae","wings"],"bee_group":{"antennae":"A","wings":"1","pattern":"X","legs":"X"},"bonus":0.720000000000001},{"rt":3639.9450000026263,"stimulus":"bees-with-color/bee-B2DF.svg","response":0,"trial_type":"image-button-response","trial_index":137,"time_elapsed":442966,"internal_node_id":"0.0-6.0-0.1","subject_id":"5fcd71a4176c9c2269b0234b","study_id":"60edd13110225f80f9f3709b","session_id":"6196c1f7346dec94041c2ded","condition":"contingent","relevant_dimensions":["antennae","wings"],"bee_group":{"antennae":"A","wings":"1","pattern":"X","legs":"X"},"bonus":0.720000000000001},{"rt":1193.6149999964982,"stimulus":"bees-with-color/bee-B2SF.svg","response":0,"trial_type":"image-button-response","trial_index":138,"time_elapsed":444164,"internal_node_id":"0.0-6.0-0.2","subject_id":"5fcd71a4176c9c2269b0234b","study_id":"60edd13110225f80f9f3709b","session_id":"6196c1f7346dec94041c2ded","condition":"contingent","relevant_dimensions":["antennae","wings"],"bee_group":{"antennae":"A","wings":"1","pattern":"X","legs":"X"},"bonus":0.720000000000001},{"rt":2897.774999990361,"stimulus":"bees-with-color/bee-A1SM.svg","response":1,"trial_type":"image-button-response","trial_index":139,"time_elapsed":447064,"internal_node_id":"0.0-6.0-0.3","subject_id":"5fcd71a4176c9c2269b0234b","study_id":"60edd13110225f80f9f3709b","session_id":"6196c1f7346dec94041c2ded","condition":"contingent","relevant_dimensions":["antennae","wings"],"bee_group":{"antennae":"A","wings":"1","pattern":"X","legs":"X"},"bonus":0.720000000000001},{"rt":1932.6100000180304,"stimulus":"bees-with-color/bee-B1SM.svg","response":1,"trial_type":"image-button-response","trial_index":140,"time_elapsed":449000,"internal_node_id":"0.0-6.0-0.4","subject_id":"5fcd71a4176c9c2269b0234b","study_id":"60edd13110225f80f9f3709b","session_id":"6196c1f7346dec94041c2ded","condition":"contingent","relevant_dimensions":["antennae","wings"],"bee_group":{"antennae":"A","wings":"1","pattern":"X","legs":"X"},"bonus":0.720000000000001},{"rt":1227.0600000047125,"stimulus":"bees-with-color/bee-B1DM.svg","response":1,"trial_type":"image-button-response","trial_index":141,"time_elapsed":450230,"internal_node_id":"0.0-6.0-0.5","subject_id":"5fcd71a4176c9c2269b0234b","study_id":"60edd13110225f80f9f3709b","session_id":"6196c1f7346dec94041c2ded","condition":"contingent","relevant_dimensions":["antennae","wings"],"bee_group":{"antennae":"A","wings":"1","pattern":"X","legs":"X"},"bonus":0.720000000000001},{"rt":1290.3949999890756,"stimulus":"bees-with-color/bee-A1DM.svg","response":1,"trial_type":"image-button-response","trial_index":142,"time_elapsed":451523,"internal_node_id":"0.0-6.0-0.6","subject_id":"5fcd71a4176c9c2269b0234b","study_id":"60edd13110225f80f9f3709b","session_id":"6196c1f7346dec94041c2ded","condition":"contingent","relevant_dimensions":["antennae","wings"],"bee_group":{"antennae":"A","wings":"1","pattern":"X","legs":"X"},"bonus":0.720000000000001},{"rt":2271.3999999978114,"stimulus":"bees-with-color/bee-B1SF.svg","response":1,"trial_type":"image-button-response","trial_index":143,"time_elapsed":453797,"internal_node_id":"0.0-6.0-0.7","subject_id":"5fcd71a4176c9c2269b0234b","study_id":"60edd13110225f80f9f3709b","session_id":"6196c1f7346dec94041c2ded","condition":"contingent","relevant_dimensions":["antennae","wings"],"bee_group":{"antennae":"A","wings":"1","pattern":"X","legs":"X"},"bonus":0.720000000000001},{"rt":1082.0150000217836,"stimulus":"bees-with-color/bee-B2SM.svg","response":0,"trial_type":"image-button-response","trial_index":144,"time_elapsed":454881,"internal_node_id":"0.0-6.0-0.8","subject_id":"5fcd71a4176c9c2269b0234b","study_id":"60edd13110225f80f9f3709b","session_id":"6196c1f7346dec94041c2ded","condition":"contingent","relevant_dimensions":["antennae","wings"],"bee_group":{"antennae":"A","wings":"1","pattern":"X","legs":"X"},"bonus":0.720000000000001},{"rt":1291.079999995418,"stimulus":"bees-with-color/bee-A1DF.svg","response":1,"trial_type":"image-button-response","trial_index":145,"time_elapsed":456176,"internal_node_id":"0.0-6.0-0.9","subject_id":"5fcd71a4176c9c2269b0234b","study_id":"60edd13110225f80f9f3709b","session_id":"6196c1f7346dec94041c2ded","condition":"contingent","relevant_dimensions":["antennae","wings"],"bee_group":{"antennae":"A","wings":"1","pattern":"X","legs":"X"},"bonus":0.720000000000001},{"rt":1443.8000000081956,"stimulus":"bees-with-color/bee-B1DF.svg","response":1,"trial_type":"image-button-response","trial_index":146,"time_elapsed":457622,"internal_node_id":"0.0-6.0-0.10","subject_id":"5fcd71a4176c9c2269b0234b","study_id":"60edd13110225f80f9f3709b","session_id":"6196c1f7346dec94041c2ded","condition":"contingent","relevant_dimensions":["antennae","wings"],"bee_group":{"antennae":"A","wings":"1","pattern":"X","legs":"X"},"bonus":0.720000000000001},{"rt":1715.5400000046939,"stimulus":"bees-with-color/bee-A1SF.svg","response":0,"trial_type":"image-button-response","trial_index":147,"time_elapsed":459341,"internal_node_id":"0.0-6.0-0.11","subject_id":"5fcd71a4176c9c2269b0234b","study_id":"60edd13110225f80f9f3709b","session_id":"6196c1f7346dec94041c2ded","condition":"contingent","relevant_dimensions":["antennae","wings"],"bee_group":{"antennae":"A","wings":"1","pattern":"X","legs":"X"},"bonus":0.720000000000001},{"rt":1251.8350000027567,"stimulus":"bees-with-color/bee-B2DM.svg","response":1,"trial_type":"image-button-response","trial_index":148,"time_elapsed":460595,"internal_node_id":"0.0-6.0-0.12","subject_id":"5fcd71a4176c9c2269b0234b","study_id":"60edd13110225f80f9f3709b","session_id":"6196c1f7346dec94041c2ded","condition":"contingent","relevant_dimensions":["antennae","wings"],"bee_group":{"antennae":"A","wings":"1","pattern":"X","legs":"X"},"bonus":0.720000000000001},{"rt":1125.4849999968428,"stimulus":"bees-with-color/bee-A2SM.svg","response":0,"trial_type":"image-button-response","trial_index":149,"time_elapsed":461731,"internal_node_id":"0.0-6.0-0.13","subject_id":"5fcd71a4176c9c2269b0234b","study_id":"60edd13110225f80f9f3709b","session_id":"6196c1f7346dec94041c2ded","condition":"contingent","relevant_dimensions":["antennae","wings"],"bee_group":{"antennae":"A","wings":"1","pattern":"X","legs":"X"},"bonus":0.720000000000001},{"rt":2097.6300000038464,"stimulus":"bees-with-color/bee-A2SF.svg","response":0,"trial_type":"image-button-response","trial_index":150,"time_elapsed":463833,"internal_node_id":"0.0-6.0-0.14","subject_id":"5fcd71a4176c9c2269b0234b","study_id":"60edd13110225f80f9f3709b","session_id":"6196c1f7346dec94041c2ded","condition":"contingent","relevant_dimensions":["antennae","wings"],"bee_group":{"antennae":"A","wings":"1","pattern":"X","legs":"X"},"bonus":0.720000000000001},{"rt":1362.8800000005867,"stimulus":"bees-with-color/bee-A2DF.svg","response":0,"trial_type":"image-button-response","trial_index":151,"time_elapsed":465199,"internal_node_id":"0.0-6.0-0.15","subject_id":"5fcd71a4176c9c2269b0234b","study_id":"60edd13110225f80f9f3709b","session_id":"6196c1f7346dec94041c2ded","condition":"contingent","relevant_dimensions":["antennae","wings"],"bee_group":{"antennae":"A","wings":"1","pattern":"X","legs":"X"},"bonus":0.720000000000001},{"rt":1500.209999998333,"stimulus":"bees-with-color/bee-B1SF.svg","response":1,"trial_type":"image-button-response","trial_index":152,"time_elapsed":466702,"internal_node_id":"0.0-6.0-0.16","subject_id":"5fcd71a4176c9c2269b0234b","study_id":"60edd13110225f80f9f3709b","session_id":"6196c1f7346dec94041c2ded","condition":"contingent","relevant_dimensions":["antennae","wings"],"bee_group":{"antennae":"A","wings":"1","pattern":"X","legs":"X"},"bonus":0.720000000000001},{"rt":1106.4899999764748,"stimulus":"bees-with-color/bee-B2SF.svg","response":0,"trial_type":"image-button-response","trial_index":153,"time_elapsed":467810,"internal_node_id":"0.0-6.0-0.17","subject_id":"5fcd71a4176c9c2269b0234b","study_id":"60edd13110225f80f9f3709b","session_id":"6196c1f7346dec94041c2ded","condition":"contingent","relevant_dimensions":["antennae","wings"],"bee_group":{"antennae":"A","wings":"1","pattern":"X","legs":"X"},"bonus":0.720000000000001},{"rt":3822.2700000042096,"stimulus":"bees-with-color/bee-A1SM.svg","response":0,"trial_type":"image-button-response","trial_index":154,"time_elapsed":471635,"internal_node_id":"0.0-6.0-0.18","subject_id":"5fcd71a4176c9c2269b0234b","study_id":"60edd13110225f80f9f3709b","session_id":"6196c1f7346dec94041c2ded","condition":"contingent","relevant_dimensions":["antennae","wings"],"bee_group":{"antennae":"A","wings":"1","pattern":"X","legs":"X"},"bonus":0.720000000000001},{"rt":1765.015000011772,"stimulus":"bees-with-color/bee-A2SM.svg","response":0,"trial_type":"image-button-response","trial_index":155,"time_elapsed":473403,"internal_node_id":"0.0-6.0-0.19","subject_id":"5fcd71a4176c9c2269b0234b","study_id":"60edd13110225f80f9f3709b","session_id":"6196c1f7346dec94041c2ded","condition":"contingent","relevant_dimensions":["antennae","wings"],"bee_group":{"antennae":"A","wings":"1","pattern":"X","legs":"X"},"bonus":0.720000000000001},{"rt":1908.850000007078,"stimulus":"bees-with-color/bee-A2DF.svg","response":0,"trial_type":"image-button-response","trial_index":156,"time_elapsed":475314,"internal_node_id":"0.0-6.0-0.20","subject_id":"5fcd71a4176c9c2269b0234b","study_id":"60edd13110225f80f9f3709b","session_id":"6196c1f7346dec94041c2ded","condition":"contingent","relevant_dimensions":["antennae","wings"],"bee_group":{"antennae":"A","wings":"1","pattern":"X","legs":"X"},"bonus":0.720000000000001},{"rt":3021.4450000203215,"stimulus":"bees-with-color/bee-B2SM.svg","response":0,"trial_type":"image-button-response","trial_index":157,"time_elapsed":478337,"internal_node_id":"0.0-6.0-0.21","subject_id":"5fcd71a4176c9c2269b0234b","study_id":"60edd13110225f80f9f3709b","session_id":"6196c1f7346dec94041c2ded","condition":"contingent","relevant_dimensions":["antennae","wings"],"bee_group":{"antennae":"A","wings":"1","pattern":"X","legs":"X"},"bonus":0.720000000000001},{"rt":1226.8299999996088,"stimulus":"bees-with-color/bee-A1DF.svg","response":1,"trial_type":"image-button-response","trial_index":158,"time_elapsed":479567,"internal_node_id":"0.0-6.0-0.22","subject_id":"5fcd71a4176c9c2269b0234b","study_id":"60edd13110225f80f9f3709b","session_id":"6196c1f7346dec94041c2ded","condition":"contingent","relevant_dimensions":["antennae","wings"],"bee_group":{"antennae":"A","wings":"1","pattern":"X","legs":"X"},"bonus":0.720000000000001},{"rt":1114.5899999828544,"stimulus":"bees-with-color/bee-B2DF.svg","response":1,"trial_type":"image-button-response","trial_index":159,"time_elapsed":480684,"internal_node_id":"0.0-6.0-0.23","subject_id":"5fcd71a4176c9c2269b0234b","study_id":"60edd13110225f80f9f3709b","session_id":"6196c1f7346dec94041c2ded","condition":"contingent","relevant_dimensions":["antennae","wings"],"bee_group":{"antennae":"A","wings":"1","pattern":"X","legs":"X"},"bonus":0.720000000000001},{"rt":1209.8999999871012,"stimulus":"bees-with-color/bee-A1DM.svg","response":1,"trial_type":"image-button-response","trial_index":160,"time_elapsed":481896,"internal_node_id":"0.0-6.0-0.24","subject_id":"5fcd71a4176c9c2269b0234b","study_id":"60edd13110225f80f9f3709b","session_id":"6196c1f7346dec94041c2ded","condition":"contingent","relevant_dimensions":["antennae","wings"],"bee_group":{"antennae":"A","wings":"1","pattern":"X","legs":"X"},"bonus":0.720000000000001},{"rt":953.7149999814574,"stimulus":"bees-with-color/bee-A2DM.svg","response":1,"trial_type":"image-button-response","trial_index":161,"time_elapsed":482852,"internal_node_id":"0.0-6.0-0.25","subject_id":"5fcd71a4176c9c2269b0234b","study_id":"60edd13110225f80f9f3709b","session_id":"6196c1f7346dec94041c2ded","condition":"contingent","relevant_dimensions":["antennae","wings"],"bee_group":{"antennae":"A","wings":"1","pattern":"X","legs":"X"},"bonus":0.720000000000001},{"rt":1451.404999999795,"stimulus":"bees-with-color/bee-B1DM.svg","response":1,"trial_type":"image-button-response","trial_index":162,"time_elapsed":484306,"internal_node_id":"0.0-6.0-0.26","subject_id":"5fcd71a4176c9c2269b0234b","study_id":"60edd13110225f80f9f3709b","session_id":"6196c1f7346dec94041c2ded","condition":"contingent","relevant_dimensions":["antennae","wings"],"be