[{"success":true,"trial_type":"fullscreen","trial_index":0,"time_elapsed":12689,"internal_node_id":"0.0-0.0","subject_id":"60fd16cd87cf9f16439c0614","study_id":"60edd13110225f80f9f3709b","session_id":"6196ca871059a515e99c5d3a","condition":"contingent","relevant_dimensions":["wings","legs"],"bee_group":{"antennae":"X","wings":"1","pattern":"X","legs":"F"},"bonus":0.6600000000000005},{"success":true,"timeout":false,"failed_images":[],"failed_audio":[],"failed_video":[],"trial_type":"preload","trial_index":1,"time_elapsed":14819,"internal_node_id":"0.0-1.0","subject_id":"60fd16cd87cf9f16439c0614","study_id":"60edd13110225f80f9f3709b","session_id":"6196ca871059a515e99c5d3a","condition":"contingent","relevant_dimensions":["wings","legs"],"bee_group":{"antennae":"X","wings":"1","pattern":"X","legs":"F"},"bonus":0.6600000000000005},{"rt":2666,"stimulus":"Welcome! Press any key to begin.","response":"l","trial_type":"html-keyboard-response","trial_index":2,"time_elapsed":17486,"internal_node_id":"0.0-2.0","subject_id":"60fd16cd87cf9f16439c0614","study_id":"60edd13110225f80f9f3709b","session_id":"6196ca871059a515e99c5d3a","condition":"contingent","relevant_dimensions":["wings","legs"],"bee_group":{"antennae":"X","wings":"1","pattern":"X","legs":"F"},"bonus":0.6600000000000005},{"view_history":[{"page_index":0,"viewing_time":7473},{"page_index":1,"viewing_time":6745},{"page_index":2,"viewing_time":840},{"page_index":1,"viewing_time":1352},{"page_index":2,"viewing_time":5928},{"page_index":3,"viewing_time":10360},{"page_index":4,"viewing_time":4560},{"page_index":5,"viewing_time":5527},{"page_index":6,"viewing_time":17377},{"page_index":7,"viewing_time":7079},{"page_index":8,"viewing_time":4002},{"page_index":9,"viewing_time":2311},{"page_index":10,"viewing_time":2528},{"page_index":11,"viewing_time":7848},{"page_index":10,"viewing_time":960},{"page_index":9,"viewing_time":440},{"page_index":8,"viewing_time":360},{"page_index":7,"viewing_time":1032},{"page_index":6,"viewing_time":784},{"page_index":7,"viewing_time":840},{"page_index":8,"viewing_time":1696},{"page_index":9,"viewing_time":1128},{"page_index":10,"viewing_time":767},{"page_index":11,"viewing_time":802},{"page_index":12,"viewing_time":5383},{"page_index":13,"viewing_time":1063},{"page_index":14,"viewing_time":1417}],"rt":100602,"trial_type":"instructions","trial_index":3,"time_elapsed":118089,"internal_node_id":"0.0-3.0-0.0","subject_id":"60fd16cd87cf9f16439c0614","study_id":"60edd13110225f80f9f3709b","session_id":"6196ca871059a515e99c5d3a","condition":"contingent","relevant_dimensions":["wings","legs"],"bee_group":{"antennae":"X","wings":"1","pattern":"X","legs":"F"},"bonus":0.6600000000000005},{"rt":10053,"response":{"Q0":["Two or six legs","Stripes or spots on body","Single or double wings","Antennae or no antennae"]},"question_order":[0],"trial_type":"survey-multi-select","trial_index":4,"time_elapsed":128147,"internal_node_id":"0.0-3.0-1.0","subject_id":"60fd16cd87cf9f16439c0614","study_id":"60edd13110225f80f9f3709b","session_id":"6196ca871059a515e99c5d3a","condition":"contingent","relevant_dimensions":["wings","legs"],"bee_group":{"antennae":"X","wings":"1","pattern":"X","legs":"F"},"correct":true,"bonus":0.6600000000000005},{"rt":20348,"response":{"Q1":"No.","Q2":"Based on the four features of the bee.","Q3":"You do not learn if it was friendly or dangerous, and do not alter your bonus."},"question_order":[0,1,2],"trial_type":"survey-multi-choice","trial_index":5,"time_elapsed":148498,"internal_node_id":"0.0-3.0-2.0","subject_id":"60fd16cd87cf9f16439c0614","study_id":"60edd13110225f80f9f3709b","session_id":"6196ca871059a515e99c5d3a","condition":"contingent","relevant_dimensions":["wings","legs"],"bee_group":{"antennae":"X","wings":"1","pattern":"X","legs":"F"},"correct":true,"bonus":0.6600000000000005},{"rt":2422,"stimulus":"<p>Congrats, you got everything right<br>When you're ready, click the button below to continue to the experiment.</p>","response":0,"trial_type":"html-button-response","trial_index":6,"time_elapsed":150920,"internal_node_id":"0.0-3.0-3.0","subject_id":"60fd16cd87cf9f16439c0614","study_id":"60edd13110225f80f9f3709b","session_id":"6196ca871059a515e99c5d3a","condition":"contingent","relevant_dimensions":["wings","legs"],"bee_group":{"antennae":"X","wings":"1","pattern":"X","legs":"F"},"bonus":0.6600000000000005},{"rt":6798,"stimulus":"bees-with-color/bee-A2DF.svg","response":1,"trial_type":"image-button-response","trial_index":7,"time_elapsed":157720,"internal_node_id":"0.0-4.0-0.0","subject_id":"60fd16cd87cf9f16439c0614","study_id":"60edd13110225f80f9f3709b","session_id":"6196ca871059a515e99c5d3a","condition":"contingent","relevant_dimensions":["wings","legs"],"bee_group":{"antennae":"X","wings":"1","pattern":"X","legs":"F"},"action":"avoid","summary":"bad-avoid","bonus":0.6600000000000005},{"rt":3626,"stimulus":"\n                    <p><b>Action: <em>avoid</em></b></p>\n                    <p>This is the bee that you just saw.</p>\n                    <img src=\"bees-with-color/bee-A2DF.svg\" width=\"200\">\n                    <p><br>Your bonus pay is unchanged, and remains at $0.54.</p>\n            ","response":0,"trial_type":"html-button-response","trial_index":8,"time_elapsed":161361,"internal_node_id":"0.0-4.0-1.0","subject_id":"60fd16cd87cf9f16439c0614","study_id":"60edd13110225f80f9f3709b","session_id":"6196ca871059a515e99c5d3a","condition":"contingent","relevant_dimensions":["wings","legs"],"bee_group":{"antennae":"X","wings":"1","pattern":"X","legs":"F"},"bonus":0.6600000000000005},{"rt":1142,"stimulus":"bees-with-color/bee-B2SF.svg","response":0,"trial_type":"image-button-response","trial_index":9,"time_elapsed":162504,"internal_node_id":"0.0-4.0-0.1","subject_id":"60fd16cd87cf9f16439c0614","study_id":"60edd13110225f80f9f3709b","session_id":"6196ca871059a515e99c5d3a","condition":"contingent","relevant_dimensions":["wings","legs"],"bee_group":{"antennae":"X","wings":"1","pattern":"X","legs":"F"},"action":"harvest","summary":"good-harvest","bonus":0.6600000000000005},{"rt":3095,"stimulus":"\n                    <p><b>Action: <em>harvest</em></b></p>\n                    <p>This is the bee that you just saw.</p>\n                    <img src=\"bees-with-color/bee-B2SF.svg\" width=\"200\">\n                    <p><span class=\"greenText\"><b>Successful harvest!</b></span><br>Your pay has increased by $0.02. Your bonus pay is now $0.56.</p>\n            ","response":0,"trial_type":"html-button-response","trial_index":10,"time_elapsed":165601,"internal_node_id":"0.0-4.0-1.1","subject_id":"60fd16cd87cf9f16439c0614","study_id":"60edd13110225f80f9f3709b","session_id":"6196ca871059a515e99c5d3a","condition":"contingent","relevant_dimensions":["wings","legs"],"bee_group":{"antennae":"X","wings":"1","pattern":"X","legs":"F"},"bonus":0.6600000000000005},{"rt":2783,"stimulus":"bees-with-color/bee-B2DF.svg","response":1,"trial_type":"image-button-response","trial_index":11,"time_elapsed":168385,"internal_node_id":"0.0-4.0-0.2","subject_id":"60fd16cd87cf9f16439c0614","study_id":"60edd13110225f80f9f3709b","session_id":"6196ca871059a515e99c5d3a","condition":"contingent","relevant_dimensions":["wings","legs"],"bee_group":{"antennae":"X","wings":"1","pattern":"X","legs":"F"},"action":"avoid","summary":"bad-avoid","bonus":0.6600000000000005},{"rt":879,"stimulus":"\n                    <p><b>Action: <em>avoid</em></b></p>\n                    <p>This is the bee that you just saw.</p>\n                    <img src=\"bees-with-color/bee-B2DF.svg\" width=\"200\">\n                    <p><br>Your bonus pay is unchanged, and remains at $0.56.</p>\n            ","response":0,"trial_type":"html-button-response","trial_index":12,"time_elapsed":169264,"internal_node_id":"0.0-4.0-1.2","subject_id":"60fd16cd87cf9f16439c0614","study_id":"60edd13110225f80f9f3709b","session_id":"6196ca871059a515e99c5d3a","condition":"contingent","relevant_dimensions":["wings","legs"],"bee_group":{"antennae":"X","wings":"1","pattern":"X","legs":"F"},"bonus":0.6600000000000005},{"rt":1463,"stimulus":"bees-with-color/bee-A2SF.svg","response":0,"trial_type":"image-button-response","trial_index":13,"time_elapsed":170728,"internal_node_id":"0.0-4.0-0.3","subject_id":"60fd16cd87cf9f16439c0614","study_id":"60edd13110225f80f9f3709b","session_id":"6196ca871059a515e99c5d3a","condition":"contingent","relevant_dimensions":["wings","legs"],"bee_group":{"antennae":"X","wings":"1","pattern":"X","legs":"F"},"action":"harvest","summary":"good-harvest","bonus":0.6600000000000005},{"rt":12054,"stimulus":"\n                    <p><b>Action: <em>harvest</em></b></p>\n                    <p>This is the bee that you just saw.</p>\n                    <img src=\"bees-with-color/bee-A2SF.svg\" width=\"200\">\n                    <p><span class=\"greenText\"><b>Successful harvest!</b></span><br>Your pay has increased by $0.02. Your bonus pay is now $0.58.</p>\n            ","response":0,"trial_type":"html-button-response","trial_index":14,"time_elapsed":182785,"internal_node_id":"0.0-4.0-1.3","subject_id":"60fd16cd87cf9f16439c0614","study_id":"60edd13110225f80f9f3709b","session_id":"6196ca871059a515e99c5d3a","condition":"contingent","relevant_dimensions":["wings","legs"],"bee_group":{"antennae":"X","wings":"1","pattern":"X","legs":"F"},"bonus":0.6600000000000005},{"rt":1967,"stimulus":"bees-with-color/bee-A1SF.svg","response":1,"trial_type":"image-button-response","trial_index":15,"time_elapsed":184752,"internal_node_id":"0.0-4.0-0.4","subject_id":"60fd16cd87cf9f16439c0614","study_id":"60edd13110225f80f9f3709b","session_id":"6196ca871059a515e99c5d3a","condition":"contingent","relevant_dimensions":["wings","legs"],"bee_group":{"antennae":"X","wings":"1","pattern":"X","legs":"F"},"action":"avoid","summary":"good-avoid","bonus":0.6600000000000005},{"rt":767,"stimulus":"\n                    <p><b>Action: <em>avoid</em></b></p>\n                    <p>This is the bee that you just saw.</p>\n                    <img src=\"bees-with-color/bee-A1SF.svg\" width=\"200\">\n                    <p><br>Your bonus pay is unchanged, and remains at $0.58.</p>\n            ","response":0,"trial_type":"html-button-response","trial_index":16,"time_elapsed":185521,"internal_node_id":"0.0-4.0-1.4","subject_id":"60fd16cd87cf9f16439c0614","study_id":"60edd13110225f80f9f3709b","session_id":"6196ca871059a515e99c5d3a","condition":"contingent","relevant_dimensions":["wings","legs"],"bee_group":{"antennae":"X","wings":"1","pattern":"X","legs":"F"},"bonus":0.6600000000000005},{"rt":3383,"stimulus":"bees-with-color/bee-A1SM.svg","response":0,"trial_type":"image-button-response","trial_index":17,"time_elapsed":188904,"internal_node_id":"0.0-4.0-0.5","subject_id":"60fd16cd87cf9f16439c0614","study_id":"60edd13110225f80f9f3709b","session_id":"6196ca871059a515e99c5d3a","condition":"contingent","relevant_dimensions":["wings","legs"],"bee_group":{"antennae":"X","wings":"1","pattern":"X","legs":"F"},"action":"harvest","summary":"good-harvest","bonus":0.6600000000000005},{"rt":11054,"stimulus":"\n                    <p><b>Action: <em>harvest</em></b></p>\n                    <p>This is the bee that you just saw.</p>\n                    <img src=\"bees-with-color/bee-A1SM.svg\" width=\"200\">\n                    <p><span class=\"greenText\"><b>Successful harvest!</b></span><br>Your pay has increased by $0.02. Your bonus pay is now $0.60.</p>\n            ","response":0,"trial_type":"html-button-response","trial_index":18,"time_elapsed":199960,"internal_node_id":"0.0-4.0-1.5","subject_id":"60fd16cd87cf9f16439c0614","study_id":"60edd13110225f80f9f3709b","session_id":"6196ca871059a515e99c5d3a","condition":"contingent","relevant_dimensions":["wings","legs"],"bee_group":{"antennae":"X","wings":"1","pattern":"X","legs":"F"},"bonus":0.6600000000000005},{"rt":1440,"stimulus":"bees-with-color/bee-B1SF.svg","response":1,"trial_type":"image-button-response","trial_index":19,"time_elapsed":201401,"internal_node_id":"0.0-4.0-0.6","subject_id":"60fd16cd87cf9f16439c0614","study_id":"60edd13110225f80f9f3709b","session_id":"6196ca871059a515e99c5d3a","condition":"contingent","relevant_dimensions":["wings","legs"],"bee_group":{"antennae":"X","wings":"1","pattern":"X","legs":"F"},"action":"avoid","summary":"good-avoid","bonus":0.6600000000000005},{"rt":871,"stimulus":"\n                    <p><b>Action: <em>avoid</em></b></p>\n                    <p>This is the bee that you just saw.</p>\n                    <img src=\"bees-with-color/bee-B1SF.svg\" width=\"200\">\n                    <p><br>Your bonus pay is unchanged, and remains at $0.60.</p>\n            ","response":0,"trial_type":"html-button-response","trial_index":20,"time_elapsed":202272,"internal_node_id":"0.0-4.0-1.6","subject_id":"60fd16cd87cf9f16439c0614","study_id":"60edd13110225f80f9f3709b","session_id":"6196ca871059a515e99c5d3a","condition":"contingent","relevant_dimensions":["wings","legs"],"bee_group":{"antennae":"X","wings":"1","pattern":"X","legs":"F"},"bonus":0.6600000000000005},{"rt":1255,"stimulus":"bees-with-color/bee-A1DM.svg","response":1,"trial_type":"image-button-response","trial_index":21,"time_elapsed":203528,"internal_node_id":"0.0-4.0-0.7","subject_id":"60fd16cd87cf9f16439c0614","study_id":"60edd13110225f80f9f3709b","session_id":"6196ca871059a515e99c5d3a","condition":"contingent","relevant_dimensions":["wings","legs"],"bee_group":{"antennae":"X","wings":"1","pattern":"X","legs":"F"},"action":"avoid","summary":"bad-avoid","bonus":0.6600000000000005},{"rt":672,"stimulus":"\n                    <p><b>Action: <em>avoid</em></b></p>\n                    <p>This is the bee that you just saw.</p>\n                    <img src=\"bees-with-color/bee-A1DM.svg\" width=\"200\">\n                    <p><br>Your bonus pay is unchanged, and remains at $0.60.</p>\n            ","response":0,"trial_type":"html-button-response","trial_index":22,"time_elapsed":204200,"internal_node_id":"0.0-4.0-1.7","subject_id":"60fd16cd87cf9f16439c0614","study_id":"60edd13110225f80f9f3709b","session_id":"6196ca871059a515e99c5d3a","condition":"contingent","relevant_dimensions":["wings","legs"],"bee_group":{"antennae":"X","wings":"1","pattern":"X","legs":"F"},"bonus":0.6600000000000005},{"rt":4703,"stimulus":"bees-with-color/bee-A2DM.svg","response":1,"trial_type":"image-button-response","trial_index":23,"time_elapsed":208904,"internal_node_id":"0.0-4.0-0.8","subject_id":"60fd16cd87cf9f16439c0614","study_id":"60edd13110225f80f9f3709b","session_id":"6196ca871059a515e99c5d3a","condition":"contingent","relevant_dimensions":["wings","legs"],"bee_group":{"antennae":"X","wings":"1","pattern":"X","legs":"F"},"action":"avoid","summary":"bad-avoid","bonus":0.6600000000000005},{"rt":3094,"stimulus":"\n                    <p><b>Action: <em>avoid</em></b></p>\n                    <p>This is the bee that you just saw.</p>\n                    <img src=\"bees-with-color/bee-A2DM.svg\" width=\"200\">\n                    <p><br>Your bonus pay is unchanged, and remains at $0.60.</p>\n            ","response":0,"trial_type":"html-button-response","trial_index":24,"time_elapsed":212000,"internal_node_id":"0.0-4.0-1.8","subject_id":"60fd16cd87cf9f16439c0614","study_id":"60edd13110225f80f9f3709b","session_id":"6196ca871059a515e99c5d3a","condition":"contingent","relevant_dimensions":["wings","legs"],"bee_group":{"antennae":"X","wings":"1","pattern":"X","legs":"F"},"bonus":0.6600000000000005},{"rt":2000,"stimulus":"bees-with-color/bee-B1DF.svg","response":1,"trial_type":"image-button-response","trial_index":25,"time_elapsed":214000,"internal_node_id":"0.0-4.0-0.9","subject_id":"60fd16cd87cf9f16439c0614","study_id":"60edd13110225f80f9f3709b","session_id":"6196ca871059a515e99c5d3a","condition":"contingent","relevant_dimensions":["wings","legs"],"bee_group":{"antennae":"X","wings":"1","pattern":"X","legs":"F"},"action":"avoid","summary":"good-avoid","bonus":0.6600000000000005},{"rt":847,"stimulus":"\n                    <p><b>Action: <em>avoid</em></b></p>\n                    <p>This is the bee that you just saw.</p>\n                    <img src=\"bees-with-color/bee-B1DF.svg\" width=\"200\">\n                    <p><br>Your bonus pay is unchanged, and remains at $0.60.</p>\n            ","response":0,"trial_type":"html-button-response","trial_index":26,"time_elapsed":214849,"internal_node_id":"0.0-4.0-1.9","subject_id":"60fd16cd87cf9f16439c0614","study_id":"60edd13110225f80f9f3709b","session_id":"6196ca871059a515e99c5d3a","condition":"contingent","relevant_dimensions":["wings","legs"],"bee_group":{"antennae":"X","wings":"1","pattern":"X","legs":"F"},"bonus":0.6600000000000005},{"rt":4215,"stimulus":"bees-with-color/bee-A1DF.svg","response":0,"trial_type":"image-button-response","trial_index":27,"time_elapsed":219065,"internal_node_id":"0.0-4.0-0.10","subject_id":"60fd16cd87cf9f16439c0614","study_id":"60edd13110225f80f9f3709b","session_id":"6196ca871059a515e99c5d3a","condition":"contingent","relevant_dimensions":["wings","legs"],"bee_group":{"antennae":"X","wings":"1","pattern":"X","legs":"F"},"action":"harvest","summary":"bad-harvest","bonus":0.6600000000000005},{"rt":2807,"stimulus":"\n                    <p><b>Action: <em>harvest</em></b></p>\n                    <p>This is the bee that you just saw.</p>\n                    <img src=\"bees-with-color/bee-A1DF.svg\" width=\"200\">\n                    <p><span class=\"redText\">Bad choice, the bee was angry.</span><br><b>You have been stung!</b><br>Your pay has been decreased by $0.10. Your bonus pay is now $0.50.</p>\n            ","response":0,"trial_type":"html-button-response","trial_index":28,"time_elapsed":221872,"internal_node_id":"0.0-4.0-1.10","subject_id":"60fd16cd87cf9f16439c0614","study_id":"60edd13110225f80f9f3709b","session_id":"6196ca871059a515e99c5d3a","condition":"contingent","relevant_dimensions":["wings","legs"],"bee_group":{"antennae":"X","wings":"1","pattern":"X","legs":"F"},"bonus":0.6600000000000005},{"rt":6375,"stimulus":"bees-with-color/bee-B2SM.svg","response":1,"trial_type":"image-button-response","trial_index":29,"time_elapsed":228248,"internal_node_id":"0.0-4.0-0.11","subject_id":"60fd16cd87cf9f16439c0614","study_id":"60edd13110225f80f9f3709b","session_id":"6196ca871059a515e99c5d3a","condition":"contingent","relevant_dimensions":["wings","legs"],"bee_group":{"antennae":"X","wings":"1","pattern":"X","legs":"F"},"action":"avoid","summary":"bad-avoid","bonus":0.6600000000000005},{"rt":3407,"stimulus":"\n                    <p><b>Action: <em>avoid</em></b></p>\n                    <p>This is the bee that you just saw.</p>\n                    <img src=\"bees-with-color/bee-B2SM.svg\" width=\"200\">\n                    <p><br>Your bonus pay is unchanged, and remains at $0.50.</p>\n            ","response":0,"trial_type":"html-button-response","trial_index":30,"time_elapsed":231656,"internal_node_id":"0.0-4.0-1.11","subject_id":"60fd16cd87cf9f16439c0614","study_id":"60edd13110225f80f9f3709b","session_id":"6196ca871059a515e99c5d3a","condition":"contingent","relevant_dimensions":["wings","legs"],"bee_group":{"antennae":"X","wings":"1","pattern":"X","legs":"F"},"bonus":0.6600000000000005},{"rt":6415,"stimulus":"bees-with-color/bee-A2SM.svg","response":1,"trial_type":"image-button-response","trial_index":31,"time_elapsed":238072,"internal_node_id":"0.0-4.0-0.12","subject_id":"60fd16cd87cf9f16439c0614","study_id":"60edd13110225f80f9f3709b","session_id":"6196ca871059a515e99c5d3a","condition":"contingent","relevant_dimensions":["wings","legs"],"bee_group":{"antennae":"X","wings":"1","pattern":"X","legs":"F"},"action":"avoid","summary":"bad-avoid","bonus":0.6600000000000005},{"rt":999,"stimulus":"\n                    <p><b>Action: <em>avoid</em></b></p>\n                    <p>This is the bee that you just saw.</p>\n                    <img src=\"bees-with-color/bee-A2SM.svg\" width=\"200\">\n                    <p><br>Your bonus pay is unchanged, and remains at $0.50.</p>\n            ","response":0,"trial_type":"html-button-response","trial_index":32,"time_elapsed":239072,"internal_node_id":"0.0-4.0-1.12","subject_id":"60fd16cd87cf9f16439c0614","study_id":"60edd13110225f80f9f3709b","session_id":"6196ca871059a515e99c5d3a","condition":"contingent","relevant_dimensions":["wings","legs"],"bee_group":{"antennae":"X","wings":"1","pattern":"X","legs":"F"},"bonus":0.6600000000000005},{"rt":1231,"stimulus":"bees-with-color/bee-B2DM.svg","response":1,"trial_type":"image-button-response","trial_index":33,"time_elapsed":240304,"internal_node_id":"0.0-4.0-0.13","subject_id":"60fd16cd87cf9f16439c0614","study_id":"60edd13110225f80f9f3709b","session_id":"6196ca871059a515e99c5d3a","condition":"contingent","relevant_dimensions":["wings","legs"],"bee_group":{"antennae":"X","wings":"1","pattern":"X","legs":"F"},"action":"avoid","summary":"bad-avoid","bonus":0.6600000000000005},{"rt":688,"stimulus":"\n                    <p><b>Action: <em>avoid</em></b></p>\n                    <p>This is the bee that you just saw.</p>\n                    <img src=\"bees-with-color/bee-B2DM.svg\" width=\"200\">\n                    <p><br>Your bonus pay is unchanged, and remains at $0.50.</p>\n            ","response":0,"trial_type":"html-button-response","trial_index":34,"time_elapsed":240993,"internal_node_id":"0.0-4.0-1.13","subject_id":"60fd16cd87cf9f16439c0614","study_id":"60edd13110225f80f9f3709b","session_id":"6196ca871059a515e99c5d3a","condition":"contingent","relevant_dimensions":["wings","legs"],"bee_group":{"antennae":"X","wings":"1","pattern":"X","legs":"F"},"bonus":0.6600000000000005},{"rt":4302,"stimulus":"bees-with-color/bee-B1SM.svg","response":0,"trial_type":"image-button-response","trial_index":35,"time_elapsed":245296,"internal_node_id":"0.0-4.0-0.14","subject_id":"60fd16cd87cf9f16439c0614","study_id":"60edd13110225f80f9f3709b","session_id":"6196ca871059a515e99c5d3a","condition":"contingent","relevant_dimensions":["wings","legs"],"bee_group":{"antennae":"X","wings":"1","pattern":"X","legs":"F"},"action":"harvest","summary":"good-harvest","bonus":0.6600000000000005},{"rt":9255,"stimulus":"\n                    <p><b>Action: <em>harvest</em></b></p>\n                    <p>This is the bee that you just saw.</p>\n                    <img src=\"bees-with-color/bee-B1SM.svg\" width=\"200\">\n                    <p><span class=\"greenText\"><b>Successful harvest!</b></span><br>Your pay has increased by $0.02. Your bonus pay is now $0.52.</p>\n            ","response":0,"trial_type":"html-button-response","trial_index":36,"time_elapsed":254552,"internal_node_id":"0.0-4.0-1.14","subject_id":"60fd16cd87cf9f16439c0614","study_id":"60edd13110225f80f9f3709b","session_id":"6196ca871059a515e99c5d3a","condition":"contingent","relevant_dimensions":["wings","legs"],"bee_group":{"antennae":"X","wings":"1","pattern":"X","legs":"F"},"bonus":0.6600000000000005},{"rt":1103,"stimulus":"bees-with-color/bee-B1DM.svg","response":1,"trial_type":"image-button-response","trial_index":37,"time_elapsed":255656,"internal_node_id":"0.0-4.0-0.15","subject_id":"60fd16cd87cf9f16439c0614","study_id":"60edd13110225f80f9f3709b","session_id":"6196ca871059a515e99c5d3a","condition":"contingent","relevant_dimensions":["wings","legs"],"bee_group":{"antennae":"X","wings":"1","pattern":"X","legs":"F"},"action":"avoid","summary":"bad-avoid","bonus":0.6600000000000005},{"rt":631,"stimulus":"\n                    <p><b>Action: <em>avoid</em></b></p>\n                    <p>This is the bee that you just saw.</p>\n                    <img src=\"bees-with-color/bee-B1DM.svg\" width=\"200\">\n                    <p><br>Your bonus pay is unchanged, and remains at $0.52.</p>\n            ","response":0,"trial_type":"html-button-response","trial_index":38,"time_elapsed":256288,"internal_node_id":"0.0-4.0-1.15","subject_id":"60fd16cd87cf9f16439c0614","study_id":"60edd13110225f80f9f3709b","session_id":"6196ca871059a515e99c5d3a","condition":"contingent","relevant_dimensions":["wings","legs"],"bee_group":{"antennae":"X","wings":"1","pattern":"X","legs":"F"},"bonus":0.6600000000000005},{"rt":1519,"stimulus":"bees-with-color/bee-B2SF.svg","response":0,"trial_type":"image-button-response","trial_index":39,"time_elapsed":257808,"internal_node_id":"0.0-4.0-0.16","subject_id":"60fd16cd87cf9f16439c0614","study_id":"60edd13110225f80f9f3709b","session_id":"6196ca871059a515e99c5d3a","condition":"contingent","relevant_dimensions":["wings","legs"],"bee_group":{"antennae":"X","wings":"1","pattern":"X","legs":"F"},"action":"harvest","summary":"good-harvest","bonus":0.6600000000000005},{"rt":12304,"stimulus":"\n                    <p><b>Action: <em>harvest</em></b></p>\n                    <p>This is the bee that you just saw.</p>\n                    <img src=\"bees-with-color/bee-B2SF.svg\" width=\"200\">\n                    <p><span class=\"greenText\"><b>Successful harvest!</b></span><br>Your pay has increased by $0.02. Your bonus pay is now $0.54.</p>\n            ","response":0,"trial_type":"html-button-response","trial_index":40,"time_elapsed":270112,"internal_node_id":"0.0-4.0-1.16","subject_id":"60fd16cd87cf9f16439c0614","study_id":"60edd13110225f80f9f3709b","session_id":"6196ca871059a515e99c5d3a","condition":"contingent","relevant_dimensions":["wings","legs"],"bee_group":{"antennae":"X","wings":"1","pattern":"X","legs":"F"},"bonus":0.6600000000000005},{"rt":1295,"stimulus":"bees-with-color/bee-A1DM.svg","response":1,"trial_type":"image-button-response","trial_index":41,"time_elapsed":271408,"internal_node_id":"0.0-4.0-0.17","subject_id":"60fd16cd87cf9f16439c0614","study_id":"60edd13110225f80f9f3709b","session_id":"6196ca871059a515e99c5d3a","condition":"contingent","relevant_dimensions":["wings","legs"],"bee_group":{"antennae":"X","wings":"1","pattern":"X","legs":"F"},"action":"avoid","summary":"bad-avoid","bonus":0.6600000000000005},{"rt":679,"stimulus":"\n                    <p><b>Action: <em>avoid</em></b></p>\n                    <p>This is the bee that you just saw.</p>\n                    <img src=\"bees-with-color/bee-A1DM.svg\" width=\"200\">\n                    <p><br>Your bonus pay is unchanged, and remains at $0.54.</p>\n            ","response":0,"trial_type":"html-button-response","trial_index":42,"time_elapsed":272089,"internal_node_id":"0.0-4.0-1.17","subject_id":"60fd16cd87cf9f16439c0614","study_id":"60edd13110225f80f9f3709b","session_id":"6196ca871059a515e99c5d3a","condition":"contingent","relevant_dimensions":["wings","legs"],"bee_group":{"antennae":"X","wings":"1","pattern":"X","legs":"F"},"bonus":0.6600000000000005},{"rt":1471,"stimulus":"bees-with-color/bee-A1SM.svg","response":0,"trial_type":"image-button-response","trial_index":43,"time_elapsed":273561,"internal_node_id":"0.0-4.0-0.18","subject_id":"60fd16cd87cf9f16439c0614","study_id":"60edd13110225f80f9f3709b","session_id":"6196ca871059a515e99c5d3a","condition":"contingent","relevant_dimensions":["wings","legs"],"bee_group":{"antennae":"X","wings":"1","pattern":"X","legs":"F"},"action":"harvest","summary":"good-harvest","bonus":0.6600000000000005},{"rt":11734,"stimulus":"\n                    <p><b>Action: <em>harvest</em></b></p>\n                    <p>This is the bee that you just saw.</p>\n                    <img src=\"bees-with-color/bee-A1SM.svg\" width=\"200\">\n                    <p><span class=\"greenText\"><b>Successful harvest!</b></span><br>Your pay has increased by $0.02. Your bonus pay is now $0.56.</p>\n            ","response":0,"trial_type":"html-button-response","trial_index":44,"time_elapsed":285296,"internal_node_id":"0.0-4.0-1.18","subject_id":"60fd16cd87cf9f16439c0614","study_id":"60edd13110225f80f9f3709b","session_id":"6196ca871059a515e99c5d3a","condition":"contingent","relevant_dimensions":["wings","legs"],"bee_group":{"antennae":"X","wings":"1","pattern":"X","legs":"F"},"bonus":0.6600000000000005},{"rt":984,"stimulus":"bees-with-color/bee-A1DF.svg","response":1,"trial_type":"image-button-response","trial_index":45,"time_elapsed":286281,"internal_node_id":"0.0-4.0-0.19","subject_id":"60fd16cd87cf9f16439c0614","study_id":"60edd13110225f80f9f3709b","session_id":"6196ca871059a515e99c5d3a","condition":"contingent","relevant_dimensions":["wings","legs"],"bee_group":{"antennae":"X","wings":"1","pattern":"X","legs":"F"},"action":"avoid","summary":"good-avoid","bonus":0.6600000000000005},{"rt":2127,"stimulus":"\n                    <p><b>Action: <em>avoid</em></b></p>\n                    <p>This is the bee that you just saw.</p>\n                    <img src=\"bees-with-color/bee-A1DF.svg\" width=\"200\">\n                    <p><br>Your bonus pay is unchanged, and remains at $0.56.</p>\n            ","response":0,"trial_type":"html-button-response","trial_index":46,"time_elapsed":288408,"internal_node_id":"0.0-4.0-1.19","subject_id":"60fd16cd87cf9f16439c0614","study_id":"60edd13110225f80f9f3709b","session_id":"6196ca871059a515e99c5d3a","condition":"contingent","relevant_dimensions":["wings","legs"],"bee_group":{"antennae":"X","wings":"1","pattern":"X","legs":"F"},"bonus":0.6600000000000005},{"rt":5655,"stimulus":"bees-with-color/bee-B2SM.svg","response":0,"trial_type":"image-button-response","trial_index":47,"time_elapsed":294064,"internal_node_id":"0.0-4.0-0.20","subject_id":"60fd16cd87cf9f16439c0614","study_id":"60edd13110225f80f9f3709b","session_id":"6196ca871059a515e99c5d3a","condition":"contingent","relevant_dimensions":["wings","legs"],"bee_group":{"antennae":"X","wings":"1","pattern":"X","legs":"F"},"action":"harvest","summary":"good-harvest","bonus":0.6600000000000005},{"rt":8199,"stimulus":"\n                    <p><b>Action: <em>harvest</em></b></p>\n                    <p>This is the bee that you just saw.</p>\n                    <img src=\"bees-with-color/bee-B2SM.svg\" width=\"200\">\n                    <p><span class=\"greenText\"><b>Successful harvest!</b></span><br>Your pay has increased by $0.02. Your bonus pay is now $0.58.</p>\n            ","response":0,"trial_type":"html-button-response","trial_index":48,"time_elapsed":302264,"internal_node_id":"0.0-4.0-1.20","subject_id":"60fd16cd87cf9f16439c0614","study_id":"60edd13110225f80f9f3709b","session_id":"6196ca871059a515e99c5d3a","condition":"contingent","relevant_dimensions":["wings","legs"],"bee_group":{"antennae":"X","wings":"1","pattern":"X","legs":"F"},"bonus":0.6600000000000005},{"rt":1015,"stimulus":"bees-with-color/bee-B2DM.svg","response":1,"trial_type":"image-button-response","trial_index":49,"time_elapsed":303280,"internal_node_id":"0.0-4.0-0.21","subject_id":"60fd16cd87cf9f16439c0614","study_id":"60edd13110225f80f9f3709b","session_id":"6196ca871059a515e99c5d3a","condition":"contingent","relevant_dimensions":["wings","legs"],"bee_group":{"antennae":"X","wings":"1","pattern":"X","legs":"F"},"action":"avoid","summary":"bad-avoid","bonus":0.6600000000000005},{"rt":816,"stimulus":"\n                    <p><b>Action: <em>avoid</em></b></p>\n                    <p>This is the bee that you just saw.</p>\n                    <img src=\"bees-with-color/bee-B2DM.svg\" width=\"200\">\n                    <p><br>Your bonus pay is unchanged, and remains at $0.58.</p>\n            ","response":0,"trial_type":"html-button-response","trial_index":50,"time_elapsed":304096,"internal_node_id":"0.0-4.0-1.21","subject_id":"60fd16cd87cf9f16439c0614","study_id":"60edd13110225f80f9f3709b","session_id":"6196ca871059a515e99c5d3a","condition":"contingent","relevant_dimensions":["wings","legs"],"bee_group":{"antennae":"X","wings":"1","pattern":"X","legs":"F"},"bonus":0.6600000000000005},{"rt":1422,"stimulus":"bees-with-color/bee-A2DM.svg","response":1,"trial_type":"image-button-response","trial_index":51,"time_elapsed":305519,"internal_node_id":"0.0-4.0-0.22","subject_id":"60fd16cd87cf9f16439c0614","study_id":"60edd13110225f80f9f3709b","session_id":"6196ca871059a515e99c5d3a","condition":"contingent","relevant_dimensions":["wings","legs"],"bee_group":{"antennae":"X","wings":"1","pattern":"X","legs":"F"},"action":"avoid","summary":"bad-avoid","bonus":0.6600000000000005},{"rt":1119,"stimulus":"\n                    <p><b>Action: <em>avoid</em></b></p>\n                    <p>This is the bee that you just saw.</p>\n                    <img src=\"bees-with-color/bee-A2DM.svg\" width=\"200\">\n                    <p><br>Your bonus pay is unchanged, and remains at $0.58.</p>\n            ","response":0,"trial_type":"html-button-response","trial_index":52,"time_elapsed":306640,"internal_node_id":"0.0-4.0-1.22","subject_id":"60fd16cd87cf9f16439c0614","study_id":"60edd13110225f80f9f3709b","session_id":"6196ca871059a515e99c5d3a","condition":"contingent","relevant_dimensions":["wings","legs"],"bee_group":{"antennae":"X","wings":"1","pattern":"X","legs":"F"},"bonus":0.6600000000000005},{"rt":1375,"stimulus":"bees-with-color/bee-A1SF.svg","response":0,"trial_type":"image-button-response","trial_index":53,"time_elapsed":308016,"internal_node_id":"0.0-4.0-0.23","subject_id":"60fd16cd87cf9f16439c0614","study_id":"60edd13110225f80f9f3709b","session_id":"6196ca871059a515e99c5d3a","condition":"contingent","relevant_dimensions":["wings","legs"],"bee_group":{"antennae":"X","wings":"1","pattern":"X","legs":"F"},"action":"harvest","summary":"bad-harvest","bonus":0.6600000000000005},{"rt":8871,"stimulus":"\n                    <p><b>Action: <em>harvest</em></b></p>\n                    <p>This is the bee that you just saw.</p>\n                    <img src=\"bees-with-color/bee-A1SF.svg\" width=\"200\">\n                    <p><span class=\"redText\">Bad choice, the bee was angry.</span><br><b>You have been stung!</b><br>Your pay has been decreased by $0.10. Your bonus pay is now $0.48.</p>\n            ","response":0,"trial_type":"html-button-response","trial_index":54,"time_elapsed":316888,"internal_node_id":"0.0-4.0-1.23","subject_id":"60fd16cd87cf9f16439c0614","study_id":"60edd13110225f80f9f3709b","session_id":"6196ca871059a515e99c5d3a","condition":"contingent","relevant_dimensions":["wings","legs"],"bee_group":{"antennae":"X","wings":"1","pattern":"X","legs":"F"},"bonus":0.6600000000000005},{"rt":1479,"stimulus":"bees-with-color/bee-A2SF.svg","response":0,"trial_type":"image-button-response","trial_index":55,"time_elapsed":318368,"internal_node_id":"0.0-4.0-0.24","subject_id":"60fd16cd87cf9f16439c0614","study_id":"60edd13110225f80f9f3709b","session_id":"6196ca871059a515e99c5d3a","condition":"contingent","relevant_dimensions":["wings","legs"],"bee_group":{"antennae":"X","wings":"1","pattern":"X","legs":"F"},"action":"harvest","summary":"good-harvest","bonus":0.6600000000000005},{"rt":1368,"stimulus":"\n                    <p><b>Action: <em>harvest</em></b></p>\n                    <p>This is the bee that you just saw.</p>\n                    <img src=\"bees-with-color/bee-A2SF.svg\" width=\"200\">\n                    <p><span class=\"greenText\"><b>Successful harvest!</b></span><br>Your pay has increased by $0.02. Your bonus pay is now $0.50.</p>\n            ","response":0,"trial_type":"html-button-response","trial_index":56,"time_elapsed":319737,"internal_node_id":"0.0-4.0-1.24","subject_id":"60fd16cd87cf9f16439c0614","study_id":"60edd13110225f80f9f3709b","session_id":"6196ca871059a515e99c5d3a","condition":"contingent","relevant_dimensions":["wings","legs"],"bee_group":{"antennae":"X","wings":"1","pattern":"X","legs":"F"},"bonus":0.6600000000000005},{"rt":7118,"stimulus":"bees-with-color/bee-B1SF.svg","response":1,"trial_type":"image-button-response","trial_index":57,"time_elapsed":326856,"internal_node_id":"0.0-4.0-0.25","subject_id":"60fd16cd87cf9f16439c0614","study_id":"60edd13110225f80f9f3709b","session_id":"6196ca871059a515e99c5d3a","condition":"contingent","relevant_dimensions":["wings","legs"],"bee_group":{"antennae":"X","wings":"1","pattern":"X","legs":"F"},"action":"avoid","summary":"good-avoid","bonus":0.6600000000000005},{"rt":832,"stimulus":"\n                    <p><b>Action: <em>avoid</em></b></p>\n                    <p>This is the bee that you just saw.</p>\n                    <img src=\"bees-with-color/bee-B1SF.svg\" width=\"200\">\n                    <p><br>Your bonus pay is unchanged, and remains at $0.50.</p>\n            ","response":0,"trial_type":"html-button-response","trial_index":58,"time_elapsed":327689,"internal_node_id":"0.0-4.0-1.25","subject_id":"60fd16cd87cf9f16439c0614","study_id":"60edd13110225f80f9f3709b","session_id":"6196ca871059a515e99c5d3a","condition":"contingent","relevant_dimensions":["wings","legs"],"bee_group":{"antennae":"X","wings":"1","pattern":"X","legs":"F"},"bonus":0.6600000000000005},{"rt":1471,"stimulus":"bees-with-color/bee-B1DF.svg","response":1,"trial_type":"image-button-response","trial_index":59,"time_elapsed":329159,"internal_node_id":"0.0-4.0-0.26","subject_id":"60fd16cd87cf9f16439c0614","study_id":"60edd13110225f80f9f3709b","session_id":"6196ca871059a515e99c5d3a","condition":"contingent","relevant_dimensions":["wings","legs"],"bee_group":{"antennae":"X","wings":"1","pattern":"X","legs":"F"},"action":"avoid","summary":"good-avoid","bonus":0.6600000000000005},{"rt":559,"stimulus":"\n                    <p><b>Action: <em>avoid</em></b></p>\n                    <p>This is the bee that you just saw.</p>\n                    <img src=\"bees-with-color/bee-B1DF.svg\" width=\"200\">\n                    <p><br>Your bonus pay is unchanged, and remains at $0.50.</p>\n            ","response":0,"trial_type":"html-button-response","trial_index":60,"time_elapsed":329720,"internal_node_id":"0.0-4.0-1.26","subject_id":"60fd16cd87cf9f16439c0614","study_id":"60edd13110225f80f9f3709b","session_id":"6196ca871059a515e99c5d3a","condition":"contingent","relevant_dimensions":["wings","legs"],"bee_group":{"antennae":"X","wings":"1","pattern":"X","legs":"F"},"bonus":0.6600000000000005},{"rt":1040,"stimulus":"bees-with-color/bee-B2DF.svg","response":1,"trial_type":"image-button-response","trial_index":61,"time_elapsed":330760,"internal_node_id":"0.0-4.0-0.27","subject_id":"60fd16cd87cf9f16439c0614","study_id":"60edd13110225f80f9f3709b","session_id":"6196ca871059a515e99c5d3a","condition":"contingent","relevant_dimensions":["wings","legs"],"bee_group":{"antennae":"X","wings":"1","pattern":"X","legs":"F"},"action":"avoid","summary":"bad-avoid","bonus":0.6600000000000005},{"rt":1135,"stimulus":"\n                    <p><b>Action: <em>avoid</em></b></p>\n                    <p>This is the bee that you just saw.</p>\n                    <img src=\"bees-with-color/bee-B2DF.svg\" width=\"200\">\n                    <p><br>Your bonus pay is unchanged, and remains at $0.50.</p>\n            ","response":0,"trial_type":"html-button-response","trial_index":62,"time_elapsed":331897,"internal_node_id":"0.0-4.0-1.27","subject_id":"60fd16cd87cf9f16439c0614","study_id":"60edd13110225f80f9f3709b","session_id":"6196ca871059a515e99c5d3a","condition":"contingent","relevant_dimensions":["wings","legs"],"bee_group":{"antennae":"X","wings":"1","pattern":"X","legs":"F"},"bonus":0.6600000000000005},{"rt":2679,"stimulus":"bees-with-color/bee-B1SM.svg","response":0,"trial_type":"image-button-response","trial_index":63,"time_elapsed":334576,"internal_node_id":"0.0-4.0-0.28","subject_id":"60fd16cd87cf9f16439c0614","study_id":"60edd13110225f80f9f3709b","session_id":"6196ca871059a515e99c5d3a","condition":"contingent","relevant_dimensions":["wings","legs"],"bee_group":{"antennae":"X","wings":"1","pattern":"X","legs":"F"},"action":"harvest","summary":"good-harvest","bonus":0.6600000000000005},{"rt":7215,"stimulus":"\n                    <p><b>Action: <em>harvest</em></b></p>\n                    <p>This is the bee that you just saw.</p>\n                    <img src=\"bees-with-color/bee-B1SM.svg\" width=\"200\">\n                    <p><span class=\"greenText\"><b>Successful harvest!</b></span><br>Your pay has increased by $0.02. Your bonus pay is now $0.52.</p>\n            ","response":0,"trial_type":"html-button-response","trial_index":64,"time_elapsed":341792,"internal_node_id":"0.0-4.0-1.28","subject_id":"60fd16cd87cf9f16439c0614","study_id":"60edd13110225f80f9f3709b","session_id":"6196ca871059a515e99c5d3a","condition":"contingent","relevant_dimensions":["wings","legs"],"bee_group":{"antennae":"X","wings":"1","pattern":"X","legs":"F"},"bonus":0.6600000000000005},{"rt":6128,"stimulus":"bees-with-color/bee-A2SM.svg","response":0,"trial_type":"image-button-response","trial_index":65,"time_elapsed":347921,"internal_node_id":"0.0-4.0-0.29","subject_id":"60fd16cd87cf9f16439c0614","study_id":"60edd13110225f80f9f3709b","session_id":"6196ca871059a515e99c5d3a","condition":"contingent","relevant_dimensions":["wings","legs"],"bee_group":{"antennae":"X","wings":"1","pattern":"X","legs":"F"},"action":"harvest","summary":"good-harvest","bonus":0.6600000000000005},{"rt":9735,"stimulus":"\n                    <p><b>Action: <em>harvest</em></b></p>\n                    <p>This is the bee that you just saw.</p>\n                    <img src=\"bees-with-color/bee-A2SM.svg\" width=\"200\">\n                    <p><span class=\"greenText\"><b>Successful harvest!</b></span><br>Your pay has increased by $0.02. Your bonus pay is now $0.54.</p>\n            ","response":0,"trial_type":"html-button-response","trial_index":66,"time_elapsed":357656,"internal_node_id":"0.0-4.0-1.29","subject_id":"60fd16cd87cf9f16439c0614","study_id":"60edd13110225f80f9f3709b","session_id":"6196ca871059a515e99c5d3a","condition":"contingent","relevant_dimensions":["wings","legs"],"bee_group":{"antennae":"X","wings":"1","pattern":"X","legs":"F"},"bonus":0.6600000000000005},{"rt":1015,"stimulus":"bees-with-color/bee-A2DF.svg","response":1,"trial_type":"image-button-response","trial_index":67,"time_elapsed":358672,"internal_node_id":"0.0-4.0-0.30","subject_id":"60fd16cd87cf9f16439c0614","study_id":"60edd13110225f80f9f3709b","session_id":"6196ca871059a515e99c5d3a","condition":"contingent","relevant_dimensions":["wings","legs"],"bee_group":{"antennae":"X","wings":"1","pattern":"X","legs":"F"},"action":"avoid","summary":"bad-avoid","bonus":0.6600000000000005},{"rt":631,"stimulus":"\n                    <p><b>Action: <em>avoid</em></b></p>\n                    <p>This is the bee that you just saw.</p>\n                    <img src=\"bees-with-color/bee-A2DF.svg\" width=\"200\">\n                    <p><br>Your bonus pay is unchanged, and remains at $0.54.</p>\n            ","response":0,"trial_type":"html-button-response","trial_index":68,"time_elapsed":359303,"internal_node_id":"0.0-4.0-1.30","subject_id":"60fd16cd87cf9f16439c0614","study_id":"60edd13110225f80f9f3709b","session_id":"6196ca871059a515e99c5d3a","condition":"contingent","relevant_dimensions":["wings","legs"],"bee_group":{"antennae":"X","wings":"1","pattern":"X","legs":"F"},"bonus":0.6600000000000005},{"rt":1336,"stimulus":"bees-with-color/bee-B1DM.svg","response":1,"trial_type":"image-button-response","trial_index":69,"time_elapsed":360641,"internal_node_id":"0.0-4.0-0.31","subject_id":"60fd16cd87cf9f16439c0614","study_id":"60edd13110225f80f9f3709b","session_id":"6196ca871059a515e99c5d3a","condition":"contingent","relevant_dimensions":["wings","legs"],"bee_group":{"antennae":"X","wings":"1","pattern":"X","legs":"F"},"action":"avoid","summary":"bad-avoid","bonus":0.6600000000000005},{"rt":1542,"stimulus":"\n                    <p><b>Action: <em>avoid</em></b></p>\n                    <p>This is the bee that you just saw.</p>\n                    <img src=\"bees-with-color/bee-B1DM.svg\" width=\"200\">\n                    <p><br>Your bonus pay is unchanged, and remains at $0.54.</p>\n            ","response":0,"trial_type":"html-button-response","trial_index":70,"time_elapsed":362184,"internal_node_id":"0.0-4.0-1.31","subject_id":"60fd16cd87cf9f16439c0614","study_id":"60edd13110225f80f9f3709b","session_id":"6196ca871059a515e99c5d3a","condition":"contingent","relevant_dimensions":["wings","legs"],"bee_group":{"antennae":"X","wings":"1","pattern":"X","legs":"F"},"bonus":0.6600000000000005},{"rt":9071,"stimulus":"bees-with-color/bee-B1SM.svg","response":0,"trial_type":"image-button-response","trial_index":71,"time_elapsed":371256,"internal_node_id":"0.0-4.0-0.32","subject_id":"60fd16cd87cf9f16439c0614","study_id":"60edd13110225f80f9f3709b","session_id":"6196ca871059a515e99c5d3a","condition":"contingent","relevant_dimensions":["wings","legs"],"bee_group":{"antennae":"X","wings":"1","pattern":"X","legs":"F"},"action":"harvest","summary":"good-harvest","bonus":0.6600000000000005},{"rt":1097,"stimulus":"\n                    <p><b>Action: <em>harvest</em></b></p>\n                    <p>This is the bee that you just saw.</p>\n                    <img src=\"bees-with-color/bee-B1SM.svg\" width=\"200\">\n                    <p><span class=\"greenText\"><b>Successful harvest!</b></span><br>Your pay has increased by $0.02. Your bonus pay is now $0.56.</p>\n            ","response":0,"trial_type":"html-button-response","trial_index":72,"time_elapsed":372352,"internal_node_id":"0.0-4.0-1.32","subject_id":"60fd16cd87cf9f16439c0614","study_id":"60edd13110225f80f9f3709b","session_id":"6196ca871059a515e99c5d3a","condition":"contingent","relevant_dimensions":["wings","legs"],"bee_group":{"antennae":"X","wings":"1","pattern":"X","legs":"F"},"bonus":0.6600000000000005},{"rt":1134,"stimulus":"bees-with-color/bee-B1DM.svg","response":1,"trial_type":"image-button-response","trial_index":73,"time_elapsed":373488,"internal_node_id":"0.0-4.0-0.33","subject_id":"60fd16cd87cf9f16439c0614","study_id":"60edd13110225f80f9f3709b","session_id":"6196ca871059a515e99c5d3a","condition":"contingent","relevant_dimensions":["wings","legs"],"bee_group":{"antennae":"X","wings":"1","pattern":"X","legs":"F"},"action":"avoid","summary":"bad-avoid","bonus":0.6600000000000005},{"rt":735,"stimulus":"\n                    <p><b>Action: <em>avoid</em></b></p>\n                    <p>This is the bee that you just saw.</p>\n                    <img src=\"bees-with-color/bee-B1DM.svg\" width=\"200\">\n                    <p><br>Your bonus pay is unchanged, and remains at $0.56.</p>\n            ","response":0,"trial_type":"html-button-response","trial_index":74,"time_elapsed":374224,"internal_node_id":"0.0-4.0-1.33","subject_id":"60fd16cd87cf9f16439c0614","study_id":"60edd13110225f80f9f3709b","session_id":"6196ca871059a515e99c5d3a","condition":"contingent","relevant_dimensions":["wings","legs"],"bee_group":{"antennae":"X","wings":"1","pattern":"X","legs":"F"},"bonus":0.6600000000000005},{"rt":13407,"stimulus":"bees-with-color/bee-A2SM.svg","response":0,"trial_type":"image-button-response","trial_index":75,"time_elapsed":387632,"internal_node_id":"0.0-4.0-0.34","subject_id":"60fd16cd87cf9f16439c0614","study_id":"60edd13110225f80f9f3709b","session_id":"6196ca871059a515e99c5d3a","condition":"contingent","relevant_dimensions":["wings","legs"],"bee_group":{"antennae":"X","wings":"1","pattern":"X","legs":"F"},"action":"harvest","summary":"good-harvest","bonus":0.6600000000000005},{"rt":1015,"stimulus":"\n                    <p><b>Action: <em>harvest</em></b></p>\n                    <p>This is the bee that you just saw.</p>\n                    <img src=\"bees-with-color/bee-A2SM.svg\" width=\"200\">\n                    <p><span class=\"greenText\"><b>Successful harvest!</b></span><br>Your pay has increased by $0.02. Your bonus pay is now $0.58.</p>\n            ","response":0,"trial_type":"html-button-response","trial_index":76,"time_elapsed":388648,"internal_node_id":"0.0-4.0-1.34","subject_id":"60fd16cd87cf9f16439c0614","study_id":"60edd13110225f80f9f3709b","session_id":"6196ca871059a515e99c5d3a","condition":"contingent","relevant_dimensions":["wings","legs"],"bee_group":{"antennae":"X","wings":"1","pattern":"X","legs":"F"},"bonus":0.6600000000000005},{"rt":2648,"stimulus":"bees-with-color/bee-B2DM.svg","response":1,"trial_type":"image-button-response","trial_index":77,"time_elapsed":391296,"internal_node_id":"0.0-4.0-0.35","subject_id":"60fd16cd87cf9f16439c0614","study_id":"60edd13110225f80f9f3709b","session_id":"6196ca871059a515e99c5d3a","condition":"contingent","relevant_dimensions":["wings","legs"],"bee_group":{"antennae":"X","wings":"1","pattern":"X","legs":"F"},"action":"avoid","summary":"bad-avoid","bonus":0.6600000000000005},{"rt":926,"stimulus":"\n                    <p><b>Action: <em>avoid</em></b></p>\n                    <p>This is the bee that you just saw.</p>\n                    <img src=\"bees-with-color/bee-B2DM.svg\" width=\"200\">\n                    <p><br>Your bonus pay is unchanged, and remains at $0.58.</p>\n            ","response":0,"trial_type":"html-button-response","trial_index":78,"time_elapsed":392224,"internal_node_id":"0.0-4.0-1.35","subject_id":"60fd16cd87cf9f16439c0614","study_id":"60edd13110225f80f9f3709b","session_id":"6196ca871059a515e99c5d3a","condition":"contingent","relevant_dimensions":["wings","legs"],"bee_group":{"antennae":"X","wings":"1","pattern":"X","legs":"F"},"bonus":0.6600000000000005},{"rt":1278,"stimulus":"bees-with-color/bee-A2DM.svg","response":1,"trial_type":"image-button-response","trial_index":79,"time_elapsed":393503,"internal_node_id":"0.0-4.0-0.36","subject_id":"60fd16cd87cf9f16439c0614","study_id":"60edd13110225f80f9f3709b","session_id":"6196ca871059a515e99c5d3a","condition":"contingent","relevant_dimensions":["wings","legs"],"bee_group":{"antennae":"X","wings":"1","pattern":"X","legs":"F"},"action":"avoid","summary":"bad-avoid","bonus":0.6600000000000005},{"rt":1463,"stimulus":"\n                    <p><b>Action: <em>avoid</em></b></p>\n                    <p>This is the bee that you just saw.</p>\n                    <img src=\"bees-with-color/bee-A2DM.svg\" width=\"200\">\n                    <p><br>Your bonus pay is unchanged, and remains at $0.58.</p>\n            ","response":0,"trial_type":"html-button-response","trial_index":80,"time_elapsed":394968,"internal_node_id":"0.0-4.0-1.36","subject_id":"60fd16cd87cf9f16439c0614","study_id":"60edd13110225f80f9f3709b","session_id":"6196ca871059a515e99c5d3a","condition":"contingent","relevant_dimensions":["wings","legs"],"bee_group":{"antennae":"X","wings":"1","pattern":"X","legs":"F"},"bonus":0.6600000000000005},{"rt":847,"stimulus":"bees-with-color/bee-B1DF.svg","response":1,"trial_type":"image-button-response","trial_index":81,"time_elapsed":395816,"internal_node_id":"0.0-4.0-0.37","subject_id":"60fd16cd87cf9f16439c0614","study_id":"60edd13110225f80f9f3709b","session_id":"6196ca871059a515e99c5d3a","condition":"contingent","relevant_dimensions":["wings","legs"],"bee_group":{"antennae":"X","wings":"1","pattern":"X","legs":"F"},"action":"avoid","summary":"good-avoid","bonus":0.6600000000000005},{"rt":591,"stimulus":"\n                    <p><b>Action: <em>avoid</em></b></p>\n                    <p>This is the bee that you just saw.</p>\n                    <img src=\"bees-with-color/bee-B1DF.svg\" width=\"200\">\n                    <p><br>Your bonus pay is unchanged, and remains at $0.58.</p>\n            ","response":0,"trial_type":"html-button-response","trial_index":82,"time_elapsed":396408,"internal_node_id":"0.0-4.0-1.37","subject_id":"60fd16cd87cf9f16439c0614","study_id":"60edd13110225f80f9f3709b","session_id":"6196ca871059a515e99c5d3a","condition":"contingent","relevant_dimensions":["wings","legs"],"bee_group":{"antennae":"X","wings":"1","pattern":"X","legs":"F"},"bonus":0.6600000000000005},{"rt":7551,"stimulus":"bees-with-color/bee-B2SF.svg","response":0,"trial_type":"image-button-response","trial_index":83,"time_elapsed":403960,"internal_node_id":"0.0-4.0-0.38","subject_id":"60fd16cd87cf9f16439c0614","study_id":"60edd13110225f80f9f3709b","session_id":"6196ca871059a515e99c5d3a","condition":"contingent","relevant_dimensions":["wings","legs"],"bee_group":{"antennae":"X","wings":"1","pattern":"X","legs":"F"},"action":"harvest","summary":"good-harvest","bonus":0.6600000000000005},{"rt":783,"stimulus":"\n                    <p><b>Action: <em>harvest</em></b></p>\n                    <p>This is the bee that you just saw.</p>\n                    <img src=\"bees-with-color/bee-B2SF.svg\" width=\"200\">\n                    <p><span class=\"greenText\"><b>Successful harvest!</b></span><br>Your pay has increased by $0.02. Your bonus pay is now $0.60.</p>\n            ","response":0,"trial_type":"html-button-response","trial_index":84,"time_elapsed":404743,"internal_node_id":"0.0-4.0-1.38","subject_id":"60fd16cd87cf9f16439c0614","study_id":"60edd13110225f80f9f3709b","session_id":"6196ca871059a515e99c5d3a","condition":"contingent","relevant_dimensions":["wings","legs"],"bee_group":{"antennae":"X","wings":"1","pattern":"X","legs":"F"},"bonus":0.6600000000000005},{"rt":1064,"stimulus":"bees-with-color/bee-A1DF.svg","response":1,"trial_type":"image-button-response","trial_index":85,"time_elapsed":405808,"internal_node_id":"0.0-4.0-0.39","subject_id":"60fd16cd87cf9f16439c0614","study_id":"60edd13110225f80f9f3709b","session_id":"6196ca871059a515e99c5d3a","condition":"contingent","relevant_dimensions":["wings","legs"],"bee_group":{"antennae":"X","wings":"1","pattern":"X","legs":"F"},"action":"avoid","summary":"good-avoid","bonus":0.6600000000000005},{"rt":952,"stimulus":"\n                    <p><b>Action: <em>avoid</em></b></p>\n                    <p>This is the bee that you just saw.</p>\n                    <img src=\"bees-with-color/bee-A1DF.svg\" width=\"200\">\n                    <p><br>Your bonus pay is unchanged, and remains at $0.60.</p>\n            ","response":0,"trial_type":"html-button-response","trial_index":86,"time_elapsed":406760,"internal_node_id":"0.0-4.0-1.39","subject_id":"60fd16cd87cf9f16439c0614","study_id":"60edd13110225f80f9f3709b","session_id":"6196ca871059a515e99c5d3a","condition":"contingent","relevant_dimensions":["wings","legs"],"bee_group":{"antennae":"X","wings":"1","pattern":"X","legs":"F"},"bonus":0.6600000000000005},{"rt":8711,"stimulus":"bees-with-color/bee-B2SM.svg","response":0,"trial_type":"image-button-response","trial_index":87,"time_elapsed":415473,"internal_node_id":"0.0-4.0-0.40","subject_id":"60fd16cd87cf9f16439c0614","study_id":"60edd13110225f80f9f3709b","session_id":"6196ca871059a515e99c5d3a","condition":"contingent","relevant_dimensions":["wings","legs"],"bee_group":{"antennae":"X","wings":"1","pattern":"X","legs":"F"},"action":"harvest","summary":"good-harvest","bonus":0.6600000000000005},{"rt":855,"stimulus":"\n                    <p><b>Action: <em>harvest</em></b></p>\n                    <p>This is the bee that you just saw.</p>\n                    <img src=\"bees-with-color/bee-B2SM.svg\" width=\"200\">\n                    <p><span class=\"greenText\"><b>Successful harvest!</b></span><br>Your pay has increased by $0.02. Your bonus pay is now $0.62.</p>\n            ","response":0,"trial_type":"html-button-response","trial_index":88,"time_elapsed":416328,"internal_node_id":"0.0-4.0-1.40","subject_id":"60fd16cd87cf9f16439c0614","study_id":"60edd13110225f80f9f3709b","session_id":"6196ca871059a515e99c5d3a","condition":"contingent","relevant_dimensions":["wings","legs"],"bee_group":{"antennae":"X","wings":"1","pattern":"X","legs":"F"},"bonus":0.6600000000000005},{"rt":10617,"stimulus":"bees-with-color/bee-A1SM.svg","response":0,"trial_type":"image-button-response","trial_index":89,"time_elapsed":426944,"internal_node_id":"0.0-4.0-0.41","subject_id":"60fd16cd87cf9f16439c0614","study_id":"60edd13110225f80f9f3709b","session_id":"6196ca871059a515e99c5d3a","condition":"contingent","relevant_dimensions":["wings","legs"],"bee_group":{"antennae":"X","wings":"1","pattern":"X","legs":"F"},"action":"harvest","summary":"good-harvest","bonus":0.6600000000000005},{"rt":903,"stimulus":"\n                    <p><b>Action: <em>harvest</em></b></p>\n                    <p>This is the bee that you just saw.</p>\n                    <img src=\"bees-with-color/bee-A1SM.svg\" width=\"200\">\n                    <p><span class=\"greenText\"><b>Successful harvest!</b></span><br>Your pay has increased by $0.02. Your bonus pay is now $0.64.</p>\n            ","response":0,"trial_type":"html-button-response","trial_index":90,"time_elapsed":427848,"internal_node_id":"0.0-4.0-1.41","subject_id":"60fd16cd87cf9f16439c0614","study_id":"60edd13110225f80f9f3709b","session_id":"6196ca871059a515e99c5d3a","condition":"contingent","relevant_dimensions":["wings","legs"],"bee_group":{"antennae":"X","wings":"1","pattern":"X","legs":"F"},"bonus":0.6600000000000005},{"rt":1279,"stimulus":"bees-with-color/bee-B2DF.svg","response":1,"trial_type":"image-button-response","trial_index":91,"time_elapsed":429128,"internal_node_id":"0.0-4.0-0.42","subject_id":"60fd16cd87cf9f16439c0614","study_id":"60edd13110225f80f9f3709b","session_id":"6196ca871059a515e99c5d3a","condition":"contingent","relevant_dimensions":["wings","legs"],"bee_group":{"antennae":"X","wings":"1","pattern":"X","legs":"F"},"action":"avoid","summary":"bad-avoid","bonus":0.6600000000000005},{"rt":1007,"stimulus":"\n                    <p><b>Action: <em>avoid</em></b></p>\n                    <p>This is the bee that you just saw.</p>\n                    <img src=\"bees-with-color/bee-B2DF.svg\" width=\"200\">\n                    <p><br>Your bonus pay is unchanged, and remains at $0.64.</p>\n            ","response":0,"trial_type":"html-button-response","trial_index":92,"time_elapsed":430136,"internal_node_id":"0.0-4.0-1.42","subject_id":"60fd16cd87cf9f16439c0614","study_id":"60edd13110225f80f9f3709b","session_id":"6196ca871059a515e99c5d3a","condition":"contingent","relevant_dimensions":["wings","legs"],"bee_group":{"antennae":"X","wings":"1","pattern":"X","legs":"F"},"bonus":0.6600000000000005},{"rt":11207,"stimulus":"bees-with-color/bee-B1SF.svg","response":1,"trial_type":"image-button-response","trial_index":93,"time_elapsed":441343,"internal_node_id":"0.0-4.0-0.43","subject_id":"60fd16cd87cf9f16439c0614","study_id":"60edd13110225f80f9f3709b","session_id":"6196ca871059a515e99c5d3a","condition":"contingent","relevant_dimensions":["wings","legs"],"bee_group":{"antennae":"X","wings":"1","pattern":"X","legs":"F"},"action":"avoid","summary":"good-avoid","bonus":0.6600000000000005},{"rt":663,"stimulus":"\n                    <p><b>Action: <em>avoid</em></b></p>\n                    <p>This is the bee that you just saw.</p>\n                    <img src=\"bees-with-color/bee-B1SF.svg\" width=\"200\">\n                    <p><br>Your bonus pay is unchanged, and remains at $0.64.</p>\n            ","response":0,"trial_type":"html-button-response","trial_index":94,"time_elapsed":442007,"internal_node_id":"0.0-4.0-1.43","subject_id":"60fd16cd87cf9f16439c0614","study_id":"60edd13110225f80f9f3709b","session_id":"6196ca871059a515e99c5d3a","condition":"contingent","relevant_dimensions":["wings","legs"],"bee_group":{"antennae":"X","wings":"1","pattern":"X","legs":"F"},"bonus":0.6600000000000005},{"rt":2655,"stimulus":"bees-with-color/bee-A1DM.svg","response":1,"trial_type":"image-button-response","trial_index":95,"time_elapsed":444663,"internal_node_id":"0.0-4.0-0.44","subject_id":"60fd16cd87cf9f16439c0614","study_id":"60edd13110225f80f9f3709b","session_id":"6196ca871059a515e99c5d3a","condition":"contingent","relevant_dimensions":["wings","legs"],"bee_group":{"antennae":"X","wings":"1","pattern":"X","legs":"F"},"action":"avoid","summary":"bad-avoid","bonus":0.6600000000000005},{"rt":480,"stimulus":"\n                    <p><b>Action: <em>avoid</em></b></p>\n                    <p>This is the bee that you just saw.</p>\n                    <img src=\"bees-with-color/bee-A1DM.svg\" width=\"200\">\n                    <p><br>Your bonus pay is unchanged, and remains at $0.64.</p>\n            ","response":0,"trial_type":"html-button-response","trial_index":96,"time_elapsed":445144,"internal_node_id":"0.0-4.0-1.44","subject_id":"60fd16cd87cf9f16439c0614","study_id":"60edd13110225f80f9f3709b","session_id":"6196ca871059a515e99c5d3a","condition":"contingent","relevant_dimensions":["wings","legs"],"bee_group":{"antennae":"X","wings":"1","pattern":"X","legs":"F"},"bonus":0.6600000000000005},{"rt":15639,"stimulus":"bees-with-color/bee-A2SF.svg","response":1,"trial_type":"image-button-response","trial_index":97,"time_elapsed":460784,"internal_node_id":"0.0-4.0-0.45","subject_id":"60fd16cd87cf9f16439c0614","study_id":"60edd13110225f80f9f3709b","session_id":"6196ca871059a515e99c5d3a","condition":"contingent","relevant_dimensions":["wings","legs"],"bee_group":{"antennae":"X","wings":"1","pattern":"X","legs":"F"},"action":"avoid","summary":"bad-avoid","bonus":0.6600000000000005},{"rt":806,"stimulus":"\n                    <p><b>Action: <em>avoid</em></b></p>\n                    <p>This is the bee that you just saw.</p>\n                    <img src=\"bees-with-color/bee-A2SF.svg\" width=\"200\">\n                    <p><br>Your bonus pay is unchanged, and remains at $0.64.</p>\n            ","response":0,"trial_type":"html-button-response","trial_index":98,"time_elapsed":461591,"internal_node_id":"0.0-4.0-1.45","subject_id":"60fd16cd87cf9f16439c0614","study_id":"60edd13110225f80f9f3709b","session_id":"6196ca871059a515e99c5d3a","condition":"contingent","relevant_dimensions":["wings","legs"],"bee_group":{"antennae":"X","wings":"1","pattern":"X","legs":"F"},"bonus":0.6600000000000005},{"rt":9384,"stimulus":"bees-with-color/bee-A1SF.svg","response":1,"trial_type":"image-button-response","trial_index":99,"time_elapsed":470976,"internal_node_id":"0.0-4.0-0.46","subject_id":"60fd16cd87cf9f16439c0614","study_id":"60edd13110225f80f9f3709b","session_id":"6196ca871059a515e99c5d3a","condition":"contingent","relevant_dimensions":["wings","legs"],"bee_group":{"antennae":"X","wings":"1","pattern":"X","legs":"F"},"action":"avoid","summary":"good-avoid","bonus":0.6600000000000005},{"rt":655,"stimulus":"\n                    <p><b>Action: <em>avoid</em></b></p>\n                    <p>This is the bee that you just saw.</p>\n                    <img src=\"bees-with-color/bee-A1SF.svg\" width=\"200\">\n                    <p><br>Your bonus pay is unchanged, and remains at $0.64.</p>\n            ","response":0,"trial_type":"html-button-response","trial_index":100,"time_elapsed":471632,"internal_node_id":"0.0-4.0-1.46","subject_id":"60fd16cd87cf9f16439c0614","study_id":"60edd13110225f80f9f3709b","session_id":"6196ca871059a515e99c5d3a","condition":"contingent","relevant_dimensions":["wings","legs"],"bee_group":{"antennae":"X","wings":"1","pattern":"X","legs":"F"},"bonus":0.6600000000000005},{"rt":1310,"stimulus":"bees-with-color/bee-A2DF.svg","response":1,"trial_type":"image-button-response","trial_index":101,"time_elapsed":472944,"internal_node_id":"0.0-4.0-0.47","subject_id":"60fd16cd87cf9f16439c0614","study_id":"60edd13110225f80f9f3709b","session_id":"6196ca871059a515e99c5d3a","condition":"contingent","relevant_dimensions":["wings","legs"],"bee_group":{"antennae":"X","wings":"1","pattern":"X","legs":"F"},"action":"avoid","summary":"bad-avoid","bonus":0.6600000000000005},{"rt":663,"stimulus":"\n                    <p><b>Action: <em>avoid</em></b></p>\n                    <p>This is the bee that you just saw.</p>\n                    <img src=\"bees-with-color/bee-A2DF.svg\" width=\"200\">\n                    <p><br>Your bonus pay is unchanged, and remains at $0.64.</p>\n            ","response":0,"trial_type":"html-button-response","trial_index":102,"time_elapsed":473608,"internal_node_id":"0.0-4.0-1.47","subject_id":"60fd16cd87cf9f16439c0614","study_id":"60edd13110225f80f9f3709b","session_id":"6196ca871059a515e99c5d3a","condition":"contingent","relevant_dimensions":["wings","legs"],"bee_group":{"antennae":"X","wings":"1","pattern":"X","legs":"F"},"bonus":0.6600000000000005},{"rt":11920,"stimulus":"bees-with-color/bee-A2SF.svg","response":1,"trial_type":"image-button-response","trial_index":103,"time_elapsed":485527,"internal_node_id":"0.0-4.0-0.48","subject_id":"60fd16cd87cf9f16439c0614","study_id":"60edd13110225f80f9f3709b","session_id":"6196ca871059a515e99c5d3a","condition":"contingent","relevant_dimensions":["wings","legs"],"bee_group":{"antennae":"X","wings":"1","pattern":"X","legs":"F"},"action":"avoid","summary":"bad-avoid","bonus":0.6600000000000005},{"rt":711,"stimulus":"\n                    <p><b>Action: <em>avoid</em></b></p>\n                    <p>This is the bee that you just saw.</p>\n                    <img src=\"bees-with-color/bee-A2SF.svg\" width=\"200\">\n                    <p><br>Your bonus pay is unchanged, and remains at $0.64.</p>\n            ","response":0,"trial_type":"html-button-response","trial_index":104,"time_elapsed":486240,"internal_node_id":"0.0-4.0-1.48","subject_id":"60fd16cd87cf9f16439c0614","study_id":"60edd13110225f80f9f3709b","session_id":"6196ca871059a515e99c5d3a","condition":"contingent","relevant_dimensions":["wings","legs"],"bee_group":{"antennae":"X","wings":"1","pattern":"X","legs":"F"},"bonus":0.6600000000000005},{"rt":1087,"stimulus":"bees-with-color/bee-A1DM.svg","response":1,"trial_type":"image-button-response","trial_index":105,"time_elapsed":487327,"internal_node_id":"0.0-4.0-0.49","subject_id":"60fd16cd87cf9f16439c0614","study_id":"60edd13110225f80f9f3709b","session_id":"6196ca871059a515e99c5d3a","condition":"contingent","relevant_dimensions":["wings","legs"],"bee_group":{"antennae":"X","wings":"1","pattern":"X","legs":"F"},"action":"avoid","summary":"bad-avoid","bonus":0.6600000000000005},{"rt":679,"stimulus":"\n                    <p><b>Action: <em>avoid</em></b></p>\n                    <p>This is the bee that you just saw.</p>\n                    <img src=\"bees-with-color/bee-A1DM.svg\" width=\"200\">\n                    <p><br>Your bonus pay is unchanged, and remains at $0.64.</p>\n            ","response":0,"trial_type":"html-button-response","trial_index":106,"time_elapsed":488007,"internal_node_id":"0.0-4.0-1.49","subject_id":"60fd16cd87cf9f16439c0614","study_id":"60edd13110225f80f9f3709b","session_id":"6196ca871059a515e99c5d3a","condition":"contingent","relevant_dimensions":["wings","legs"],"bee_group":{"antennae":"X","wings":"1","pattern":"X","legs":"F"},"bonus":0.6600000000000005},{"rt":10582,"stimulus":"bees-with-color/bee-A2SM.svg","response":0,"trial_type":"image-button-response","trial_index":107,"time_elapsed":498592,"internal_node_id":"0.0-4.0-0.50","subject_id":"60fd16cd87cf9f16439c0614","study_id":"60edd13110225f80f9f3709b","session_id":"6196ca871059a515e99c5d3a","condition":"contingent","relevant_dimensions":["wings","legs"],"bee_group":{"antennae":"X","wings":"1","pattern":"X","legs":"F"},"action":"harvest","summary":"good-harvest","bonus":0.6600000000000005},{"rt":751,"stimulus":"\n                    <p><b>Action: <em>harvest</em></b></p>\n                    <p>This is the bee that you just saw.</p>\n                    <img src=\"bees-with-color/bee-A2SM.svg\" width=\"200\">\n                    <p><span class=\"greenText\"><b>Successful harvest!</b></span><br>Your pay has increased by $0.02. Your bonus pay is now $0.66.</p>\n            ","response":0,"trial_type":"html-button-response","trial_index":108,"time_elapsed":499343,"internal_node_id":"0.0-4.0-1.50","subject_id":"60fd16cd87cf9f16439c0614","study_id":"60edd13110225f80f9f3709b","session_id":"6196ca871059a515e99c5d3a","condition":"contingent","relevant_dimensions":["wings","legs"],"bee_group":{"antennae":"X","wings":"1","pattern":"X","legs":"F"},"bonus":0.6600000000000005},{"rt":10464,"stimulus":"bees-with-color/bee-B2SF.svg","response":0,"trial_type":"image-button-response","trial_index":109,"time_elapsed":509808,"internal_node_id":"0.0-4.0-0.51","subject_id":"60fd16cd87cf9f16439c0614","study_id":"60edd13110225f80f9f3709b","session_id":"6196ca871059a515e99c5d3a","condition":"contingent","relevant_dimensions":["wings","legs"],"bee_group":{"antennae":"X","wings":"1","pattern":"X","legs":"F"},"action":"harvest","summary":"good-harvest","bonus":0.6600000000000005},{"rt":766,"stimulus":"\n                    <p><b>Action: <em>harvest</em></b></p>\n                    <p>This is the bee that you just saw.</p>\n                    <img src=\"bees-with-color/bee-B2SF.svg\" width=\"200\">\n                    <p><span class=\"greenText\"><b>Successful harvest!</b></span><br>Your pay has increased by $0.02. Your bonus pay is now $0.68.</p>\n            ","response":0,"trial_type":"html-button-response","trial_index":110,"time_elapsed":510575,"internal_node_id":"0.0-4.0-1.51","subject_id":"60fd16cd87cf9f16439c0614","study_id":"60edd13110225f80f9f3709b","session_id":"6196ca871059a515e99c5d3a","condition":"contingent","relevant_dimensions":["wings","legs"],"bee_group":{"antennae":"X","wings":"1","pattern":"X","legs":"F"},"bonus":0.6600000000000005},{"rt":1023,"stimulus":"bees-with-color/bee-B2DM.svg","response":1,"trial_type":"image-button-response","trial_index":111,"time_elapsed":511599,"internal_node_id":"0.0-4.0-0.52","subject_id":"60fd16cd87cf9f16439c0614","study_id":"60edd13110225f80f9f3709b","session_id":"6196ca871059a515e99c5d3a","condition":"contingent","relevant_dimensions":["wings","legs"],"bee_group":{"antennae":"X","wings":"1","pattern":"X","legs":"F"},"action":"avoid","summary":"bad-avoid","bonus":0.6600000000000005},{"rt":848,"stimulus":"\n                    <p><b>Action: <em>avoid</em></b></p>\n                    <p>This is the bee that you just saw.</p>\n                    <img src=\"bees-with-color/bee-B2DM.svg\" width=\"200\">\n                    <p><br>Your bonus pay is unchanged, and remains at $0.68.</p>\n            ","response":0,"trial_type":"html-button-response","trial_index":112,"time_elapsed":512448,"internal_node_id":"0.0-4.0-1.52","subject_id":"60fd16cd87cf9f16439c0614","study_id":"60edd13110225f80f9f3709b","session_id":"6196ca871059a515e99c5d3a","condition":"contingent","relevant_dimensions":["wings","legs"],"bee_group":{"antennae":"X","wings":"1","pattern":"X","legs":"F"},"bonus":0.6600000000000005},{"rt":1095,"stimulus":"bees-with-color/bee-B1DF.svg","response":1,"trial_type":"image-button-response","trial_index":113,"time_elapsed":513544,"internal_node_id":"0.0-4.0-0.53","subject_id":"60fd16cd87cf9f16439c0614","study_id":"60edd13110225f80f9f3709b","session_id":"6196ca871059a515e99c5d3a","condition":"contingent","relevant_dimensions":["wings","legs"],"bee_group":{"antennae":"X","wings":"1","pattern":"X","legs":"F"},"action":"avoid","summary":"good-avoid","bonus":0.6600000000000005},{"rt":1095,"stimulus":"\n                    <p><b>Action: <em>avoid</em></b></p>\n                    <p>This is the bee that you just saw.</p>\n                    <img src=\"bees-with-color/bee-B1DF.svg\" width=\"200\">\n                    <p><br>Your bonus pay is unchanged, and remains at $0.68.</p>\n            ","response":0,"trial_type":"html-button-response","trial_index":114,"time_elapsed":514639,"internal_node_id":"0.0-4.0-1.53","subject_id":"60fd16cd87cf9f16439c0614","study_id":"60edd13110225f80f9f3709b","session_id":"6196ca871059a515e99c5d3a","condition":"contingent","relevant_dimensions":["wings","legs"],"bee_group":{"antennae":"X","wings":"1","pattern":"X","legs":"F"},"bonus":0.6600000000000005},{"rt":6494,"stimulus":"bees-with-color/bee-B1SM.svg","response":0,"trial_type":"image-button-response","trial_index":115,"time_elapsed":521135,"internal_node_id":"0.0-4.0-0.54","subject_id":"60fd16cd87cf9f16439c0614","study_id":"60edd13110225f80f9f3709b","session_id":"6196ca871059a515e99c5d3a","condition":"contingent","relevant_dimensions":["wings","legs"],"bee_group":{"antennae":"X","wings":"1","pattern":"X","legs":"F"},"action":"harvest","summary":"good-harvest","bonus":0.6600000000000005},{"rt":912,"stimulus":"\n                    <p><b>Action: <em>harvest</em></b></p>\n                    <p>This is the bee that you just saw.</p>\n                    <img src=\"bees-with-color/bee-B1SM.svg\" width=\"200\">\n                    <p><span class=\"greenText\"><b>Successful harvest!</b></span><br>Your pay has increased by $0.02. Your bonus pay is now $0.70.</p>\n            ","response":0,"trial_type":"html-button-response","trial_index":116,"time_elapsed":522048,"internal_node_id":"0.0-4.0-1.54","subject_id":"60fd16cd87cf9f16439c0614","study_id":"60edd13110225f80f9f3709b","session_id":"6196ca871059a515e99c5d3a","condition":"contingent","relevant_dimensions":["wings","legs"],"bee_group":{"antennae":"X","wings":"1","pattern":"X","legs":"F"},"bonus":0.6600000000000005},{"rt":10791,"stimulus":"bees-with-color/bee-B1SF.svg","response":1,"trial_type":"image-button-response","trial_index":117,"time_elapsed":532839,"internal_node_id":"0.0-4.0-0.55","subject_id":"60fd16cd87cf9f16439c0614","study_id":"60edd13110225f80f9f3709b","session_id":"6196ca871059a515e99c5d3a","condition":"contingent","relevant_dimensions":["wings","legs"],"bee_group":{"antennae":"X","wings":"1","pattern":"X","legs":"F"},"action":"avoid","summary":"good-avoid","bonus":0.6600000000000005},{"rt":630,"stimulus":"\n                    <p><b>Action: <em>avoid</em></b></p>\n                    <p>This is the bee that you just saw.</p>\n                    <img src=\"bees-with-color/bee-B1SF.svg\" width=\"200\">\n                    <p><br>Your bonus pay is unchanged, and remains at $0.70.</p>\n            ","response":0,"trial_type":"html-button-response","trial_index":118,"time_elapsed":533471,"internal_node_id":"0.0-4.0-1.55","subject_id":"60fd16cd87cf9f16439c0614","study_id":"60edd13110225f80f9f3709b","session_id":"6196ca871059a515e99c5d3a","condition":"contingent","relevant_dimensions":["wings","legs"],"bee_group":{"antennae":"X","wings":"1","pattern":"X","legs":"F"},"bonus":0.6600000000000005},{"rt":1135,"stimulus":"bees-with-color/bee-B1DM.svg","response":1,"trial_type":"image-button-response","trial_index":119,"time_elapsed":534607,"internal_node_id":"0.0-4.0-0.56","subject_id":"60fd16cd87cf9f16439c0614","study_id":"60edd13110225f80f9f3709b","session_id":"6196ca871059a515e99c5d3a","condition":"contingent","relevant_dimensions":["wings","legs"],"bee_group":{"antennae":"X","wings":"1","pattern":"X","legs":"F"},"action":"avoid","summary":"bad-avoid","bonus":0.6600000000000005},{"rt":831,"stimulus":"\n                    <p><b>Action: <em>avoid</em></b></p>\n                    <p>This is the bee that you just saw.</p>\n                    <img src=\"bees-with-color/bee-B1DM.svg\" width=\"200\">\n                    <p><br>Your bonus pay is unchanged, and remains at $0.70.</p>\n            ","response":0,"trial_type":"html-button-response","trial_index":120,"time_elapsed":535440,"internal_node_id":"0.0-4.0-1.56","subject_id":"60fd16cd87cf9f16439c0614","study_id":"60edd13110225f80f9f3709b","session_id":"6196ca871059a515e99c5d3a","condition":"contingent","relevant_dimensions":["wings","legs"],"bee_group":{"antennae":"X","wings":"1","pattern":"X","legs":"F"},"bonus":0.6600000000000005},{"rt":774,"stimulus":"bees-with-color/bee-B2DF.svg","response":1,"trial_type":"image-button-response","trial_index":121,"time_elapsed":536215,"internal_node_id":"0.0-4.0-0.57","subject_id":"60fd16cd87cf9f16439c0614","study_id":"60edd13110225f80f9f3709b","session_id":"6196ca871059a515e99c5d3a","condition":"contingent","relevant_dimensions":["wings","legs"],"bee_group":{"antennae":"X","wings":"1","pattern":"X","legs":"F"},"action":"avoid","summary":"bad-avoid","bonus":0.6600000000000005},{"rt":1015,"stimulus":"\n                    <p><b>Action: <em>avoid</em></b></p>\n                    <p>This is the bee that you just saw.</p>\n                    <img src=\"bees-with-color/bee-B2DF.svg\" width=\"200\">\n                    <p><br>Your bonus pay is unchanged, and remains at $0.70.</p>\n            ","response":0,"trial_type":"html-button-response","trial_index":122,"time_elapsed":537232,"internal_node_id":"0.0-4.0-1.57","subject_id":"60fd16cd87cf9f16439c0614","study_id":"60edd13110225f80f9f3709b","session_id":"6196ca871059a515e99c5d3a","condition":"contingent","relevant_dimensions":["wings","legs"],"bee_group":{"antennae":"X","wings":"1","pattern":"X","legs":"F"},"bonus":0.6600000000000005},{"rt":975,"stimulus":"bees-with-color/bee-A1DF.svg","response":1,"trial_type":"image-button-response","trial_index":123,"time_elapsed":538207,"internal_node_id":"0.0-4.0-0.58","subject_id":"60fd16cd87cf9f16439c0614","study_id":"60edd13110225f80f9f3709b","session_id":"6196ca871059a515e99c5d3a","condition":"contingent","relevant_dimensions":["wings","legs"],"bee_group":{"antennae":"X","wings":"1","pattern":"X","legs":"F"},"action":"avoid","summary":"good-avoid","bonus":0.6600000000000005},{"rt":662,"stimulus":"\n                    <p><b>Action: <em>avoid</em></b></p>\n                    <p>This is the bee that you just saw.</p>\n                    <img src=\"bees-with-color/bee-A1DF.svg\" width=\"200\">\n                    <p><br>Your bonus pay is unchanged, and remains at $0.70.</p>\n            ","response":0,"trial_type":"html-button-response","trial_index":124,"time_elapsed":538871,"internal_node_id":"0.0-4.0-1.58","subject_id":"60fd16cd87cf9f16439c0614","study_id":"60edd13110225f80f9f3709b","session_id":"6196ca871059a515e99c5d3a","condition":"contingent","relevant_dimensions":["wings","legs"],"bee_group":{"antennae":"X","wings":"1","pattern":"X","legs":"F"},"bonus":0.6600000000000005},{"rt":1062,"stimulus":"bees-with-color/bee-A2DM.svg","response":1,"trial_type":"image-button-response","trial_index":125,"time_elapsed":539936,"internal_node_id":"0.0-4.0-0.59","subject_id":"60fd16cd87cf9f16439c0614","study_id":"60edd13110225f80f9f3709b","session_id":"6196ca871059a515e99c5d3a","condition":"contingent","relevant_dimensions":["wings","legs"],"bee_group":{"antennae":"X","wings":"1","pattern":"X","legs":"F"},"action":"avoid","summary":"bad-avoid","bonus":0.6600000000000005},{"rt":1023,"stimulus":"\n                    <p><b>Action: <em>avoid</em></b></p>\n                    <p>This is the bee that you just saw.</p>\n                    <img src=\"bees-with-color/bee-A2DM.svg\" width=\"200\">\n                    <p><br>Your bonus pay is unchanged, and remains at $0.70.</p>\n            ","response":0,"trial_type":"html-button-response","trial_index":126,"time_elapsed":540960,"internal_node_id":"0.0-4.0-1.59","subject_id":"60fd16cd87cf9f16439c0614","study_id":"60edd13110225f80f9f3709b","session_id":"6196ca871059a515e99c5d3a","condition":"contingent","relevant_dimensions":["wings","legs"],"bee_group":{"antennae":"X","wings":"1","pattern":"X","legs":"F"},"bonus":0.6600000000000005},{"rt":8845,"stimulus":"bees-with-color/bee-A1SF.svg","response":1,"trial_type":"image-button-response","trial_index":127,"time_elapsed":549808,"internal_node_id":"0.0-4.0-0.60","subject_id":"60fd16cd87cf9f16439c0614","study_id":"60edd13110225f80f9f3709b","session_id":"6196ca871059a515e99c5d3a","condition":"contingent","relevant_dimensions":["wings","legs"],"bee_group":{"antennae":"X","wings":"1","pattern":"X","legs":"F"},"action":"avoid","summary":"good-avoid","bonus":0.6600000000000005},{"rt":1000,"stimulus":"\n                    <p><b>Action: <em>avoid</em></b></p>\n                    <p>This is the bee that you just saw.</p>\n                    <img src=\"bees-with-color/bee-A1SF.svg\" width=\"200\">\n                    <p><br>Your bonus pay is unchanged, and remains at $0.70.</p>\n            ","response":0,"trial_type":"html-button-response","trial_index":128,"time_elapsed":550807,"internal_node_id":"0.0-4.0-1.60","subject_id":"60fd16cd87cf9f16439c0614","study_id":"60edd13110225f80f9f3709b","session_id":"6196ca871059a515e99c5d3a","condition":"contingent","relevant_dimensions":["wings","legs"],"bee_group":{"antennae":"X","wings":"1","pattern":"X","legs":"F"},"bonus":0.6600000000000005},{"rt":11456,"stimulus":"bees-with-color/bee-A1SM.svg","response":0,"trial_type":"image-button-response","trial_index":129,"time_elapsed":562264,"internal_node_id":"0.0-4.0-0.61","subject_id":"60fd16cd87cf9f16439c0614","study_id":"60edd13110225f80f9f3709b","session_id":"6196ca871059a515e99c5d3a","condition":"contingent","relevant_dimensions":["wings","legs"],"bee_group":{"antennae":"X","wings":"1","pattern":"X","legs":"F"},"action":"harvest","summary":"good-harvest","bonus":0.6600000000000005},{"rt":663,"stimulus":"\n                    <p><b>Action: <em>harvest</em></b></p>\n                    <p>This is the bee that you just saw.</p>\n                    <img src=\"bees-with-color/bee-A1SM.svg\" width=\"200\">\n                    <p><span class=\"greenText\"><b>Successful harvest!</b></span><br>Your pay has increased by $0.02. Your bonus pay is now $0.72.</p>\n            ","response":0,"trial_type":"html-button-response","trial_index":130,"time_elapsed":562928,"internal_node_id":"0.0-4.0-1.61","subject_id":"60fd16cd87cf9f16439c0614","study_id":"60edd13110225f80f9f3709b","session_id":"6196ca871059a515e99c5d3a","condition":"contingent","relevant_dimensions":["wings","legs"],"bee_group":{"antennae":"X","wings":"1","pattern":"X","legs":"F"},"bonus":0.6600000000000005},{"rt":10246,"stimulus":"bees-with-color/bee-B2SM.svg","response":0,"trial_type":"image-button-response","trial_index":131,"time_elapsed":573176,"internal_node_id":"0.0-4.0-0.62","subject_id":"60fd16cd87cf9f16439c0614","study_id":"60edd13110225f80f9f3709b","session_id":"6196ca871059a515e99c5d3a","condition":"contingent","relevant_dimensions":["wings","legs"],"bee_group":{"antennae":"X","wings":"1","pattern":"X","legs":"F"},"action":"harvest","summary":"good-harvest","bonus":0.6600000000000005},{"rt":710,"stimulus":"\n                    <p><b>Action: <em>harvest</em></b></p>\n                    <p>This is the bee that you just saw.</p>\n                    <img src=\"bees-with-color/bee-B2SM.svg\" width=\"200\">\n                    <p><span class=\"greenText\"><b>Successful harvest!</b></span><br>Your pay has increased by $0.02. Your bonus pay is now $0.74.</p>\n            ","response":0,"trial_type":"html-button-response","trial_index":132,"time_elapsed":573888,"internal_node_id":"0.0-4.0-1.62","subject_id":"60fd16cd87cf9f16439c0614","study_id":"60edd13110225f80f9f3709b","session_id":"6196ca871059a515e99c5d3a","condition":"contingent","relevant_dimensions":["wings","legs"],"bee_group":{"antennae":"X","wings":"1","pattern":"X","legs":"F"},"bonus":0.6600000000000005},{"rt":1607,"stimulus":"bees-with-color/bee-A2DF.svg","response":1,"trial_type":"image-button-response","trial_index":133,"time_elapsed":575495,"internal_node_id":"0.0-4.0-0.63","subject_id":"60fd16cd87cf9f16439c0614","study_id":"60edd13110225f80f9f3709b","session_id":"6196ca871059a515e99c5d3a","condition":"contingent","relevant_dimensions":["wings","legs"],"bee_group":{"antennae":"X","wings":"1","pattern":"X","legs":"F"},"action":"avoid","summary":"bad-avoid","bonus":0.6600000000000005},{"rt":1551,"stimulus":"\n                    <p><b>Action: <em>avoid</em></b></p>\n                    <p>This is the bee that you just saw.</p>\n                    <img src=\"bees-with-color/bee-A2DF.svg\" width=\"200\">\n                    <p><br>Your bonus pay is unchanged, and remains at $0.74.</p>\n            ","response":0,"trial_type":"html-button-response","trial_index":134,"time_elapsed":577048,"internal_node_id":"0.0-4.0-1.63","subject_id":"60fd16cd87cf9f16439c0614","study_id":"60edd13110225f80f9f3709b","session_id":"6196ca871059a515e99c5d3a","condition":"contingent","relevant_dimensions":["wings","legs"],"bee_group":{"antennae":"X","wings":"1","pattern":"X","legs":"F"},"bonus":0.6600000000000005},{"rt":13424,"stimulus":"You have completed the first part of this experiment.<br><br>You will now begin a shorter second part, in which you will receive no feedback.<br>The same rules regarding bonus pay apply.<br><br>Press any key to begin.","response":"l","trial_type":"html-keyboard-response","trial_index":135,"time_elapsed":590473,"internal_node_id":"0.0-5.0","subject_id":"60fd16cd87cf9f16439c0614","study_id":"60edd13110225f80f9f3709b","session_id":"6196ca871059a515e99c5d3a","condition":"contingent","relevant_dimensions":["wings","legs"],"bee_group":{"antennae":"X","wings":"1","pattern":"X","legs":"F"},"bonus":0.6600000000000005},{"rt":3309,"stimulus":"bees-with-color/bee-A1SM.svg","response":1,"trial_type":"image-button-response","trial_index":136,"time_elapsed":593784,"internal_node_id":"0.0-6.0-0.0","subject_id":"60fd16cd87cf9f16439c0614","study_id":"60edd13110225f80f9f3709b","session_id":"6196ca871059a515e99c5d3a","condition":"contingent","relevant_dimensions":["wings","legs"],"bee_group":{"antennae":"X","wings":"1","pattern":"X","legs":"F"},"bonus":0.6600000000000005},{"rt":2390,"stimulus":"bees-with-color/bee-A1DF.svg","response":1,"trial_type":"image-button-response","trial_index":137,"time_elapsed":596175,"internal_node_id":"0.0-6.0-0.1","subject_id":"60fd16cd87cf9f16439c0614","study_id":"60edd13110225f80f9f3709b","session_id":"6196ca871059a515e99c5d3a","condition":"contingent","relevant_dimensions":["wings","legs"],"bee_group":{"antennae":"X","wings":"1","pattern":"X","legs":"F"},"bonus":0.6600000000000005},{"rt":1007,"stimulus":"bees-with-color/bee-A1DM.svg","response":0,"trial_type":"image-button-response","trial_index":138,"time_elapsed":597183,"internal_node_id":"0.0-6.0-0.2","subject_id":"60fd16cd87cf9f16439c0614","study_id":"60edd13110225f80f9f3709b","session_id":"6196ca871059a515e99c5d3a","condition":"contingent","relevant_dimensions":["wings","legs"],"bee_group":{"antennae":"X","wings":"1","pattern":"X","legs":"F"},"bonus":0.6600000000000005},{"rt":1096,"stimulus":"bees-with-color/bee-B2SF.svg","response":1,"trial_type":"image-button-response","trial_index":139,"time_elapsed":598279,"internal_node_id":"0.0-6.0-0.3","subject_id":"60fd16cd87cf9f16439c0614","study_id":"60edd13110225f80f9f3709b","session_id":"6196ca871059a515e99c5d3a","condition":"contingent","relevant_dimensions":["wings","legs"],"bee_group":{"antennae":"X","wings":"1","pattern":"X","legs":"F"},"bonus":0.6600000000000005},{"rt":854,"stimulus":"bees-with-color/bee-B1DM.svg","response":1,"trial_type":"image-button-response","trial_index":140,"time_elapsed":599136,"internal_node_id":"0.0-6.0-0.4","subject_id":"60fd16cd87cf9f16439c0614","study_id":"60edd13110225f80f9f3709b","session_id":"6196ca871059a515e99c5d3a","condition":"contingent","relevant_dimensions":["wings","legs"],"bee_group":{"antennae":"X","wings":"1","pattern":"X","legs":"F"},"bonus":0.6600000000000005},{"rt":775,"stimulus":"bees-with-color/bee-A2DF.svg","response":1,"trial_type":"image-button-response","trial_index":141,"time_elapsed":599911,"internal_node_id":"0.0-6.0-0.5","subject_id":"60fd16cd87cf9f16439c0614","study_id":"60edd13110225f80f9f3709b","session_id":"6196ca871059a515e99c5d3a","condition":"contingent","relevant_dimensions":["wings","legs"],"bee_group":{"antennae":"X","wings":"1","pattern":"X","legs":"F"},"bonus":0.6600000000000005},{"rt":696,"stimulus":"bees-with-color/bee-A2SF.svg","response":1,"trial_type":"image-button-response","trial_index":142,"time_elapsed":600608,"internal_node_id":"0.0-6.0-0.6","subject_id":"60fd16cd87cf9f16439c0614","study_id":"60edd13110225f80f9f3709b","session_id":"6196ca871059a515e99c5d3a","condition":"contingent","relevant_dimensions":["wings","legs"],"bee_group":{"antennae":"X","wings":"1","pattern":"X","legs":"F"},"bonus":0.6600000000000005},{"rt":766,"stimulus":"bees-with-color/bee-A1SF.svg","response":0,"trial_type":"image-button-response","trial_index":143,"time_elapsed":601376,"internal_node_id":"0.0-6.0-0.7","subject_id":"60fd16cd87cf9f16439c0614","study_id":"60edd13110225f80f9f3709b","session_id":"6196ca871059a515e99c5d3a","condition":"contingent","relevant_dimensions":["wings","legs"],"bee_group":{"antennae":"X","wings":"1","pattern":"X","legs":"F"},"bonus":0.6600000000000005},{"rt":429,"stimulus":"bees-with-color/bee-A2DM.svg","response":1,"trial_type":"image-button-response","trial_index":144,"time_elapsed":601807,"internal_node_id":"0.0-6.0-0.8","subject_id":"60fd16cd87cf9f16439c0614","study_id":"60edd13110225f80f9f3709b","session_id":"6196ca871059a515e99c5d3a","condition":"contingent","relevant_dimensions":["wings","legs"],"bee_group":{"antennae":"X","wings":"1","pattern":"X","legs":"F"},"bonus":0.6600000000000005},{"rt":399,"stimulus":"bees-with-color/bee-A2SM.svg","response":1,"trial_type":"image-button-response","trial_index":145,"time_elapsed":602207,"internal_node_id":"0.0-6.0-0.9","subject_id":"60fd16cd87cf9f16439c0614","study_id":"60edd13110225f80f9f3709b","session_id":"6196ca871059a515e99c5d3a","condition":"contingent","relevant_dimensions":["wings","legs"],"bee_group":{"antennae":"X","wings":"1","pattern":"X","legs":"F"},"bonus":0.6600000000000005},{"rt":391,"stimulus":"bees-with-color/bee-B2DF.svg","response":1,"trial_type":"image-button-response","trial_index":146,"time_elapsed":602599,"internal_node_id":"0.0-6.0-0.10","subject_id":"60fd16cd87cf9f16439c0614","study_id":"60edd13110225f80f9f3709b","session_id":"6196ca871059a515e99c5d3a","condition":"contingent","relevant_dimensions":["wings","legs"],"bee_group":{"antennae":"X","wings":"1","pattern":"X","legs":"F"},"bonus":0.6600000000000005},{"rt":279,"stimulus":"bees-with-color/bee-B1SM.svg","response":1,"trial_type":"image-button-response","trial_index":147,"time_elapsed":602879,"internal_node_id":"0.0-6.0-0.11","subject_id":"60fd16cd87cf9f16439c0614","study_id":"60edd13110225f80f9f3709b","session_id":"6196ca871059a515e99c5d3a","condition":"contingent","relevant_dimensions":["wings","legs"],"bee_group":{"antennae":"X","wings":"1","pattern":"X","legs":"F"},"bonus":0.6600000000000005},{"rt":455,"stimulus":"bees-with-color/bee-B2SM.svg","response":1,"trial_type":"image-button-response","trial_index":148,"time_elapsed":603335,"internal_node_id":"0.0-6.0-0.12","subject_id":"60fd16cd87cf9f16439c0614","study_id":"60edd13110225f80f9f3709b","session_id":"6196ca871059a515e99c5d3a","condition":"contingent","relevant_dimensions":["wings","legs"],"bee_group":{"antennae":"X","wings":"1","pattern":"X","legs":"F"},"bonus":0.6600000000000005},{"rt":318,"stimulus":"bees-with-color/bee-B2DM.svg","response":1,"trial_type":"image-button-response","trial_index":149,"time_elapsed":603655,"internal_node_id":"0.0-6.0-0.13","subject_id":"60fd16cd87cf9f16439c0614","study_id":"60edd13110225f80f9f3709b","session_id":"6196ca871059a515e99c5d3a","condition":"contingent","relevant_dimensions":["wings","legs"],"bee_group":{"antennae":"X","wings":"1","pattern":"X","legs":"F"},"bonus":0.6600000000000005},{"rt":359,"stimulus":"bees-with-color/bee-B1SF.svg","response":1,"trial_type":"image-button-response","trial_index":150,"time_elapsed":604015,"internal_node_id":"0.0-6.0-0.14","subject_id":"60fd16cd87cf9f16439c0614","study_id":"60edd13110225f80f9f3709b","session_id":"6196ca871059a515e99c5d3a","condition":"contingent","relevant_dimensions":["wings","legs"],"bee_group":{"antennae":"X","wings":"1","pattern":"X","legs":"F"},"bonus":0.6600000000000005},{"rt":511,"stimulus":"bees-with-color/bee-B1DF.svg","response":1,"trial_type":"image-button-response","trial_index":151,"time_elapsed":604527,"internal_node_id":"0.0-6.0-0.15","subject_id":"60fd16cd87cf9f16439c0614","study_id":"60edd13110225f80f9f3709b","session_id":"6196ca871059a515e99c5d3a","condition":"contingent","relevant_dimensions":["wings","legs"],"bee_group":{"antennae":"X","wings":"1","pattern":"X","legs":"F"},"bonus":0.6600000000000005},{"rt":127,"stimulus":"bees-with-color/bee-B2DM.svg","response":1,"trial_type":"image-button-response","trial_index":152,"time_elapsed":604655,"internal_node_id":"0.0-6.0-0.16","subject_id":"60fd16cd87cf9f16439c0614","study_id":"60edd13110225f80f9f3709b","session_id":"6196ca871059a515e99c5d3a","condition":"contingent","relevant_dimensions":["wings","legs"],"bee_group":{"antennae":"X","wings":"1","pattern":"X","legs":"F"},"bonus":0.6600000000000005},{"rt":280,"stimulus":"bees-with-color/bee-B2SF.svg","response":1,"trial_type":"image-button-response","trial_index":153,"time_elapsed":604936,"internal_node_id":"0.0-6.0-0.17","subject_id":"60fd16cd87cf9f16439c0614","study_id":"60edd13110225f80f9f3709b","session_id":"6196ca871059a515e99c5d3a","condition":"contingent","relevant_dimensions":["wings","legs"],"bee_group":{"antennae":"X","wings":"1","pattern":"X","legs":"F"},"bonus":0.6600000000000005},{"rt":143,"stimulus":"bees-with-color/bee-A2DM.svg","response":1,"trial_type":"image-button-response","trial_index":154,"time_elapsed":605080,"internal_node_id":"0.0-6.0-0.18","subject_id":"60fd16cd87cf9f16439c0614","study_id":"60edd13110225f80f9f3709b","session_id":"6196ca871059a515e99c5d3a","condition":"contingent","relevant_dimensions":["wings","legs"],"bee_group":{"antennae":"X","wings":"1","pattern":"X","legs":"F"},"bonus":0.6600000000000005},{"rt":151,"stimulus":"bees-with-color/bee-A2SM.svg","response":1,"trial_type":"image-button-response","trial_index":155,"time_elapsed":605232,"internal_node_id":"0.0-6.0-0.19","subject_id":"60fd16cd87cf9f16439c0614","study_id":"60edd13110225f80f9f3709b","session_id":"6196ca871059a515e99c5d3a","condition":"contingent","relevant_dimensions":["wings","legs"],"bee_group":{"antennae":"X","wings":"1","pattern":"X","legs":"F"},"bonus":0.6600000000000005},{"rt":128,"stimulus":"bees-with-color/bee-B1SM.svg","response":1,"trial_type":"image-button-response","trial_index":156,"time_elapsed":605359,"internal_node_id":"0.0-6.0-0.20","subject_id":"60fd16cd87cf9f16439c0614","study_id":"60edd13110225f80f9f3709b","session_id":"6196ca871059a515e99c5d3a","condition":"contingent","relevant_dimensions":["wings","legs"],"bee_group":{"antennae":"X","wings":"1","pattern":"X","legs":"F"},"bonus":0.6600000000000005},{"rt":135,"stimulus":"bees-with-color/bee-B2DF.svg","response":1,"trial_type":"image-button-response","trial_index":157,"time_elapsed":605496,"internal_node_id":"0.0-6.0-0.21","subject_id":"60fd16cd87cf9f16439c0614","study_id":"60edd13110225f80f9f3709b","session_id":"6196ca871059a515e99c5d3a","condition":"contingent","relevant_dimensions":["wings","legs"],"bee_group":{"antennae":"X","wings":"1","pattern":"X","legs":"F"},"bonus":0.6600000000000005},{"rt":143,"stimulus":"bees-with-color/bee-B1DF.svg","response":1,"trial_type":"image-button-response","trial_index":158,"time_elapsed":605639,"internal_node_id":"0.0-6.0-0.22","subject_id":"60fd16cd87cf9f16439c0614","study_id":"60edd13110225f80f9f3709b","session_id":"6196ca871059a515e99c5d3a","condition":"contingent","relevant_dimensions":["wings","legs"],"bee_group":{"antennae":"X","wings":"1","pattern":"X","legs":"F"},"bonus":0.6600000000000005},{"rt":279,"stimulus":"bees-with-color/bee-B1SF.svg","response":1,"trial_type":"image-button-response","trial_index":159,"time_elapsed":605919,"internal_node_id":"0.0-6.0-0.23","subject_id":"60fd16cd87cf9f16439c0614","study_id":"60edd13110225f80f9f3709b","session_id":"6196ca871059a515e99c5d3a","condition":"contingent","relevant_dimensions":["wings","legs"],"bee_group":{"antennae":"X","wings":"1","pattern":"X","legs":"F"},"bonus":0.6600000000000005},{"rt":142,"stimulus":"bees-with-color/bee-B1DM.svg","response":1,"trial_type":"image-button-response","trial_index":160,"time_elapsed":606064,"internal_node_id":"0.0-6.0-0.24","subject_id":"60fd16cd87cf9f16439c0614","study_id":"60edd13110225f80f9f3709b","session_id":"6196ca871059a515e99c5d3a","condition":"contingent","relevant_dimensions":["wings","legs"],"bee_group":{"antennae":"X","wings":"1","pattern":"X","legs":"F"},"bonus":0.6600000000000005},{"rt":591,"stimulus":"bees-with-color/bee-A1DF.svg","response":1,"trial_type":"image-button-response","trial_index":161,"time_elapsed":606655,"internal_node_id":"0.0-6.0-0.25","subject_id":"60fd16cd87cf9f16439c0614","study_id":"60edd13110225f80f9f3709b","session_id":"6196ca871059a515e99c5d3a","condition":"contingent","relevant_dimensions":["wings","legs"],"bee_group":{"antennae":"X","wings":"1","pattern":"X","legs":"F"},"bonus":0.6600000000000005},{"rt":144,"stimulus":"bees-with-color/bee-A1SF.svg","response":1,"trial_type":"image-button-response","trial_index":162,"time_elapsed":606799,"internal_node_id":"0.0-6.0-0.26","subject_id":"60fd16cd87cf9f16439c0614","study_id":"60edd13110225f80f9f3709b","session_id":"6196ca871059a515e99c5d3a","condition":"contingent","relevant_dimensions":["wings","legs"],"bee_group":{"antennae":"X","wings":"1","pattern":"X","legs":"F"},"bonus":0.6600000000000005},{"rt":311,"stimulus":"bees-with-color/bee-A2DF.svg","response":1,"trial_type":"image-button-response","trial_index":163,"time_elapsed":607111,"internal_node_id":"0.0-6.0-0.27","subject_id":"60fd16cd87cf9f16439c0614","study_id":"60edd13110225f80f9f3709b","session_id":"6196ca871059a515e99c5d3a","condition":"contingent","relevant_dimensions":["wings","legs"],"bee_group":{"antennae":"X","wings":"1","pattern":"X","legs":"F"},"bonus":0.6600000000000005},{"rt":167,"stimulus":"bees-with-color/bee-A1DM.svg","response":1,"trial_type":"image-button-response","trial_index":164,"time_elapsed":607280,"internal_node_id":"0.0-6.0-0.28","subject_id":"60fd16cd87cf9f16439c0614","study_id":"60edd13110225f80f9f3709b","session_id":"6196ca871059a515e99c5d3a","condition":"contingent","relevant_dimensions":["wings","legs"],"bee_group":{"antennae":"X","wings":"1","pattern":"X","legs":"F"},"bonus":0.6600000000000005},{"rt":167,"stimulus":"bees-with-color/bee-B2SM.svg","response":1,"trial_type":"image-button-response","trial_index":165,"time_elapsed":607448,"internal_node_id":"0.0-6.0-0.29","subject_id":"60fd16cd87cf9f16439c0614","study_id":"60edd13110225f80f9f3709b","session_id":"6196ca871059a515e99c5d3a","condition":"contingent","relevant_dimensions":["wings","legs"],"bee_group":{"antennae":"X","wings":"1","pattern":"X","legs":"F"},"bonus":0.6600000000000005},{"rt":334,"stimulus":"bees-with-color/bee-A1SM.svg","response":1,"trial_type":"image-button-response","trial_index":166,"time_elapsed":607783,"internal_node_id":"0.0-6.0-0.30","subject_id":"60fd16cd87cf9f16439c0614","study_id":"60edd13110225f80f9f3709b","session_id":"6196ca871059a515e99c5d3a","condition":"contingent","relevant_dimensions":["wings","legs"],"bee_group":{"antennae":"X","wings":"1","pattern":"X","legs":"F"},"bonus":0.6600000000000005},{"rt":383,"stimulus":"bees-with-color/bee-A2SF.svg","response":1,"trial_type":"image-button-response","trial_index":167,"time_elapsed":608167,"internal_node_id":"0.0-6.0-0.31","subject_id":"60fd16cd87cf9f16439c0614","study_id":"60edd13110225f80f9f3709b","session_id":"6196ca871059a515e99c5d3a","condition":"contingent","relevant_dimensions":["wings","legs"],"bee_group":{"antennae":"X","wings":"1","pattern":"X","legs":"F"},"bonus":0.6600000000000005},{"rt":12928,"stimulus":"You started with $2.50 of base pay.<br><br>\n            You made $0.66 in bonus pay,\n            for a total of <b>$3.16</b>.","response":0,"trial_type":"html-button-response","trial_index":168,"time_elapsed":621096,"internal_node_id":"0.0-7.0-0.0","subject_id":"60fd16cd87cf9f16439c0614","study_id":"60edd13110225f80f9f3709b","session_id":"6196ca871059a515e99c5d3a","condition":"contingent","relevant_dimensions":["wings","legs"],"bee_group":{"antennae":"X","wings":"1","pattern":"X","legs":"F"},"bonus":0.6600000000000005},{"rt":7087,"response":{"percent-dangerous-bees":"60"},"trial_type":"survey-text","trial_index":169,"time_elapsed":628185,"internal_node_id":"0.0-7.0-1.0","subject_id":"60fd16cd87cf9f16439c0614","study_id":"60edd13110225f80f9f3709b","session_id":"6196ca871059a515e99c5d3a","condition":"contingent","relevant_dimensions":["wings","legs"],"bee_group":{"antennae":"X","wings":"1","pattern":"X","legs":"F"},"bonus":0.6600000000000005},{"rt":9534,"response":{"feature-perception":["Stripes"]},"question_order":[0],"trial_type":"survey-multi-select","trial_index":170,"time_elapsed":637721,"internal_node_id":"0.0-7.0-2.0","subject_id":"60fd16cd87cf9f16439c0614","study_id":"60edd13110225f80f9f3709b","session_id":"6196ca871059a515e99c5d3a","condition":"contingent","relevant_dime