[{"success":true,"trial_type":"fullscreen","trial_index":0,"time_elapsed":7031,"internal_node_id":"0.0-0.0","subject_id":"613a563323e79122a9696123","study_id":"6197b3f67c2b5cd3b6d9596a","session_id":"6197b892975f25f15e4bb532","condition":"contingent","relevant_dimensions":["antennae","legs"],"bee_group":{"antennae":"A","wings":"X","pattern":"X","legs":"M"},"bonus":1.3600000000000008},{"success":true,"timeout":false,"failed_images":[],"failed_audio":[],"failed_video":[],"trial_type":"preload","trial_index":1,"time_elapsed":9362,"internal_node_id":"0.0-1.0","subject_id":"613a563323e79122a9696123","study_id":"6197b3f67c2b5cd3b6d9596a","session_id":"6197b892975f25f15e4bb532","condition":"contingent","relevant_dimensions":["antennae","legs"],"bee_group":{"antennae":"A","wings":"X","pattern":"X","legs":"M"},"bonus":1.3600000000000008},{"rt":2314.199999988079,"stimulus":"Welcome! Press any key to begin.","response":"enter","trial_type":"html-keyboard-response","trial_index":2,"time_elapsed":11679,"internal_node_id":"0.0-2.0","subject_id":"613a563323e79122a9696123","study_id":"6197b3f67c2b5cd3b6d9596a","session_id":"6197b892975f25f15e4bb532","condition":"contingent","relevant_dimensions":["antennae","legs"],"bee_group":{"antennae":"A","wings":"X","pattern":"X","legs":"M"},"bonus":1.3600000000000008},{"view_history":[{"page_index":0,"viewing_time":6362},{"page_index":1,"viewing_time":16333.5},{"page_index":2,"viewing_time":50833.59999999404},{"page_index":3,"viewing_time":16558},{"page_index":4,"viewing_time":6806.70000000298},{"page_index":5,"viewing_time":7799.29999999702},{"page_index":6,"viewing_time":14037.70000000298},{"page_index":7,"viewing_time":2447.7000000029802},{"page_index":6,"viewing_time":20205.20000000298},{"page_index":7,"viewing_time":8455},{"page_index":6,"viewing_time":12118.39999999106},{"page_index":7,"viewing_time":9950.60000000894},{"page_index":8,"viewing_time":14526.39999999106},{"page_index":9,"viewing_time":4983.20000000298},{"page_index":10,"viewing_time":3391.2999999970198},{"page_index":11,"viewing_time":11934.5},{"page_index":12,"viewing_time":12726.60000000894},{"page_index":13,"viewing_time":1200},{"page_index":14,"viewing_time":2679.199999988079}],"rt":223349.5,"trial_type":"instructions","trial_index":3,"time_elapsed":235029,"internal_node_id":"0.0-3.0-0.0","subject_id":"613a563323e79122a9696123","study_id":"6197b3f67c2b5cd3b6d9596a","session_id":"6197b892975f25f15e4bb532","condition":"contingent","relevant_dimensions":["antennae","legs"],"bee_group":{"antennae":"A","wings":"X","pattern":"X","legs":"M"},"bonus":1.3600000000000008},{"rt":12056,"response":{"Q0":["Two or six legs","Stripes or spots on body","Single or double wings","Antennae or no antennae"]},"question_order":[0],"trial_type":"survey-multi-select","trial_index":4,"time_elapsed":247093,"internal_node_id":"0.0-3.0-1.0","subject_id":"613a563323e79122a9696123","study_id":"6197b3f67c2b5cd3b6d9596a","session_id":"6197b892975f25f15e4bb532","condition":"contingent","relevant_dimensions":["antennae","legs"],"bee_group":{"antennae":"A","wings":"X","pattern":"X","legs":"M"},"correct":true,"bonus":1.3600000000000008},{"rt":30352.79999999702,"response":{"Q1":"No.","Q2":"Based on the four features of the bee.","Q3":"You do not learn if it was friendly or dangerous, and do not alter your bonus."},"question_order":[0,1,2],"trial_type":"survey-multi-choice","trial_index":5,"time_elapsed":277456,"internal_node_id":"0.0-3.0-2.0","subject_id":"613a563323e79122a9696123","study_id":"6197b3f67c2b5cd3b6d9596a","session_id":"6197b892975f25f15e4bb532","condition":"contingent","relevant_dimensions":["antennae","legs"],"bee_group":{"antennae":"A","wings":"X","pattern":"X","legs":"M"},"correct":true,"bonus":1.3600000000000008},{"rt":4542.0999999940395,"stimulus":"<p>Congrats, you got everything right<br>When you're ready, click the button below to continue to the experiment.</p>","response":0,"trial_type":"html-button-response","trial_index":6,"time_elapsed":282007,"internal_node_id":"0.0-3.0-3.0","subject_id":"613a563323e79122a9696123","study_id":"6197b3f67c2b5cd3b6d9596a","session_id":"6197b892975f25f15e4bb532","condition":"contingent","relevant_dimensions":["antennae","legs"],"bee_group":{"antennae":"A","wings":"X","pattern":"X","legs":"M"},"bonus":1.3600000000000008},{"rt":4395.399999991059,"stimulus":"bees-with-color/bee-A2DF.svg","response":0,"trial_type":"image-button-response","trial_index":7,"time_elapsed":286407,"internal_node_id":"0.0-4.0-0.0","subject_id":"613a563323e79122a9696123","study_id":"6197b3f67c2b5cd3b6d9596a","session_id":"6197b892975f25f15e4bb532","condition":"contingent","relevant_dimensions":["antennae","legs"],"bee_group":{"antennae":"A","wings":"X","pattern":"X","legs":"M"},"action":"harvest","summary":"good-harvest","bonus":1.3600000000000008},{"rt":17256.40000000596,"stimulus":"\n                    <p><b>Action: <em>harvest</em></b></p>\n                    <p>This is the bee that you just saw.</p>\n                    <img src=\"bees-with-color/bee-A2DF.svg\" width=\"200\">\n                    <p><span class=\"greenText\"><b>Successful harvest!</b></span><br>Your pay has increased by $0.02. Your bonus pay is now $0.56.</p>\n            ","response":0,"trial_type":"html-button-response","trial_index":8,"time_elapsed":303669,"internal_node_id":"0.0-4.0-1.0","subject_id":"613a563323e79122a9696123","study_id":"6197b3f67c2b5cd3b6d9596a","session_id":"6197b892975f25f15e4bb532","condition":"contingent","relevant_dimensions":["antennae","legs"],"bee_group":{"antennae":"A","wings":"X","pattern":"X","legs":"M"},"bonus":1.3600000000000008},{"rt":1739.0999999940395,"stimulus":"bees-with-color/bee-A1DM.svg","response":1,"trial_type":"image-button-response","trial_index":9,"time_elapsed":305412,"internal_node_id":"0.0-4.0-0.1","subject_id":"613a563323e79122a9696123","study_id":"6197b3f67c2b5cd3b6d9596a","session_id":"6197b892975f25f15e4bb532","condition":"contingent","relevant_dimensions":["antennae","legs"],"bee_group":{"antennae":"A","wings":"X","pattern":"X","legs":"M"},"action":"avoid","summary":"good-avoid","bonus":1.3600000000000008},{"rt":8818.20000000298,"stimulus":"\n                    <p><b>Action: <em>avoid</em></b></p>\n                    <p>This is the bee that you just saw.</p>\n                    <img src=\"bees-with-color/bee-A1DM.svg\" width=\"200\">\n                    <p><br>Your bonus pay is unchanged, and remains at $0.56.</p>\n            ","response":0,"trial_type":"html-button-response","trial_index":10,"time_elapsed":314234,"internal_node_id":"0.0-4.0-1.1","subject_id":"613a563323e79122a9696123","study_id":"6197b3f67c2b5cd3b6d9596a","session_id":"6197b892975f25f15e4bb532","condition":"contingent","relevant_dimensions":["antennae","legs"],"bee_group":{"antennae":"A","wings":"X","pattern":"X","legs":"M"},"bonus":1.3600000000000008},{"rt":6283.600000008941,"stimulus":"bees-with-color/bee-B1DF.svg","response":1,"trial_type":"image-button-response","trial_index":11,"time_elapsed":320522,"internal_node_id":"0.0-4.0-0.2","subject_id":"613a563323e79122a9696123","study_id":"6197b3f67c2b5cd3b6d9596a","session_id":"6197b892975f25f15e4bb532","condition":"contingent","relevant_dimensions":["antennae","legs"],"bee_group":{"antennae":"A","wings":"X","pattern":"X","legs":"M"},"action":"avoid","summary":"bad-avoid","bonus":1.3600000000000008},{"rt":2301.300000011921,"stimulus":"\n                    <p><b>Action: <em>avoid</em></b></p>\n                    <p>This is the bee that you just saw.</p>\n                    <img src=\"bees-with-color/bee-B1DF.svg\" width=\"200\">\n                    <p><br>Your bonus pay is unchanged, and remains at $0.56.</p>\n            ","response":0,"trial_type":"html-button-response","trial_index":12,"time_elapsed":322825,"internal_node_id":"0.0-4.0-1.2","subject_id":"613a563323e79122a9696123","study_id":"6197b3f67c2b5cd3b6d9596a","session_id":"6197b892975f25f15e4bb532","condition":"contingent","relevant_dimensions":["antennae","legs"],"bee_group":{"antennae":"A","wings":"X","pattern":"X","legs":"M"},"bonus":1.3600000000000008},{"rt":6084.4000000059605,"stimulus":"bees-with-color/bee-B1SF.svg","response":1,"trial_type":"image-button-response","trial_index":13,"time_elapsed":328913,"internal_node_id":"0.0-4.0-0.3","subject_id":"613a563323e79122a9696123","study_id":"6197b3f67c2b5cd3b6d9596a","session_id":"6197b892975f25f15e4bb532","condition":"contingent","relevant_dimensions":["antennae","legs"],"bee_group":{"antennae":"A","wings":"X","pattern":"X","legs":"M"},"action":"avoid","summary":"bad-avoid","bonus":1.3600000000000008},{"rt":1196,"stimulus":"\n                    <p><b>Action: <em>avoid</em></b></p>\n                    <p>This is the bee that you just saw.</p>\n                    <img src=\"bees-with-color/bee-B1SF.svg\" width=\"200\">\n                    <p><br>Your bonus pay is unchanged, and remains at $0.56.</p>\n            ","response":0,"trial_type":"html-button-response","trial_index":14,"time_elapsed":330112,"internal_node_id":"0.0-4.0-1.3","subject_id":"613a563323e79122a9696123","study_id":"6197b3f67c2b5cd3b6d9596a","session_id":"6197b892975f25f15e4bb532","condition":"contingent","relevant_dimensions":["antennae","legs"],"bee_group":{"antennae":"A","wings":"X","pattern":"X","legs":"M"},"bonus":1.3600000000000008},{"rt":4571.100000008941,"stimulus":"bees-with-color/bee-B1DM.svg","response":1,"trial_type":"image-button-response","trial_index":15,"time_elapsed":334688,"internal_node_id":"0.0-4.0-0.4","subject_id":"613a563323e79122a9696123","study_id":"6197b3f67c2b5cd3b6d9596a","session_id":"6197b892975f25f15e4bb532","condition":"contingent","relevant_dimensions":["antennae","legs"],"bee_group":{"antennae":"A","wings":"X","pattern":"X","legs":"M"},"action":"avoid","summary":"bad-avoid","bonus":1.3600000000000008},{"rt":789.2000000029802,"stimulus":"\n                    <p><b>Action: <em>avoid</em></b></p>\n                    <p>This is the bee that you just saw.</p>\n                    <img src=\"bees-with-color/bee-B1DM.svg\" width=\"200\">\n                    <p><br>Your bonus pay is unchanged, and remains at $0.56.</p>\n            ","response":0,"trial_type":"html-button-response","trial_index":16,"time_elapsed":335480,"internal_node_id":"0.0-4.0-1.4","subject_id":"613a563323e79122a9696123","study_id":"6197b3f67c2b5cd3b6d9596a","session_id":"6197b892975f25f15e4bb532","condition":"contingent","relevant_dimensions":["antennae","legs"],"bee_group":{"antennae":"A","wings":"X","pattern":"X","legs":"M"},"bonus":1.3600000000000008},{"rt":1595.5,"stimulus":"bees-with-color/bee-A2DM.svg","response":0,"trial_type":"image-button-response","trial_index":17,"time_elapsed":337079,"internal_node_id":"0.0-4.0-0.5","subject_id":"613a563323e79122a9696123","study_id":"6197b3f67c2b5cd3b6d9596a","session_id":"6197b892975f25f15e4bb532","condition":"contingent","relevant_dimensions":["antennae","legs"],"bee_group":{"antennae":"A","wings":"X","pattern":"X","legs":"M"},"action":"harvest","summary":"bad-harvest","bonus":1.3600000000000008},{"rt":4762.9000000059605,"stimulus":"\n                    <p><b>Action: <em>harvest</em></b></p>\n                    <p>This is the bee that you just saw.</p>\n                    <img src=\"bees-with-color/bee-A2DM.svg\" width=\"200\">\n                    <p><span class=\"redText\">Bad choice, the bee was angry.</span><br><b>You have been stung!</b><br>Your pay has been decreased by $0.10. Your bonus pay is now $0.46.</p>\n            ","response":0,"trial_type":"html-button-response","trial_index":18,"time_elapsed":341847,"internal_node_id":"0.0-4.0-1.5","subject_id":"613a563323e79122a9696123","study_id":"6197b3f67c2b5cd3b6d9596a","session_id":"6197b892975f25f15e4bb532","condition":"contingent","relevant_dimensions":["antennae","legs"],"bee_group":{"antennae":"A","wings":"X","pattern":"X","legs":"M"},"bonus":1.3600000000000008},{"rt":1611.5999999940395,"stimulus":"bees-with-color/bee-B1SM.svg","response":0,"trial_type":"image-button-response","trial_index":19,"time_elapsed":343463,"internal_node_id":"0.0-4.0-0.6","subject_id":"613a563323e79122a9696123","study_id":"6197b3f67c2b5cd3b6d9596a","session_id":"6197b892975f25f15e4bb532","condition":"contingent","relevant_dimensions":["antennae","legs"],"bee_group":{"antennae":"A","wings":"X","pattern":"X","legs":"M"},"action":"harvest","summary":"good-harvest","bonus":1.3600000000000008},{"rt":3729.9000000059605,"stimulus":"\n                    <p><b>Action: <em>harvest</em></b></p>\n                    <p>This is the bee that you just saw.</p>\n                    <img src=\"bees-with-color/bee-B1SM.svg\" width=\"200\">\n                    <p><span class=\"greenText\"><b>Successful harvest!</b></span><br>Your pay has increased by $0.02. Your bonus pay is now $0.48.</p>\n            ","response":0,"trial_type":"html-button-response","trial_index":20,"time_elapsed":347199,"internal_node_id":"0.0-4.0-1.6","subject_id":"613a563323e79122a9696123","study_id":"6197b3f67c2b5cd3b6d9596a","session_id":"6197b892975f25f15e4bb532","condition":"contingent","relevant_dimensions":["antennae","legs"],"bee_group":{"antennae":"A","wings":"X","pattern":"X","legs":"M"},"bonus":1.3600000000000008},{"rt":1381.2000000029802,"stimulus":"bees-with-color/bee-A1SF.svg","response":1,"trial_type":"image-button-response","trial_index":21,"time_elapsed":348584,"internal_node_id":"0.0-4.0-0.7","subject_id":"613a563323e79122a9696123","study_id":"6197b3f67c2b5cd3b6d9596a","session_id":"6197b892975f25f15e4bb532","condition":"contingent","relevant_dimensions":["antennae","legs"],"bee_group":{"antennae":"A","wings":"X","pattern":"X","legs":"M"},"action":"avoid","summary":"bad-avoid","bonus":1.3600000000000008},{"rt":1724,"stimulus":"\n                    <p><b>Action: <em>avoid</em></b></p>\n                    <p>This is the bee that you just saw.</p>\n                    <img src=\"bees-with-color/bee-A1SF.svg\" width=\"200\">\n                    <p><br>Your bonus pay is unchanged, and remains at $0.48.</p>\n            ","response":0,"trial_type":"html-button-response","trial_index":22,"time_elapsed":350310,"internal_node_id":"0.0-4.0-1.7","subject_id":"613a563323e79122a9696123","study_id":"6197b3f67c2b5cd3b6d9596a","session_id":"6197b892975f25f15e4bb532","condition":"contingent","relevant_dimensions":["antennae","legs"],"bee_group":{"antennae":"A","wings":"X","pattern":"X","legs":"M"},"bonus":1.3600000000000008},{"rt":988.2999999970198,"stimulus":"bees-with-color/bee-B2DF.svg","response":0,"trial_type":"image-button-response","trial_index":23,"time_elapsed":351301,"internal_node_id":"0.0-4.0-0.8","subject_id":"613a563323e79122a9696123","study_id":"6197b3f67c2b5cd3b6d9596a","session_id":"6197b892975f25f15e4bb532","condition":"contingent","relevant_dimensions":["antennae","legs"],"bee_group":{"antennae":"A","wings":"X","pattern":"X","legs":"M"},"action":"harvest","summary":"good-harvest","bonus":1.3600000000000008},{"rt":2246.1000000089407,"stimulus":"\n                    <p><b>Action: <em>harvest</em></b></p>\n                    <p>This is the bee that you just saw.</p>\n                    <img src=\"bees-with-color/bee-B2DF.svg\" width=\"200\">\n                    <p><span class=\"greenText\"><b>Successful harvest!</b></span><br>Your pay has increased by $0.02. Your bonus pay is now $0.50.</p>\n            ","response":0,"trial_type":"html-button-response","trial_index":24,"time_elapsed":353550,"internal_node_id":"0.0-4.0-1.8","subject_id":"613a563323e79122a9696123","study_id":"6197b3f67c2b5cd3b6d9596a","session_id":"6197b892975f25f15e4bb532","condition":"contingent","relevant_dimensions":["antennae","legs"],"bee_group":{"antennae":"A","wings":"X","pattern":"X","legs":"M"},"bonus":1.3600000000000008},{"rt":1524.1000000089407,"stimulus":"bees-with-color/bee-A1SM.svg","response":1,"trial_type":"image-button-response","trial_index":25,"time_elapsed":355077,"internal_node_id":"0.0-4.0-0.9","subject_id":"613a563323e79122a9696123","study_id":"6197b3f67c2b5cd3b6d9596a","session_id":"6197b892975f25f15e4bb532","condition":"contingent","relevant_dimensions":["antennae","legs"],"bee_group":{"antennae":"A","wings":"X","pattern":"X","legs":"M"},"action":"avoid","summary":"good-avoid","bonus":1.3600000000000008},{"rt":1037.699999988079,"stimulus":"\n                    <p><b>Action: <em>avoid</em></b></p>\n                    <p>This is the bee that you just saw.</p>\n                    <img src=\"bees-with-color/bee-A1SM.svg\" width=\"200\">\n                    <p><br>Your bonus pay is unchanged, and remains at $0.50.</p>\n            ","response":0,"trial_type":"html-button-response","trial_index":26,"time_elapsed":356117,"internal_node_id":"0.0-4.0-1.9","subject_id":"613a563323e79122a9696123","study_id":"6197b3f67c2b5cd3b6d9596a","session_id":"6197b892975f25f15e4bb532","condition":"contingent","relevant_dimensions":["antennae","legs"],"bee_group":{"antennae":"A","wings":"X","pattern":"X","legs":"M"},"bonus":1.3600000000000008},{"rt":1430.3999999910593,"stimulus":"bees-with-color/bee-B2SF.svg","response":0,"trial_type":"image-button-response","trial_index":27,"time_elapsed":357549,"internal_node_id":"0.0-4.0-0.10","subject_id":"613a563323e79122a9696123","study_id":"6197b3f67c2b5cd3b6d9596a","session_id":"6197b892975f25f15e4bb532","condition":"contingent","relevant_dimensions":["antennae","legs"],"bee_group":{"antennae":"A","wings":"X","pattern":"X","legs":"M"},"action":"harvest","summary":"good-harvest","bonus":1.3600000000000008},{"rt":1180.5,"stimulus":"\n                    <p><b>Action: <em>harvest</em></b></p>\n                    <p>This is the bee that you just saw.</p>\n                    <img src=\"bees-with-color/bee-B2SF.svg\" width=\"200\">\n                    <p><span class=\"greenText\"><b>Successful harvest!</b></span><br>Your pay has increased by $0.02. Your bonus pay is now $0.52.</p>\n            ","response":0,"trial_type":"html-button-response","trial_index":28,"time_elapsed":358733,"internal_node_id":"0.0-4.0-1.10","subject_id":"613a563323e79122a9696123","study_id":"6197b3f67c2b5cd3b6d9596a","session_id":"6197b892975f25f15e4bb532","condition":"contingent","relevant_dimensions":["antennae","legs"],"bee_group":{"antennae":"A","wings":"X","pattern":"X","legs":"M"},"bonus":1.3600000000000008},{"rt":1333,"stimulus":"bees-with-color/bee-B2DM.svg","response":0,"trial_type":"image-button-response","trial_index":29,"time_elapsed":360068,"internal_node_id":"0.0-4.0-0.11","subject_id":"613a563323e79122a9696123","study_id":"6197b3f67c2b5cd3b6d9596a","session_id":"6197b892975f25f15e4bb532","condition":"contingent","relevant_dimensions":["antennae","legs"],"bee_group":{"antennae":"A","wings":"X","pattern":"X","legs":"M"},"action":"harvest","summary":"good-harvest","bonus":1.3600000000000008},{"rt":2237.2999999970198,"stimulus":"\n                    <p><b>Action: <em>harvest</em></b></p>\n                    <p>This is the bee that you just saw.</p>\n                    <img src=\"bees-with-color/bee-B2DM.svg\" width=\"200\">\n                    <p><span class=\"greenText\"><b>Successful harvest!</b></span><br>Your pay has increased by $0.02. Your bonus pay is now $0.54.</p>\n            ","response":0,"trial_type":"html-button-response","trial_index":30,"time_elapsed":362308,"internal_node_id":"0.0-4.0-1.11","subject_id":"613a563323e79122a9696123","study_id":"6197b3f67c2b5cd3b6d9596a","session_id":"6197b892975f25f15e4bb532","condition":"contingent","relevant_dimensions":["antennae","legs"],"bee_group":{"antennae":"A","wings":"X","pattern":"X","legs":"M"},"bonus":1.3600000000000008},{"rt":1269.2000000029802,"stimulus":"bees-with-color/bee-B2SM.svg","response":0,"trial_type":"image-button-response","trial_index":31,"time_elapsed":363580,"internal_node_id":"0.0-4.0-0.12","subject_id":"613a563323e79122a9696123","study_id":"6197b3f67c2b5cd3b6d9596a","session_id":"6197b892975f25f15e4bb532","condition":"contingent","relevant_dimensions":["antennae","legs"],"bee_group":{"antennae":"A","wings":"X","pattern":"X","legs":"M"},"action":"harvest","summary":"good-harvest","bonus":1.3600000000000008},{"rt":860.2000000029802,"stimulus":"\n                    <p><b>Action: <em>harvest</em></b></p>\n                    <p>This is the bee that you just saw.</p>\n                    <img src=\"bees-with-color/bee-B2SM.svg\" width=\"200\">\n                    <p><span class=\"greenText\"><b>Successful harvest!</b></span><br>Your pay has increased by $0.02. Your bonus pay is now $0.56.</p>\n            ","response":0,"trial_type":"html-button-response","trial_index":32,"time_elapsed":364444,"internal_node_id":"0.0-4.0-1.12","subject_id":"613a563323e79122a9696123","study_id":"6197b3f67c2b5cd3b6d9596a","session_id":"6197b892975f25f15e4bb532","condition":"contingent","relevant_dimensions":["antennae","legs"],"bee_group":{"antennae":"A","wings":"X","pattern":"X","legs":"M"},"bonus":1.3600000000000008},{"rt":1133.2000000029802,"stimulus":"bees-with-color/bee-A2SF.svg","response":1,"trial_type":"image-button-response","trial_index":33,"time_elapsed":365580,"internal_node_id":"0.0-4.0-0.13","subject_id":"613a563323e79122a9696123","study_id":"6197b3f67c2b5cd3b6d9596a","session_id":"6197b892975f25f15e4bb532","condition":"contingent","relevant_dimensions":["antennae","legs"],"bee_group":{"antennae":"A","wings":"X","pattern":"X","legs":"M"},"action":"avoid","summary":"bad-avoid","bonus":1.3600000000000008},{"rt":1532.9000000059605,"stimulus":"\n                    <p><b>Action: <em>avoid</em></b></p>\n                    <p>This is the bee that you just saw.</p>\n                    <img src=\"bees-with-color/bee-A2SF.svg\" width=\"200\">\n                    <p><br>Your bonus pay is unchanged, and remains at $0.56.</p>\n            ","response":0,"trial_type":"html-button-response","trial_index":34,"time_elapsed":367117,"internal_node_id":"0.0-4.0-1.13","subject_id":"613a563323e79122a9696123","study_id":"6197b3f67c2b5cd3b6d9596a","session_id":"6197b892975f25f15e4bb532","condition":"contingent","relevant_dimensions":["antennae","legs"],"bee_group":{"antennae":"A","wings":"X","pattern":"X","legs":"M"},"bonus":1.3600000000000008},{"rt":2124.0999999940395,"stimulus":"bees-with-color/bee-A1DF.svg","response":1,"trial_type":"image-button-response","trial_index":35,"time_elapsed":369243,"internal_node_id":"0.0-4.0-0.14","subject_id":"613a563323e79122a9696123","study_id":"6197b3f67c2b5cd3b6d9596a","session_id":"6197b892975f25f15e4bb532","condition":"contingent","relevant_dimensions":["antennae","legs"],"bee_group":{"antennae":"A","wings":"X","pattern":"X","legs":"M"},"action":"avoid","summary":"bad-avoid","bonus":1.3600000000000008},{"rt":765.1000000089407,"stimulus":"\n                    <p><b>Action: <em>avoid</em></b></p>\n                    <p>This is the bee that you just saw.</p>\n                    <img src=\"bees-with-color/bee-A1DF.svg\" width=\"200\">\n                    <p><br>Your bonus pay is unchanged, and remains at $0.56.</p>\n            ","response":0,"trial_type":"html-button-response","trial_index":36,"time_elapsed":370011,"internal_node_id":"0.0-4.0-1.14","subject_id":"613a563323e79122a9696123","study_id":"6197b3f67c2b5cd3b6d9596a","session_id":"6197b892975f25f15e4bb532","condition":"contingent","relevant_dimensions":["antennae","legs"],"bee_group":{"antennae":"A","wings":"X","pattern":"X","legs":"M"},"bonus":1.3600000000000008},{"rt":1597.2999999970198,"stimulus":"bees-with-color/bee-A2SM.svg","response":1,"trial_type":"image-button-response","trial_index":37,"time_elapsed":371611,"internal_node_id":"0.0-4.0-0.15","subject_id":"613a563323e79122a9696123","study_id":"6197b3f67c2b5cd3b6d9596a","session_id":"6197b892975f25f15e4bb532","condition":"contingent","relevant_dimensions":["antennae","legs"],"bee_group":{"antennae":"A","wings":"X","pattern":"X","legs":"M"},"action":"avoid","summary":"good-avoid","bonus":1.3600000000000008},{"rt":670,"stimulus":"\n                    <p><b>Action: <em>avoid</em></b></p>\n                    <p>This is the bee that you just saw.</p>\n                    <img src=\"bees-with-color/bee-A2SM.svg\" width=\"200\">\n                    <p><br>Your bonus pay is unchanged, and remains at $0.56.</p>\n            ","response":0,"trial_type":"html-button-response","trial_index":38,"time_elapsed":372283,"internal_node_id":"0.0-4.0-1.15","subject_id":"613a563323e79122a9696123","study_id":"6197b3f67c2b5cd3b6d9596a","session_id":"6197b892975f25f15e4bb532","condition":"contingent","relevant_dimensions":["antennae","legs"],"bee_group":{"antennae":"A","wings":"X","pattern":"X","legs":"M"},"bonus":1.3600000000000008},{"rt":1397.7999999970198,"stimulus":"bees-with-color/bee-A2DF.svg","response":1,"trial_type":"image-button-response","trial_index":39,"time_elapsed":373683,"internal_node_id":"0.0-4.0-0.16","subject_id":"613a563323e79122a9696123","study_id":"6197b3f67c2b5cd3b6d9596a","session_id":"6197b892975f25f15e4bb532","condition":"contingent","relevant_dimensions":["antennae","legs"],"bee_group":{"antennae":"A","wings":"X","pattern":"X","legs":"M"},"action":"avoid","summary":"bad-avoid","bonus":1.3600000000000008},{"rt":598.0999999940395,"stimulus":"\n                    <p><b>Action: <em>avoid</em></b></p>\n                    <p>This is the bee that you just saw.</p>\n                    <img src=\"bees-with-color/bee-A2DF.svg\" width=\"200\">\n                    <p><br>Your bonus pay is unchanged, and remains at $0.56.</p>\n            ","response":0,"trial_type":"html-button-response","trial_index":40,"time_elapsed":374285,"internal_node_id":"0.0-4.0-1.16","subject_id":"613a563323e79122a9696123","study_id":"6197b3f67c2b5cd3b6d9596a","session_id":"6197b892975f25f15e4bb532","condition":"contingent","relevant_dimensions":["antennae","legs"],"bee_group":{"antennae":"A","wings":"X","pattern":"X","legs":"M"},"bonus":1.3600000000000008},{"rt":1213.5,"stimulus":"bees-with-color/bee-A2SM.svg","response":1,"trial_type":"image-button-response","trial_index":41,"time_elapsed":375501,"internal_node_id":"0.0-4.0-0.17","subject_id":"613a563323e79122a9696123","study_id":"6197b3f67c2b5cd3b6d9596a","session_id":"6197b892975f25f15e4bb532","condition":"contingent","relevant_dimensions":["antennae","legs"],"bee_group":{"antennae":"A","wings":"X","pattern":"X","legs":"M"},"action":"avoid","summary":"good-avoid","bonus":1.3600000000000008},{"rt":658,"stimulus":"\n                    <p><b>Action: <em>avoid</em></b></p>\n                    <p>This is the bee that you just saw.</p>\n                    <img src=\"bees-with-color/bee-A2SM.svg\" width=\"200\">\n                    <p><br>Your bonus pay is unchanged, and remains at $0.56.</p>\n            ","response":0,"trial_type":"html-button-response","trial_index":42,"time_elapsed":376163,"internal_node_id":"0.0-4.0-1.17","subject_id":"613a563323e79122a9696123","study_id":"6197b3f67c2b5cd3b6d9596a","session_id":"6197b892975f25f15e4bb532","condition":"contingent","relevant_dimensions":["antennae","legs"],"bee_group":{"antennae":"A","wings":"X","pattern":"X","legs":"M"},"bonus":1.3600000000000008},{"rt":1011.3999999910593,"stimulus":"bees-with-color/bee-B1DF.svg","response":0,"trial_type":"image-button-response","trial_index":43,"time_elapsed":377178,"internal_node_id":"0.0-4.0-0.18","subject_id":"613a563323e79122a9696123","study_id":"6197b3f67c2b5cd3b6d9596a","session_id":"6197b892975f25f15e4bb532","condition":"contingent","relevant_dimensions":["antennae","legs"],"bee_group":{"antennae":"A","wings":"X","pattern":"X","legs":"M"},"action":"harvest","summary":"good-harvest","bonus":1.3600000000000008},{"rt":1518.5999999940395,"stimulus":"\n                    <p><b>Action: <em>harvest</em></b></p>\n                    <p>This is the bee that you just saw.</p>\n                    <img src=\"bees-with-color/bee-B1DF.svg\" width=\"200\">\n                    <p><span class=\"greenText\"><b>Successful harvest!</b></span><br>Your pay has increased by $0.02. Your bonus pay is now $0.58.</p>\n            ","response":0,"trial_type":"html-button-response","trial_index":44,"time_elapsed":378699,"internal_node_id":"0.0-4.0-1.18","subject_id":"613a563323e79122a9696123","study_id":"6197b3f67c2b5cd3b6d9596a","session_id":"6197b892975f25f15e4bb532","condition":"contingent","relevant_dimensions":["antennae","legs"],"bee_group":{"antennae":"A","wings":"X","pattern":"X","legs":"M"},"bonus":1.3600000000000008},{"rt":1059.800000011921,"stimulus":"bees-with-color/bee-B2DF.svg","response":0,"trial_type":"image-button-response","trial_index":45,"time_elapsed":379763,"internal_node_id":"0.0-4.0-0.19","subject_id":"613a563323e79122a9696123","study_id":"6197b3f67c2b5cd3b6d9596a","session_id":"6197b892975f25f15e4bb532","condition":"contingent","relevant_dimensions":["antennae","legs"],"bee_group":{"antennae":"A","wings":"X","pattern":"X","legs":"M"},"action":"harvest","summary":"good-harvest","bonus":1.3600000000000008},{"rt":883.5999999940395,"stimulus":"\n                    <p><b>Action: <em>harvest</em></b></p>\n                    <p>This is the bee that you just saw.</p>\n                    <img src=\"bees-with-color/bee-B2DF.svg\" width=\"200\">\n                    <p><span class=\"greenText\"><b>Successful harvest!</b></span><br>Your pay has increased by $0.02. Your bonus pay is now $0.60.</p>\n            ","response":0,"trial_type":"html-button-response","trial_index":46,"time_elapsed":380650,"internal_node_id":"0.0-4.0-1.19","subject_id":"613a563323e79122a9696123","study_id":"6197b3f67c2b5cd3b6d9596a","session_id":"6197b892975f25f15e4bb532","condition":"contingent","relevant_dimensions":["antennae","legs"],"bee_group":{"antennae":"A","wings":"X","pattern":"X","legs":"M"},"bonus":1.3600000000000008},{"rt":1900.9000000059605,"stimulus":"bees-with-color/bee-B2DM.svg","response":0,"trial_type":"image-button-response","trial_index":47,"time_elapsed":382553,"internal_node_id":"0.0-4.0-0.20","subject_id":"613a563323e79122a9696123","study_id":"6197b3f67c2b5cd3b6d9596a","session_id":"6197b892975f25f15e4bb532","condition":"contingent","relevant_dimensions":["antennae","legs"],"bee_group":{"antennae":"A","wings":"X","pattern":"X","legs":"M"},"action":"harvest","summary":"good-harvest","bonus":1.3600000000000008},{"rt":813.3000000119209,"stimulus":"\n                    <p><b>Action: <em>harvest</em></b></p>\n                    <p>This is the bee that you just saw.</p>\n                    <img src=\"bees-with-color/bee-B2DM.svg\" width=\"200\">\n                    <p><span class=\"greenText\"><b>Successful harvest!</b></span><br>Your pay has increased by $0.02. Your bonus pay is now $0.62.</p>\n            ","response":0,"trial_type":"html-button-response","trial_index":48,"time_elapsed":383369,"internal_node_id":"0.0-4.0-1.20","subject_id":"613a563323e79122a9696123","study_id":"6197b3f67c2b5cd3b6d9596a","session_id":"6197b892975f25f15e4bb532","condition":"contingent","relevant_dimensions":["antennae","legs"],"bee_group":{"antennae":"A","wings":"X","pattern":"X","legs":"M"},"bonus":1.3600000000000008},{"rt":1333.5,"stimulus":"bees-with-color/bee-B1SM.svg","response":0,"trial_type":"image-button-response","trial_index":49,"time_elapsed":384705,"internal_node_id":"0.0-4.0-0.21","subject_id":"613a563323e79122a9696123","study_id":"6197b3f67c2b5cd3b6d9596a","session_id":"6197b892975f25f15e4bb532","condition":"contingent","relevant_dimensions":["antennae","legs"],"bee_group":{"antennae":"A","wings":"X","pattern":"X","legs":"M"},"action":"harvest","summary":"good-harvest","bonus":1.3600000000000008},{"rt":686.8000000119209,"stimulus":"\n                    <p><b>Action: <em>harvest</em></b></p>\n                    <p>This is the bee that you just saw.</p>\n                    <img src=\"bees-with-color/bee-B1SM.svg\" width=\"200\">\n                    <p><span class=\"greenText\"><b>Successful harvest!</b></span><br>Your pay has increased by $0.02. Your bonus pay is now $0.64.</p>\n            ","response":0,"trial_type":"html-button-response","trial_index":50,"time_elapsed":385394,"internal_node_id":"0.0-4.0-1.21","subject_id":"613a563323e79122a9696123","study_id":"6197b3f67c2b5cd3b6d9596a","session_id":"6197b892975f25f15e4bb532","condition":"contingent","relevant_dimensions":["antennae","legs"],"bee_group":{"antennae":"A","wings":"X","pattern":"X","legs":"M"},"bonus":1.3600000000000008},{"rt":963,"stimulus":"bees-with-color/bee-A2DM.svg","response":1,"trial_type":"image-button-response","trial_index":51,"time_elapsed":386361,"internal_node_id":"0.0-4.0-0.22","subject_id":"613a563323e79122a9696123","study_id":"6197b3f67c2b5cd3b6d9596a","session_id":"6197b892975f25f15e4bb532","condition":"contingent","relevant_dimensions":["antennae","legs"],"bee_group":{"antennae":"A","wings":"X","pattern":"X","legs":"M"},"action":"avoid","summary":"good-avoid","bonus":1.3600000000000008},{"rt":670.0999999940395,"stimulus":"\n                    <p><b>Action: <em>avoid</em></b></p>\n                    <p>This is the bee that you just saw.</p>\n                    <img src=\"bees-with-color/bee-A2DM.svg\" width=\"200\">\n                    <p><br>Your bonus pay is unchanged, and remains at $0.64.</p>\n            ","response":0,"trial_type":"html-button-response","trial_index":52,"time_elapsed":387033,"internal_node_id":"0.0-4.0-1.22","subject_id":"613a563323e79122a9696123","study_id":"6197b3f67c2b5cd3b6d9596a","session_id":"6197b892975f25f15e4bb532","condition":"contingent","relevant_dimensions":["antennae","legs"],"bee_group":{"antennae":"A","wings":"X","pattern":"X","legs":"M"},"bonus":1.3600000000000008},{"rt":1069.0999999940395,"stimulus":"bees-with-color/bee-A1DF.svg","response":1,"trial_type":"image-button-response","trial_index":53,"time_elapsed":388105,"internal_node_id":"0.0-4.0-0.23","subject_id":"613a563323e79122a9696123","study_id":"6197b3f67c2b5cd3b6d9596a","session_id":"6197b892975f25f15e4bb532","condition":"contingent","relevant_dimensions":["antennae","legs"],"bee_group":{"antennae":"A","wings":"X","pattern":"X","legs":"M"},"action":"avoid","summary":"bad-avoid","bonus":1.3600000000000008},{"rt":678,"stimulus":"\n                    <p><b>Action: <em>avoid</em></b></p>\n                    <p>This is the bee that you just saw.</p>\n                    <img src=\"bees-with-color/bee-A1DF.svg\" width=\"200\">\n                    <p><br>Your bonus pay is unchanged, and remains at $0.64.</p>\n            ","response":0,"trial_type":"html-button-response","trial_index":54,"time_elapsed":388785,"internal_node_id":"0.0-4.0-1.23","subject_id":"613a563323e79122a9696123","study_id":"6197b3f67c2b5cd3b6d9596a","session_id":"6197b892975f25f15e4bb532","condition":"contingent","relevant_dimensions":["antennae","legs"],"bee_group":{"antennae":"A","wings":"X","pattern":"X","legs":"M"},"bonus":1.3600000000000008},{"rt":907.5999999940395,"stimulus":"bees-with-color/bee-B1SF.svg","response":0,"trial_type":"image-button-response","trial_index":55,"time_elapsed":389696,"internal_node_id":"0.0-4.0-0.24","subject_id":"613a563323e79122a9696123","study_id":"6197b3f67c2b5cd3b6d9596a","session_id":"6197b892975f25f15e4bb532","condition":"contingent","relevant_dimensions":["antennae","legs"],"bee_group":{"antennae":"A","wings":"X","pattern":"X","legs":"M"},"action":"harvest","summary":"good-harvest","bonus":1.3600000000000008},{"rt":683.7000000029802,"stimulus":"\n                    <p><b>Action: <em>harvest</em></b></p>\n                    <p>This is the bee that you just saw.</p>\n                    <img src=\"bees-with-color/bee-B1SF.svg\" width=\"200\">\n                    <p><span class=\"greenText\"><b>Successful harvest!</b></span><br>Your pay has increased by $0.02. Your bonus pay is now $0.66.</p>\n            ","response":0,"trial_type":"html-button-response","trial_index":56,"time_elapsed":390384,"internal_node_id":"0.0-4.0-1.24","subject_id":"613a563323e79122a9696123","study_id":"6197b3f67c2b5cd3b6d9596a","session_id":"6197b892975f25f15e4bb532","condition":"contingent","relevant_dimensions":["antennae","legs"],"bee_group":{"antennae":"A","wings":"X","pattern":"X","legs":"M"},"bonus":1.3600000000000008},{"rt":1300.8999999910593,"stimulus":"bees-with-color/bee-A2SF.svg","response":1,"trial_type":"image-button-response","trial_index":57,"time_elapsed":391688,"internal_node_id":"0.0-4.0-0.25","subject_id":"613a563323e79122a9696123","study_id":"6197b3f67c2b5cd3b6d9596a","session_id":"6197b892975f25f15e4bb532","condition":"contingent","relevant_dimensions":["antennae","legs"],"bee_group":{"antennae":"A","wings":"X","pattern":"X","legs":"M"},"action":"avoid","summary":"bad-avoid","bonus":1.3600000000000008},{"rt":613.7999999970198,"stimulus":"\n                    <p><b>Action: <em>avoid</em></b></p>\n                    <p>This is the bee that you just saw.</p>\n                    <img src=\"bees-with-color/bee-A2SF.svg\" width=\"200\">\n                    <p><br>Your bonus pay is unchanged, and remains at $0.66.</p>\n            ","response":0,"trial_type":"html-button-response","trial_index":58,"time_elapsed":392304,"internal_node_id":"0.0-4.0-1.25","subject_id":"613a563323e79122a9696123","study_id":"6197b3f67c2b5cd3b6d9596a","session_id":"6197b892975f25f15e4bb532","condition":"contingent","relevant_dimensions":["antennae","legs"],"bee_group":{"antennae":"A","wings":"X","pattern":"X","legs":"M"},"bonus":1.3600000000000008},{"rt":940.6999999880791,"stimulus":"bees-with-color/bee-A1SF.svg","response":1,"trial_type":"image-button-response","trial_index":59,"time_elapsed":393250,"internal_node_id":"0.0-4.0-0.26","subject_id":"613a563323e79122a9696123","study_id":"6197b3f67c2b5cd3b6d9596a","session_id":"6197b892975f25f15e4bb532","condition":"contingent","relevant_dimensions":["antennae","legs"],"bee_group":{"antennae":"A","wings":"X","pattern":"X","legs":"M"},"action":"avoid","summary":"bad-avoid","bonus":1.3600000000000008},{"rt":771.4000000059605,"stimulus":"\n                    <p><b>Action: <em>avoid</em></b></p>\n                    <p>This is the bee that you just saw.</p>\n                    <img src=\"bees-with-color/bee-A1SF.svg\" width=\"200\">\n                    <p><br>Your bonus pay is unchanged, and remains at $0.66.</p>\n            ","response":0,"trial_type":"html-button-response","trial_index":60,"time_elapsed":394024,"internal_node_id":"0.0-4.0-1.26","subject_id":"613a563323e79122a9696123","study_id":"6197b3f67c2b5cd3b6d9596a","session_id":"6197b892975f25f15e4bb532","condition":"contingent","relevant_dimensions":["antennae","legs"],"bee_group":{"antennae":"A","wings":"X","pattern":"X","legs":"M"},"bonus":1.3600000000000008},{"rt":909.3999999910593,"stimulus":"bees-with-color/bee-B1DM.svg","response":0,"trial_type":"image-button-response","trial_index":61,"time_elapsed":394937,"internal_node_id":"0.0-4.0-0.27","subject_id":"613a563323e79122a9696123","study_id":"6197b3f67c2b5cd3b6d9596a","session_id":"6197b892975f25f15e4bb532","condition":"contingent","relevant_dimensions":["antennae","legs"],"bee_group":{"antennae":"A","wings":"X","pattern":"X","legs":"M"},"action":"harvest","summary":"good-harvest","bonus":1.3600000000000008},{"rt":739.5,"stimulus":"\n                    <p><b>Action: <em>harvest</em></b></p>\n                    <p>This is the bee that you just saw.</p>\n                    <img src=\"bees-with-color/bee-B1DM.svg\" width=\"200\">\n                    <p><span class=\"greenText\"><b>Successful harvest!</b></span><br>Your pay has increased by $0.02. Your bonus pay is now $0.68.</p>\n            ","response":0,"trial_type":"html-button-response","trial_index":62,"time_elapsed":395680,"internal_node_id":"0.0-4.0-1.27","subject_id":"613a563323e79122a9696123","study_id":"6197b3f67c2b5cd3b6d9596a","session_id":"6197b892975f25f15e4bb532","condition":"contingent","relevant_dimensions":["antennae","legs"],"bee_group":{"antennae":"A","wings":"X","pattern":"X","legs":"M"},"bonus":1.3600000000000008},{"rt":1395.5999999940395,"stimulus":"bees-with-color/bee-B2SF.svg","response":0,"trial_type":"image-button-response","trial_index":63,"time_elapsed":397079,"internal_node_id":"0.0-4.0-0.28","subject_id":"613a563323e79122a9696123","study_id":"6197b3f67c2b5cd3b6d9596a","session_id":"6197b892975f25f15e4bb532","condition":"contingent","relevant_dimensions":["antennae","legs"],"bee_group":{"antennae":"A","wings":"X","pattern":"X","legs":"M"},"action":"harvest","summary":"good-harvest","bonus":1.3600000000000008},{"rt":659.4000000059605,"stimulus":"\n                    <p><b>Action: <em>harvest</em></b></p>\n                    <p>This is the bee that you just saw.</p>\n                    <img src=\"bees-with-color/bee-B2SF.svg\" width=\"200\">\n                    <p><span class=\"greenText\"><b>Successful harvest!</b></span><br>Your pay has increased by $0.02. Your bonus pay is now $0.70.</p>\n            ","response":0,"trial_type":"html-button-response","trial_index":64,"time_elapsed":397744,"internal_node_id":"0.0-4.0-1.28","subject_id":"613a563323e79122a9696123","study_id":"6197b3f67c2b5cd3b6d9596a","session_id":"6197b892975f25f15e4bb532","condition":"contingent","relevant_dimensions":["antennae","legs"],"bee_group":{"antennae":"A","wings":"X","pattern":"X","legs":"M"},"bonus":1.3600000000000008},{"rt":1276.800000011921,"stimulus":"bees-with-color/bee-A1DM.svg","response":1,"trial_type":"image-button-response","trial_index":65,"time_elapsed":399023,"internal_node_id":"0.0-4.0-0.29","subject_id":"613a563323e79122a9696123","study_id":"6197b3f67c2b5cd3b6d9596a","session_id":"6197b892975f25f15e4bb532","condition":"contingent","relevant_dimensions":["antennae","legs"],"bee_group":{"antennae":"A","wings":"X","pattern":"X","legs":"M"},"action":"avoid","summary":"good-avoid","bonus":1.3600000000000008},{"rt":652.7000000029802,"stimulus":"\n                    <p><b>Action: <em>avoid</em></b></p>\n                    <p>This is the bee that you just saw.</p>\n                    <img src=\"bees-with-color/bee-A1DM.svg\" width=\"200\">\n                    <p><br>Your bonus pay is unchanged, and remains at $0.70.</p>\n            ","response":0,"trial_type":"html-button-response","trial_index":66,"time_elapsed":399680,"internal_node_id":"0.0-4.0-1.29","subject_id":"613a563323e79122a9696123","study_id":"6197b3f67c2b5cd3b6d9596a","session_id":"6197b892975f25f15e4bb532","condition":"contingent","relevant_dimensions":["antennae","legs"],"bee_group":{"antennae":"A","wings":"X","pattern":"X","legs":"M"},"bonus":1.3600000000000008},{"rt":1018.3999999910593,"stimulus":"bees-with-color/bee-A1SM.svg","response":1,"trial_type":"image-button-response","trial_index":67,"time_elapsed":400703,"internal_node_id":"0.0-4.0-0.30","subject_id":"613a563323e79122a9696123","study_id":"6197b3f67c2b5cd3b6d9596a","session_id":"6197b892975f25f15e4bb532","condition":"contingent","relevant_dimensions":["antennae","legs"],"bee_group":{"antennae":"A","wings":"X","pattern":"X","legs":"M"},"action":"avoid","summary":"good-avoid","bonus":1.3600000000000008},{"rt":1020.7999999970198,"stimulus":"\n                    <p><b>Action: <em>avoid</em></b></p>\n                    <p>This is the bee that you just saw.</p>\n                    <img src=\"bees-with-color/bee-A1SM.svg\" width=\"200\">\n                    <p><br>Your bonus pay is unchanged, and remains at $0.70.</p>\n            ","response":0,"trial_type":"html-button-response","trial_index":68,"time_elapsed":401727,"internal_node_id":"0.0-4.0-1.30","subject_id":"613a563323e79122a9696123","study_id":"6197b3f67c2b5cd3b6d9596a","session_id":"6197b892975f25f15e4bb532","condition":"contingent","relevant_dimensions":["antennae","legs"],"bee_group":{"antennae":"A","wings":"X","pattern":"X","legs":"M"},"bonus":1.3600000000000008},{"rt":2100.4000000059605,"stimulus":"bees-with-color/bee-B2SM.svg","response":0,"trial_type":"image-button-response","trial_index":69,"time_elapsed":403830,"internal_node_id":"0.0-4.0-0.31","subject_id":"613a563323e79122a9696123","study_id":"6197b3f67c2b5cd3b6d9596a","session_id":"6197b892975f25f15e4bb532","condition":"contingent","relevant_dimensions":["antennae","legs"],"bee_group":{"antennae":"A","wings":"X","pattern":"X","legs":"M"},"action":"harvest","summary":"good-harvest","bonus":1.3600000000000008},{"rt":603.7999999970198,"stimulus":"\n                    <p><b>Action: <em>harvest</em></b></p>\n                    <p>This is the bee that you just saw.</p>\n                    <img src=\"bees-with-color/bee-B2SM.svg\" width=\"200\">\n                    <p><span class=\"greenText\"><b>Successful harvest!</b></span><br>Your pay has increased by $0.02. Your bonus pay is now $0.72.</p>\n            ","response":0,"trial_type":"html-button-response","trial_index":70,"time_elapsed":404438,"internal_node_id":"0.0-4.0-1.31","subject_id":"613a563323e79122a9696123","study_id":"6197b3f67c2b5cd3b6d9596a","session_id":"6197b892975f25f15e4bb532","condition":"contingent","relevant_dimensions":["antennae","legs"],"bee_group":{"antennae":"A","wings":"X","pattern":"X","legs":"M"},"bonus":1.3600000000000008},{"rt":845.2000000029802,"stimulus":"bees-with-color/bee-A2DM.svg","response":1,"trial_type":"image-button-response","trial_index":71,"time_elapsed":405286,"internal_node_id":"0.0-4.0-0.32","subject_id":"613a563323e79122a9696123","study_id":"6197b3f67c2b5cd3b6d9596a","session_id":"6197b892975f25f15e4bb532","condition":"contingent","relevant_dimensions":["antennae","legs"],"bee_group":{"antennae":"A","wings":"X","pattern":"X","legs":"M"},"action":"avoid","summary":"good-avoid","bonus":1.3600000000000008},{"rt":485,"stimulus":"\n                    <p><b>Action: <em>avoid</em></b></p>\n                    <p>This is the bee that you just saw.</p>\n                    <img src=\"bees-with-color/bee-A2DM.svg\" width=\"200\">\n                    <p><br>Your bonus pay is unchanged, and remains at $0.72.</p>\n            ","response":0,"trial_type":"html-button-response","trial_index":72,"time_elapsed":405774,"internal_node_id":"0.0-4.0-1.32","subject_id":"613a563323e79122a9696123","study_id":"6197b3f67c2b5cd3b6d9596a","session_id":"6197b892975f25f15e4bb532","condition":"contingent","relevant_dimensions":["antennae","legs"],"bee_group":{"antennae":"A","wings":"X","pattern":"X","legs":"M"},"bonus":1.3600000000000008},{"rt":836.4000000059605,"stimulus":"bees-with-color/bee-B2SM.svg","response":0,"trial_type":"image-button-response","trial_index":73,"time_elapsed":406616,"internal_node_id":"0.0-4.0-0.33","subject_id":"613a563323e79122a9696123","study_id":"6197b3f67c2b5cd3b6d9596a","session_id":"6197b892975f25f15e4bb532","condition":"contingent","relevant_dimensions":["antennae","legs"],"bee_group":{"antennae":"A","wings":"X","pattern":"X","legs":"M"},"action":"harvest","summary":"good-harvest","bonus":1.3600000000000008},{"rt":507.5,"stimulus":"\n                    <p><b>Action: <em>harvest</em></b></p>\n                    <p>This is the bee that you just saw.</p>\n                    <img src=\"bees-with-color/bee-B2SM.svg\" width=\"200\">\n                    <p><span class=\"greenText\"><b>Successful harvest!</b></span><br>Your pay has increased by $0.02. Your bonus pay is now $0.74.</p>\n            ","response":0,"trial_type":"html-button-response","trial_index":74,"time_elapsed":407126,"internal_node_id":"0.0-4.0-1.33","subject_id":"613a563323e79122a9696123","study_id":"6197b3f67c2b5cd3b6d9596a","session_id":"6197b892975f25f15e4bb532","condition":"contingent","relevant_dimensions":["antennae","legs"],"bee_group":{"antennae":"A","wings":"X","pattern":"X","legs":"M"},"bonus":1.3600000000000008},{"rt":740.9000000059605,"stimulus":"bees-with-color/bee-A2DF.svg","response":1,"trial_type":"image-button-response","trial_index":75,"time_elapsed":407870,"internal_node_id":"0.0-4.0-0.34","subject_id":"613a563323e79122a9696123","study_id":"6197b3f67c2b5cd3b6d9596a","session_id":"6197b892975f25f15e4bb532","condition":"contingent","relevant_dimensions":["antennae","legs"],"bee_group":{"antennae":"A","wings":"X","pattern":"X","legs":"M"},"action":"avoid","summary":"bad-avoid","bonus":1.3600000000000008},{"rt":524.5999999940395,"stimulus":"\n                    <p><b>Action: <em>avoid</em></b></p>\n                    <p>This is the bee that you just saw.</p>\n                    <img src=\"bees-with-color/bee-A2DF.svg\" width=\"200\">\n                    <p><br>Your bonus pay is unchanged, and remains at $0.74.</p>\n            ","response":0,"trial_type":"html-button-response","trial_index":76,"time_elapsed":408400,"internal_node_id":"0.0-4.0-1.34","subject_id":"613a563323e79122a9696123","study_id":"6197b3f67c2b5cd3b6d9596a","session_id":"6197b892975f25f15e4bb532","condition":"contingent","relevant_dimensions":["antennae","legs"],"bee_group":{"antennae":"A","wings":"X","pattern":"X","legs":"M"},"bonus":1.3600000000000008},{"rt":802.9000000059605,"stimulus":"bees-with-color/bee-A1DM.svg","response":1,"trial_type":"image-button-response","trial_index":77,"time_elapsed":409206,"internal_node_id":"0.0-4.0-0.35","subject_id":"613a563323e79122a9696123","study_id":"6197b3f67c2b5cd3b6d9596a","session_id":"6197b892975f25f15e4bb532","condition":"contingent","relevant_dimensions":["antennae","legs"],"bee_group":{"antennae":"A","wings":"X","pattern":"X","legs":"M"},"action":"avoid","summary":"good-avoid","bonus":1.3600000000000008},{"rt":485,"stimulus":"\n                    <p><b>Action: <em>avoid</em></b></p>\n                    <p>This is the bee that you just saw.</p>\n                    <img src=\"bees-with-color/bee-A1DM.svg\" width=\"200\">\n                    <p><br>Your bonus pay is unchanged, and remains at $0.74.</p>\n            ","response":0,"trial_type":"html-button-response","trial_index":78,"time_elapsed":409694,"internal_node_id":"0.0-4.0-1.35","subject_id":"613a563323e79122a9696123","study_id":"6197b3f67c2b5cd3b6d9596a","session_id":"6197b892975f25f15e4bb532","condition":"contingent","relevant_dimensions":["antennae","legs"],"bee_group":{"antennae":"A","wings":"X","pattern":"X","legs":"M"},"bonus":1.3600000000000008},{"rt":837.7000000029802,"stimulus":"bees-with-color/bee-B2DF.svg","response":0,"trial_type":"image-button-response","trial_index":79,"time_elapsed":410535,"internal_node_id":"0.0-4.0-0.36","subject_id":"613a563323e79122a9696123","study_id":"6197b3f67c2b5cd3b6d9596a","session_id":"6197b892975f25f15e4bb532","condition":"contingent","relevant_dimensions":["antennae","legs"],"bee_group":{"antennae":"A","wings":"X","pattern":"X","legs":"M"},"action":"harvest","summary":"good-harvest","bonus":1.3600000000000008},{"rt":444.59999999403954,"stimulus":"\n                    <p><b>Action: <em>harvest</em></b></p>\n                    <p>This is the bee that you just saw.</p>\n                    <img src=\"bees-with-color/bee-B2DF.svg\" width=\"200\">\n                    <p><span class=\"greenText\"><b>Successful harvest!</b></span><br>Your pay has increased by $0.02. Your bonus pay is now $0.76.</p>\n            ","response":0,"trial_type":"html-button-response","trial_index":80,"time_elapsed":410983,"internal_node_id":"0.0-4.0-1.36","subject_id":"613a563323e79122a9696123","study_id":"6197b3f67c2b5cd3b6d9596a","session_id":"6197b892975f25f15e4bb532","condition":"contingent","relevant_dimensions":["antennae","legs"],"bee_group":{"antennae":"A","wings":"X","pattern":"X","legs":"M"},"bonus":1.3600000000000008},{"rt":907.7000000029802,"stimulus":"bees-with-color/bee-B1DM.svg","response":0,"trial_type":"image-button-response","trial_index":81,"time_elapsed":411894,"internal_node_id":"0.0-4.0-0.37","subject_id":"613a563323e79122a9696123","study_id":"6197b3f67c2b5cd3b6d9596a","session_id":"6197b892975f25f15e4bb532","condition":"contingent","relevant_dimensions":["antennae","legs"],"bee_group":{"antennae":"A","wings":"X","pattern":"X","legs":"M"},"action":"harvest","summary":"good-harvest","bonus":1.3600000000000008},{"rt":476.69999998807907,"stimulus":"\n                    <p><b>Action: <em>harvest</em></b></p>\n                    <p>This is the bee that you just saw.</p>\n                    <img src=\"bees-with-color/bee-B1DM.svg\" width=\"200\">\n                    <p><span class=\"greenText\"><b>Successful harvest!</b></span><br>Your pay has increased by $0.02. Your bonus pay is now $0.78.</p>\n            ","response":0,"trial_type":"html-button-response","trial_index":82,"time_elapsed":412373,"internal_node_id":"0.0-4.0-1.37","subject_id":"613a563323e79122a9696123","study_id":"6197b3f67c2b5cd3b6d9596a","session_id":"6197b892975f25f15e4bb532","condition":"contingent","relevant_dimensions":["antennae","legs"],"bee_group":{"antennae":"A","wings":"X","pattern":"X","legs":"M"},"bonus":1.3600000000000008},{"rt":812.7000000029802,"stimulus":"bees-with-color/bee-B1DF.svg","response":0,"trial_type":"image-button-response","trial_index":83,"time_elapsed":413189,"internal_node_id":"0.0-4.0-0.38","subject_id":"613a563323e79122a9696123","study_id":"6197b3f67c2b5cd3b6d9596a","session_id":"6197b892975f25f15e4bb532","condition":"contingent","relevant_dimensions":["antennae","legs"],"bee_group":{"antennae":"A","wings":"X","pattern":"X","legs":"M"},"action":"harvest","summary":"good-harvest","bonus":1.3600000000000008},{"rt":468.8999999910593,"stimulus":"\n                    <p><b>Action: <em>harvest</em></b></p>\n                    <p>This is the bee that you just saw.</p>\n                    <img src=\"bees-with-color/bee-B1DF.svg\" width=\"200\">\n                    <p><span class=\"greenText\"><b>Successful harvest!</b></span><br>Your pay has increased by $0.02. Your bonus pay is now $0.80.</p>\n            ","response":0,"trial_type":"html-button-response","trial_index":84,"time_elapsed":413662,"internal_node_id":"0.0-4.0-1.38","subject_id":"613a563323e79122a9696123","study_id":"6197b3f67c2b5cd3b6d9596a","session_id":"6197b892975f25f15e4bb532","condition":"contingent","relevant_dimensions":["antennae","legs"],"bee_group":{"antennae":"A","wings":"X","pattern":"X","legs":"M"},"bonus":1.3600000000000008},{"rt":1028.2000000029802,"stimulus":"bees-with-color/bee-B1SF.svg","response":0,"trial_type":"image-button-response","trial_index":85,"time_elapsed":414694,"internal_node_id":"0.0-4.0-0.39","subject_id":"613a563323e79122a9696123","study_id":"6197b3f67c2b5cd3b6d9596a","session_id":"6197b892975f25f15e4bb532","condition":"contingent","relevant_dimensions":["antennae","legs"],"bee_group":{"antennae":"A","wings":"X","pattern":"X","legs":"M"},"action":"harvest","summary":"good-harvest","bonus":1.3600000000000008},{"rt":555.7999999970198,"stimulus":"\n                    <p><b>Action: <em>harvest</em></b></p>\n                    <p>This is the bee that you just saw.</p>\n                    <img src=\"bees-with-color/bee-B1SF.svg\" width=\"200\">\n                    <p><span class=\"greenText\"><b>Successful harvest!</b></span><br>Your pay has increased by $0.02. Your bonus pay is now $0.82.</p>\n            ","response":0,"trial_type":"html-button-response","trial_index":86,"time_elapsed":415253,"internal_node_id":"0.0-4.0-1.39","subject_id":"613a563323e79122a9696123","study_id":"6197b3f67c2b5cd3b6d9596a","session_id":"6197b892975f25f15e4bb532","condition":"contingent","relevant_dimensions":["antennae","legs"],"bee_group":{"antennae":"A","wings":"X","pattern":"X","legs":"M"},"bonus":1.3600000000000008},{"rt":1021.1000000089407,"stimulus":"bees-with-color/bee-B1SM.svg","response":0,"trial_type":"image-button-response","trial_index":87,"time_elapsed":416277,"internal_node_id":"0.0-4.0-0.40","subject_id":"613a563323e79122a9696123","study_id":"6197b3f67c2b5cd3b6d9596a","session_id":"6197b892975f25f15e4bb532","condition":"contingent","relevant_dimensions":["antennae","legs"],"bee_group":{"antennae":"A","wings":"X","pattern":"X","legs":"M"},"action":"harvest","summary":"good-harvest","bonus":1.3600000000000008},{"rt":1148.2000000029802,"stimulus":"\n                    <p><b>Action: <em>harvest</em></b></p>\n                    <p>This is the bee that you just saw.</p>\n                    <img src=\"bees-with-color/bee-B1SM.svg\" width=\"200\">\n                    <p><span class=\"greenText\"><b>Successful harvest!</b></span><br>Your pay has increased by $0.02. Your bonus pay is now $0.84.</p>\n            ","response":0,"trial_type":"html-button-response","trial_index":88,"time_elapsed":417429,"internal_node_id":"0.0-4.0-1.40","subject_id":"613a563323e79122a9696123","study_id":"6197b3f67c2b5cd3b6d9596a","session_id":"6197b892975f25f15e4bb532","condition":"contingent","relevant_dimensions":["antennae","legs"],"bee_group":{"antennae":"A","wings":"X","pattern":"X","legs":"M"},"bonus":1.3600000000000008},{"rt":996.9000000059605,"stimulus":"bees-with-color/bee-A2SF.svg","response":1,"trial_type":"image-button-response","trial_index":89,"time_elapsed":418428,"internal_node_id":"0.0-4.0-0.41","subject_id":"613a563323e79122a9696123","study_id":"6197b3f67c2b5cd3b6d9596a","session_id":"6197b892975f25f15e4bb532","condition":"contingent","relevant_dimensions":["antennae","legs"],"bee_group":{"antennae":"A","wings":"X","pattern":"X","legs":"M"},"action":"avoid","summary":"bad-avoid","bonus":1.3600000000000008},{"rt":941.7999999970198,"stimulus":"\n                    <p><b>Action: <em>avoid</em></b></p>\n                    <p>This is the bee that you just saw.</p>\n                    <img src=\"bees-with-color/bee-A2SF.svg\" width=\"200\">\n                    <p><br>Your bonus pay is unchanged, and remains at $0.84.</p>\n            ","response":0,"trial_type":"html-button-response","trial_index":90,"time_elapsed":419373,"internal_node_id":"0.0-4.0-1.41","subject_id":"613a563323e79122a9696123","study_id":"6197b3f67c2b5cd3b6d9596a","session_id":"6197b892975f25f15e4bb532","condition":"contingent","relevant_dimensions":["antennae","legs"],"bee_group":{"antennae":"A","wings":"X","pattern":"X","legs":"M"},"bonus":1.3600000000000008},{"rt":628.2000000029802,"stimulus":"bees-with-color/bee-A2SM.svg","response":1,"trial_type":"image-button-response","trial_index":91,"time_elapsed":420004,"internal_node_id":"0.0-4.0-0.42","subject_id":"613a563323e79122a9696123","study_id":"6197b3f67c2b5cd3b6d9596a","session_id":"6197b892975f25f15e4bb532","condition":"contingent","relevant_dimensions":["antennae","legs"],"bee_group":{"antennae":"A","wings":"X","pattern":"X","legs":"M"},"action":"avoid","summary":"good-avoid","bonus":1.3600000000000008},{"rt":677.7999999970198,"stimulus":"\n                    <p><b>Action: <em>avoid</em></b></p>\n                    <p>This is the bee that you just saw.</p>\n                    <img src=\"bees-with-color/bee-A2SM.svg\" width=\"200\">\n                    <p><br>Your bonus pay is unchanged, and remains at $0.84.</p>\n            ","response":0,"trial_type":"html-button-response","trial_index":92,"time_elapsed":420684,"internal_node_id":"0.0-4.0-1.42","subject_id":"613a563323e79122a9696123","study_id":"6197b3f67c2b5cd3b6d9596a","session_id":"6197b892975f25f15e4bb532","condition":"contingent","relevant_dimensions":["antennae","legs"],"bee_group":{"antennae":"A","wings":"X","pattern":"X","legs":"M"},"bonus":1.3600000000000008},{"rt":853.3999999910593,"stimulus":"bees-with-color/bee-A1SM.svg","response":1,"trial_type":"image-button-response","trial_index":93,"time_elapsed":421540,"internal_node_id":"0.0-4.0-0.43","subject_id":"613a563323e79122a9696123","study_id":"6197b3f67c2b5cd3b6d9596a","session_id":"6197b892975f25f15e4bb532","condition":"contingent","relevant_dimensions":["antennae","legs"],"bee_group":{"antennae":"A","wings":"X","pattern":"X","legs":"M"},"action":"avoid","summary":"good-avoid","bonus":1.3600000000000008},{"rt":564.8999999910593,"stimulus":"\n                    <p><b>Action: <em>avoid</em></b></p>\n                    <p>This is the bee that you just saw.</p>\n                    <img src=\"bees-with-color/bee-A1SM.svg\" width=\"200\">\n                    <p><br>Your bonus pay is unchanged, and remains at $0.84.</p>\n            ","response":0,"trial_type":"html-button-response","trial_index":94,"time_elapsed":422108,"internal_node_id":"0.0-4.0-1.43","subject_id":"613a563323e79122a9696123","study_id":"6197b3f67c2b5cd3b6d9596a","session_id":"6197b892975f25f15e4bb532","condition":"contingent","relevant_dimensions":["antennae","legs"],"bee_group":{"antennae":"A","wings":"X","pattern":"X","legs":"M"},"bonus":1.3600000000000008},{"rt":1285.9000000059605,"stimulus":"bees-with-color/bee-A1DF.svg","response":1,"trial_type":"image-button-response","trial_index":95,"time_elapsed":423396,"internal_node_id":"0.0-4.0-0.44","subject_id":"613a563323e79122a9696123","study_id":"6197b3f67c2b5cd3b6d9596a","session_id":"6197b892975f25f15e4bb532","condition":"contingent","relevant_dimensions":["antennae","legs"],"bee_group":{"antennae":"A","wings":"X","pattern":"X","legs":"M"},"action":"avoid","summary":"bad-avoid","bonus":1.3600000000000008},{"rt":2939.2999999970198,"stimulus":"\n                    <p><b>Action: <em>avoid</em></b></p>\n                    <p>This is the bee that you just saw.</p>\n                    <img src=\"bees-with-color/bee-A1DF.svg\" width=\"200\">\n                    <p><br>Your bonus pay is unchanged, and remains at $0.84.</p>\n            ","response":0,"trial_type":"html-button-response","trial_index":96,"time_elapsed":426339,"internal_node_id":"0.0-4.0-1.44","subject_id":"613a563323e79122a9696123","study_id":"6197b3f67c2b5cd3b6d9596a","session_id":"6197b892975f25f15e4bb532","condition":"contingent","relevant_dimensions":["antennae","legs"],"bee_group":{"antennae":"A","wings":"X","pattern":"X","legs":"M"},"bonus":1.3600000000000008},{"rt":885.2000000029802,"stimulus":"bees-with-color/bee-B2SF.svg","response":0,"trial_type":"image-button-response","trial_index":97,"time_elapsed":427228,"internal_node_id":"0.0-4.0-0.45","subject_id":"613a563323e79122a9696123","study_id":"6197b3f67c2b5cd3b6d9596a","session_id":"6197b892975f25f15e4bb532","condition":"contingent","relevant_dimensions":["antennae","legs"],"bee_group":{"antennae":"A","wings":"X","pattern":"X","legs":"M"},"action":"harvest","summary":"good-harvest","bonus":1.3600000000000008},{"rt":621.2999999970198,"stimulus":"\n                    <p><b>Action: <em>harvest</em></b></p>\n                    <p>This is the bee that you just saw.</p>\n                    <img src=\"bees-with-color/bee-B2SF.svg\" width=\"200\">\n                    <p><span class=\"greenText\"><b>Successful harvest!</b></span><br>Your pay has increased by $0.02. Your bonus pay is now $0.86.</p>\n            ","response":0,"trial_type":"html-button-response","trial_index":98,"time_elapsed":427852,"internal_node_id":"0.0-4.0-1.45","subject_id":"613a563323e79122a9696123","study_id":"6197b3f67c2b5cd3b6d9596a","session_id":"6197b892975f25f15e4bb532","condition":"contingent","relevant_dimensions":["antennae","legs"],"bee_group":{"antennae":"A","wings":"X","pattern":"X","legs":"M"},"bonus":1.3600000000000008},{"rt":829.1000000089407,"stimulus":"bees-with-color/bee-B2DM.svg","response":0,"trial_type":"image-button-response","trial_index":99,"time_elapsed":428683,"internal_node_id":"0.0-4.0-0.46","subject_id":"613a563323e79122a9696123","study_id":"6197b3f67c2b5cd3b6d9596a","session_id":"6197b892975f25f15e4bb532","condition":"contingent","relevant_dimensions":["antennae","legs"],"bee_group":{"antennae":"A","wings":"X","pattern":"X","legs":"M"},"action":"harvest","summary":"good-harvest","bonus":1.3600000000000008},{"rt":740.4000000059605,"stimulus":"\n                    <p><b>Action: <em>harvest</em></b></p>\n                    <p>This is the bee that you just saw.</p>\n                    <img src=\"bees-with-color/bee-B2DM.svg\" width=\"200\">\n                    <p><span class=\"greenText\"><b>Successful harvest!</b></span><br>Your pay has increased by $0.02. Your bonus pay is now $0.88.</p>\n            ","response":0,"trial_type":"html-button-response","trial_index":100,"time_elapsed":429426,"internal_node_id":"0.0-4.0-1.46","subject_id":"613a563323e79122a9696123","study_id":"6197b3f67c2b5cd3b6d9596a","session_id":"6197b892975f25f15e4bb532","condition":"contingent","relevant_dimensions":["antennae","legs"],"bee_group":{"antennae":"A","wings":"X","pattern":"X","legs":"M"},"bonus":1.3600000000000008},{"rt":973.9000000059605,"stimulus":"bees-with-color/bee-A1SF.svg","response":1,"trial_type":"image-button-response","trial_index":101,"time_elapsed":430403,"internal_node_id":"0.0-4.0-0.47","subject_id":"613a563323e79122a9696123","study_id":"6197b3f67c2b5cd3b6d9596a","session_id":"6197b892975f25f15e4bb532","condition":"contingent","relevant_dimensions":["antennae","legs"],"bee_group":{"antennae":"A","wings":"X","pattern":"X","legs":"M"},"action":"avoid","summary":"bad-avoid","bonus":1.3600000000000008},{"rt":821,"stimulus":"\n                    <p><b>Action: <em>avoid</em></b></p>\n                    <p>This is the bee that you just saw.</p>\n                    <img src=\"bees-with-color/bee-A1SF.svg\" width=\"200\">\n                    <p><br>Your bonus pay is unchanged, and remains at $0.88.</p>\n            ","response":0,"trial_type":"html-button-response","trial_index":102,"time_elapsed":431227,"internal_node_id":"0.0-4.0-1.47","subject_id":"613a563323e79122a9696123","study_id":"6197b3f67c2b5cd3b6d9596a","session_id":"6197b892975f25f15e4bb532","condition":"contingent","relevant_dimensions":["antennae","legs"],"bee_group":{"antennae":"A","wings":"X","pattern":"X","legs":"M"},"bonus":1.3600000000000008},{"rt":861,"stimulus":"bees-with-color/bee-B1SF.svg","response":0,"trial_type":"image-button-response","trial_index":103,"time_elapsed":432091,"internal_node_id":"0.0-4.0-0.48","subject_id":"613a563323e79122a9696123","study_id":"6197b3f67c2b5cd3b6d9596a","session_id":"6197b892975f25f15e4bb532","condition":"contingent","relevant_dimensions":["antennae","legs"],"bee_group":{"antennae":"A","wings":"X","pattern":"X","legs":"M"},"action":"harvest","summary":"good-harvest","bonus":1.3600000000000008},{"rt":693.3999999910593,"stimulus":"\n                    <p><b>Action: <em>harvest</em></b></p>\n                    <p>This is the bee that you just saw.</p>\n                    <img src=\"bees-with-color/bee-B1SF.svg\" width=\"200\">\n                    <p><span class=\"greenText\"><b>Successful harvest!</b></span><br>Your pay has increased by $0.02. Your bonus pay is now $0.90.</p>\n            ","response":0,"trial_type":"html-button-response","trial_index":104,"time_elapsed":432787,"internal_node_id":"0.0-4.0-1.48","subject_id":"613a563323e79122a9696123","study_id":"6197b3f67c2b5cd3b6d9596a","session_id":"6197b892975f25f15e4bb532","condition":"contingent","relevant_dimensions":["antennae","legs"],"bee_group":{"antennae":"A","wings":"X","pattern":"X","legs":"M"},"bonus":1.3600000000000008},{"rt":716.7999999970198,"stimulus":"bees-with-color/bee-A1SF.svg","response":1,"trial_type":"image-button-response","trial_index":105,"time_elapsed":433507,"internal_node_id":"0.0-4.0-0.49","subject_id":"613a563323e79122a9696123","study_id":"6197b3f67c2b5cd3b6d9596a","session_id":"6197b892975f25f15e4bb532","condition":"contingent","relevant_dimensions":["antennae","legs"],"bee_group":{"antennae":"A","wings":"X","pattern":"X","legs":"M"},"action":"avoid","summary":"bad-avoid","bonus":1.3600000000000008},{"rt":492,"stimulus":"\n                    <p><b>Action: <em>avoid</em></b></p>\n                    <p>This is the bee that you just saw.</p>\n                    <img src=\"bees-with-color/bee-A1SF.svg\" width=\"200\">\n                    <p><br>Your bonus pay is unchanged, and remains at $0.90.</p>\n            ","response":0,"trial_type":"html-button-response","trial_index":106,"time_elapsed":434002,"internal_node_id":"0.0-4.0-1.49","subject_id":"613a563323e79122a9696123","study_id":"6197b3f67c2b5cd3b6d9596a","session_id":"6197b892975f25f15e4bb532","condition":"contingent","relevant_dimensions":["antennae","legs"],"bee_group":{"antennae":"A","wings":"X","pattern":"X","legs":"M"},"bonus":1.3600000000000008},{"rt":781.7999999970198,"stimulus":"bees-with-color/bee-A2DF.svg","response":1,"trial_type":"image-button-response","trial_index":107,"time_elapsed":434787,"internal_node_id":"0.0-4.0-0.50","subject_id":"613a563323e79122a9696123","study_id":"6197b3f67c2b5cd3b6d9596a","session_id":"6197b892975f25f15e4bb532","condition":"contingent","relevant_dimensions":["antennae","legs"],"bee_group":{"antennae":"A","wings":"X","pattern":"X","legs":"M"},"action":"avoid","summary":"bad-avoid","bonus":1.3600000000000008},{"rt":556.4000000059605,"stimulus":"\n                    <p><b>Action: <em>avoid</em></b></p>\n                    <p>This is the bee that you just saw.</p>\n                    <img src=\"bees-with-color/bee-A2DF.svg\" width=\"200\">\n                    <p><br>Your bonus pay is unchanged, and remains at $0.90.</p>\n            ","response":0,"trial_type":"html-button-response","trial_index":108,"time_elapsed":435347,"internal_node_id":"0.0-4.0-1.50","subject_id":"613a563323e79122a9696123","study_id":"6197b3f67c2b5cd3b6d9596a","session_id":"6197b892975f25f15e4bb532","condition":"contingent","relevant_dimensions":["antennae","legs"],"bee_group":{"antennae":"A","wings":"X","pattern":"X","legs":"M"},"bonus":1.3600000000000008},{"rt":643.7999999970198,"stimulus":"bees-with-color/bee-A2DM.svg","response":1,"trial_type":"image-button-response","trial_index":109,"time_elapsed":435994,"internal_node_id":"0.0-4.0-0.51","subject_id":"613a563323e79122a9696123","study_id":"6197b3f67c2b5cd3b6d9596a","session_id":"6197b892975f25f15e4bb532","condition":"contingent","relevant_dimensions":["antennae","legs"],"bee_group":{"antennae":"A","wings":"X","pattern":"X","legs":"M"},"action":"avoid","summary":"good-avoid","bonus":1.3600000000000008},{"rt":556.7999999970198,"stimulus":"\n                    <p><b>Action: <em>avoid</em></b></p>\n                    <p>This is the bee that you just saw.</p>\n                    <img src=\"bees-with-color/bee-A2DM.svg\" width=\"200\">\n                    <p><br>Your bonus pay is unchanged, and remains at $0.90.</p>\n            ","response":0,"trial_type":"html-button-response","trial_index":110,"time_elapsed":436554,"internal_node_id":"0.0-4.0-1.51","subject_id":"613a563323e79122a9696123","study_id":"6197b3f67c2b5cd3b6d9596a","session_id":"6197b892975f25f15e4bb532","condition":"contingent","relevant_dimensions":["antennae","legs"],"bee_group":{"antennae":"A","wings":"X","pattern":"X","legs":"M"},"bonus":1.3600000000000008},{"rt":910.2000000029802,"stimulus":"bees-with-color/bee-B1DM.svg","response":0,"trial_type":"image-button-response","trial_index":111,"time_elapsed":437467,"internal_node_id":"0.0-4.0-0.52","subject_id":"613a563323e79122a9696123","study_id":"6197b3f67c2b5cd3b6d9596a","session_id":"6197b892975f25f15e4bb532","condition":"contingent","relevant_dimensions":["antennae","legs"],"bee_group":{"antennae":"A","wings":"X","pattern":"X","legs":"M"},"action":"harvest","summary":"good-harvest","bonus":1.3600000000000008},{"rt":819.9000000059605,"stimulus":"\n                    <p><b>Action: <em>harvest</em></b></p>\n                    <p>This is the bee that you just saw.</p>\n                    <img src=\"bees-with-color/bee-B1DM.svg\" width=\"200\">\n                    <p><span class=\"greenText\"><b>Successful harvest!</b></span><br>Your pay has increased by $0.02. Your bonus pay is now $0.92.</p>\n            ","response":0,"trial_type":"html-button-response","trial_index":112,"time_elapsed":438290,"internal_node_id":"0.0-4.0-1.52","subject_id":"613a563323e79122a9696123","study_id":"6197b3f67c2b5cd3b6d9596a","session_id":"6197b892975f25f15e4bb532","condition":"contingent","relevant_dimensions":["antennae","legs"],"bee_group":{"antennae":"A","wings":"X","pattern":"X","legs":"M"},"bonus":1.3600000000000008},{"rt":1117.2999999970198,"stimulus":"bees-with-color/bee-B2SM.svg","response":0,"trial_type":"image-button-response","trial_index":113,"time_elapsed":439410,"internal_node_id":"0.0-4.0-0.53","subject_id":"613a563323e79122a9696123","study_id":"6197b3f67c2b5cd3b6d9596a","session_id":"6197b892975f25f15e4bb532","condition":"contingent","relevant_dimensions":["antennae","legs"],"bee_group":{"antennae":"A","wings":"X","pattern":"X","legs":"M"},"action":"harvest","summary":"good-harvest","bonus":1.3600000000000008},{"rt":572.7000000029802,"stimulus":"\n                    <p><b>Action: <em>harvest</em></b></p>\n                    <p>This is the bee that you just saw.</p>\n                    <img src=\"bees-with-color/bee-B2SM.svg\" width=\"200\">\n                    <p><span class=\"greenText\"><b>Successful harvest!</b></span><br>Your pay has increased by $0.02. Your bonus pay is now $0.94.</p>\n            ","response":0,"trial_type":"html-button-response","trial_index":114,"time_elapsed":439986,"internal_node_id":"0.0-4.0-1.53","subject_id":"613a563323e79122a9696123","study_id":"6197b3f67c2b5cd3b6d9596a","session_id":"6197b892975f25f15e4bb532","condition":"contingent","relevant_dimensions":["antennae","legs"],"bee_group":{"antennae":"A","wings":"X","pattern":"X","legs":"M"},"bonus":1.3600000000000008},{"rt":1405.2000000029802,"stimulus":"bees-with-color/bee-B2SF.svg","response":0,"trial_type":"image-button-response","trial_index":115,"time_elapsed":441394,"internal_node_id":"0.0-4.0-0.54","subject_id":"613a563323e79122a9696123","study_id":"6197b3f67c2b5cd3b6d9596a","session_id":"6197b892975f25f15e4bb532","condition":"contingent","relevant_dimensions":["antennae","legs"],"bee_group":{"antennae":"A","wings":"X","pattern":"X","legs":"M"},"action":"harvest","summary":"good-harvest","bonus":1.3600000000000008},{"rt":565,"stimulus":"\n                    <p><b>Action: <em>harvest</em></b></p>\n                    <p>This is the bee that you just saw.</p>\n                    <img src=\"bees-with-color/bee-B2SF.svg\" width=\"200\">\n                    <p><span class=\"greenText\"><b>Successful harvest!</b></span><br>Your pay has increased by $0.02. Your bonus pay is now $0.96.</p>\n            ","response":0,"trial_type":"html-button-response","trial_index":116,"time_elapsed":441962,"internal_node_id":"0.0-4.0-1.54","subject_id":"613a563323e79122a9696123","study_id":"6197b3f67c2b5cd3b6d9596a","session_id":"6197b892975f25f15e4bb532","condition":"contingent","relevant_dimensions":["antennae","legs"],"bee_group":{"antennae":"A","wings":"X","pattern":"X","legs":"M"},"bonus":1.3600000000000008},{"rt":804.7999999970198,"stimulus":"bees-with-color/bee-A1SM.svg","response":1,"trial_type":"image-button-response","trial_index":117,"time_elapsed":442769,"internal_node_id":"0.0-4.0-0.55","subject_id":"613a563323e79122a9696123","study_id":"6197b3f67c2b5cd3b6d9596a","session_id":"6197b892975f25f15e4bb532","condition":"contingent","relevant_dimensions":["antennae","legs"],"bee_group":{"antennae":"A","wings":"X","pattern":"X","legs":"M"},"action":"avoid","summary":"good-avoid","bonus":1.3600000000000008},{"rt":572.9000000059605,"stimulus":"\n                    <p><b>Action: <em>avoid</em></b></p>\n                    <p>This is the bee that you just saw.</p>\n                    <img src=\"bees-with-color/bee-A1SM.svg\" width=\"200\">\n                    <p><br>Your bonus pay is unchanged, and remains at $0.96.</p>\n            ","response":0,"trial_type":"html-button-response","trial_index":118,"time_elapsed":443345,"internal_node_id":"0.0-4.0-1.55","subject_id":"613a563323e79122a9696123","study_id":"6197b3f67c2b5cd3b6d9596a","session_id":"6197b892975f25f15e4bb532","condition":"contingent","relevant_dimensions":["antennae","legs"],"bee_group":{"antennae":"A","wings":"X","pattern":"X","legs":"M"},"bonus":1.3600000000000008},{"rt":700.3999999910593,"stimulus":"bees-with-color/bee-B1DF.svg","response":0,"trial_type":"image-button-response","trial_index":119,"time_elapsed":444050,"internal_node_id":"0.0-4.0-0.56","subject_id":"613a563323e79122a9696123","study_id":"6197b3f67c2b5cd3b6d9596a","session_id":"6197b892975f25f15e4bb532","condition":"contingent","relevant_dimensions":["antennae","legs"],"bee_group":{"antennae":"A","wings":"X","pattern":"X","legs":"M"},"action":"harvest","summary":"good-harvest","bonus":1.3600000000000008},{"rt":436.70000000298023,"stimulus":"\n                    <p><b>Action: <em>harvest</em></b></p>\n                    <p>This is the bee that you just saw.</p>\n                    <img src=\"bees-with-color/bee-B1DF.svg\" width=\"200\">\n                    <p><span class=\"greenText\"><b>Successful harvest!</b></span><br>Your pay has increased by $0.02. Your bonus pay is now $0.98.</p>\n            ","response":0,"trial_type":"html-button-response","trial_index":120,"time_elapsed":444490,"internal_node_id":"0.0-4.0-1.56","subject_id":"613a563323e79122a9696123","study_id":"6197b3f67c2b5cd3b6d9596a","session_id":"6197b892975f25f15e4bb532","condition":"contingent","relevant_dimensions":["antennae","legs"],"bee_group":{"antennae":"A","wings":"X","pattern":"X","legs":"M"},"bonus":1.3600000000000008},{"rt":1357.7000000029802,"stimulus":"bees-with-color/bee-B2DM.svg","response":0,"trial_type":"image-button-response","trial_index":121,"time_elapsed":445851,"internal_node_id":"0.0-4.0-0.57","subject_id":"613a563323e79122a9696123","study_id":"6197b3f67c2b5cd3b6d9596a","session_id":"6197b892975f25f15e4bb532","condition":"contingent","relevant_dimensions":["antennae","legs"],"bee_group":{"antennae":"A","wings":"X","pattern":"X","legs":"M"},"action":"harvest","summary":"good-harvest","bonus":1.3600000000000008},{"rt":659,"stimulus":"\n                    <p><b>Action: <em>harvest</em></b></p>\n                    <p>This is the bee that you just saw.</p>\n                    <img src=\"bees-with-color/bee-B2DM.svg\" width=\"200\">\n                    <p><span class=\"greenText\"><b>Successful harvest!</b></span><br>Your pay has increased by $0.02. Your bonus pay is now $1.00.</p>\n            ","response":0,"trial_type":"html-button-response","trial_index":122,"time_elapsed":446513,"internal_node_id":"0.0-4.0-1.57","subject_id":"613a563323e79122a9696123","study_id":"6197b3f67c2b5cd3b6d9596a","session_id":"6197b892975f25f15e4bb532","condition":"contingent","relevant_dimensions":["antennae","legs"],"bee_group":{"antennae":"A","wings":"X","pattern":"X","legs":"M"},"bonus":1.3600000000000008},{"rt":699.7999999970198,"stimulus":"bees-with-color/bee-A1DF.svg","response":1,"trial_type":"image-button-response","trial_index":123,"time_elapsed":447217,"internal_node_id":"0.0-4.0-0.58","subject_id":"613a563323e79122a9696123","study_id":"6197b3f67c2b5cd3b6d9596a","session_id":"6197b892975f25f15e4bb532","condition":"contingent","relevant_dimensions":["antennae","legs"],"bee_group":{"antennae":"A","wings":"X","pattern":"X","legs":"M"},"action":"avoid","summary":"bad-avoid","bonus":1.3600000000000008},{"rt":604.5999999940395,"stimulus":"\n                    <p><b>Action: <em>avoid</em></b></p>\n                    <p>This is the bee that you just saw.</p>\n                    <img src=\"bees-with-color/bee-A1DF.svg\" width=\"200\">\n                    <p><br>Your bonus pay is unchanged, and remains at $1.00.</p>\n            ","response":0,"trial_type":"html-button-response","trial_index":124,"time_elapsed":447825,"internal_node_id":"0.0-4.0-1.58","subject_id":"613a563323e79122a9696123","study_id":"6197b3f67c2b5cd3b6d9596a","session_id":"6197b892975f25f15e4bb532","condition":"contingent","relevant_dimensions":["antennae","legs"],"bee_group":{"antennae":"A","wings":"X","pattern":"X","legs":"M"},"bonus":1.3600000000000008},{"rt":860.1000000089407,"stimulus":"bees-with-color/bee-B1SM.svg","response":0,"trial_type":"image-button-response","trial_index":125,"time_elapsed":448689,"internal_node_id":"0.0-4.0-0.59","subject_id":"613a563323e79122a9696123","study_id":"6197b3f67c2b5cd3b6d9596a","session_id":"6197b892975f25f15e4bb532","condition":"contingent","relevant_dimensions":["antennae","legs"],"bee_group":{"antennae":"A","wings":"X","pattern":"X","legs":"M"},"action":"harvest","summary":"good-harvest","bonus":1.3600000000000008},{"rt":621.8999999910593,"stimulus":"\n                    <p><b>Action: <em>harvest</em></b></p>\n                    <p>This is the bee that you just saw.</p>\n                    <img src=\"bees-with-color/bee-B1SM.svg\" width=\"200\">\n                    <p><span class=\"greenText\"><b>Successful harvest!</b></span><br>Your pay has increased by $0.02. Your bonus pay is now $1.02.</p>\n            ","response":0,"trial_type":"html-button-response","trial_index":126,"time_elapsed":449314,"internal_node_id":"0.0-4.0-1.59","subject_id":"613a563323e79122a9696123","study_id":"6197b3f67c2b5cd3b6d9596a","session_id":"6197b892975f25f15e4bb532","condition":"contingent","relevant_dimensions":["antennae","legs"],"bee_group":{"antennae":"A","wings":"X","pattern":"X","legs":"M"},"bonus":1.3600000000000008},{"rt":1001.1000000089407,"stimulus":"bees-with-color/bee-A1DM.svg","response":1,"trial_type":"image-button-response","trial_index":127,"time_elapsed":450321,"internal_node_id":"0.0-4.0-0.60","subject_id":"613a563323e79122a9696123","study_id":"6197b3f67c2b5cd3b6d9596a","session_id":"6197b892975f25f15e4bb532","condition":"contingent","relevant_dimensions":["antennae","legs"],"bee_group":{"antennae":"A","wings":"X","pattern":"X","legs":"M"},"action":"avoid","summary":"good-avoid","bonus":1.3600000000000008},{"rt":596.7000000029802,"stimulus":"\n                    <p><b>Action: <em>avoid</em></b></p>\n                    <p>This is the bee that you just saw.</p>\n                    <img src=\"bees-with-color/bee-A1DM.svg\" width=\"200\">\n                    <p><br>Your bonus pay is unchanged, and remains at $1.02.</p>\n            ","response":0,"trial_type":"html-button-response","trial_index":128,"time_elapsed":450921,"internal_node_id":"0.0-4.0-1.60","subject_id":"613a563323e79122a9696123","study_id":"6197b3f67c2b5cd3b6d9596a","session_id":"6197b892975f25f15e4bb532","condition":"contingent","relevant_dimensions":["antennae","legs"],"bee_group":{"antennae":"A","wings":"X","pattern":"X","legs":"M"},"bonus":1.3600000000000008},{"rt":749.2999999970198,"stimulus":"bees-with-color/bee-B2DF.svg","response":0,"trial_type":"image-button-response","trial_index":129,"time_elapsed":451673,"internal_node_id":"0.0-4.0-0.61","subject_id":"613a563323e79122a9696123","study_id":"6197b3f67c2b5cd3b6d9596a","session_id":"6197b892975f25f15e4bb532","condition":"contingent","relevant_dimensions":["antennae","legs"],"bee_group":{"antennae":"A","wings":"X","pattern":"X","legs":"M"},"action":"harvest","summary":"good-harvest","bonus":1.3600000000000008},{"rt":555.5,"stimulus":"\n                    <p><b>Action: <em>harvest</em></b></p>\n                    <p>This is the bee that you just saw.</p>\n                    <img src=\"bees-with-color/bee-B2DF.svg\" width=\"200\">\n                    <p><span class=\"greenText\"><b>Successful harvest!</b></span><br>Your pay has increased by $0.02. Your bonus pay is now $1.04.</p>\n            ","response":0,"trial_type":"html-button-response","trial_index":130,"time_elapsed":452234,"internal_node_id":"0.0-4.0-1.61","subject_id":"613a563323e79122a9696123","study_id":"6197b3f67c2b5cd3b6d9596a","session_id":"6197b892975f25f15e4bb532","condition":"contingent","relevant_dimensions":["antennae","legs"],"bee_group":{"antennae":"A","wings":"X","pattern":"X","legs":"M"},"bonus":1.3600000000000008},{"rt":867.7999999970198,"stimulus":"bees-with-color/bee-A2SF.svg","response":1,"trial_type":"image-button-response","trial_index":131,"time_elapsed":453105,"internal_node_id":"0.0-4.0-0.62","subject_id":"613a563323e79122a9696123","study_id":"6197b3f67c2b5cd3b6d9596a","session_id":"6197b892975f25f15e4bb532","condition":"contingent","relevant_dimensions":["antennae","legs"],"bee_group":{"antennae":"A","wings":"X","pattern":"X","legs":"M"},"action":"avoid","summary":"bad-avoid","bonus":1.3600000000000008},{"rt":533.4000000059605,"stimulus":"\n                    <p><b>Action: <em>avoid</em></b></p>\n                    <p>This is the bee that you just saw.</p>\n                    <img src=\"bees-with-color/bee-A2SF.svg\" width=\"200\">\n                    <p><br>Your bonus pay is unchanged, and remains at $1.04.</p>\n            ","response":0,"trial_type":"html-button-response","trial_index":132,"time_elapsed":453641,"internal_node_id":"0.0-4.0-1.62","subject_id":"613a563323e79122a9696123","study_id":"6197b3f67c2b5cd3b6d9596a","session_id":"6197b892975f25f15e4bb532","condition":"contingent","relevant_dimensions":["antennae","legs"],"bee_group":{"antennae":"A","wings":"X","pattern":"X","legs":"M"},"bonus":1.3600000000000008},{"rt":996,"stimulus":"bees-with-color/bee-A2SM.svg","response":1,"trial_type":"image-button-response","trial_index":133,"time_elapsed":454640,"internal_node_id":"0.0-4.0-0.63","subject_id":"613a563323e79122a9696123","study_id":"6197b3f67c2b5cd3b6d9596a","session_id":"6197b892975f25f15e4bb532","condition":"contingent","relevant_dimensions":["antennae","legs"],"bee_group":{"antennae":"A","wings":"X","pattern":"X","legs":"M"},"action":"avoid","summary":"good-avoid","bonus":1.3600000000000008},{"rt":1222.0999999940395,"stimulus":"\n                    <p><b>Action: <em>avoid</em></b></p>\n                    <p>This is the bee that you just saw.</p>\n                    <img src=\"bees-with-color/bee-A2SM.svg\" width=\"200\">\n                    <p><br>Your bonus pay is unchanged, and remains at $1.04.</p>\n            ","response":0,"trial_type":"html-button-response","trial_index":134,"time_elapsed":455866,"internal_node_id":"0.0-4.0-1.63","subject_id":"613a563323e79122a9696123","study_id":"6197b3f67c2b5cd3b6d9596a","session_id":"6197b892975f25f15e4bb532","condition":"contingent","relevant_dimensions":["antennae","legs"],"bee_group":{"antennae":"A","wings":"X","pattern":"X","legs":"M"},"bonus":1.3600000000000008},{"rt":22308.90000000596,"stimulus":"You have completed the first part of this experiment.<br><br>You will now begin a shorter second part, in which you will receive no feedback.<br>The same rules regarding bonus pay apply.<br><br>Press any key to begin.","response":"enter","trial_type":"html-keyboard-response","trial_index":135,"time_elapsed":478177,"internal_node_id":"0.0-5.0","subject_id":"613a563323e79122a9696123","study_id":"6197b3f67c2b5cd3b6d9596a","session_id":"6197b892975f25f15e4bb532","condition":"contingent","relevant_dimensions":["antennae","legs"],"bee_group":{"antennae":"A","wings":"X","pattern":"X","legs":"M"},"bonus":1.3600000000000008},{"rt":1684.5,"stimulus":"bees-with-color/bee-B2DM.svg","response":0,"trial_type":"image-button-response","trial_index":136,"time_elapsed":479877,"internal_node_id":"0.0-6.0-0.0","subject_id":"613a563323e79122a9696123","study_id":"6197b3f67c2b5cd3b6d9596a","session_id":"6197b892975f25f15e4bb532","condition":"contingent","relevant_dimensions":["antennae","legs"],"bee_group":{"antennae":"A","wings":"X","pattern":"X","legs":"M"},"bonus":1.3600000000000008},{"rt":2347.2999999970198,"stimulus":"bees-with-color/bee-B1SM.svg","response":0,"trial_type":"image-button-response","trial_index":137,"time_elapsed":482228,"internal_node_id":"0.0-6.0-0.1","subject_id":"613a563323e79122a9696123","study_id":"6197b3f67c2b5cd3b6d9596a","session_id":"6197b892975f25f15e4bb532","condition":"contingent","relevant_dimensions":["antennae","legs"],"bee_group":{"antennae":"A","wings":"X","pattern":"X","legs":"M"},"bonus":1.3600000000000008},{"rt":970.1999999880791,"stimulus":"bees-with-color/bee-B1DM.svg","response":0,"trial_type":"image-button-response","trial_index":138,"time_elapsed":483204,"internal_node_id":"0.0-6.0-0.2","subject_id":"613a563323e79122a9696123","study_id":"6197b3f67c2b5cd3b6d9596a","session_id":"6197b892975f25f15e4bb532","condition":"contingent","relevant_dimensions":["antennae","legs"],"bee_group":{"antennae":"A","wings":"X","pattern":"X","legs":"M"},"bonus":1.3600000000000008},{"rt":787.8999999910593,"stimulus":"bees-with-color/bee-A2DF.svg","response":1,"trial_type":"image-button-response","trial_index":139,"time_elapsed":483997,"internal_node_id":"0.0-6.0-0.3","subject_id":"613a563323e79122a9696123","study_id":"6197b3f67c2b5cd3b6d9596a","session_id":"6197b892975f25f15e4bb532","condition":"contingent","relevant_dimensions":["antennae","legs"],"bee_group":{"antennae":"A","wings":"X","pattern":"X","legs":"M"},"bonus":1.3600000000000008},{"rt":659.2999999970198,"stimulus":"bees-with-color/bee-A1SF.svg","response":1,"trial_type":"image-button-response","trial_index":140,"time_elapsed":484661,"internal_node_id":"0.0-6.0-0.4","subject_id":"613a563323e79122a9696123","study_id":"6197b3f67c2b5cd3b6d9596a","session_id":"6197b892975f25f15e4bb532","condition":"contingent","relevant_dimensions":["antennae","legs"],"bee_group":{"antennae":"A","wings":"X","pattern":"X","legs":"M"},"bonus":1.3600000000000008},{"rt":728.8999999910593,"stimulus":"bees-with-color/bee-A1SM.svg","response":1,"trial_type":"image-button-response","trial_index":141,"time_elapsed":485397,"internal_node_id":"0.0-6.0-0.5","subject_id":"613a563323e79122a9696123","study_id":"6197b3f67c2b5cd3b6d9596a","session_id":"6197b892975f25f15e4bb532","condition":"contingent","relevant_dimensions":["antennae","legs"],"bee_group":{"antennae":"A","wings":"X","pattern":"X","legs":"M"},"bonus":1.3600000000000008},{"rt":874.4000000059605,"stimulus":"bees-with-color/bee-B2SF.svg","response":0,"trial_type":"image-button-response","trial_index":142,"time_elapsed":486277,"internal_node_id":"0.0-6.0-0.6","subject_id":"613a563323e79122a9696123","study_id":"6197b3f67c2b5cd3b6d9596a","session_id":"6197b892975f25f15e4bb532","condition":"contingent","relevant_dimensions":["antennae","legs"],"bee_group":{"antennae":"A","wings":"X","pattern":"X","legs":"M"},"bonus":1.3600000000000008},{"rt":858.9000000059605,"stimulus":"bees-with-color/bee-A2SM.svg","response":1,"trial_type":"image-button-response","trial_index":143,"time_elapsed":487140,"internal_node_id":"0.0-6.0-0.7","subject_id":"613a563323e79122a9696123","study_id":"6197b3f67c2b5cd3b6d9596a","session_id":"6197b892975f25f15e4bb532","condition":"contingent","relevant_dimensions":["antennae","legs"],"bee_group":{"antennae":"A","wings":"X","pattern":"X","legs":"M"},"bonus":1.3600000000000008},{"rt":763.5999999940395,"stimulus":"bees-with-color/bee-B2SM.svg","response":0,"trial_type":"image-button-response","trial_index":144,"time_elapsed":487908,"internal_node_id":"0.0-6.0-0.8","subject_id":"613a563323e79122a9696123","study_id":"6197b3f67c2b5cd3b6d9596a","session_id":"6197b892975f25f15e4bb532","condition":"contingent","relevant_dimensions":["antennae","legs"],"bee_group":{"antennae":"A","wings":"X","pattern":"X","legs":"M"},"bonus":1.3600000000000008},{"rt":812.5,"stimulus":"bees-with-color/bee-B2DF.svg","response":0,"trial_type":"image-button-response","trial_index":145,"time_elapsed":488724,"internal_node_id":"0.0-6.0-0.9","subject_id":"613a563323e79122a9696123","study_id":"6197b3f67c2b5cd3b6d9596a","session_id":"6197b892975f25f15e4bb532","condition":"contingent","relevant_dimensions":["antennae","legs"],"bee_group":{"antennae":"A","wings":"X","pattern":"X","legs":"M"},"bonus":1.3600000000000008},{"rt":1794.7999999970198,"stimulus":"bees-with-color/bee-A2SF.svg","response":1,"trial_type":"image-button-response","trial_index":146,"time_elapsed":490523,"internal_node_id":"0.0-6.0-0.10","subject_id":"613a563323e79122a9696123","study_id":"6197b3f67c2b5cd3b6d9596a","session_id":"6197b892975f25f15e4bb532","condition":"contingent","relevant_dimensions":["antennae","legs"],"bee_group":{"antennae":"A","wings":"X","pattern":"X","legs":"M"},"bonus":1.3600000000000008},{"rt":748.2000000029802,"stimulus":"bees-with-color/bee-A2DM.svg","response":1,"trial_type":"image-button-response","trial_index":147,"time_elapsed":491275,"internal_node_id":"0.0-6.0-0.11","subject_id":"613a563323e79122a9696123","study_id":"6197b3f67c2b5cd3b6d9596a","session_id":"6197b892975f25f15e4bb532","condition":"contingent","relevant_dimensions":["antennae","legs"],"bee_group":{"antennae":"A","wings":"X","pattern":"X","legs":"M"},"bonus":1.3600000000000008},{"rt":1099.9000000059605,"stimulus":"bees-with-color/bee-A1DF.svg","response":1,"trial_type":"image-button-response","trial_index":148,"time_elapsed":492379,"internal_node_id":"0.0-6.0-0.12","subject_id":"613a563323e79122a9696123","study_id":"6197b3f67c2b5cd3b6d9596a","session_id":"6197b892975f25f15e4bb532","condition":"contingent","relevant_dimensions":["antennae","legs"],"bee_group":{"antennae":"A","wings":"X","pattern":"X","legs":"M"},"bonus":1.3600000000000008},{"rt":1034.5999999940395,"stimulus":"bees-with-color/bee-B1SF.svg","response":0,"trial_type":"image-button-response","trial_index":149,"time_elapsed":493419,"internal_node_id":"0.0-6.0-0.13","subject_id":"613a563323e79122a9696123","study_id":"6197b3f67c2b5cd3b6d9596a","session_id":"6197b892975f25f15e4bb532","condition":"contingent","relevant_dimensions":["antennae","legs"],"bee_group":{"antennae":"A","wings":"X","pattern":"X","legs":"M"},"bonus":1.3600000000000008},{"rt":547.4000000059605,"stimulus":"bees-with-color/bee-B1DF.svg","response":0,"trial_type":"image-button-response","trial_index":150,"time_elapsed":493971,"internal_node_id":"0.0-6.0-0.14","subject_id":"613a563323e79122a9696123","study_id":"6197b3f67c2b5cd3b6d9596a","session_id":"6197b892975f25f15e4bb532","condition":"contingent","relevant_dimensions":["antennae","legs"],"bee_group":{"antennae":"A","wings":"X","pattern":"X","legs":"M"},"bonus":1.3600000000000008},{"rt":828.5,"stimulus":"bees-with-color/bee-A1DM.svg","response":1,"trial_type":"image-button-response","trial_index":151,"time_elapsed":494803,"internal_node_id":"0.0-6.0-0.15","subject_id":"613a563323e79122a9696123","study_id":"6197b3f67c2b5cd3b6d9596a","session_id":"6197b892975f25f15e4bb532","condition":"contingent","relevant_dimensions":["antennae","legs"],"bee_group":{"antennae":"A","wings":"X","pattern":"X","legs":"M"},"bonus":1.3600000000000008},{"rt":1900.5,"stimulus":"bees-with-color/bee-B1SF.svg","response":0,"trial_type":"image-button-response","trial_index":152,"time_elapsed":496707,"internal_node_id":"0.0-6.0-0.16","subject_id":"613a563323e79122a9696123","study_id":"6197b3f67c2b5cd3b6d9596a","session_id":"6197b892975f25f15e4bb532","condition":"contingent","relevant_dimensions":["antennae","legs"],"bee_group":{"antennae":"A","wings":"X","pattern":"X","legs":"M"},"bonus":1.3600000000000008},{"rt":2508.2000000029802,"stimulus":"bees-with-color/bee-A2DF.svg","response":1,"trial_type":"image-button-response","trial_index":153,"time_elapsed":499218,"internal_node_id":"0.0-6.0-0.17","subject_id":"613a563323e79122a9696123","study_id":"6197b3f67c2b5cd3b6d9596a","session_id":"6197b892975f25f15e4bb532","condition":"contingent","relevant_dimensions":["antennae","legs"],"bee_group":{"antennae":"A","wings":"X","pattern":"X","legs":"M"},"bonus":1.3600000000000008},{"rt":605.6999999880791,"stimulus":"bees-with-color/bee-A2DM.svg","response":1,"trial_type":"image-button-response","trial_index":154,"time_elapsed":499826,"internal_node_id":"0.0-6.0-0.18","subject_id":"613a563323e79122a9696123","study_id":"6197b3f67c2b5cd3b6d9596a","session_id":"6197b892975f25f15e4bb532","condition":"contingent","relevant_dimensions":["antennae","legs"],"bee_group":{"antennae":"A","wings":"X","pattern":"X","legs":"M"},"bonus":1.3600000000000008},{"rt":884.3999999910593,"stimulus":"bees-with-color/bee-B2DF.svg","response":0,"trial_type":"image-button-response","trial_index":155,"time_elapsed":500714,"internal_node_id":"0.0-6.0-0.19","subject_id":"613a563323e79122a9696123","study_id":"6197b3f67c2b5cd3b6d9596a","session_id":"6197b892975f25f15e4bb532","condition":"contingent","relevant_dimensions":["antennae","legs"],"bee_group":{"antennae":"A","wings":"X","pattern":"X","legs":"M"},"bonus":1.3600000000000008},{"rt":1427.2999999970198,"stimulus":"bees-with-color/bee-A1DM.svg","response":1,"trial_type":"image-button-response","trial_index":156,"time_elapsed":502146,"internal_node_id":"0.0-6.0-0.20","subject_id":"613a563323e79122a9696123","study_id":"6197b3f67c2b5cd3b6d9596a","session_id":"6197b892975f25f15e4bb532","condition":"contingent","relevant_dimensions":["antennae","legs"],"bee_group":{"antennae":"A","wings":"X","pattern":"X","legs":"M"},"bonus":1.3600000000000008},{"rt":1019.0999999940395,"stimulus":"bees-with-color/bee-B2SM.svg","response":0,"trial_type":"image-button-response","trial_index":157,"time_elapsed":503170,"internal_node_id":"0.0-6.0-0.21","subject_id":"613a563323e79122a9696123","study_id":"6197b3f67c2b5cd3b6d9596a","session_id":"6197b892975f25f15e4bb532","condition":"contingent","relevant_dimensions":["antennae","legs"],"bee_group":{"antennae":"A","wings":"X","pattern":"X","legs":"M"},"bonus":1.3600000000000008},{"rt":764.7999999970198,"stimulus":"bees-with-color/bee-A1SF.svg","response":1,"trial_type":"image-button-response","trial_index":158,"time_elapsed":503938,"internal_node_id":"0.0-6.0-0.22","subject_id":"613a563323e79122a9696123","study_id":"6197b3f67c2b5cd3b6d9596a","session_id":"6197b892975f25f15e4bb532","condition":"contingent","relevant_dimensions":["antennae","legs"],"bee_group":{"antennae":"A","wings":"X","pattern":"X","legs":"M"},"bonus":1.3600000000000008},{"rt":757.2000000029802,"stimulus":"bees-with-color/bee-B1DF.svg","response":0,"trial_type":"image-button-response","trial_index":159,"time_elapsed":504699,"internal_node_id":"0.0-6.0-0.23","subject_id":"613a563323e79122a9696123","study_id":"6197b3f67c2b5cd3b6d9596a","session_id":"6197b892975f25f15e4bb532","condition":"contingent","relevant_dimensions":["antennae","legs"],"bee_group":{"antennae":"A","wings":"X","pattern":"X","legs":"M"},"bonus":1.3600000000000008},{"rt":802.7000000029802,"stimulus":"bees-with-color/bee-A1DF.svg","response":1,"trial_type":"image-button-response","trial_index":160,"time_elapsed":505505,"internal_node_id":"0.0-6.0-0.24","subject_id":"613a563323e79122a9696123","study_id":"6197b3f67c2b5cd3b6d9596a","session_id":"6197b892975f25f15e4bb532","condition":"contingent","relevant_dimensions":["antennae","legs"],"bee_group":{"antennae":"A","wings":"X","pattern":"X","legs":"M"},"bonus":1.3600000000000008},{"rt":731.7999999970198,"stimulus":"bees-with-color/bee-B2SF.svg","response":0,"trial_type":"image-button-response","trial_index":161,"time_elapsed":506241,"internal_node_id":"0.0-6.0-0.25","subject_id":"613a563323e79122a9696123","study_id":"6197b3f67c2b5cd3b6d9596a","session_id":"6197b892975f25f15e4bb532","condition":"contingent","relevant_dimensions":["antennae","legs"],"bee_group":{"antennae":"A","wings":"X","pattern":"X","legs":"M"},"bonus":1.3600000000000008},{"rt":821.0999999940395,"stimulus":"bees-with-color/bee-B2DM.svg","response":0,"trial_type":"image-button-response","trial_index":162,"time_elapsed":507066,"internal_node_id":"0.0-6.0-0.26","subject_id":"613a563323e79122a9696123","study_id":"6197b3f67c2b5cd3b6d9596a","session_id":"6197b892975f25f15e4bb532","condition":"contingent","relevant_dimensions":["antennae","legs"],"bee_group":{"antennae":"A","wings":"X","pattern":"X","legs":"M"},"bonus":1.3600000000000008},{"rt":804.1000000089407,"stimulus":"bees-with-color/bee-B1DM.svg","response":0,"trial_type":"image-button-response","trial_index":163,"time_elapsed":507874,"internal_node_id":"0.0-6.0-0.27","subject_id":"613a563323e79122a9696123","study_id":"6197b3f67c2b5cd3b6d9596a","session_id":"6197b892975f25f15e4bb532","condition":"contingent","relevant_dimensions":["antennae","legs"],"bee_group":{"antennae":"A","wings":"X","pattern":"X","legs":"M"},"bonus":1.3600000000000008},{"rt":794.9000000059605,"stimulus":"bees-with-color/bee-A2SM.svg","response":1,"trial_type":"image-button-response","trial_index":164,"time_elapsed":508673,"internal_node_id":"0.0-6.0-0.28","subject_id":"613a563323e79122a9696123","study_id":"6197b3f67c2b