[{"success":true,"trial_type":"fullscreen","trial_index":0,"time_elapsed":22228,"internal_node_id":"0.0-0.0","subject_id":"5df3a70877f865293e86c0a0","study_id":"6197b3f67c2b5cd3b6d9596a","session_id":"619be32056ea04f6e4607efc","condition":"contingent","relevant_dimensions":["antennae","legs"],"bee_group":{"antennae":"B","wings":"X","pattern":"X","legs":"M"},"bonus":0.10000000000000042},{"success":true,"timeout":false,"failed_images":[],"failed_audio":[],"failed_video":[],"trial_type":"preload","trial_index":1,"time_elapsed":24543,"internal_node_id":"0.0-1.0","subject_id":"5df3a70877f865293e86c0a0","study_id":"6197b3f67c2b5cd3b6d9596a","session_id":"619be32056ea04f6e4607efc","condition":"contingent","relevant_dimensions":["antennae","legs"],"bee_group":{"antennae":"B","wings":"X","pattern":"X","legs":"M"},"bonus":0.10000000000000042},{"rt":2121.100000000559,"stimulus":"Welcome! Press any key to begin.","response":"enter","trial_type":"html-keyboard-response","trial_index":2,"time_elapsed":26665,"internal_node_id":"0.0-2.0","subject_id":"5df3a70877f865293e86c0a0","study_id":"6197b3f67c2b5cd3b6d9596a","session_id":"619be32056ea04f6e4607efc","condition":"contingent","relevant_dimensions":["antennae","legs"],"bee_group":{"antennae":"B","wings":"X","pattern":"X","legs":"M"},"bonus":0.10000000000000042},{"view_history":[{"page_index":0,"viewing_time":3137.9000000003725},{"page_index":1,"viewing_time":4875.799999999814},{"page_index":2,"viewing_time":2666.100000000559},{"page_index":1,"viewing_time":477.09999999962747},{"page_index":2,"viewing_time":1622.9000000003725},{"page_index":3,"viewing_time":4944.899999999441},{"page_index":4,"viewing_time":6067.100000000559},{"page_index":5,"viewing_time":6975},{"page_index":4,"viewing_time":490.8999999994412},{"page_index":5,"viewing_time":304.1000000005588},{"page_index":6,"viewing_time":2911},{"page_index":7,"viewing_time":3260.0999999996275},{"page_index":8,"viewing_time":2681.9000000003725},{"page_index":9,"viewing_time":1817},{"page_index":10,"viewing_time":1364},{"page_index":11,"viewing_time":834},{"page_index":10,"viewing_time":701.7999999998137},{"page_index":9,"viewing_time":582.2999999998137},{"page_index":8,"viewing_time":1014.7999999998137},{"page_index":7,"viewing_time":711.1000000005588},{"page_index":6,"viewing_time":685},{"page_index":7,"viewing_time":1429},{"page_index":8,"viewing_time":635},{"page_index":7,"viewing_time":516.8999999994412},{"page_index":8,"viewing_time":335.1000000005588},{"page_index":9,"viewing_time":310.8999999994412},{"page_index":10,"viewing_time":344.1000000005588},{"page_index":11,"viewing_time":4538.899999999441},{"page_index":12,"viewing_time":3138},{"page_index":13,"viewing_time":825},{"page_index":14,"viewing_time":1413.1000000005588}],"rt":61610.90000000037,"trial_type":"instructions","trial_index":3,"time_elapsed":88276,"internal_node_id":"0.0-3.0-0.0","subject_id":"5df3a70877f865293e86c0a0","study_id":"6197b3f67c2b5cd3b6d9596a","session_id":"619be32056ea04f6e4607efc","condition":"contingent","relevant_dimensions":["antennae","legs"],"bee_group":{"antennae":"B","wings":"X","pattern":"X","legs":"M"},"bonus":0.10000000000000042},{"rt":12282.299999999814,"response":{"Q0":["Two or six legs","Stripes or spots on body","Antennae or no antennae"]},"question_order":[0],"trial_type":"survey-multi-select","trial_index":4,"time_elapsed":100560,"internal_node_id":"0.0-3.0-1.0","subject_id":"5df3a70877f865293e86c0a0","study_id":"6197b3f67c2b5cd3b6d9596a","session_id":"619be32056ea04f6e4607efc","condition":"contingent","relevant_dimensions":["antennae","legs"],"bee_group":{"antennae":"B","wings":"X","pattern":"X","legs":"M"},"correct":false,"bonus":0.10000000000000042},{"rt":24127.599999999627,"response":{"Q1":"No.","Q2":"Based on the four features of the bee.","Q3":"You do not learn if it was friendly or dangerous, and do not alter your bonus."},"question_order":[0,1,2],"trial_type":"survey-multi-choice","trial_index":5,"time_elapsed":124690,"internal_node_id":"0.0-3.0-2.0","subject_id":"5df3a70877f865293e86c0a0","study_id":"6197b3f67c2b5cd3b6d9596a","session_id":"619be32056ea04f6e4607efc","condition":"contingent","relevant_dimensions":["antennae","legs"],"bee_group":{"antennae":"B","wings":"X","pattern":"X","legs":"M"},"correct":true,"bonus":0.10000000000000042},{"rt":1855.9000000003725,"stimulus":"<p>You did not answer all comprehension questions correctly.<br>Press <b>continue</b> to review the instructions again.</p>","response":0,"trial_type":"html-button-response","trial_index":6,"time_elapsed":126547,"internal_node_id":"0.0-3.0-3.0","subject_id":"5df3a70877f865293e86c0a0","study_id":"6197b3f67c2b5cd3b6d9596a","session_id":"619be32056ea04f6e4607efc","condition":"contingent","relevant_dimensions":["antennae","legs"],"bee_group":{"antennae":"B","wings":"X","pattern":"X","legs":"M"},"bonus":0.10000000000000042},{"view_history":[{"page_index":0,"viewing_time":562},{"page_index":1,"viewing_time":1703.1000000005588},{"page_index":2,"viewing_time":788.2999999998137},{"page_index":3,"viewing_time":1008.5},{"page_index":4,"viewing_time":633.0999999996275},{"page_index":5,"viewing_time":928.1000000005588},{"page_index":6,"viewing_time":811.0999999996275},{"page_index":7,"viewing_time":11669.799999999814},{"page_index":8,"viewing_time":3033.2000000001863},{"page_index":9,"viewing_time":2549},{"page_index":10,"viewing_time":4705.799999999814},{"page_index":11,"viewing_time":7155.9000000003725},{"page_index":10,"viewing_time":539.0999999996275},{"page_index":9,"viewing_time":215.1000000005588},{"page_index":8,"viewing_time":280},{"page_index":7,"viewing_time":265},{"page_index":6,"viewing_time":5353},{"page_index":5,"viewing_time":1022},{"page_index":6,"viewing_time":618.8999999994412},{"page_index":7,"viewing_time":698.1000000005588},{"page_index":8,"viewing_time":283.09999999962747},{"page_index":9,"viewing_time":289.90000000037253},{"page_index":10,"viewing_time":356},{"page_index":11,"viewing_time":744},{"page_index":12,"viewing_time":10410},{"page_index":13,"viewing_time":859},{"page_index":14,"viewing_time":1370}],"rt":58851.5,"trial_type":"instructions","trial_index":7,"time_elapsed":185398,"internal_node_id":"0.0-3.0-4.0-0.0","subject_id":"5df3a70877f865293e86c0a0","study_id":"6197b3f67c2b5cd3b6d9596a","session_id":"619be32056ea04f6e4607efc","condition":"contingent","relevant_dimensions":["antennae","legs"],"bee_group":{"antennae":"B","wings":"X","pattern":"X","legs":"M"},"bonus":0.10000000000000042},{"rt":21219.699999999255,"response":{"Q0":["Two or six legs","Stripes or spots on body","Single or double wings","Antennae or no antennae"]},"question_order":[0],"trial_type":"survey-multi-select","trial_index":8,"time_elapsed":206620,"internal_node_id":"0.0-3.0-4.0-1.0","subject_id":"5df3a70877f865293e86c0a0","study_id":"6197b3f67c2b5cd3b6d9596a","session_id":"619be32056ea04f6e4607efc","condition":"contingent","relevant_dimensions":["antennae","legs"],"bee_group":{"antennae":"B","wings":"X","pattern":"X","legs":"M"},"correct":true,"bonus":0.10000000000000042},{"rt":22109.89999999944,"response":{"Q1":"No.","Q2":"Based on the four features of the bee.","Q3":"You do not learn if it was friendly or dangerous, and do not alter your bonus."},"question_order":[0,1,2],"trial_type":"survey-multi-choice","trial_index":9,"time_elapsed":228731,"internal_node_id":"0.0-3.0-4.0-2.0","subject_id":"5df3a70877f865293e86c0a0","study_id":"6197b3f67c2b5cd3b6d9596a","session_id":"619be32056ea04f6e4607efc","condition":"contingent","relevant_dimensions":["antennae","legs"],"bee_group":{"antennae":"B","wings":"X","pattern":"X","legs":"M"},"correct":true,"bonus":0.10000000000000042},{"rt":1380.0999999996275,"stimulus":"<p>Congrats, you got everything right<br>When you're ready, click the button below to continue to the experiment.</p>","response":0,"trial_type":"html-button-response","trial_index":10,"time_elapsed":230112,"internal_node_id":"0.0-3.0-4.0-3.0","subject_id":"5df3a70877f865293e86c0a0","study_id":"6197b3f67c2b5cd3b6d9596a","session_id":"619be32056ea04f6e4607efc","condition":"contingent","relevant_dimensions":["antennae","legs"],"bee_group":{"antennae":"B","wings":"X","pattern":"X","legs":"M"},"bonus":0.10000000000000042},{"rt":1429.300000000745,"stimulus":"bees-with-color/bee-A1SM.svg","response":0,"trial_type":"image-button-response","trial_index":11,"time_elapsed":231543,"internal_node_id":"0.0-4.0-0.0","subject_id":"5df3a70877f865293e86c0a0","study_id":"6197b3f67c2b5cd3b6d9596a","session_id":"619be32056ea04f6e4607efc","condition":"contingent","relevant_dimensions":["antennae","legs"],"bee_group":{"antennae":"B","wings":"X","pattern":"X","legs":"M"},"action":"harvest","summary":"good-harvest","bonus":0.10000000000000042},{"rt":2397.9000000003725,"stimulus":"\n                    <p><b>Action: <em>harvest</em></b></p>\n                    <p>This is the bee that you just saw.</p>\n                    <img src=\"bees-with-color/bee-A1SM.svg\" width=\"200\">\n                    <p><span class=\"greenText\"><b>Successful harvest!</b></span><br>Your pay has increased by $0.02. Your bonus pay is now $0.56.</p>\n            ","response":0,"trial_type":"html-button-response","trial_index":12,"time_elapsed":233942,"internal_node_id":"0.0-4.0-1.0","subject_id":"5df3a70877f865293e86c0a0","study_id":"6197b3f67c2b5cd3b6d9596a","session_id":"619be32056ea04f6e4607efc","condition":"contingent","relevant_dimensions":["antennae","legs"],"bee_group":{"antennae":"B","wings":"X","pattern":"X","legs":"M"},"bonus":0.10000000000000042},{"rt":974.8999999994412,"stimulus":"bees-with-color/bee-A1DF.svg","response":0,"trial_type":"image-button-response","trial_index":13,"time_elapsed":234918,"internal_node_id":"0.0-4.0-0.1","subject_id":"5df3a70877f865293e86c0a0","study_id":"6197b3f67c2b5cd3b6d9596a","session_id":"619be32056ea04f6e4607efc","condition":"contingent","relevant_dimensions":["antennae","legs"],"bee_group":{"antennae":"B","wings":"X","pattern":"X","legs":"M"},"action":"harvest","summary":"good-harvest","bonus":0.10000000000000042},{"rt":1293,"stimulus":"\n                    <p><b>Action: <em>harvest</em></b></p>\n                    <p>This is the bee that you just saw.</p>\n                    <img src=\"bees-with-color/bee-A1DF.svg\" width=\"200\">\n                    <p><span class=\"greenText\"><b>Successful harvest!</b></span><br>Your pay has increased by $0.02. Your bonus pay is now $0.58.</p>\n            ","response":0,"trial_type":"html-button-response","trial_index":14,"time_elapsed":236212,"internal_node_id":"0.0-4.0-1.1","subject_id":"5df3a70877f865293e86c0a0","study_id":"6197b3f67c2b5cd3b6d9596a","session_id":"619be32056ea04f6e4607efc","condition":"contingent","relevant_dimensions":["antennae","legs"],"bee_group":{"antennae":"B","wings":"X","pattern":"X","legs":"M"},"bonus":0.10000000000000042},{"rt":835.8999999994412,"stimulus":"bees-with-color/bee-B2SF.svg","response":0,"trial_type":"image-button-response","trial_index":15,"time_elapsed":237049,"internal_node_id":"0.0-4.0-0.2","subject_id":"5df3a70877f865293e86c0a0","study_id":"6197b3f67c2b5cd3b6d9596a","session_id":"619be32056ea04f6e4607efc","condition":"contingent","relevant_dimensions":["antennae","legs"],"bee_group":{"antennae":"B","wings":"X","pattern":"X","legs":"M"},"action":"harvest","summary":"good-harvest","bonus":0.10000000000000042},{"rt":1226.2000000001863,"stimulus":"\n                    <p><b>Action: <em>harvest</em></b></p>\n                    <p>This is the bee that you just saw.</p>\n                    <img src=\"bees-with-color/bee-B2SF.svg\" width=\"200\">\n                    <p><span class=\"greenText\"><b>Successful harvest!</b></span><br>Your pay has increased by $0.02. Your bonus pay is now $0.60.</p>\n            ","response":0,"trial_type":"html-button-response","trial_index":16,"time_elapsed":238276,"internal_node_id":"0.0-4.0-1.2","subject_id":"5df3a70877f865293e86c0a0","study_id":"6197b3f67c2b5cd3b6d9596a","session_id":"619be32056ea04f6e4607efc","condition":"contingent","relevant_dimensions":["antennae","legs"],"bee_group":{"antennae":"B","wings":"X","pattern":"X","legs":"M"},"bonus":0.10000000000000042},{"rt":1095.300000000745,"stimulus":"bees-with-color/bee-A2SM.svg","response":1,"trial_type":"image-button-response","trial_index":17,"time_elapsed":239372,"internal_node_id":"0.0-4.0-0.3","subject_id":"5df3a70877f865293e86c0a0","study_id":"6197b3f67c2b5cd3b6d9596a","session_id":"619be32056ea04f6e4607efc","condition":"contingent","relevant_dimensions":["antennae","legs"],"bee_group":{"antennae":"B","wings":"X","pattern":"X","legs":"M"},"action":"avoid","summary":"bad-avoid","bonus":0.10000000000000042},{"rt":2379.100000000559,"stimulus":"\n                    <p><b>Action: <em>avoid</em></b></p>\n                    <p>This is the bee that you just saw.</p>\n                    <img src=\"bees-with-color/bee-A2SM.svg\" width=\"200\">\n                    <p><br>Your bonus pay is unchanged, and remains at $0.60.</p>\n            ","response":0,"trial_type":"html-button-response","trial_index":18,"time_elapsed":241752,"internal_node_id":"0.0-4.0-1.3","subject_id":"5df3a70877f865293e86c0a0","study_id":"6197b3f67c2b5cd3b6d9596a","session_id":"619be32056ea04f6e4607efc","condition":"contingent","relevant_dimensions":["antennae","legs"],"bee_group":{"antennae":"B","wings":"X","pattern":"X","legs":"M"},"bonus":0.10000000000000042},{"rt":1244.0999999996275,"stimulus":"bees-with-color/bee-B1SM.svg","response":0,"trial_type":"image-button-response","trial_index":19,"time_elapsed":242997,"internal_node_id":"0.0-4.0-0.4","subject_id":"5df3a70877f865293e86c0a0","study_id":"6197b3f67c2b5cd3b6d9596a","session_id":"619be32056ea04f6e4607efc","condition":"contingent","relevant_dimensions":["antennae","legs"],"bee_group":{"antennae":"B","wings":"X","pattern":"X","legs":"M"},"action":"harvest","summary":"bad-harvest","bonus":0.10000000000000042},{"rt":2650.2000000001863,"stimulus":"\n                    <p><b>Action: <em>harvest</em></b></p>\n                    <p>This is the bee that you just saw.</p>\n                    <img src=\"bees-with-color/bee-B1SM.svg\" width=\"200\">\n                    <p><span class=\"redText\">Bad choice, the bee was angry.</span><br><b>You have been stung!</b><br>Your pay has been decreased by $0.10. Your bonus pay is now $0.50.</p>\n            ","response":0,"trial_type":"html-button-response","trial_index":20,"time_elapsed":245648,"internal_node_id":"0.0-4.0-1.4","subject_id":"5df3a70877f865293e86c0a0","study_id":"6197b3f67c2b5cd3b6d9596a","session_id":"619be32056ea04f6e4607efc","condition":"contingent","relevant_dimensions":["antennae","legs"],"bee_group":{"antennae":"B","wings":"X","pattern":"X","legs":"M"},"bonus":0.10000000000000042},{"rt":2226,"stimulus":"bees-with-color/bee-B2SM.svg","response":0,"trial_type":"image-button-response","trial_index":21,"time_elapsed":247875,"internal_node_id":"0.0-4.0-0.5","subject_id":"5df3a70877f865293e86c0a0","study_id":"6197b3f67c2b5cd3b6d9596a","session_id":"619be32056ea04f6e4607efc","condition":"contingent","relevant_dimensions":["antennae","legs"],"bee_group":{"antennae":"B","wings":"X","pattern":"X","legs":"M"},"action":"harvest","summary":"bad-harvest","bonus":0.10000000000000042},{"rt":1034.0999999996275,"stimulus":"\n                    <p><b>Action: <em>harvest</em></b></p>\n                    <p>This is the bee that you just saw.</p>\n                    <img src=\"bees-with-color/bee-B2SM.svg\" width=\"200\">\n                    <p><span class=\"redText\">Bad choice, the bee was angry.</span><br><b>You have been stung!</b><br>Your pay has been decreased by $0.10. Your bonus pay is now $0.40.</p>\n            ","response":0,"trial_type":"html-button-response","trial_index":22,"time_elapsed":248910,"internal_node_id":"0.0-4.0-1.5","subject_id":"5df3a70877f865293e86c0a0","study_id":"6197b3f67c2b5cd3b6d9596a","session_id":"619be32056ea04f6e4607efc","condition":"contingent","relevant_dimensions":["antennae","legs"],"bee_group":{"antennae":"B","wings":"X","pattern":"X","legs":"M"},"bonus":0.10000000000000042},{"rt":855,"stimulus":"bees-with-color/bee-B2DF.svg","response":0,"trial_type":"image-button-response","trial_index":23,"time_elapsed":249766,"internal_node_id":"0.0-4.0-0.6","subject_id":"5df3a70877f865293e86c0a0","study_id":"6197b3f67c2b5cd3b6d9596a","session_id":"619be32056ea04f6e4607efc","condition":"contingent","relevant_dimensions":["antennae","legs"],"bee_group":{"antennae":"B","wings":"X","pattern":"X","legs":"M"},"action":"harvest","summary":"good-harvest","bonus":0.10000000000000042},{"rt":1188.300000000745,"stimulus":"\n                    <p><b>Action: <em>harvest</em></b></p>\n                    <p>This is the bee that you just saw.</p>\n                    <img src=\"bees-with-color/bee-B2DF.svg\" width=\"200\">\n                    <p><span class=\"greenText\"><b>Successful harvest!</b></span><br>Your pay has increased by $0.02. Your bonus pay is now $0.42.</p>\n            ","response":0,"trial_type":"html-button-response","trial_index":24,"time_elapsed":250955,"internal_node_id":"0.0-4.0-1.6","subject_id":"5df3a70877f865293e86c0a0","study_id":"6197b3f67c2b5cd3b6d9596a","session_id":"619be32056ea04f6e4607efc","condition":"contingent","relevant_dimensions":["antennae","legs"],"bee_group":{"antennae":"B","wings":"X","pattern":"X","legs":"M"},"bonus":0.10000000000000042},{"rt":1076.5,"stimulus":"bees-with-color/bee-A2DF.svg","response":0,"trial_type":"image-button-response","trial_index":25,"time_elapsed":252032,"internal_node_id":"0.0-4.0-0.7","subject_id":"5df3a70877f865293e86c0a0","study_id":"6197b3f67c2b5cd3b6d9596a","session_id":"619be32056ea04f6e4607efc","condition":"contingent","relevant_dimensions":["antennae","legs"],"bee_group":{"antennae":"B","wings":"X","pattern":"X","legs":"M"},"action":"harvest","summary":"good-harvest","bonus":0.10000000000000042},{"rt":1198.1000000005588,"stimulus":"\n                    <p><b>Action: <em>harvest</em></b></p>\n                    <p>This is the bee that you just saw.</p>\n                    <img src=\"bees-with-color/bee-A2DF.svg\" width=\"200\">\n                    <p><span class=\"greenText\"><b>Successful harvest!</b></span><br>Your pay has increased by $0.02. Your bonus pay is now $0.44.</p>\n            ","response":0,"trial_type":"html-button-response","trial_index":26,"time_elapsed":253231,"internal_node_id":"0.0-4.0-1.7","subject_id":"5df3a70877f865293e86c0a0","study_id":"6197b3f67c2b5cd3b6d9596a","session_id":"619be32056ea04f6e4607efc","condition":"contingent","relevant_dimensions":["antennae","legs"],"bee_group":{"antennae":"B","wings":"X","pattern":"X","legs":"M"},"bonus":0.10000000000000042},{"rt":1110,"stimulus":"bees-with-color/bee-B1DF.svg","response":0,"trial_type":"image-button-response","trial_index":27,"time_elapsed":254342,"internal_node_id":"0.0-4.0-0.8","subject_id":"5df3a70877f865293e86c0a0","study_id":"6197b3f67c2b5cd3b6d9596a","session_id":"619be32056ea04f6e4607efc","condition":"contingent","relevant_dimensions":["antennae","legs"],"bee_group":{"antennae":"B","wings":"X","pattern":"X","legs":"M"},"action":"harvest","summary":"good-harvest","bonus":0.10000000000000042},{"rt":929.3999999994412,"stimulus":"\n                    <p><b>Action: <em>harvest</em></b></p>\n                    <p>This is the bee that you just saw.</p>\n                    <img src=\"bees-with-color/bee-B1DF.svg\" width=\"200\">\n                    <p><span class=\"greenText\"><b>Successful harvest!</b></span><br>Your pay has increased by $0.02. Your bonus pay is now $0.46.</p>\n            ","response":0,"trial_type":"html-button-response","trial_index":28,"time_elapsed":255272,"internal_node_id":"0.0-4.0-1.8","subject_id":"5df3a70877f865293e86c0a0","study_id":"6197b3f67c2b5cd3b6d9596a","session_id":"619be32056ea04f6e4607efc","condition":"contingent","relevant_dimensions":["antennae","legs"],"bee_group":{"antennae":"B","wings":"X","pattern":"X","legs":"M"},"bonus":0.10000000000000042},{"rt":1154.2999999998137,"stimulus":"bees-with-color/bee-B1SF.svg","response":0,"trial_type":"image-button-response","trial_index":29,"time_elapsed":256427,"internal_node_id":"0.0-4.0-0.9","subject_id":"5df3a70877f865293e86c0a0","study_id":"6197b3f67c2b5cd3b6d9596a","session_id":"619be32056ea04f6e4607efc","condition":"contingent","relevant_dimensions":["antennae","legs"],"bee_group":{"antennae":"B","wings":"X","pattern":"X","legs":"M"},"action":"harvest","summary":"good-harvest","bonus":0.10000000000000042},{"rt":688,"stimulus":"\n                    <p><b>Action: <em>harvest</em></b></p>\n                    <p>This is the bee that you just saw.</p>\n                    <img src=\"bees-with-color/bee-B1SF.svg\" width=\"200\">\n                    <p><span class=\"greenText\"><b>Successful harvest!</b></span><br>Your pay has increased by $0.02. Your bonus pay is now $0.48.</p>\n            ","response":0,"trial_type":"html-button-response","trial_index":30,"time_elapsed":257116,"internal_node_id":"0.0-4.0-1.9","subject_id":"5df3a70877f865293e86c0a0","study_id":"6197b3f67c2b5cd3b6d9596a","session_id":"619be32056ea04f6e4607efc","condition":"contingent","relevant_dimensions":["antennae","legs"],"bee_group":{"antennae":"B","wings":"X","pattern":"X","legs":"M"},"bonus":0.10000000000000042},{"rt":842.3000000007451,"stimulus":"bees-with-color/bee-A2DM.svg","response":1,"trial_type":"image-button-response","trial_index":31,"time_elapsed":257959,"internal_node_id":"0.0-4.0-0.10","subject_id":"5df3a70877f865293e86c0a0","study_id":"6197b3f67c2b5cd3b6d9596a","session_id":"619be32056ea04f6e4607efc","condition":"contingent","relevant_dimensions":["antennae","legs"],"bee_group":{"antennae":"B","wings":"X","pattern":"X","legs":"M"},"action":"avoid","summary":"bad-avoid","bonus":0.10000000000000042},{"rt":1615.1000000005588,"stimulus":"\n                    <p><b>Action: <em>avoid</em></b></p>\n                    <p>This is the bee that you just saw.</p>\n                    <img src=\"bees-with-color/bee-A2DM.svg\" width=\"200\">\n                    <p><br>Your bonus pay is unchanged, and remains at $0.48.</p>\n            ","response":0,"trial_type":"html-button-response","trial_index":32,"time_elapsed":259575,"internal_node_id":"0.0-4.0-1.10","subject_id":"5df3a70877f865293e86c0a0","study_id":"6197b3f67c2b5cd3b6d9596a","session_id":"619be32056ea04f6e4607efc","condition":"contingent","relevant_dimensions":["antennae","legs"],"bee_group":{"antennae":"B","wings":"X","pattern":"X","legs":"M"},"bonus":0.10000000000000042},{"rt":713.5,"stimulus":"bees-with-color/bee-A2SF.svg","response":0,"trial_type":"image-button-response","trial_index":33,"time_elapsed":260289,"internal_node_id":"0.0-4.0-0.11","subject_id":"5df3a70877f865293e86c0a0","study_id":"6197b3f67c2b5cd3b6d9596a","session_id":"619be32056ea04f6e4607efc","condition":"contingent","relevant_dimensions":["antennae","legs"],"bee_group":{"antennae":"B","wings":"X","pattern":"X","legs":"M"},"action":"harvest","summary":"good-harvest","bonus":0.10000000000000042},{"rt":673.7999999998137,"stimulus":"\n                    <p><b>Action: <em>harvest</em></b></p>\n                    <p>This is the bee that you just saw.</p>\n                    <img src=\"bees-with-color/bee-A2SF.svg\" width=\"200\">\n                    <p><span class=\"greenText\"><b>Successful harvest!</b></span><br>Your pay has increased by $0.02. Your bonus pay is now $0.50.</p>\n            ","response":0,"trial_type":"html-button-response","trial_index":34,"time_elapsed":260964,"internal_node_id":"0.0-4.0-1.11","subject_id":"5df3a70877f865293e86c0a0","study_id":"6197b3f67c2b5cd3b6d9596a","session_id":"619be32056ea04f6e4607efc","condition":"contingent","relevant_dimensions":["antennae","legs"],"bee_group":{"antennae":"B","wings":"X","pattern":"X","legs":"M"},"bonus":0.10000000000000042},{"rt":734.5,"stimulus":"bees-with-color/bee-B1DM.svg","response":1,"trial_type":"image-button-response","trial_index":35,"time_elapsed":261699,"internal_node_id":"0.0-4.0-0.12","subject_id":"5df3a70877f865293e86c0a0","study_id":"6197b3f67c2b5cd3b6d9596a","session_id":"619be32056ea04f6e4607efc","condition":"contingent","relevant_dimensions":["antennae","legs"],"bee_group":{"antennae":"B","wings":"X","pattern":"X","legs":"M"},"action":"avoid","summary":"good-avoid","bonus":0.10000000000000042},{"rt":627,"stimulus":"\n                    <p><b>Action: <em>avoid</em></b></p>\n                    <p>This is the bee that you just saw.</p>\n                    <img src=\"bees-with-color/bee-B1DM.svg\" width=\"200\">\n                    <p><br>Your bonus pay is unchanged, and remains at $0.50.</p>\n            ","response":0,"trial_type":"html-button-response","trial_index":36,"time_elapsed":262327,"internal_node_id":"0.0-4.0-1.12","subject_id":"5df3a70877f865293e86c0a0","study_id":"6197b3f67c2b5cd3b6d9596a","session_id":"619be32056ea04f6e4607efc","condition":"contingent","relevant_dimensions":["antennae","legs"],"bee_group":{"antennae":"B","wings":"X","pattern":"X","legs":"M"},"bonus":0.10000000000000042},{"rt":1209.6000000005588,"stimulus":"bees-with-color/bee-A1DM.svg","response":1,"trial_type":"image-button-response","trial_index":37,"time_elapsed":263537,"internal_node_id":"0.0-4.0-0.13","subject_id":"5df3a70877f865293e86c0a0","study_id":"6197b3f67c2b5cd3b6d9596a","session_id":"619be32056ea04f6e4607efc","condition":"contingent","relevant_dimensions":["antennae","legs"],"bee_group":{"antennae":"B","wings":"X","pattern":"X","legs":"M"},"action":"avoid","summary":"bad-avoid","bonus":0.10000000000000042},{"rt":646.0999999996275,"stimulus":"\n                    <p><b>Action: <em>avoid</em></b></p>\n                    <p>This is the bee that you just saw.</p>\n                    <img src=\"bees-with-color/bee-A1DM.svg\" width=\"200\">\n                    <p><br>Your bonus pay is unchanged, and remains at $0.50.</p>\n            ","response":0,"trial_type":"html-button-response","trial_index":38,"time_elapsed":264184,"internal_node_id":"0.0-4.0-1.13","subject_id":"5df3a70877f865293e86c0a0","study_id":"6197b3f67c2b5cd3b6d9596a","session_id":"619be32056ea04f6e4607efc","condition":"contingent","relevant_dimensions":["antennae","legs"],"bee_group":{"antennae":"B","wings":"X","pattern":"X","legs":"M"},"bonus":0.10000000000000042},{"rt":695.5,"stimulus":"bees-with-color/bee-A1SF.svg","response":0,"trial_type":"image-button-response","trial_index":39,"time_elapsed":264880,"internal_node_id":"0.0-4.0-0.14","subject_id":"5df3a70877f865293e86c0a0","study_id":"6197b3f67c2b5cd3b6d9596a","session_id":"619be32056ea04f6e4607efc","condition":"contingent","relevant_dimensions":["antennae","legs"],"bee_group":{"antennae":"B","wings":"X","pattern":"X","legs":"M"},"action":"harvest","summary":"good-harvest","bonus":0.10000000000000042},{"rt":617.9000000003725,"stimulus":"\n                    <p><b>Action: <em>harvest</em></b></p>\n                    <p>This is the bee that you just saw.</p>\n                    <img src=\"bees-with-color/bee-A1SF.svg\" width=\"200\">\n                    <p><span class=\"greenText\"><b>Successful harvest!</b></span><br>Your pay has increased by $0.02. Your bonus pay is now $0.52.</p>\n            ","response":0,"trial_type":"html-button-response","trial_index":40,"time_elapsed":265499,"internal_node_id":"0.0-4.0-1.14","subject_id":"5df3a70877f865293e86c0a0","study_id":"6197b3f67c2b5cd3b6d9596a","session_id":"619be32056ea04f6e4607efc","condition":"contingent","relevant_dimensions":["antennae","legs"],"bee_group":{"antennae":"B","wings":"X","pattern":"X","legs":"M"},"bonus":0.10000000000000042},{"rt":589.5,"stimulus":"bees-with-color/bee-B2DM.svg","response":1,"trial_type":"image-button-response","trial_index":41,"time_elapsed":266089,"internal_node_id":"0.0-4.0-0.15","subject_id":"5df3a70877f865293e86c0a0","study_id":"6197b3f67c2b5cd3b6d9596a","session_id":"619be32056ea04f6e4607efc","condition":"contingent","relevant_dimensions":["antennae","legs"],"bee_group":{"antennae":"B","wings":"X","pattern":"X","legs":"M"},"action":"avoid","summary":"good-avoid","bonus":0.10000000000000042},{"rt":708,"stimulus":"\n                    <p><b>Action: <em>avoid</em></b></p>\n                    <p>This is the bee that you just saw.</p>\n                    <img src=\"bees-with-color/bee-B2DM.svg\" width=\"200\">\n                    <p><br>Your bonus pay is unchanged, and remains at $0.52.</p>\n            ","response":0,"trial_type":"html-button-response","trial_index":42,"time_elapsed":266798,"internal_node_id":"0.0-4.0-1.15","subject_id":"5df3a70877f865293e86c0a0","study_id":"6197b3f67c2b5cd3b6d9596a","session_id":"619be32056ea04f6e4607efc","condition":"contingent","relevant_dimensions":["antennae","legs"],"bee_group":{"antennae":"B","wings":"X","pattern":"X","legs":"M"},"bonus":0.10000000000000042},{"rt":598.3000000007451,"stimulus":"bees-with-color/bee-B2SF.svg","response":0,"trial_type":"image-button-response","trial_index":43,"time_elapsed":267397,"internal_node_id":"0.0-4.0-0.16","subject_id":"5df3a70877f865293e86c0a0","study_id":"6197b3f67c2b5cd3b6d9596a","session_id":"619be32056ea04f6e4607efc","condition":"contingent","relevant_dimensions":["antennae","legs"],"bee_group":{"antennae":"B","wings":"X","pattern":"X","legs":"M"},"action":"harvest","summary":"good-harvest","bonus":0.10000000000000042},{"rt":797.0999999996275,"stimulus":"\n                    <p><b>Action: <em>harvest</em></b></p>\n                    <p>This is the bee that you just saw.</p>\n                    <img src=\"bees-with-color/bee-B2SF.svg\" width=\"200\">\n                    <p><span class=\"greenText\"><b>Successful harvest!</b></span><br>Your pay has increased by $0.02. Your bonus pay is now $0.54.</p>\n            ","response":0,"trial_type":"html-button-response","trial_index":44,"time_elapsed":268195,"internal_node_id":"0.0-4.0-1.16","subject_id":"5df3a70877f865293e86c0a0","study_id":"6197b3f67c2b5cd3b6d9596a","session_id":"619be32056ea04f6e4607efc","condition":"contingent","relevant_dimensions":["antennae","legs"],"bee_group":{"antennae":"B","wings":"X","pattern":"X","legs":"M"},"bonus":0.10000000000000042},{"rt":718.4000000003725,"stimulus":"bees-with-color/bee-A2DM.svg","response":1,"trial_type":"image-button-response","trial_index":45,"time_elapsed":268914,"internal_node_id":"0.0-4.0-0.17","subject_id":"5df3a70877f865293e86c0a0","study_id":"6197b3f67c2b5cd3b6d9596a","session_id":"619be32056ea04f6e4607efc","condition":"contingent","relevant_dimensions":["antennae","legs"],"bee_group":{"antennae":"B","wings":"X","pattern":"X","legs":"M"},"action":"avoid","summary":"bad-avoid","bonus":0.10000000000000042},{"rt":708.2000000001863,"stimulus":"\n                    <p><b>Action: <em>avoid</em></b></p>\n                    <p>This is the bee that you just saw.</p>\n                    <img src=\"bees-with-color/bee-A2DM.svg\" width=\"200\">\n                    <p><br>Your bonus pay is unchanged, and remains at $0.54.</p>\n            ","response":0,"trial_type":"html-button-response","trial_index":46,"time_elapsed":269623,"internal_node_id":"0.0-4.0-1.17","subject_id":"5df3a70877f865293e86c0a0","study_id":"6197b3f67c2b5cd3b6d9596a","session_id":"619be32056ea04f6e4607efc","condition":"contingent","relevant_dimensions":["antennae","legs"],"bee_group":{"antennae":"B","wings":"X","pattern":"X","legs":"M"},"bonus":0.10000000000000042},{"rt":1012.4000000003725,"stimulus":"bees-with-color/bee-B1DM.svg","response":0,"trial_type":"image-button-response","trial_index":47,"time_elapsed":270636,"internal_node_id":"0.0-4.0-0.18","subject_id":"5df3a70877f865293e86c0a0","study_id":"6197b3f67c2b5cd3b6d9596a","session_id":"619be32056ea04f6e4607efc","condition":"contingent","relevant_dimensions":["antennae","legs"],"bee_group":{"antennae":"B","wings":"X","pattern":"X","legs":"M"},"action":"harvest","summary":"bad-harvest","bonus":0.10000000000000042},{"rt":848.0999999996275,"stimulus":"\n                    <p><b>Action: <em>harvest</em></b></p>\n                    <p>This is the bee that you just saw.</p>\n                    <img src=\"bees-with-color/bee-B1DM.svg\" width=\"200\">\n                    <p><span class=\"redText\">Bad choice, the bee was angry.</span><br><b>You have been stung!</b><br>Your pay has been decreased by $0.10. Your bonus pay is now $0.44.</p>\n            ","response":0,"trial_type":"html-button-response","trial_index":48,"time_elapsed":271485,"internal_node_id":"0.0-4.0-1.18","subject_id":"5df3a70877f865293e86c0a0","study_id":"6197b3f67c2b5cd3b6d9596a","session_id":"619be32056ea04f6e4607efc","condition":"contingent","relevant_dimensions":["antennae","legs"],"bee_group":{"antennae":"B","wings":"X","pattern":"X","legs":"M"},"bonus":0.10000000000000042},{"rt":512.3000000007451,"stimulus":"bees-with-color/bee-B1DF.svg","response":0,"trial_type":"image-button-response","trial_index":49,"time_elapsed":271998,"internal_node_id":"0.0-4.0-0.19","subject_id":"5df3a70877f865293e86c0a0","study_id":"6197b3f67c2b5cd3b6d9596a","session_id":"619be32056ea04f6e4607efc","condition":"contingent","relevant_dimensions":["antennae","legs"],"bee_group":{"antennae":"B","wings":"X","pattern":"X","legs":"M"},"action":"harvest","summary":"good-harvest","bonus":0.10000000000000042},{"rt":688.2000000001863,"stimulus":"\n                    <p><b>Action: <em>harvest</em></b></p>\n                    <p>This is the bee that you just saw.</p>\n                    <img src=\"bees-with-color/bee-B1DF.svg\" width=\"200\">\n                    <p><span class=\"greenText\"><b>Successful harvest!</b></span><br>Your pay has increased by $0.02. Your bonus pay is now $0.46.</p>\n            ","response":0,"trial_type":"html-button-response","trial_index":50,"time_elapsed":272687,"internal_node_id":"0.0-4.0-1.19","subject_id":"5df3a70877f865293e86c0a0","study_id":"6197b3f67c2b5cd3b6d9596a","session_id":"619be32056ea04f6e4607efc","condition":"contingent","relevant_dimensions":["antennae","legs"],"bee_group":{"antennae":"B","wings":"X","pattern":"X","legs":"M"},"bonus":0.10000000000000042},{"rt":810.0999999996275,"stimulus":"bees-with-color/bee-B2DF.svg","response":0,"trial_type":"image-button-response","trial_index":51,"time_elapsed":273498,"internal_node_id":"0.0-4.0-0.20","subject_id":"5df3a70877f865293e86c0a0","study_id":"6197b3f67c2b5cd3b6d9596a","session_id":"619be32056ea04f6e4607efc","condition":"contingent","relevant_dimensions":["antennae","legs"],"bee_group":{"antennae":"B","wings":"X","pattern":"X","legs":"M"},"action":"harvest","summary":"good-harvest","bonus":0.10000000000000042},{"rt":845.0999999996275,"stimulus":"\n                    <p><b>Action: <em>harvest</em></b></p>\n                    <p>This is the bee that you just saw.</p>\n                    <img src=\"bees-with-color/bee-B2DF.svg\" width=\"200\">\n                    <p><span class=\"greenText\"><b>Successful harvest!</b></span><br>Your pay has increased by $0.02. Your bonus pay is now $0.48.</p>\n            ","response":0,"trial_type":"html-button-response","trial_index":52,"time_elapsed":274344,"internal_node_id":"0.0-4.0-1.20","subject_id":"5df3a70877f865293e86c0a0","study_id":"6197b3f67c2b5cd3b6d9596a","session_id":"619be32056ea04f6e4607efc","condition":"contingent","relevant_dimensions":["antennae","legs"],"bee_group":{"antennae":"B","wings":"X","pattern":"X","legs":"M"},"bonus":0.10000000000000042},{"rt":710.3000000007451,"stimulus":"bees-with-color/bee-A1SF.svg","response":0,"trial_type":"image-button-response","trial_index":53,"time_elapsed":275055,"internal_node_id":"0.0-4.0-0.21","subject_id":"5df3a70877f865293e86c0a0","study_id":"6197b3f67c2b5cd3b6d9596a","session_id":"619be32056ea04f6e4607efc","condition":"contingent","relevant_dimensions":["antennae","legs"],"bee_group":{"antennae":"B","wings":"X","pattern":"X","legs":"M"},"action":"harvest","summary":"good-harvest","bonus":0.10000000000000042},{"rt":571.2000000001863,"stimulus":"\n                    <p><b>Action: <em>harvest</em></b></p>\n                    <p>This is the bee that you just saw.</p>\n                    <img src=\"bees-with-color/bee-A1SF.svg\" width=\"200\">\n                    <p><span class=\"greenText\"><b>Successful harvest!</b></span><br>Your pay has increased by $0.02. Your bonus pay is now $0.50.</p>\n            ","response":0,"trial_type":"html-button-response","trial_index":54,"time_elapsed":275627,"internal_node_id":"0.0-4.0-1.21","subject_id":"5df3a70877f865293e86c0a0","study_id":"6197b3f67c2b5cd3b6d9596a","session_id":"619be32056ea04f6e4607efc","condition":"contingent","relevant_dimensions":["antennae","legs"],"bee_group":{"antennae":"B","wings":"X","pattern":"X","legs":"M"},"bonus":0.10000000000000042},{"rt":883.4000000003725,"stimulus":"bees-with-color/bee-B1SM.svg","response":0,"trial_type":"image-button-response","trial_index":55,"time_elapsed":276511,"internal_node_id":"0.0-4.0-0.22","subject_id":"5df3a70877f865293e86c0a0","study_id":"6197b3f67c2b5cd3b6d9596a","session_id":"619be32056ea04f6e4607efc","condition":"contingent","relevant_dimensions":["antennae","legs"],"bee_group":{"antennae":"B","wings":"X","pattern":"X","legs":"M"},"action":"harvest","summary":"bad-harvest","bonus":0.10000000000000042},{"rt":661.0999999996275,"stimulus":"\n                    <p><b>Action: <em>harvest</em></b></p>\n                    <p>This is the bee that you just saw.</p>\n                    <img src=\"bees-with-color/bee-B1SM.svg\" width=\"200\">\n                    <p><span class=\"redText\">Bad choice, the bee was angry.</span><br><b>You have been stung!</b><br>Your pay has been decreased by $0.10. Your bonus pay is now $0.40.</p>\n            ","response":0,"trial_type":"html-button-response","trial_index":56,"time_elapsed":277173,"internal_node_id":"0.0-4.0-1.22","subject_id":"5df3a70877f865293e86c0a0","study_id":"6197b3f67c2b5cd3b6d9596a","session_id":"619be32056ea04f6e4607efc","condition":"contingent","relevant_dimensions":["antennae","legs"],"bee_group":{"antennae":"B","wings":"X","pattern":"X","legs":"M"},"bonus":0.10000000000000042},{"rt":777.5,"stimulus":"bees-with-color/bee-A1DM.svg","response":0,"trial_type":"image-button-response","trial_index":57,"time_elapsed":277951,"internal_node_id":"0.0-4.0-0.23","subject_id":"5df3a70877f865293e86c0a0","study_id":"6197b3f67c2b5cd3b6d9596a","session_id":"619be32056ea04f6e4607efc","condition":"contingent","relevant_dimensions":["antennae","legs"],"bee_group":{"antennae":"B","wings":"X","pattern":"X","legs":"M"},"action":"harvest","summary":"good-harvest","bonus":0.10000000000000042},{"rt":570.0999999996275,"stimulus":"\n                    <p><b>Action: <em>harvest</em></b></p>\n                    <p>This is the bee that you just saw.</p>\n                    <img src=\"bees-with-color/bee-A1DM.svg\" width=\"200\">\n                    <p><span class=\"greenText\"><b>Successful harvest!</b></span><br>Your pay has increased by $0.02. Your bonus pay is now $0.42.</p>\n            ","response":0,"trial_type":"html-button-response","trial_index":58,"time_elapsed":278522,"internal_node_id":"0.0-4.0-1.23","subject_id":"5df3a70877f865293e86c0a0","study_id":"6197b3f67c2b5cd3b6d9596a","session_id":"619be32056ea04f6e4607efc","condition":"contingent","relevant_dimensions":["antennae","legs"],"bee_group":{"antennae":"B","wings":"X","pattern":"X","legs":"M"},"bonus":0.10000000000000042},{"rt":583.2999999998137,"stimulus":"bees-with-color/bee-A2DF.svg","response":0,"trial_type":"image-button-response","trial_index":59,"time_elapsed":279106,"internal_node_id":"0.0-4.0-0.24","subject_id":"5df3a70877f865293e86c0a0","study_id":"6197b3f67c2b5cd3b6d9596a","session_id":"619be32056ea04f6e4607efc","condition":"contingent","relevant_dimensions":["antennae","legs"],"bee_group":{"antennae":"B","wings":"X","pattern":"X","legs":"M"},"action":"harvest","summary":"good-harvest","bonus":0.10000000000000042},{"rt":844.2000000001863,"stimulus":"\n                    <p><b>Action: <em>harvest</em></b></p>\n                    <p>This is the bee that you just saw.</p>\n                    <img src=\"bees-with-color/bee-A2DF.svg\" width=\"200\">\n                    <p><span class=\"greenText\"><b>Successful harvest!</b></span><br>Your pay has increased by $0.02. Your bonus pay is now $0.44.</p>\n            ","response":0,"trial_type":"html-button-response","trial_index":60,"time_elapsed":279951,"internal_node_id":"0.0-4.0-1.24","subject_id":"5df3a70877f865293e86c0a0","study_id":"6197b3f67c2b5cd3b6d9596a","session_id":"619be32056ea04f6e4607efc","condition":"contingent","relevant_dimensions":["antennae","legs"],"bee_group":{"antennae":"B","wings":"X","pattern":"X","legs":"M"},"bonus":0.10000000000000042},{"rt":784.2000000001863,"stimulus":"bees-with-color/bee-A2SM.svg","response":1,"trial_type":"image-button-response","trial_index":61,"time_elapsed":280736,"internal_node_id":"0.0-4.0-0.25","subject_id":"5df3a70877f865293e86c0a0","study_id":"6197b3f67c2b5cd3b6d9596a","session_id":"619be32056ea04f6e4607efc","condition":"contingent","relevant_dimensions":["antennae","legs"],"bee_group":{"antennae":"B","wings":"X","pattern":"X","legs":"M"},"action":"avoid","summary":"bad-avoid","bonus":0.10000000000000042},{"rt":555.2999999998137,"stimulus":"\n                    <p><b>Action: <em>avoid</em></b></p>\n                    <p>This is the bee that you just saw.</p>\n                    <img src=\"bees-with-color/bee-A2SM.svg\" width=\"200\">\n                    <p><br>Your bonus pay is unchanged, and remains at $0.44.</p>\n            ","response":0,"trial_type":"html-button-response","trial_index":62,"time_elapsed":281292,"internal_node_id":"0.0-4.0-1.25","subject_id":"5df3a70877f865293e86c0a0","study_id":"6197b3f67c2b5cd3b6d9596a","session_id":"619be32056ea04f6e4607efc","condition":"contingent","relevant_dimensions":["antennae","legs"],"bee_group":{"antennae":"B","wings":"X","pattern":"X","legs":"M"},"bonus":0.10000000000000042},{"rt":481.29999999981374,"stimulus":"bees-with-color/bee-A1DF.svg","response":0,"trial_type":"image-button-response","trial_index":63,"time_elapsed":281774,"internal_node_id":"0.0-4.0-0.26","subject_id":"5df3a70877f865293e86c0a0","study_id":"6197b3f67c2b5cd3b6d9596a","session_id":"619be32056ea04f6e4607efc","condition":"contingent","relevant_dimensions":["antennae","legs"],"bee_group":{"antennae":"B","wings":"X","pattern":"X","legs":"M"},"action":"harvest","summary":"good-harvest","bonus":0.10000000000000042},{"rt":821.3000000007451,"stimulus":"\n                    <p><b>Action: <em>harvest</em></b></p>\n                    <p>This is the bee that you just saw.</p>\n                    <img src=\"bees-with-color/bee-A1DF.svg\" width=\"200\">\n                    <p><span class=\"greenText\"><b>Successful harvest!</b></span><br>Your pay has increased by $0.02. Your bonus pay is now $0.46.</p>\n            ","response":0,"trial_type":"html-button-response","trial_index":64,"time_elapsed":282596,"internal_node_id":"0.0-4.0-1.26","subject_id":"5df3a70877f865293e86c0a0","study_id":"6197b3f67c2b5cd3b6d9596a","session_id":"619be32056ea04f6e4607efc","condition":"contingent","relevant_dimensions":["antennae","legs"],"bee_group":{"antennae":"B","wings":"X","pattern":"X","legs":"M"},"bonus":0.10000000000000042},{"rt":482.20000000018626,"stimulus":"bees-with-color/bee-B2DM.svg","response":0,"trial_type":"image-button-response","trial_index":65,"time_elapsed":283079,"internal_node_id":"0.0-4.0-0.27","subject_id":"5df3a70877f865293e86c0a0","study_id":"6197b3f67c2b5cd3b6d9596a","session_id":"619be32056ea04f6e4607efc","condition":"contingent","relevant_dimensions":["antennae","legs"],"bee_group":{"antennae":"B","wings":"X","pattern":"X","legs":"M"},"action":"harvest","summary":"bad-harvest","bonus":0.10000000000000042},{"rt":814,"stimulus":"\n                    <p><b>Action: <em>harvest</em></b></p>\n                    <p>This is the bee that you just saw.</p>\n                    <img src=\"bees-with-color/bee-B2DM.svg\" width=\"200\">\n                    <p><span class=\"redText\">Bad choice, the bee was angry.</span><br><b>You have been stung!</b><br>Your pay has been decreased by $0.10. Your bonus pay is now $0.36.</p>\n            ","response":0,"trial_type":"html-button-response","trial_index":66,"time_elapsed":283894,"internal_node_id":"0.0-4.0-1.27","subject_id":"5df3a70877f865293e86c0a0","study_id":"6197b3f67c2b5cd3b6d9596a","session_id":"619be32056ea04f6e4607efc","condition":"contingent","relevant_dimensions":["antennae","legs"],"bee_group":{"antennae":"B","wings":"X","pattern":"X","legs":"M"},"bonus":0.10000000000000042},{"rt":641.2000000001863,"stimulus":"bees-with-color/bee-A2SF.svg","response":1,"trial_type":"image-button-response","trial_index":67,"time_elapsed":284536,"internal_node_id":"0.0-4.0-0.28","subject_id":"5df3a70877f865293e86c0a0","study_id":"6197b3f67c2b5cd3b6d9596a","session_id":"619be32056ea04f6e4607efc","condition":"contingent","relevant_dimensions":["antennae","legs"],"bee_group":{"antennae":"B","wings":"X","pattern":"X","legs":"M"},"action":"avoid","summary":"bad-avoid","bonus":0.10000000000000042},{"rt":563.2999999998137,"stimulus":"\n                    <p><b>Action: <em>avoid</em></b></p>\n                    <p>This is the bee that you just saw.</p>\n                    <img src=\"bees-with-color/bee-A2SF.svg\" width=\"200\">\n                    <p><br>Your bonus pay is unchanged, and remains at $0.36.</p>\n            ","response":0,"trial_type":"html-button-response","trial_index":68,"time_elapsed":285100,"internal_node_id":"0.0-4.0-1.28","subject_id":"5df3a70877f865293e86c0a0","study_id":"6197b3f67c2b5cd3b6d9596a","session_id":"619be32056ea04f6e4607efc","condition":"contingent","relevant_dimensions":["antennae","legs"],"bee_group":{"antennae":"B","wings":"X","pattern":"X","legs":"M"},"bonus":0.10000000000000042},{"rt":364,"stimulus":"bees-with-color/bee-B1SF.svg","response":0,"trial_type":"image-button-response","trial_index":69,"time_elapsed":285465,"internal_node_id":"0.0-4.0-0.29","subject_id":"5df3a70877f865293e86c0a0","study_id":"6197b3f67c2b5cd3b6d9596a","session_id":"619be32056ea04f6e4607efc","condition":"contingent","relevant_dimensions":["antennae","legs"],"bee_group":{"antennae":"B","wings":"X","pattern":"X","legs":"M"},"action":"harvest","summary":"good-harvest","bonus":0.10000000000000042},{"rt":796.3000000007451,"stimulus":"\n                    <p><b>Action: <em>harvest</em></b></p>\n                    <p>This is the bee that you just saw.</p>\n                    <img src=\"bees-with-color/bee-B1SF.svg\" width=\"200\">\n                    <p><span class=\"greenText\"><b>Successful harvest!</b></span><br>Your pay has increased by $0.02. Your bonus pay is now $0.38.</p>\n            ","response":0,"trial_type":"html-button-response","trial_index":70,"time_elapsed":286262,"internal_node_id":"0.0-4.0-1.29","subject_id":"5df3a70877f865293e86c0a0","study_id":"6197b3f67c2b5cd3b6d9596a","session_id":"619be32056ea04f6e4607efc","condition":"contingent","relevant_dimensions":["antennae","legs"],"bee_group":{"antennae":"B","wings":"X","pattern":"X","legs":"M"},"bonus":0.10000000000000042},{"rt":378.40000000037253,"stimulus":"bees-with-color/bee-B2SM.svg","response":0,"trial_type":"image-button-response","trial_index":71,"time_elapsed":286641,"internal_node_id":"0.0-4.0-0.30","subject_id":"5df3a70877f865293e86c0a0","study_id":"6197b3f67c2b5cd3b6d9596a","session_id":"619be32056ea04f6e4607efc","condition":"contingent","relevant_dimensions":["antennae","legs"],"bee_group":{"antennae":"B","wings":"X","pattern":"X","legs":"M"},"action":"harvest","summary":"bad-harvest","bonus":0.10000000000000042},{"rt":1313.0999999996275,"stimulus":"\n                    <p><b>Action: <em>harvest</em></b></p>\n                    <p>This is the bee that you just saw.</p>\n                    <img src=\"bees-with-color/bee-B2SM.svg\" width=\"200\">\n                    <p><span class=\"redText\">Bad choice, the bee was angry.</span><br><b>You have been stung!</b><br>Your pay has been decreased by $0.10. Your bonus pay is now $0.28.</p>\n            ","response":0,"trial_type":"html-button-response","trial_index":72,"time_elapsed":287955,"internal_node_id":"0.0-4.0-1.30","subject_id":"5df3a70877f865293e86c0a0","study_id":"6197b3f67c2b5cd3b6d9596a","session_id":"619be32056ea04f6e4607efc","condition":"contingent","relevant_dimensions":["antennae","legs"],"bee_group":{"antennae":"B","wings":"X","pattern":"X","legs":"M"},"bonus":0.10000000000000042},{"rt":395.40000000037253,"stimulus":"bees-with-color/bee-A1SM.svg","response":1,"trial_type":"image-button-response","trial_index":73,"time_elapsed":288351,"internal_node_id":"0.0-4.0-0.31","subject_id":"5df3a70877f865293e86c0a0","study_id":"6197b3f67c2b5cd3b6d9596a","session_id":"619be32056ea04f6e4607efc","condition":"contingent","relevant_dimensions":["antennae","legs"],"bee_group":{"antennae":"B","wings":"X","pattern":"X","legs":"M"},"action":"avoid","summary":"bad-avoid","bonus":0.10000000000000042},{"rt":820.3000000007451,"stimulus":"\n                    <p><b>Action: <em>avoid</em></b></p>\n                    <p>This is the bee that you just saw.</p>\n                    <img src=\"bees-with-color/bee-A1SM.svg\" width=\"200\">\n                    <p><br>Your bonus pay is unchanged, and remains at $0.28.</p>\n            ","response":0,"trial_type":"html-button-response","trial_index":74,"time_elapsed":289172,"internal_node_id":"0.0-4.0-1.31","subject_id":"5df3a70877f865293e86c0a0","study_id":"6197b3f67c2b5cd3b6d9596a","session_id":"619be32056ea04f6e4607efc","condition":"contingent","relevant_dimensions":["antennae","legs"],"bee_group":{"antennae":"B","wings":"X","pattern":"X","legs":"M"},"bonus":0.10000000000000042},{"rt":467.29999999981374,"stimulus":"bees-with-color/bee-B2DF.svg","response":0,"trial_type":"image-button-response","trial_index":75,"time_elapsed":289640,"internal_node_id":"0.0-4.0-0.32","subject_id":"5df3a70877f865293e86c0a0","study_id":"6197b3f67c2b5cd3b6d9596a","session_id":"619be32056ea04f6e4607efc","condition":"contingent","relevant_dimensions":["antennae","legs"],"bee_group":{"antennae":"B","wings":"X","pattern":"X","legs":"M"},"action":"harvest","summary":"good-harvest","bonus":0.10000000000000042},{"rt":763.2000000001863,"stimulus":"\n                    <p><b>Action: <em>harvest</em></b></p>\n                    <p>This is the bee that you just saw.</p>\n                    <img src=\"bees-with-color/bee-B2DF.svg\" width=\"200\">\n                    <p><span class=\"greenText\"><b>Successful harvest!</b></span><br>Your pay has increased by $0.02. Your bonus pay is now $0.30.</p>\n            ","response":0,"trial_type":"html-button-response","trial_index":76,"time_elapsed":290404,"internal_node_id":"0.0-4.0-1.32","subject_id":"5df3a70877f865293e86c0a0","study_id":"6197b3f67c2b5cd3b6d9596a","session_id":"619be32056ea04f6e4607efc","condition":"contingent","relevant_dimensions":["antennae","legs"],"bee_group":{"antennae":"B","wings":"X","pattern":"X","legs":"M"},"bonus":0.10000000000000042},{"rt":2148.2999999998137,"stimulus":"bees-with-color/bee-A1SM.svg","response":0,"trial_type":"image-button-response","trial_index":77,"time_elapsed":292553,"internal_node_id":"0.0-4.0-0.33","subject_id":"5df3a70877f865293e86c0a0","study_id":"6197b3f67c2b5cd3b6d9596a","session_id":"619be32056ea04f6e4607efc","condition":"contingent","relevant_dimensions":["antennae","legs"],"bee_group":{"antennae":"B","wings":"X","pattern":"X","legs":"M"},"action":"harvest","summary":"good-harvest","bonus":0.10000000000000042},{"rt":1028.2000000001863,"stimulus":"\n                    <p><b>Action: <em>harvest</em></b></p>\n                    <p>This is the bee that you just saw.</p>\n                    <img src=\"bees-with-color/bee-A1SM.svg\" width=\"200\">\n                    <p><span class=\"greenText\"><b>Successful harvest!</b></span><br>Your pay has increased by $0.02. Your bonus pay is now $0.32.</p>\n            ","response":0,"trial_type":"html-button-response","trial_index":78,"time_elapsed":293582,"internal_node_id":"0.0-4.0-1.33","subject_id":"5df3a70877f865293e86c0a0","study_id":"6197b3f67c2b5cd3b6d9596a","session_id":"619be32056ea04f6e4607efc","condition":"contingent","relevant_dimensions":["antennae","legs"],"bee_group":{"antennae":"B","wings":"X","pattern":"X","legs":"M"},"bonus":0.10000000000000042},{"rt":1086.2999999998137,"stimulus":"bees-with-color/bee-A1DF.svg","response":0,"trial_type":"image-button-response","trial_index":79,"time_elapsed":294669,"internal_node_id":"0.0-4.0-0.34","subject_id":"5df3a70877f865293e86c0a0","study_id":"6197b3f67c2b5cd3b6d9596a","session_id":"619be32056ea04f6e4607efc","condition":"contingent","relevant_dimensions":["antennae","legs"],"bee_group":{"antennae":"B","wings":"X","pattern":"X","legs":"M"},"action":"harvest","summary":"good-harvest","bonus":0.10000000000000042},{"rt":685.2000000001863,"stimulus":"\n                    <p><b>Action: <em>harvest</em></b></p>\n                    <p>This is the bee that you just saw.</p>\n                    <img src=\"bees-with-color/bee-A1DF.svg\" width=\"200\">\n                    <p><span class=\"greenText\"><b>Successful harvest!</b></span><br>Your pay has increased by $0.02. Your bonus pay is now $0.34.</p>\n            ","response":0,"trial_type":"html-button-response","trial_index":80,"time_elapsed":295355,"internal_node_id":"0.0-4.0-1.34","subject_id":"5df3a70877f865293e86c0a0","study_id":"6197b3f67c2b5cd3b6d9596a","session_id":"619be32056ea04f6e4607efc","condition":"contingent","relevant_dimensions":["antennae","legs"],"bee_group":{"antennae":"B","wings":"X","pattern":"X","legs":"M"},"bonus":0.10000000000000042},{"rt":695.2999999998137,"stimulus":"bees-with-color/bee-B1DF.svg","response":0,"trial_type":"image-button-response","trial_index":81,"time_elapsed":296051,"internal_node_id":"0.0-4.0-0.35","subject_id":"5df3a70877f865293e86c0a0","study_id":"6197b3f67c2b5cd3b6d9596a","session_id":"619be32056ea04f6e4607efc","condition":"contingent","relevant_dimensions":["antennae","legs"],"bee_group":{"antennae":"B","wings":"X","pattern":"X","legs":"M"},"action":"harvest","summary":"good-harvest","bonus":0.10000000000000042},{"rt":699.2999999998137,"stimulus":"\n                    <p><b>Action: <em>harvest</em></b></p>\n                    <p>This is the bee that you just saw.</p>\n                    <img src=\"bees-with-color/bee-B1DF.svg\" width=\"200\">\n                    <p><span class=\"greenText\"><b>Successful harvest!</b></span><br>Your pay has increased by $0.02. Your bonus pay is now $0.36.</p>\n            ","response":0,"trial_type":"html-button-response","trial_index":82,"time_elapsed":296751,"internal_node_id":"0.0-4.0-1.35","subject_id":"5df3a70877f865293e86c0a0","study_id":"6197b3f67c2b5cd3b6d9596a","session_id":"619be32056ea04f6e4607efc","condition":"contingent","relevant_dimensions":["antennae","legs"],"bee_group":{"antennae":"B","wings":"X","pattern":"X","legs":"M"},"bonus":0.10000000000000042},{"rt":637.8999999994412,"stimulus":"bees-with-color/bee-A2DF.svg","response":0,"trial_type":"image-button-response","trial_index":83,"time_elapsed":297390,"internal_node_id":"0.0-4.0-0.36","subject_id":"5df3a70877f865293e86c0a0","study_id":"6197b3f67c2b5cd3b6d9596a","session_id":"619be32056ea04f6e4607efc","condition":"contingent","relevant_dimensions":["antennae","legs"],"bee_group":{"antennae":"B","wings":"X","pattern":"X","legs":"M"},"action":"harvest","summary":"good-harvest","bonus":0.10000000000000042},{"rt":585.2000000001863,"stimulus":"\n                    <p><b>Action: <em>harvest</em></b></p>\n                    <p>This is the bee that you just saw.</p>\n                    <img src=\"bees-with-color/bee-A2DF.svg\" width=\"200\">\n                    <p><span class=\"greenText\"><b>Successful harvest!</b></span><br>Your pay has increased by $0.02. Your bonus pay is now $0.38.</p>\n            ","response":0,"trial_type":"html-button-response","trial_index":84,"time_elapsed":297976,"internal_node_id":"0.0-4.0-1.36","subject_id":"5df3a70877f865293e86c0a0","study_id":"6197b3f67c2b5cd3b6d9596a","session_id":"619be32056ea04f6e4607efc","condition":"contingent","relevant_dimensions":["antennae","legs"],"bee_group":{"antennae":"B","wings":"X","pattern":"X","legs":"M"},"bonus":0.10000000000000042},{"rt":703.2999999998137,"stimulus":"bees-with-color/bee-B2DM.svg","response":0,"trial_type":"image-button-response","trial_index":85,"time_elapsed":298680,"internal_node_id":"0.0-4.0-0.37","subject_id":"5df3a70877f865293e86c0a0","study_id":"6197b3f67c2b5cd3b6d9596a","session_id":"619be32056ea04f6e4607efc","condition":"contingent","relevant_dimensions":["antennae","legs"],"bee_group":{"antennae":"B","wings":"X","pattern":"X","legs":"M"},"action":"harvest","summary":"bad-harvest","bonus":0.10000000000000042},{"rt":1833.2000000001863,"stimulus":"\n                    <p><b>Action: <em>harvest</em></b></p>\n                    <p>This is the bee that you just saw.</p>\n                    <img src=\"bees-with-color/bee-B2DM.svg\" width=\"200\">\n                    <p><span class=\"redText\">Bad choice, the bee was angry.</span><br><b>You have been stung!</b><br>Your pay has been decreased by $0.10. Your bonus pay is now $0.28.</p>\n            ","response":0,"trial_type":"html-button-response","trial_index":86,"time_elapsed":300514,"internal_node_id":"0.0-4.0-1.37","subject_id":"5df3a70877f865293e86c0a0","study_id":"6197b3f67c2b5cd3b6d9596a","session_id":"619be32056ea04f6e4607efc","condition":"contingent","relevant_dimensions":["antennae","legs"],"bee_group":{"antennae":"B","wings":"X","pattern":"X","legs":"M"},"bonus":0.10000000000000042},{"rt":1018.2000000001863,"stimulus":"bees-with-color/bee-A1SF.svg","response":0,"trial_type":"image-button-response","trial_index":87,"time_elapsed":301533,"internal_node_id":"0.0-4.0-0.38","subject_id":"5df3a70877f865293e86c0a0","study_id":"6197b3f67c2b5cd3b6d9596a","session_id":"619be32056ea04f6e4607efc","condition":"contingent","relevant_dimensions":["antennae","legs"],"bee_group":{"antennae":"B","wings":"X","pattern":"X","legs":"M"},"action":"harvest","summary":"good-harvest","bonus":0.10000000000000042},{"rt":1039.2000000001863,"stimulus":"\n                    <p><b>Action: <em>harvest</em></b></p>\n                    <p>This is the bee that you just saw.</p>\n                    <img src=\"bees-with-color/bee-A1SF.svg\" width=\"200\">\n                    <p><span class=\"greenText\"><b>Successful harvest!</b></span><br>Your pay has increased by $0.02. Your bonus pay is now $0.30.</p>\n            ","response":0,"trial_type":"html-button-response","trial_index":88,"time_elapsed":302573,"internal_node_id":"0.0-4.0-1.38","subject_id":"5df3a70877f865293e86c0a0","study_id":"6197b3f67c2b5cd3b6d9596a","session_id":"619be32056ea04f6e4607efc","condition":"contingent","relevant_dimensions":["antennae","legs"],"bee_group":{"antennae":"B","wings":"X","pattern":"X","legs":"M"},"bonus":0.10000000000000042},{"rt":485.20000000018626,"stimulus":"bees-with-color/bee-B1SM.svg","response":0,"trial_type":"image-button-response","trial_index":89,"time_elapsed":303059,"internal_node_id":"0.0-4.0-0.39","subject_id":"5df3a70877f865293e86c0a0","study_id":"6197b3f67c2b5cd3b6d9596a","session_id":"619be32056ea04f6e4607efc","condition":"contingent","relevant_dimensions":["antennae","legs"],"bee_group":{"antennae":"B","wings":"X","pattern":"X","legs":"M"},"action":"harvest","summary":"bad-harvest","bonus":0.10000000000000042},{"rt":726.3000000007451,"stimulus":"\n                    <p><b>Action: <em>harvest</em></b></p>\n                    <p>This is the bee that you just saw.</p>\n                    <img src=\"bees-with-color/bee-B1SM.svg\" width=\"200\">\n                    <p><span class=\"redText\">Bad choice, the bee was angry.</span><br><b>You have been stung!</b><br>Your pay has been decreased by $0.10. Your bonus pay is now $0.20.</p>\n            ","response":0,"trial_type":"html-button-response","trial_index":90,"time_elapsed":303786,"internal_node_id":"0.0-4.0-1.39","subject_id":"5df3a70877f865293e86c0a0","study_id":"6197b3f67c2b5cd3b6d9596a","session_id":"619be32056ea04f6e4607efc","condition":"contingent","relevant_dimensions":["antennae","legs"],"bee_group":{"antennae":"B","wings":"X","pattern":"X","legs":"M"},"bonus":0.10000000000000042},{"rt":635.3999999994412,"stimulus":"bees-with-color/bee-B2SF.svg","response":1,"trial_type":"image-button-response","trial_index":91,"time_elapsed":304422,"internal_node_id":"0.0-4.0-0.40","subject_id":"5df3a70877f865293e86c0a0","study_id":"6197b3f67c2b5cd3b6d9596a","session_id":"619be32056ea04f6e4607efc","condition":"contingent","relevant_dimensions":["antennae","legs"],"bee_group":{"antennae":"B","wings":"X","pattern":"X","legs":"M"},"action":"avoid","summary":"bad-avoid","bonus":0.10000000000000042},{"rt":577.2999999998137,"stimulus":"\n                    <p><b>Action: <em>avoid</em></b></p>\n                    <p>This is the bee that you just saw.</p>\n                    <img src=\"bees-with-color/bee-B2SF.svg\" width=\"200\">\n                    <p><br>Your bonus pay is unchanged, and remains at $0.20.</p>\n            ","response":0,"trial_type":"html-button-response","trial_index":92,"time_elapsed":305000,"internal_node_id":"0.0-4.0-1.40","subject_id":"5df3a70877f865293e86c0a0","study_id":"6197b3f67c2b5cd3b6d9596a","session_id":"619be32056ea04f6e4607efc","condition":"contingent","relevant_dimensions":["antennae","legs"],"bee_group":{"antennae":"B","wings":"X","pattern":"X","legs":"M"},"bonus":0.10000000000000042},{"rt":405.29999999981374,"stimulus":"bees-with-color/bee-A2SM.svg","response":0,"trial_type":"image-button-response","trial_index":93,"time_elapsed":305406,"internal_node_id":"0.0-4.0-0.41","subject_id":"5df3a70877f865293e86c0a0","study_id":"6197b3f67c2b5cd3b6d9596a","session_id":"619be32056ea04f6e4607efc","condition":"contingent","relevant_dimensions":["antennae","legs"],"bee_group":{"antennae":"B","wings":"X","pattern":"X","legs":"M"},"action":"harvest","summary":"good-harvest","bonus":0.10000000000000042},{"rt":669.3000000007451,"stimulus":"\n                    <p><b>Action: <em>harvest</em></b></p>\n                    <p>This is the bee that you just saw.</p>\n                    <img src=\"bees-with-color/bee-A2SM.svg\" width=\"200\">\n                    <p><span class=\"greenText\"><b>Successful harvest!</b></span><br>Your pay has increased by $0.02. Your bonus pay is now $0.22.</p>\n            ","response":0,"trial_type":"html-button-response","trial_index":94,"time_elapsed":306076,"internal_node_id":"0.0-4.0-1.41","subject_id":"5df3a70877f865293e86c0a0","study_id":"6197b3f67c2b5cd3b6d9596a","session_id":"619be32056ea04f6e4607efc","condition":"contingent","relevant_dimensions":["antennae","legs"],"bee_group":{"antennae":"B","wings":"X","pattern":"X","legs":"M"},"bonus":0.10000000000000042},{"rt":579.2999999998137,"stimulus":"bees-with-color/bee-A1DM.svg","response":0,"trial_type":"image-button-response","trial_index":95,"time_elapsed":306656,"internal_node_id":"0.0-4.0-0.42","subject_id":"5df3a70877f865293e86c0a0","study_id":"6197b3f67c2b5cd3b6d9596a","session_id":"619be32056ea04f6e4607efc","condition":"contingent","relevant_dimensions":["antennae","legs"],"bee_group":{"antennae":"B","wings":"X","pattern":"X","legs":"M"},"action":"harvest","summary":"good-harvest","bonus":0.10000000000000042},{"rt":523,"stimulus":"\n                    <p><b>Action: <em>harvest</em></b></p>\n                    <p>This is the bee that you just saw.</p>\n                    <img src=\"bees-with-color/bee-A1DM.svg\" width=\"200\">\n                    <p><span class=\"greenText\"><b>Successful harvest!</b></span><br>Your pay has increased by $0.02. Your bonus pay is now $0.24.</p>\n            ","response":0,"trial_type":"html-button-response","trial_index":96,"time_elapsed":307180,"internal_node_id":"0.0-4.0-1.42","subject_id":"5df3a70877f865293e86c0a0","study_id":"6197b3f67c2b5cd3b6d9596a","session_id":"619be32056ea04f6e4607efc","condition":"contingent","relevant_dimensions":["antennae","legs"],"bee_group":{"antennae":"B","wings":"X","pattern":"X","legs":"M"},"bonus":0.10000000000000042},{"rt":524.2999999998137,"stimulus":"bees-with-color/bee-A2SF.svg","response":0,"trial_type":"image-button-response","trial_index":97,"time_elapsed":307705,"internal_node_id":"0.0-4.0-0.43","subject_id":"5df3a70877f865293e86c0a0","study_id":"6197b3f67c2b5cd3b6d9596a","session_id":"619be32056ea04f6e4607efc","condition":"contingent","relevant_dimensions":["antennae","legs"],"bee_group":{"antennae":"B","wings":"X","pattern":"X","legs":"M"},"action":"harvest","summary":"good-harvest","bonus":0.10000000000000042},{"rt":563.2000000001863,"stimulus":"\n                    <p><b>Action: <em>harvest</em></b></p>\n                    <p>This is the bee that you just saw.</p>\n                    <img src=\"bees-with-color/bee-A2SF.svg\" width=\"200\">\n                    <p><span class=\"greenText\"><b>Successful harvest!</b></span><br>Your pay has increased by $0.02. Your bonus pay is now $0.26.</p>\n            ","response":0,"trial_type":"html-button-response","trial_index":98,"time_elapsed":308269,"internal_node_id":"0.0-4.0-1.43","subject_id":"5df3a70877f865293e86c0a0","study_id":"6197b3f67c2b5cd3b6d9596a","session_id":"619be32056ea04f6e4607efc","condition":"contingent","relevant_dimensions":["antennae","legs"],"bee_group":{"antennae":"B","wings":"X","pattern":"X","legs":"M"},"bonus":0.10000000000000042},{"rt":398.29999999981374,"stimulus":"bees-with-color/bee-B1DM.svg","response":0,"trial_type":"image-button-response","trial_index":99,"time_elapsed":308668,"internal_node_id":"0.0-4.0-0.44","subject_id":"5df3a70877f865293e86c0a0","study_id":"6197b3f67c2b5cd3b6d9596a","session_id":"619be32056ea04f6e4607efc","condition":"contingent","relevant_dimensions":["antennae","legs"],"bee_group":{"antennae":"B","wings":"X","pattern":"X","legs":"M"},"action":"harvest","summary":"bad-harvest","bonus":0.10000000000000042},{"rt":1215,"stimulus":"\n                    <p><b>Action: <em>harvest</em></b></p>\n                    <p>This is the bee that you just saw.</p>\n                    <img src=\"bees-with-color/bee-B1DM.svg\" width=\"200\">\n                    <p><span class=\"redText\">Bad choice, the bee was angry.</span><br><b>You have been stung!</b><br>Your pay has been decreased by $0.10. Your bonus pay is now $0.16.</p>\n            ","response":0,"trial_type":"html-button-response","trial_index":100,"time_elapsed":309883,"internal_node_id":"0.0-4.0-1.44","subject_id":"5df3a70877f865293e86c0a0","study_id":"6197b3f67c2b5cd3b6d9596a","session_id":"619be32056ea04f6e4607efc","condition":"contingent","relevant_dimensions":["antennae","legs"],"bee_group":{"antennae":"B","wings":"X","pattern":"X","legs":"M"},"bonus":0.10000000000000042},{"rt":1512.4000000003725,"stimulus":"bees-with-color/bee-B2SM.svg","response":1,"trial_type":"image-button-response","trial_index":101,"time_elapsed":311397,"internal_node_id":"0.0-4.0-0.45","subject_id":"5df3a70877f865293e86c0a0","study_id":"6197b3f67c2b5cd3b6d9596a","session_id":"619be32056ea04f6e4607efc","condition":"contingent","relevant_dimensions":["antennae","legs"],"bee_group":{"antennae":"B","wings":"X","pattern":"X","legs":"M"},"action":"avoid","summary":"good-avoid","bonus":0.10000000000000042},{"rt":900.0999999996275,"stimulus":"\n                    <p><b>Action: <em>avoid</em></b></p>\n                    <p>This is the bee that you just saw.</p>\n                    <img src=\"bees-with-color/bee-B2SM.svg\" width=\"200\">\n                    <p><br>Your bonus pay is unchanged, and remains at $0.16.</p>\n            ","response":0,"trial_type":"html-button-response","trial_index":102,"time_elapsed":312298,"internal_node_id":"0.0-4.0-1.45","subject_id":"5df3a70877f865293e86c0a0","study_id":"6197b3f67c2b5cd3b6d9596a","session_id":"619be32056ea04f6e4607efc","condition":"contingent","relevant_dimensions":["antennae","legs"],"bee_group":{"antennae":"B","wings":"X","pattern":"X","legs":"M"},"bonus":0.10000000000000042},{"rt":344,"stimulus":"bees-with-color/bee-B1SF.svg","response":0,"trial_type":"image-button-response","trial_index":103,"time_elapsed":312643,"internal_node_id":"0.0-4.0-0.46","subject_id":"5df3a70877f865293e86c0a0","study_id":"6197b3f67c2b5cd3b6d9596a","session_id":"619be32056ea04f6e4607efc","condition":"contingent","relevant_dimensions":["antennae","legs"],"bee_group":{"antennae":"B","wings":"X","pattern":"X","legs":"M"},"action":"harvest","summary":"good-harvest","bonus":0.10000000000000042},{"rt":844.2000000001863,"stimulus":"\n                    <p><b>Action: <em>harvest</em></b></p>\n                    <p>This is the bee that you just saw.</p>\n                    <img src=\"bees-with-color/bee-B1SF.svg\" width=\"200\">\n                    <p><span class=\"greenText\"><b>Successful harvest!</b></span><br>Your pay has increased by $0.02. Your bonus pay is now $0.18.</p>\n            ","response":0,"trial_type":"html-button-response","trial_index":104,"time_elapsed":313488,"internal_node_id":"0.0-4.0-1.46","subject_id":"5df3a70877f865293e86c0a0","study_id":"6197b3f67c2b5cd3b6d9596a","session_id":"619be32056ea04f6e4607efc","condition":"contingent","relevant_dimensions":["antennae","legs"],"bee_group":{"antennae":"B","wings":"X","pattern":"X","legs":"M"},"bonus":0.10000000000000042},{"rt":610.2999999998137,"stimulus":"bees-with-color/bee-A2DM.svg","response":0,"trial_type":"image-button-response","trial_index":105,"time_elapsed":314099,"internal_node_id":"0.0-4.0-0.47","subject_id":"5df3a70877f865293e86c0a0","study_id":"6197b3f67c2b5cd3b6d9596a","session_id":"619be32056ea04f6e4607efc","condition":"contingent","relevant_dimensions":["antennae","legs"],"bee_group":{"antennae":"B","wings":"X","pattern":"X","legs":"M"},"action":"harvest","summary":"good-harvest","bonus":0.10000000000000042},{"rt":445.1000000005588,"stimulus":"\n                    <p><b>Action: <em>harvest</em></b></p>\n                    <p>This is the bee that you just saw.</p>\n                    <img src=\"bees-with-color/bee-A2DM.svg\" width=\"200\">\n                    <p><span class=\"greenText\"><b>Successful harvest!</b></span><br>Your pay has increased by $0.02. Your bonus pay is now $0.20.</p>\n            ","response":0,"trial_type":"html-button-response","trial_index":106,"time_elapsed":314545,"internal_node_id":"0.0-4.0-1.47","subject_id":"5df3a70877f865293e86c0a0","study_id":"6197b3f67c2b5cd3b6d9596a","session_id":"619be32056ea04f6e4607efc","condition":"contingent","relevant_dimensions":["antennae","legs"],"bee_group":{"antennae":"B","wings":"X","pattern":"X","legs":"M"},"bonus":0.10000000000000042},{"rt":405.40000000037253,"stimulus":"bees-with-color/bee-B2SM.svg","response":0,"trial_type":"image-button-response","trial_index":107,"time_elapsed":314951,"internal_node_id":"0.0-4.0-0.48","subject_id":"5df3a70877f865293e86c0a0","study_id":"6197b3f67c2b5cd3b6d9596a","session_id":"619be32056ea04f6e4607efc","condition":"contingent","relevant_dimensions":["antennae","legs"],"bee_group":{"antennae":"B","wings":"X","pattern":"X","legs":"M"},"action":"harvest","summary":"bad-harvest","bonus":0.10000000000000042},{"rt":1548.0999999996275,"stimulus":"\n                    <p><b>Action: <em>harvest</em></b></p>\n                    <p>This is the bee that you just saw.</p>\n                    <img src=\"bees-with-color/bee-B2SM.svg\" width=\"200\">\n                    <p><span class=\"redText\">Bad choice, the bee was angry.</span><br><b>You have been stung!</b><br>Your pay has been decreased by $0.10. Your bonus pay is now $0.10.</p>\n            ","response":0,"trial_type":"html-button-response","trial_index":108,"time_elapsed":316500,"internal_node_id":"0.0-4.0-1.48","subject_id":"5df3a70877f865293e86c0a0","study_id":"6197b3f67c2b5cd3b6d9596a","session_id":"619be32056ea04f6e4607efc","condition":"contingent","relevant_dimensions":["antennae","legs"],"bee_group":{"antennae":"B","wings":"X","pattern":"X","legs":"M"},"bonus":0.10000000000000042},{"rt":521.2999999998137,"stimulus":"bees-with-color/bee-A1SM.svg","response":1,"trial_type":"image-button-response","trial_index":109,"time_elapsed":317022,"internal_node_id":"0.0-4.0-0.49","subject_id":"5df3a70877f865293e86c0a0","study_id":"6197b3f67c2b5cd3b6d9596a","session_id":"619be32056ea04f6e4607efc","condition":"contingent","relevant_dimensions":["antennae","legs"],"bee_group":{"antennae":"B","wings":"X","pattern":"X","legs":"M"},"action":"avoid","summary":"bad-avoid","bonus":0.10000000000000042},{"rt":548.2999999998137,"stimulus":"\n                    <p><b>Action: <em>avoid</em></b></p>\n                    <p>This is the bee that you just saw.</p>\n                    <img src=\"bees-with-color/bee-A1SM.svg\" width=\"200\">\n                    <p><br>Your bonus pay is unchanged, and remains at $0.10.</p>\n            ","response":0,"trial_type":"html-button-response","trial_index":110,"time_elapsed":317571,"internal_node_id":"0.0-4.0-1.49","subject_id":"5df3a70877f865293e86c0a0","study_id":"6197b3f67c2b5cd3b6d9596a","session_id":"619be32056ea04f6e4607efc","condition":"contingent","relevant_dimensions":["antennae","legs"],"bee_group":{"antennae":"B","wings":"X","pattern":"X","legs":"M"},"bonus":0.10000000000000042},{"rt":458.29999999981374,"stimulus":"bees-with-color/bee-A1SF.svg","response":0,"trial_type":"image-button-response","trial_index":111,"time_elapsed":318030,"internal_node_id":"0.0-4.0-0.50","subject_id":"5df3a70877f865293e86c0a0","study_id":"6197b3f67c2b5cd3b6d9596a","session_id":"619be32056ea04f6e4607efc","condition":"contingent","relevant_dimensions":["antennae","legs"],"bee_group":{"antennae":"B","wings":"X","pattern":"X","legs":"M"},"action":"harvest","summary":"good-harvest","bonus":0.10000000000000042},{"rt":720.2000000001863,"stimulus":"\n                    <p><b>Action: <em>harvest</em></b></p>\n                    <p>This is the bee that you just saw.</p>\n                    <img src=\"bees-with-color/bee-A1SF.svg\" width=\"200\">\n                    <p><span class=\"greenText\"><b>Successful harvest!</b></span><br>Your pay has increased by $0.02. Your bonus pay is now $0.12.</p>\n            ","response":0,"trial_type":"html-button-response","trial_index":112,"time_elapsed":318751,"internal_node_id":"0.0-4.0-1.50","subject_id":"5df3a70877f865293e86c0a0","study_id":"6197b3f67c2b5cd3b6d9596a","session_id":"619be32056ea04f6e4607efc","condition":"contingent","relevant_dimensions":["antennae","legs"],"bee_group":{"antennae":"B","wings":"X","pattern":"X","legs":"M"},"bonus":0.10000000000000042},{"rt":1542.2999999998137,"stimulus":"bees-with-color/bee-B2DF.svg","response":0,"trial_type":"image-button-response","trial_index":113,"time_elapsed":320294,"internal_node_id":"0.0-4.0-0.51","subject_id":"5df3a70877f865293e86c0a0","study_id":"6197b3f67c2b5cd3b6d9596a","session_id":"619be32056ea04f6e4607efc","condition":"contingent","relevant_dimensions":["antennae","legs"],"bee_group":{"antennae":"B","wings":"X","pattern":"X","legs":"M"},"action":"harvest","summary":"good-harvest","bonus":0.10000000000000042},{"rt":515.2000000001863,"stimulus":"\n                    <p><b>Action: <em>harvest</em></b></p>\n                    <p>This is the bee that you just saw.</p>\n                    <img src=\"bees-with-color/bee-B2DF.svg\" width=\"200\">\n                    <p><span class=\"greenText\"><b>Successful harvest!</b></span><br>Your pay has increased by $0.02. Your bonus pay is now $0.14.</p>\n            ","response":0,"trial_type":"html-button-response","trial_index":114,"time_elapsed":320810,"internal_node_id":"0.0-4.0-1.51","subject_id":"5df3a70877f865293e86c0a0","study_id":"6197b3f67c2b5cd3b6d9596a","session_id":"619be32056ea04f6e4607efc","condition":"contingent","relevant_dimensions":["antennae","legs"],"bee_group":{"antennae":"B","wings":"X","pattern":"X","legs":"M"},"bonus":0.10000000000000042},{"rt":433.29999999981374,"stimulus":"bees-with-color/bee-B2SF.svg","response":0,"trial_type":"image-button-response","trial_index":115,"time_elapsed":321244,"internal_node_id":"0.0-4.0-0.52","subject_id":"5df3a70877f865293e86c0a0","study_id":"6197b3f67c2b5cd3b6d9596a","session_id":"619be32056ea04f6e4607efc","condition":"contingent","relevant_dimensions":["antennae","legs"],"bee_group":{"antennae":"B","wings":"X","pattern":"X","legs":"M"},"action":"harvest","summary":"good-harvest","bonus":0.10000000000000042},{"rt":507.5,"stimulus":"\n                    <p><b>Action: <em>harvest</em></b></p>\n                    <p>This is the bee that you just saw.</p>\n                    <img src=\"bees-with-color/bee-B2SF.svg\" width=\"200\">\n                    <p><span class=\"greenText\"><b>Successful harvest!</b></span><br>Your pay has increased by $0.02. Your bonus pay is now $0.16.</p>\n            ","response":0,"trial_type":"html-button-response","trial_index":116,"time_elapsed":321752,"internal_node_id":"0.0-4.0-1.52","subject_id":"5df3a70877f865293e86c0a0","study_id":"6197b3f67c2b5cd3b6d9596a","session_id":"619be32056ea04f6e4607efc","condition":"contingent","relevant_dimensions":["antennae","legs"],"bee_group":{"antennae":"B","wings":"X","pattern":"X","legs":"M"},"bonus":0.10000000000000042},{"rt":709.0999999996275,"stimulus":"bees-with-color/bee-A1DM.svg","response":0,"trial_type":"image-button-response","trial_index":117,"time_elapsed":322462,"internal_node_id":"0.0-4.0-0.53","subject_id":"5df3a70877f865293e86c0a0","study_id":"6197b3f67c2b5cd3b6d9596a","session_id":"619be32056ea04f6e4607efc","condition":"contingent","relevant_dimensions":["antennae","legs"],"bee_group":{"antennae":"B","wings":"X","pattern":"X","legs":"M"},"action":"harvest","summary":"good-harvest","bonus":0.10000000000000042},{"rt":466.29999999981374,"stimulus":"\n                    <p><b>Action: <em>harvest</em></b></p>\n                    <p>This is the bee that you just saw.</p>\n                    <img src=\"bees-with-color/bee-A1DM.svg\" width=\"200\">\n                    <p><span class=\"greenText\"><b>Successful harvest!</b></span><br>Your pay has increased by $0.02. Your bonus pay is now $0.18.</p>\n            ","response":0,"trial_type":"html-button-response","trial_index":118,"time_elapsed":322929,"internal_node_id":"0.0-4.0-1.53","subject_id":"5df3a70877f865293e86c0a0","study_id":"6197b3f67c2b5cd3b6d9596a","session_id":"619be32056ea04f6e4607efc","condition":"contingent","relevant_dimensions":["antennae","legs"],"bee_group":{"antennae":"B","wings":"X","pattern":"X","legs":"M"},"bonus":0.10000000000000042},{"rt":750.2000000001863,"stimulus":"bees-with-color/bee-B1SF.svg","response":0,"trial_type":"image-button-response","trial_index":119,"time_elapsed":323680,"internal_node_id":"0.0-4.0-0.54","subject_id":"5df3a70877f865293e86c0a0","study_id":"6197b3f67c2b5cd3b6d9596a","session_id":"619be32056ea04f6e4607efc","condition":"contingent","relevant_dimensions":["antennae","legs"],"bee_group":{"antennae":"B","wings":"X","pattern":"X","legs":"M"},"action":"harvest","summary":"good-harvest","bonus":0.10000000000000042},{"rt":475.20000000018626,"stimulus":"\n                    <p><b>Action: <em>harvest</em></b></p>\n                    <p>This is the bee that you just saw.</p>\n                    <img src=\"bees-with-color/bee-B1SF.svg\" width=\"200\">\n                    <p><span class=\"greenText\"><b>Successful harvest!</b></span><br>Your pay has increased by $0.02. Your bonus pay is now $0.20.</p>\n            ","response":0,"trial_type":"html-button-response","trial_index":120,"time_elapsed":324156,"internal_node_id":"0.0-4.0-1.54","subject_id":"5df3a70877f865293e86c0a0","study_id":"6197b3f67c2b5cd3b6d9596a","session_id":"619be32056ea04f6e4607efc","condition":"contingent","relevant_dimensions":["antennae","legs"],"bee_group":{"antennae":"B","wings":"X","pattern":"X","legs":"M"},"bonus":0.10000000000000042},{"rt":1103.0999999996275,"stimulus":"bees-with-color/bee-B1DM.svg","response":1,"trial_type":"image-button-response","trial_index":121,"time_elapsed":325260,"internal_node_id":"0.0-4.0-0.55","subject_id":"5df3a70877f865293e86c0a0","study_id":"6197b3f67c2b5cd3b6d9596a","session_id":"619be32056ea04f6e4607efc","condition":"contingent","relevant_dimensions":["antennae","legs"],"bee_group":{"antennae":"B","wings":"X","pattern":"X","legs":"M"},"action":"avoid","summary":"good-avoid","bonus":0.10000000000000042},{"rt":452.90000000037253,"stimulus":"\n                    <p><b>Action: <em>avoid</em></b></p>\n                    <p>This is the bee that you just saw.</p>\n                    <img src=\"bees-with-color/bee-B1DM.svg\" width=\"200\">\n                    <p><br>Your bonus pay is unchanged, and remains at $0.20.</p>\n            ","response":0,"trial_type":"html-button-response","trial_index":122,"time_elapsed":325714,"internal_node_id":"0.0-4.0-1.55","subject_id":"5df3a70877f865293e86c0a0","study_id":"6197b3f67c2b5cd3b6d9596a","session_id":"619be32056ea04f6e4607efc","condition":"contingent","relevant_dimensions":["antennae","legs"],"bee_group":{"antennae":"B","wings":"X","pattern":"X","legs":"M"},"bonus":0.10000000000000042},{"rt":629.5,"stimulus":"bees-with-color/bee-A2DF.svg","response":1,"trial_type":"image-button-response","trial_index":123,"time_elapsed":326344,"internal_node_id":"0.0-4.0-0.56","subject_id":"5df3a70877f865293e86c0a0","study_id":"6197b3f67c2b5cd3b6d9596a","session_id":"619be32056ea04f6e4607efc","condition":"contingent","relevant_dimensions":["antennae","legs"],"bee_group":{"antennae":"B","wings":"X","pattern":"X","legs":"M"},"action":"avoid","summary":"bad-avoid","bonus":0.10000000000000042},{"rt":545.8999999994412,"stimulus":"\n                    <p><b>Action: <em>avoid</em></b></p>\n                    <p>This is the bee that you just saw.</p>\n                    <img src=\"bees-with-color/bee-A2DF.svg\" width=\"200\">\n                    <p><br>Your bonus pay is unchanged, and remains at $0.20.</p>\n            ","response":0,"trial_type":"html-button-response","trial_index":124,"time_elapsed":326891,"internal_node_id":"0.0-4.0-1.56","subject_id":"5df3a70877f865293e86c0a0","study_id":"6197b3f67c2b5cd3b6d9596a","session_id":"619be32056ea04f6e4607efc","condition":"contingent","relevant_dimensions":["antennae","legs"],"bee_group":{"antennae":"B","wings":"X","pattern":"X","legs":"M"},"bonus":0.10000000000000042},{"rt":587.2000000001863,"stimulus":"bees-with-color/bee-B1SM.svg","response":1,"trial_type":"image-button-response","trial_index":125,"time_elapsed":327479,"internal_node_id":"0.0-4.0-0.57","subject_id":"5df3a70877f865293e86c0a0","study_id":"6197b3f67c2b5cd3b6d9596a","session_id":"619be32056ea04f6e4607efc","condition":"contingent","relevant_dimensions":["antennae","legs"],"bee_group":{"antennae":"B","wings":"X","pattern":"X","legs":"M"},"action":"avoid","summary":"good-avoid","bonus":0.10000000000000042},{"rt":468.40000000037253,"stimulus":"\n                    <p><b>Action: <em>avoid</em></b></p>\n                    <p>This is the bee that you just saw.</p>\n                    <img src=\"bees-with-color/bee-B1SM.svg\" width=\"200\">\n                    <p><br>Your bonus pay is unchanged, and remains at $0.20.</p>\n            ","response":0,"trial_type":"html-button-response","trial_index":126,"time_elapsed":327948,"internal_node_id":"0.0-4.0-1.57","subject_id":"5df3a70877f865293e86c0a0","study_id":"6197b3f67c2b5cd3b6d9596a","session_id":"619be32056ea04f6e4607efc","condition":"contingent","relevant_dimensions":["antennae","legs"],"bee_group":{"antennae":"B","wings":"X","pattern":"X","legs":"M"},"bonus":0.10000000000000042},{"rt":539.5,"stimulus":"bees-with-color/bee-A1DF.svg","response":0,"trial_type":"image-button-response","trial_index":127,"time_elapsed":328488,"internal_node_id":"0.0-4.0-0.58","subject_id":"5df3a70877f865293e86c0a0","study_id":"6197b3f67c2b5cd3b6d9596a","session_id":"619be32056ea04f6e4607efc","condition":"contingent","relevant_dimensions":["antennae","legs"],"bee_group":{"antennae":"B","wings":"X","pattern":"X","legs":"M"},"action":"harvest","summary":"good-harvest","bonus":0.10000000000000042},{"rt":466.09999999962747,"stimulus":"\n                    <p><b>Action: <em>harvest</em></b></p>\n                    <p>This is the bee that you just saw.</p>\n                    <img src=\"bees-with-color/bee-A1DF.svg\" width=\"200\">\n                    <p><span class=\"greenText\"><b>Successful harvest!</b></span><br>Your pay has increased by $0.02. Your bonus pay is now $0.22.</p>\n            ","response":0,"trial_type":"html-button-response","trial_index":128,"time_elapsed":328955,"internal_node_id":"0.0-4.0-1.58","subject_id":"5df3a70877f865293e86c0a0","study_id":"6197b3f67c2b5cd3b6d9596a","session_id":"619be32056ea04f6e4607efc","condition":"contingent","relevant_dimensions":["antennae","legs"],"bee_group":{"antennae":"B","wings":"X","pattern":"X","legs":"M"},"bonus":0.10000000000000042},{"rt":1059.2999999998137,"stimulus":"bees-with-color/bee-A2SM.svg","response":1,"trial_type":"image-button-response","trial_index":129,"time_elapsed":330015,"internal_node_id":"0.0-4.0-0.59","subject_id":"5df3a70877f865293e86c0a0","study_id":"6197b3f67c2b5cd3b6d9596a","session_id":"619be32056ea04f6e4607efc","condition":"contingent","relevant_dimensions":["antennae","legs"],"bee_group":{"antennae":"B","wings":"X","pattern":"X","legs":"M"},"action":"avoid","summary":"bad-avoid","bonus":0.10000000000000042},{"rt":679.2999999998137,"stimulus":"\n                    <p><b>Action: <em>avoid</em></b></p>\n                    <p>This is the bee that you just saw.</p>\n                    <img src=\"bees-with-color/bee-A2SM.svg\" width=\"200\">\n                    <p><br>Your bonus pay is unchanged, and remains at $0.22.</p>\n            ","response":0,"trial_type":"html-button-response","trial_index":130,"time_elapsed":330695,"internal_node_id":"0.0-4.0-1.59","subject_id":"5df3a70877f865293e86c0a0","study_id":"6197b3f67c2b5cd3b6d9596a","session_id":"619be32056ea04f6e4607efc","condition":"contingent","relevant_dimensions":["antennae","legs"],"bee_group":{"antennae":"B","wings":"X","pattern":"X","legs":"M"},"bonus":0.10000000000000042},{"rt":397.09999999962747,"stimulus":"bees-with-color/bee-A2SF.svg","response":1,"trial_type":"image-button-response","trial_index":131,"time_elapsed":331093,"internal_node_id":"0.0-4.0-0.60","subject_id":"5df3a70877f865293e86c0a0","study_id":"6197b3f67c2b5cd3b6d9596a","session_id":"619be32056ea04f6e4607efc","condition":"contingent","relevant_dimensions":["antennae","legs"],"bee_group":{"antennae":"B","wings":"X","pattern":"X","legs":"M"},"action":"avoid","summary":"bad-avoid","bonus":0.10000000000000042},{"rt":920.4000000003725,"stimulus":"\n                    <p><b>Action: <em>avoid</em></b></p>\n                    <p>This is the bee that you just saw.</p>\n                    <img src=\"bees-with-color/bee-A2SF.svg\" width=\"200\">\n                    <p><br>Your bonus pay is unchanged, and remains at $0.22.</p>\n            ","response":0,"trial_type":"html-button-response","trial_index":132,"time_elapsed":332014,"internal_node_id":"0.0-4.0-1.60","subject_id":"5df3a70877f865293e86c0a0","study_id":"6197b3f67c2b5cd3b6d9596a","session_id":"619be32056ea04f6e4607efc","condition":"contingent","relevant_dimensions":["antennae","legs"],"bee_group":{"antennae":"B","wings":"X","pattern":"X","legs":"M"},"bonus":0.10000000000000042},{"rt":784.4000000003725,"stimulus":"bees-with-color/bee-B1DF.svg","response":0,"trial_type":"image-button-response","trial_index":133,"time_elapsed":332799,"internal_node_id":"0.0-4.0-0.61","subject_id":"5df3a70877f865293e86c0a0","study_id":"6197b3f67c2b5cd3b6d9596a","session_id":"619be32056ea04f6e4607efc","condition":"contingent","relevant_dimensions":["antennae","legs"],"bee_group":{"antennae":"B","wings":"X","pattern":"X","legs":"M"},"action":"harvest","summary":"good-harvest","bonus":0.10000000000000042},{"rt":488.20000000018626,"stimulus":"\n                    <p><b>Action: <em>harvest</em></b></p>\n                    <p>This is the bee that you just saw.</p>\n                    <img src=\"bees-with-color/bee-B1DF.svg\" width=\"200\">\n                    <p><span class=\"greenText\"><b>Successful harvest!</b></span><br>Your pay has increased by $0.02. Your bonus pay is now $0.24.</p>\n            ","response":0,"trial_type":"html-button-response","trial_index":134,"time_elapsed":333288,"internal_node_id":"0.0-4.0-1.61","subject_id":"5df3a70877f865293e86c0a0","study_id":"6197b3f67c2b5cd3b6d9596a","session_id":"619be32056ea04f6e4607efc","condition":"contingent","relevant_dimensions":["antennae","legs"],"bee_group":{"antennae":"B","wings":"X","pattern":"X","legs":"M"},"bonus":0.10000000000000042},{"rt":644.2999999998137,"stimulus":"bees-with-color/bee-B2DM.svg","response":1,"trial_type":"image-button-response","trial_index":135,"time_elapsed":333933,"internal_node_id":"0.0-4.0-0.62","subject_id":"5df3a70877f865293e86c0a0","study_id":"6197b3f67c2b5cd3b6d9596a","session_id":"619be32056ea04f6e4607efc","condition":"contingent","relevant_dimensions":["antennae","legs"],"bee_group":{"antennae":"B","wings":"X","pattern":"X","legs":"M"},"action":"avoid","summary":"good-avoid","bonus":0.10000000000000042},{"rt":461.20000000018626,"stimulus":"\n                    <p><b>Action: <em>avoid</em></b></p>\n                    <p>This is the bee that you just saw.</p>\n                    <img src=\"bees-with-color/bee-B2DM.svg\" width=\"200\">\n                    <p><br>Your bonus pay is unchanged, and remains at $0.24.</p>\n            ","response":0,"trial_type":"html-button-response","trial_index":136,"time_elapsed":334395,"internal_node_id":"0.0-4.0-1.62","subject_id":"5df3a70877f865293e86c0a0","study_id":"6197b3f67c2b5cd3b6d9596a","session_id":"619be32056ea04f6e4607efc","condition":"contingent","relevant_dimensions":["antennae","legs"],"bee_group":{"antennae":"B","wings":"X","pattern":"X","legs":"M"},"bonus":0.10000000000000042},{"rt":336.40000000037253,"stimulus":"bees-with-color/bee-A2DM.svg","response":1,"trial_type":"image-button-response","trial_index":137,"time_elapsed":334732,"internal_node_id":"0.0-4.0-0.63","subject_id":"5df3a70877f865293e86c0a0","study_id":"6197b3f67c2b5cd3b6d9596a","session_id":"619be32056ea04f6e4607efc","condition":"contingent","relevant_dimensions":["antennae","legs"],"bee_group":{"antennae":"B","wings":"X","pattern":"X","legs":"M"},"action":"avoid","summary":"bad-avoid","bonus":0.10000000000000042},{"rt":1268.300000000745,"stimulus":"\n                    <p><b>Action: <em>avoid</em></b></p>\n                    <p>This is the bee that you just saw.</p>\n                    <img src=\"bees-with-color/bee-A2DM.svg\" width=\"200\">\n                    <p><br>Your bonus pay is unchanged, and remains at $0.24.</p>\n            ","response":0,"trial_type":"html-button-response","trial_index":138,"time_elapsed":336001,"internal_node_id":"0.0-4.0-1.63","subject_id":"5df3a70877f865293e86c0a0","study_id":"6197b3f67c2b5cd3b6d9596a","session_id":"619be32056ea04f6e4607efc","condition":"contingent","relevant_dimensions":["antennae","legs"],"bee_group":{"antennae":"B","wings":"X","pattern":"X","legs":"M"},"bonus":0.10000000000000042},{"rt":4858.899999999441,"stimulus":"You have completed the first part of this experiment.<br><br>You will now begin a shorter second part, in which you will receive no feedback.<br>The same rules regarding bonus pay apply.<br><br>Press any key to begin.","response":"enter","trial_type":"html-keyboard-response","trial_index":139,"time_elapsed":340860,"internal_node_id":"0.0-5.0","subject_id":"5df3a70877f865293e86c0a0","study_id":"6197b3f67c2b5cd3b6d9596a","session_id":"619be32056ea04f6e4607efc","condition":"contingent","relevant_dimensions":["antennae","legs"],"bee_group":{"antennae":"B","wings":"X","pattern":"X","legs":"M"},"bonus":0.10000000000000042},{"rt":1183.8999999994412,"stimulus":"bees-with-color/bee-A2DM.svg","response":0,"trial_type":"image-button-response","trial_index":140,"time_elapsed":342049,"internal_node_id":"0.0-6.0-0.0","subject_id":"5df3a70877f865293e86c0a0","study_id":"6197b3f67c2b5cd3b6d9596a","session_id":"619be32056ea04f6e4607efc","condition":"contingent","relevant_dimensions":["antennae","legs"],"bee_group":{"antennae":"B","wings":"X","pattern":"X","legs":"M"},"bonus":0.10000000000000042},{"rt":1549.7999999998137,"stimulus":"bees-with-color/bee-A1SF.svg","response":1,"trial_type":"image-button-response","trial_index":141,"time_elapsed":343600,"internal_node_id":"0.0-6.0-0.1","subject_id":"5df3a70877f865293e86c0a0","study_id":"6197b3f67c2b5cd3b6d9596a","session_id":"619be32056ea04f6e4607efc","condition":"contingent","relevant_dimensions":["antennae","legs"],"bee_group":{"antennae":"B","wings":"X","pattern":"X","legs":"M"},"bonus":0.10000000000000042},{"rt":888.1000000005588,"stimulus":"bees-with-color/bee-A1DF.svg","response":1,"trial_type":"image-button-response","trial_index":142,"time_elapsed":344489,"internal_node_id":"0.0-6.0-0.2","subject_id":"5df3a70877f865293e86c0a0","study_id":"6197b3f67c2b5cd3b6d9596a","session_id":"619be32056ea04f6e4607efc","condition":"contingent","relevant_dimensions":["antennae","legs"],"bee_group":{"antennae":"B","wings":"X","pattern":"X","legs":"M"},"bonus":0.10000000000000042},{"rt":703,"stimulus":"bees-with-color/bee-B1SM.svg","response":0,"trial_type":"image-button-response","trial_index":143,"time_elapsed":345193,"internal_node_id":"0.0-6.0-0.3","subject_id":"5df3a70877f865293e86c0a0","study_id":"6197b3f67c2b5cd3b6d9596a","session_id":"619be32056ea04f6e4607efc","condition":"contingent","relevant_dimensions":["antennae","legs"],"bee_group":{"antennae":"B","wings":"X","pattern":"X","legs":"M"},"bonus":0.10000000000000042},{"rt":542.9000000003725,"stimulus":"bees-with-color/bee-B2SF.svg","response":1,"trial_type":"image-button-response","trial_index":144,"time_elapsed":345737,"internal_node_id":"0.0-6.0-0.4","subject_id":"5df3a70877f865293e86c0a0","study_id":"6197b3f67c2b5cd3b6d9596a","session_id":"619be32056ea04f6e4607efc","condition":"contingent","relevant_dimensions":["antennae","legs"],"bee_group":{"antennae":"B","wings":"X","pattern":"X","legs":"M"},"bonus":0.10000000000000042},{"rt":557.8999999994412,"stimulus":"bees-with-color/bee-B1DF.svg","response":0,"trial_type":"image-button-response","trial_index":145,"time_elapsed":346296,"internal_node_id":"0.0-6.0-0.5","subject_id":"5df3a70877f865293e86c0a0","study_id":"6197b3f67c2b5cd3b6d9596a","session_id":"619be32056ea04f6e4607efc","condition":"contingent","relevant_dimensions":["antennae","legs"],"bee_group":{"antennae":"B","wings":"X","pattern":"X","legs":"M"},"bonus":0.10000000000000042},{"rt":1529,"stimulus":"bees-with-color/bee-A2DF.svg","response":0,"trial_type":"image-button-response","trial_index":146,"time_elapsed":347826,"internal_node_id":"0.0-6.0-0.6","subject_id":"5df3a70877f865293e86c0a0","study_id":"6197b3f67c2b5cd3b6d9596a","session_id":"619be32056ea04f6e4607efc","condition":"contingent","relevant_dimensions":["antennae","legs"],"bee_group":{"antennae":"B","wings":"X","pattern":"X","legs":"M"},"bonus":0.10000000000000042},{"rt":931.7999999998137,"stimulus":"bees-with-color/bee-B2DM.svg","response":1,"trial_type":"image-button-response","trial_index":147,"time_elapsed":348759,"internal_node_id":"0.0-6.0-0.7","subject_id":"5df3a70877f865293e86c0a0","study_id":"6197b3f67c2b5cd3b6d9596a","session_id":"619be32056ea04f6e4607efc","condition":"contingent","relevant_dimensions":["antennae","legs"],"bee_group":{"antennae":"B","wings":"X","pattern":"X","legs":"M"},"bonus":0.10000000000000042},{"rt":846.8999999994412,"stimulus":"bees-with-color/bee-A1SM.svg","response":0,"trial_type":"image-button-response","trial_index":148,"time_elapsed":349607,"internal_node_id":"0.0-6.0-0.8","subject_id":"5df3a70877f865293e86c0a0","study_id":"6197b3f67c2b5cd3b6d9596a","session_id":"619be32056ea04f6e4607efc","condition":"contingent","relevant_dimensions":["antennae","legs"],"bee_group":{"antennae":"B","wings":"X","pattern":"X","legs":"M"},"bonus":0.10000000000000042},{"rt":820.1000000005588,"stimulus":"bees-with-color/bee-B1SF.svg","response":0,"trial_type":"image-button-response","trial_index":149,"time_elapsed":350428,"internal_node_id":"0.0-6.0-0.9","subject_id":"5df3a70877f865293e86c0a0","study_id":"6197b3f67c2b5cd3b6d9596a","session_id":"619be32056ea04f6e4607efc","condition":"contingent","relevant_dimensions":["antennae","legs"],"bee_group":{"antennae":"B","wings":"X","pattern":"X","legs":"M"},"bonus":0.10000000000000042},{"rt":1052,"stimulus":"bees-with-color/bee-B2SM.svg","response":0,"trial_type":"image-button-response","trial_index":150,"time_elapsed":351481,"internal_node_id":"0.0-6.0-0.10","subject_id":"5df3a70877f865293e86c0a0","study_id":"6197b3f67c2b5cd3b6d9596a","session_id":"619be32056ea04f6e4607efc","condition":"contingent","relevant_dimensions":["antennae","legs"],"bee_group":{"antennae":"B","wings":"X","pattern":"X","legs":"M"},"bonus":0.10000000000000042},{"rt":447.8999999994412,"stimulus":"bees-with-color/bee-A2SM.svg","response":0,"trial_type":"image-button-response","trial_index":151,"time_elapsed":351930,"internal_node_id":"0.0-6.0-0.11","subject_id":"5df3a70877f865293e86c0a0","study_id":"6197b3f67c2b5cd3b6d9596a","session_id":"619be32056ea04f6e4607efc","condition":"contingent","relevant_dimensions":["antennae","legs"],"bee_group":{"antennae":"B","wings":"X","pattern":"X","legs":"M"},"bonus":0.10000000000000042},{"rt":446.79999999981374,"stimulus":"bees-with-color/bee-B1DM.svg","response":1,"trial_type":"image-button-response","trial_index":152,"time_elapsed":352378,"internal_node_id":"0.0-6.0-0.12","subject_id":"5df3a70877f865293e86c0a0","study_id":"6197b3f67c2b5cd3b6d9596a","session_id":"619be32056ea04f6e4607efc","condition":"contingent","relevant_dimensions":["antennae","legs"],"bee_group":{"antennae":"B","wings":"X","pattern":"X","legs":"M"},"bonus":0.10000000000000042},{"rt":347.09999999962747,"stimulus":"bees-with-color/bee-A2SF.svg","response":1,"trial_type":"image-button-response","trial_index":153,"time_elapsed":352726,"internal_node_id":"0.0-6.0-0.13","subject_id":"5df3a70877f865293e86c0a0","study_id":"6197b3f67c2b5cd3b6d9596a","session_id":"619be32056ea04f6e4607efc","condition":"contingent","relevant_dimensions":["antennae","legs"],"bee_group":{"antennae":"B","wings":"X","pattern":"X","legs":"M"},"bonus":0.10000000000000042},{"rt":498.29999999981374,"stimulus":"bees-with-color/bee-B2DF.svg","response":1,"trial_type":"image-button-response","trial_index":154,"time_elapsed":353226,"internal_node_id":"0.0-6.0-0.14","subject_id":"5df3a70877f865293e86c0a0","study_id":"6197b3f67c2b5cd3b6d9596a","session_id":"619be32056ea04f6e4607efc","condition":"contingent","relevant_dimensions":["antennae","legs"],"bee_group":{"antennae":"B","wings":"X","pattern":"X","legs":"M"},"bonus":0.10000000000000042},{"rt":366.29999999981374,"stimulus":"bees-with-color/bee-A1DM.svg","response":1,"trial_type":"image-button-response","trial_index":155,"time_elapsed":353593,"internal_node_id":"0.0-6.0-0.15","subject_id":"5df3a70877f865293e86c0a0","study_id":"6197b3f67c2b5cd3b6d9596a","session_id":"619be32056ea04f6e4607efc","condition":"contingent","relevant_dimensions":["antennae","legs"],"bee_group":{"antennae":"B","wings":"X","pattern":"X","legs":"M"},"bonus":0.10000000000000042},{"rt":405.8999999994412,"stimulus":"bees-with-color/bee-B1DF.svg","response":1,"trial_type":"image-button-response","trial_index":156,"time_elapsed":354000,"internal_node_id":"0.0-6.0-0.16","subject_id":"5df3a70877f865293e86c0a0","study_id":"6197b3f67c2b5cd3b6d9596a","session_id":"619be32056ea04f6e4607efc","condition":"contingent","relevant_dimensions":["antennae","legs"],"bee_gro