[{"success":true,"trial_type":"fullscreen","trial_index":0,"time_elapsed":26431,"internal_node_id":"0.0-0.0","subject_id":"5f91ad02439b5e04b51d69a0","study_id":"60edd13110225f80f9f3709b","session_id":"6196c1ef2c8262b36228ad6f","condition":"full-information","relevant_dimensions":["antennae","wings"],"bee_group":{"antennae":"B","wings":"1","pattern":"X","legs":"X"},"bonus":1.7600000000000013},{"success":true,"timeout":false,"failed_images":[],"failed_audio":[],"failed_video":[],"trial_type":"preload","trial_index":1,"time_elapsed":28002,"internal_node_id":"0.0-1.0","subject_id":"5f91ad02439b5e04b51d69a0","study_id":"60edd13110225f80f9f3709b","session_id":"6196c1ef2c8262b36228ad6f","condition":"full-information","relevant_dimensions":["antennae","wings"],"bee_group":{"antennae":"B","wings":"1","pattern":"X","legs":"X"},"bonus":1.7600000000000013},{"rt":2679.699999999255,"stimulus":"Welcome! Press any key to begin.","response":"enter","trial_type":"html-keyboard-response","trial_index":2,"time_elapsed":30684,"internal_node_id":"0.0-2.0","subject_id":"5f91ad02439b5e04b51d69a0","study_id":"60edd13110225f80f9f3709b","session_id":"6196c1ef2c8262b36228ad6f","condition":"full-information","relevant_dimensions":["antennae","wings"],"bee_group":{"antennae":"B","wings":"1","pattern":"X","legs":"X"},"bonus":1.7600000000000013},{"view_history":[{"page_index":0,"viewing_time":2812},{"page_index":1,"viewing_time":8835.799999998882},{"page_index":2,"viewing_time":9145.900000000373},{"page_index":3,"viewing_time":12272.099999999627},{"page_index":4,"viewing_time":4596},{"page_index":5,"viewing_time":6200.10000000149},{"page_index":6,"viewing_time":6774},{"page_index":7,"viewing_time":4542.699999999255},{"page_index":8,"viewing_time":5184},{"page_index":9,"viewing_time":3791.300000000745},{"page_index":10,"viewing_time":5901.5},{"page_index":11,"viewing_time":6943.5},{"page_index":12,"viewing_time":10341.799999998882},{"page_index":13,"viewing_time":1394.800000000745},{"page_index":14,"viewing_time":1678.7999999988824}],"rt":90414.69999999925,"trial_type":"instructions","trial_index":3,"time_elapsed":121098,"internal_node_id":"0.0-3.0-0.0","subject_id":"5f91ad02439b5e04b51d69a0","study_id":"60edd13110225f80f9f3709b","session_id":"6196c1ef2c8262b36228ad6f","condition":"full-information","relevant_dimensions":["antennae","wings"],"bee_group":{"antennae":"B","wings":"1","pattern":"X","legs":"X"},"bonus":1.7600000000000013},{"rt":9164.200000001118,"response":{"Q0":["Two or six legs","Stripes or spots on body","Single or double wings","Antennae or no antennae"]},"question_order":[0],"trial_type":"survey-multi-select","trial_index":4,"time_elapsed":130267,"internal_node_id":"0.0-3.0-1.0","subject_id":"5f91ad02439b5e04b51d69a0","study_id":"60edd13110225f80f9f3709b","session_id":"6196c1ef2c8262b36228ad6f","condition":"full-information","relevant_dimensions":["antennae","wings"],"bee_group":{"antennae":"B","wings":"1","pattern":"X","legs":"X"},"correct":true,"bonus":1.7600000000000013},{"rt":21668.89999999851,"response":{"Q1":"No.","Q2":"Based on the four features of the bee.","Q3":"You learn if it was friendly or dangerous, but do not alter your bonus."},"question_order":[0,1,2],"trial_type":"survey-multi-choice","trial_index":5,"time_elapsed":151939,"internal_node_id":"0.0-3.0-2.0","subject_id":"5f91ad02439b5e04b51d69a0","study_id":"60edd13110225f80f9f3709b","session_id":"6196c1ef2c8262b36228ad6f","condition":"full-information","relevant_dimensions":["antennae","wings"],"bee_group":{"antennae":"B","wings":"1","pattern":"X","legs":"X"},"correct":true,"bonus":1.7600000000000013},{"rt":2259.9000000003725,"stimulus":"<p>Congrats, you got everything right<br>When you're ready, click the button below to continue to the experiment.</p>","response":0,"trial_type":"html-button-response","trial_index":6,"time_elapsed":154202,"internal_node_id":"0.0-3.0-3.0","subject_id":"5f91ad02439b5e04b51d69a0","study_id":"60edd13110225f80f9f3709b","session_id":"6196c1ef2c8262b36228ad6f","condition":"full-information","relevant_dimensions":["antennae","wings"],"bee_group":{"antennae":"B","wings":"1","pattern":"X","legs":"X"},"bonus":1.7600000000000013},{"rt":2561.0999999996275,"stimulus":"bees-with-color/bee-B2SF.svg","response":0,"trial_type":"image-button-response","trial_index":7,"time_elapsed":156764,"internal_node_id":"0.0-4.0-0.0","subject_id":"5f91ad02439b5e04b51d69a0","study_id":"60edd13110225f80f9f3709b","session_id":"6196c1ef2c8262b36228ad6f","condition":"full-information","relevant_dimensions":["antennae","wings"],"bee_group":{"antennae":"B","wings":"1","pattern":"X","legs":"X"},"action":"harvest","summary":"good-harvest","bonus":1.7600000000000013},{"rt":8339.5,"stimulus":"\n                    <p><b>Action: <em>harvest</em></b></p>\n                    <p>This is the bee that you just saw.</p>\n                    <img src=\"bees-with-color/bee-B2SF.svg\" width=\"200\">\n                    <p><span class=\"greenText\"><b>Successful harvest!</b></span><br>Your pay has increased by $0.02. Your bonus pay is now $0.56.</p>\n            ","response":0,"trial_type":"html-button-response","trial_index":8,"time_elapsed":165105,"internal_node_id":"0.0-4.0-1.0","subject_id":"5f91ad02439b5e04b51d69a0","study_id":"60edd13110225f80f9f3709b","session_id":"6196c1ef2c8262b36228ad6f","condition":"full-information","relevant_dimensions":["antennae","wings"],"bee_group":{"antennae":"B","wings":"1","pattern":"X","legs":"X"},"bonus":1.7600000000000013},{"rt":1647.9000000003725,"stimulus":"bees-with-color/bee-A2DF.svg","response":0,"trial_type":"image-button-response","trial_index":9,"time_elapsed":166754,"internal_node_id":"0.0-4.0-0.1","subject_id":"5f91ad02439b5e04b51d69a0","study_id":"60edd13110225f80f9f3709b","session_id":"6196c1ef2c8262b36228ad6f","condition":"full-information","relevant_dimensions":["antennae","wings"],"bee_group":{"antennae":"B","wings":"1","pattern":"X","legs":"X"},"action":"harvest","summary":"good-harvest","bonus":1.7600000000000013},{"rt":7639.200000001118,"stimulus":"\n                    <p><b>Action: <em>harvest</em></b></p>\n                    <p>This is the bee that you just saw.</p>\n                    <img src=\"bees-with-color/bee-A2DF.svg\" width=\"200\">\n                    <p><span class=\"greenText\"><b>Successful harvest!</b></span><br>Your pay has increased by $0.02. Your bonus pay is now $0.58.</p>\n            ","response":0,"trial_type":"html-button-response","trial_index":10,"time_elapsed":174395,"internal_node_id":"0.0-4.0-1.1","subject_id":"5f91ad02439b5e04b51d69a0","study_id":"60edd13110225f80f9f3709b","session_id":"6196c1ef2c8262b36228ad6f","condition":"full-information","relevant_dimensions":["antennae","wings"],"bee_group":{"antennae":"B","wings":"1","pattern":"X","legs":"X"},"bonus":1.7600000000000013},{"rt":1398.4000000003725,"stimulus":"bees-with-color/bee-B2DM.svg","response":0,"trial_type":"image-button-response","trial_index":11,"time_elapsed":175794,"internal_node_id":"0.0-4.0-0.2","subject_id":"5f91ad02439b5e04b51d69a0","study_id":"60edd13110225f80f9f3709b","session_id":"6196c1ef2c8262b36228ad6f","condition":"full-information","relevant_dimensions":["antennae","wings"],"bee_group":{"antennae":"B","wings":"1","pattern":"X","legs":"X"},"action":"harvest","summary":"good-harvest","bonus":1.7600000000000013},{"rt":3714.2000000011176,"stimulus":"\n                    <p><b>Action: <em>harvest</em></b></p>\n                    <p>This is the bee that you just saw.</p>\n                    <img src=\"bees-with-color/bee-B2DM.svg\" width=\"200\">\n                    <p><span class=\"greenText\"><b>Successful harvest!</b></span><br>Your pay has increased by $0.02. Your bonus pay is now $0.60.</p>\n            ","response":0,"trial_type":"html-button-response","trial_index":12,"time_elapsed":179509,"internal_node_id":"0.0-4.0-1.2","subject_id":"5f91ad02439b5e04b51d69a0","study_id":"60edd13110225f80f9f3709b","session_id":"6196c1ef2c8262b36228ad6f","condition":"full-information","relevant_dimensions":["antennae","wings"],"bee_group":{"antennae":"B","wings":"1","pattern":"X","legs":"X"},"bonus":1.7600000000000013},{"rt":1569.5,"stimulus":"bees-with-color/bee-B2SM.svg","response":0,"trial_type":"image-button-response","trial_index":13,"time_elapsed":181080,"internal_node_id":"0.0-4.0-0.3","subject_id":"5f91ad02439b5e04b51d69a0","study_id":"60edd13110225f80f9f3709b","session_id":"6196c1ef2c8262b36228ad6f","condition":"full-information","relevant_dimensions":["antennae","wings"],"bee_group":{"antennae":"B","wings":"1","pattern":"X","legs":"X"},"action":"harvest","summary":"good-harvest","bonus":1.7600000000000013},{"rt":2130.5,"stimulus":"\n                    <p><b>Action: <em>harvest</em></b></p>\n                    <p>This is the bee that you just saw.</p>\n                    <img src=\"bees-with-color/bee-B2SM.svg\" width=\"200\">\n                    <p><span class=\"greenText\"><b>Successful harvest!</b></span><br>Your pay has increased by $0.02. Your bonus pay is now $0.62.</p>\n            ","response":0,"trial_type":"html-button-response","trial_index":14,"time_elapsed":183211,"internal_node_id":"0.0-4.0-1.3","subject_id":"5f91ad02439b5e04b51d69a0","study_id":"60edd13110225f80f9f3709b","session_id":"6196c1ef2c8262b36228ad6f","condition":"full-information","relevant_dimensions":["antennae","wings"],"bee_group":{"antennae":"B","wings":"1","pattern":"X","legs":"X"},"bonus":1.7600000000000013},{"rt":2278.89999999851,"stimulus":"bees-with-color/bee-B1SM.svg","response":0,"trial_type":"image-button-response","trial_index":15,"time_elapsed":185491,"internal_node_id":"0.0-4.0-0.4","subject_id":"5f91ad02439b5e04b51d69a0","study_id":"60edd13110225f80f9f3709b","session_id":"6196c1ef2c8262b36228ad6f","condition":"full-information","relevant_dimensions":["antennae","wings"],"bee_group":{"antennae":"B","wings":"1","pattern":"X","legs":"X"},"action":"harvest","summary":"bad-harvest","bonus":1.7600000000000013},{"rt":11365.099999999627,"stimulus":"\n                    <p><b>Action: <em>harvest</em></b></p>\n                    <p>This is the bee that you just saw.</p>\n                    <img src=\"bees-with-color/bee-B1SM.svg\" width=\"200\">\n                    <p><span class=\"redText\">Bad choice, the bee was angry.</span><br><b>You have been stung!</b><br>Your pay has been decreased by $0.10. Your bonus pay is now $0.52.</p>\n            ","response":0,"trial_type":"html-button-response","trial_index":16,"time_elapsed":196857,"internal_node_id":"0.0-4.0-1.4","subject_id":"5f91ad02439b5e04b51d69a0","study_id":"60edd13110225f80f9f3709b","session_id":"6196c1ef2c8262b36228ad6f","condition":"full-information","relevant_dimensions":["antennae","wings"],"bee_group":{"antennae":"B","wings":"1","pattern":"X","legs":"X"},"bonus":1.7600000000000013},{"rt":2557.10000000149,"stimulus":"bees-with-color/bee-B1DM.svg","response":1,"trial_type":"image-button-response","trial_index":17,"time_elapsed":199415,"internal_node_id":"0.0-4.0-0.5","subject_id":"5f91ad02439b5e04b51d69a0","study_id":"60edd13110225f80f9f3709b","session_id":"6196c1ef2c8262b36228ad6f","condition":"full-information","relevant_dimensions":["antennae","wings"],"bee_group":{"antennae":"B","wings":"1","pattern":"X","legs":"X"},"action":"avoid","summary":"good-avoid","bonus":1.7600000000000013},{"rt":5638,"stimulus":"\n                    <p><b>Action: <em>avoid</em></b></p>\n                    <p>This is the bee that you just saw.</p>\n                    <img src=\"bees-with-color/bee-B1DM.svg\" width=\"200\">\n                    <p><span class=\"greenText\">Good choice!</span>  This bee would have stung you.<br>Your bonus pay is unchanged, and remains at $0.52.</p>\n            ","response":0,"trial_type":"html-button-response","trial_index":18,"time_elapsed":205054,"internal_node_id":"0.0-4.0-1.5","subject_id":"5f91ad02439b5e04b51d69a0","study_id":"60edd13110225f80f9f3709b","session_id":"6196c1ef2c8262b36228ad6f","condition":"full-information","relevant_dimensions":["antennae","wings"],"bee_group":{"antennae":"B","wings":"1","pattern":"X","legs":"X"},"bonus":1.7600000000000013},{"rt":2070.5999999996275,"stimulus":"bees-with-color/bee-B2DF.svg","response":0,"trial_type":"image-button-response","trial_index":19,"time_elapsed":207126,"internal_node_id":"0.0-4.0-0.6","subject_id":"5f91ad02439b5e04b51d69a0","study_id":"60edd13110225f80f9f3709b","session_id":"6196c1ef2c8262b36228ad6f","condition":"full-information","relevant_dimensions":["antennae","wings"],"bee_group":{"antennae":"B","wings":"1","pattern":"X","legs":"X"},"action":"harvest","summary":"good-harvest","bonus":1.7600000000000013},{"rt":874.1999999992549,"stimulus":"\n                    <p><b>Action: <em>harvest</em></b></p>\n                    <p>This is the bee that you just saw.</p>\n                    <img src=\"bees-with-color/bee-B2DF.svg\" width=\"200\">\n                    <p><span class=\"greenText\"><b>Successful harvest!</b></span><br>Your pay has increased by $0.02. Your bonus pay is now $0.54.</p>\n            ","response":0,"trial_type":"html-button-response","trial_index":20,"time_elapsed":208001,"internal_node_id":"0.0-4.0-1.6","subject_id":"5f91ad02439b5e04b51d69a0","study_id":"60edd13110225f80f9f3709b","session_id":"6196c1ef2c8262b36228ad6f","condition":"full-information","relevant_dimensions":["antennae","wings"],"bee_group":{"antennae":"B","wings":"1","pattern":"X","legs":"X"},"bonus":1.7600000000000013},{"rt":2145.4000000003725,"stimulus":"bees-with-color/bee-A2DM.svg","response":0,"trial_type":"image-button-response","trial_index":21,"time_elapsed":210147,"internal_node_id":"0.0-4.0-0.7","subject_id":"5f91ad02439b5e04b51d69a0","study_id":"60edd13110225f80f9f3709b","session_id":"6196c1ef2c8262b36228ad6f","condition":"full-information","relevant_dimensions":["antennae","wings"],"bee_group":{"antennae":"B","wings":"1","pattern":"X","legs":"X"},"action":"harvest","summary":"good-harvest","bonus":1.7600000000000013},{"rt":691.6999999992549,"stimulus":"\n                    <p><b>Action: <em>harvest</em></b></p>\n                    <p>This is the bee that you just saw.</p>\n                    <img src=\"bees-with-color/bee-A2DM.svg\" width=\"200\">\n                    <p><span class=\"greenText\"><b>Successful harvest!</b></span><br>Your pay has increased by $0.02. Your bonus pay is now $0.56.</p>\n            ","response":0,"trial_type":"html-button-response","trial_index":22,"time_elapsed":210840,"internal_node_id":"0.0-4.0-1.7","subject_id":"5f91ad02439b5e04b51d69a0","study_id":"60edd13110225f80f9f3709b","session_id":"6196c1ef2c8262b36228ad6f","condition":"full-information","relevant_dimensions":["antennae","wings"],"bee_group":{"antennae":"B","wings":"1","pattern":"X","legs":"X"},"bonus":1.7600000000000013},{"rt":1797.699999999255,"stimulus":"bees-with-color/bee-A2SM.svg","response":0,"trial_type":"image-button-response","trial_index":23,"time_elapsed":212638,"internal_node_id":"0.0-4.0-0.8","subject_id":"5f91ad02439b5e04b51d69a0","study_id":"60edd13110225f80f9f3709b","session_id":"6196c1ef2c8262b36228ad6f","condition":"full-information","relevant_dimensions":["antennae","wings"],"bee_group":{"antennae":"B","wings":"1","pattern":"X","legs":"X"},"action":"harvest","summary":"good-harvest","bonus":1.7600000000000013},{"rt":703.8000000007451,"stimulus":"\n                    <p><b>Action: <em>harvest</em></b></p>\n                    <p>This is the bee that you just saw.</p>\n                    <img src=\"bees-with-color/bee-A2SM.svg\" width=\"200\">\n                    <p><span class=\"greenText\"><b>Successful harvest!</b></span><br>Your pay has increased by $0.02. Your bonus pay is now $0.58.</p>\n            ","response":0,"trial_type":"html-button-response","trial_index":24,"time_elapsed":213343,"internal_node_id":"0.0-4.0-1.8","subject_id":"5f91ad02439b5e04b51d69a0","study_id":"60edd13110225f80f9f3709b","session_id":"6196c1ef2c8262b36228ad6f","condition":"full-information","relevant_dimensions":["antennae","wings"],"bee_group":{"antennae":"B","wings":"1","pattern":"X","legs":"X"},"bonus":1.7600000000000013},{"rt":1323.699999999255,"stimulus":"bees-with-color/bee-A1DM.svg","response":1,"trial_type":"image-button-response","trial_index":25,"time_elapsed":214668,"internal_node_id":"0.0-4.0-0.9","subject_id":"5f91ad02439b5e04b51d69a0","study_id":"60edd13110225f80f9f3709b","session_id":"6196c1ef2c8262b36228ad6f","condition":"full-information","relevant_dimensions":["antennae","wings"],"bee_group":{"antennae":"B","wings":"1","pattern":"X","legs":"X"},"action":"avoid","summary":"bad-avoid","bonus":1.7600000000000013},{"rt":6310.300000000745,"stimulus":"\n                    <p><b>Action: <em>avoid</em></b></p>\n                    <p>This is the bee that you just saw.</p>\n                    <img src=\"bees-with-color/bee-A1DM.svg\" width=\"200\">\n                    <p><span class=\"redText\">Bad choice,</span> the bee was friendly.<br>Your bonus pay is unchanged, and remains at $0.58.</p>\n            ","response":0,"trial_type":"html-button-response","trial_index":26,"time_elapsed":220979,"internal_node_id":"0.0-4.0-1.9","subject_id":"5f91ad02439b5e04b51d69a0","study_id":"60edd13110225f80f9f3709b","session_id":"6196c1ef2c8262b36228ad6f","condition":"full-information","relevant_dimensions":["antennae","wings"],"bee_group":{"antennae":"B","wings":"1","pattern":"X","legs":"X"},"bonus":1.7600000000000013},{"rt":1106,"stimulus":"bees-with-color/bee-B1SF.svg","response":1,"trial_type":"image-button-response","trial_index":27,"time_elapsed":222086,"internal_node_id":"0.0-4.0-0.10","subject_id":"5f91ad02439b5e04b51d69a0","study_id":"60edd13110225f80f9f3709b","session_id":"6196c1ef2c8262b36228ad6f","condition":"full-information","relevant_dimensions":["antennae","wings"],"bee_group":{"antennae":"B","wings":"1","pattern":"X","legs":"X"},"action":"avoid","summary":"good-avoid","bonus":1.7600000000000013},{"rt":857.6999999992549,"stimulus":"\n                    <p><b>Action: <em>avoid</em></b></p>\n                    <p>This is the bee that you just saw.</p>\n                    <img src=\"bees-with-color/bee-B1SF.svg\" width=\"200\">\n                    <p><span class=\"greenText\">Good choice!</span>  This bee would have stung you.<br>Your bonus pay is unchanged, and remains at $0.58.</p>\n            ","response":0,"trial_type":"html-button-response","trial_index":28,"time_elapsed":222945,"internal_node_id":"0.0-4.0-1.10","subject_id":"5f91ad02439b5e04b51d69a0","study_id":"60edd13110225f80f9f3709b","session_id":"6196c1ef2c8262b36228ad6f","condition":"full-information","relevant_dimensions":["antennae","wings"],"bee_group":{"antennae":"B","wings":"1","pattern":"X","legs":"X"},"bonus":1.7600000000000013},{"rt":1822,"stimulus":"bees-with-color/bee-A1DF.svg","response":0,"trial_type":"image-button-response","trial_index":29,"time_elapsed":224768,"internal_node_id":"0.0-4.0-0.11","subject_id":"5f91ad02439b5e04b51d69a0","study_id":"60edd13110225f80f9f3709b","session_id":"6196c1ef2c8262b36228ad6f","condition":"full-information","relevant_dimensions":["antennae","wings"],"bee_group":{"antennae":"B","wings":"1","pattern":"X","legs":"X"},"action":"harvest","summary":"good-harvest","bonus":1.7600000000000013},{"rt":552.5999999996275,"stimulus":"\n                    <p><b>Action: <em>harvest</em></b></p>\n                    <p>This is the bee that you just saw.</p>\n                    <img src=\"bees-with-color/bee-A1DF.svg\" width=\"200\">\n                    <p><span class=\"greenText\"><b>Successful harvest!</b></span><br>Your pay has increased by $0.02. Your bonus pay is now $0.60.</p>\n            ","response":0,"trial_type":"html-button-response","trial_index":30,"time_elapsed":225321,"internal_node_id":"0.0-4.0-1.11","subject_id":"5f91ad02439b5e04b51d69a0","study_id":"60edd13110225f80f9f3709b","session_id":"6196c1ef2c8262b36228ad6f","condition":"full-information","relevant_dimensions":["antennae","wings"],"bee_group":{"antennae":"B","wings":"1","pattern":"X","legs":"X"},"bonus":1.7600000000000013},{"rt":1614.0999999996275,"stimulus":"bees-with-color/bee-A2SF.svg","response":0,"trial_type":"image-button-response","trial_index":31,"time_elapsed":226936,"internal_node_id":"0.0-4.0-0.12","subject_id":"5f91ad02439b5e04b51d69a0","study_id":"60edd13110225f80f9f3709b","session_id":"6196c1ef2c8262b36228ad6f","condition":"full-information","relevant_dimensions":["antennae","wings"],"bee_group":{"antennae":"B","wings":"1","pattern":"X","legs":"X"},"action":"harvest","summary":"good-harvest","bonus":1.7600000000000013},{"rt":474.19999999925494,"stimulus":"\n                    <p><b>Action: <em>harvest</em></b></p>\n                    <p>This is the bee that you just saw.</p>\n                    <img src=\"bees-with-color/bee-A2SF.svg\" width=\"200\">\n                    <p><span class=\"greenText\"><b>Successful harvest!</b></span><br>Your pay has increased by $0.02. Your bonus pay is now $0.62.</p>\n            ","response":0,"trial_type":"html-button-response","trial_index":32,"time_elapsed":227411,"internal_node_id":"0.0-4.0-1.12","subject_id":"5f91ad02439b5e04b51d69a0","study_id":"60edd13110225f80f9f3709b","session_id":"6196c1ef2c8262b36228ad6f","condition":"full-information","relevant_dimensions":["antennae","wings"],"bee_group":{"antennae":"B","wings":"1","pattern":"X","legs":"X"},"bonus":1.7600000000000013},{"rt":1839.300000000745,"stimulus":"bees-with-color/bee-A1SF.svg","response":0,"trial_type":"image-button-response","trial_index":33,"time_elapsed":229251,"internal_node_id":"0.0-4.0-0.13","subject_id":"5f91ad02439b5e04b51d69a0","study_id":"60edd13110225f80f9f3709b","session_id":"6196c1ef2c8262b36228ad6f","condition":"full-information","relevant_dimensions":["antennae","wings"],"bee_group":{"antennae":"B","wings":"1","pattern":"X","legs":"X"},"action":"harvest","summary":"good-harvest","bonus":1.7600000000000013},{"rt":565.4000000003725,"stimulus":"\n                    <p><b>Action: <em>harvest</em></b></p>\n                    <p>This is the bee that you just saw.</p>\n                    <img src=\"bees-with-color/bee-A1SF.svg\" width=\"200\">\n                    <p><span class=\"greenText\"><b>Successful harvest!</b></span><br>Your pay has increased by $0.02. Your bonus pay is now $0.64.</p>\n            ","response":0,"trial_type":"html-button-response","trial_index":34,"time_elapsed":229818,"internal_node_id":"0.0-4.0-1.13","subject_id":"5f91ad02439b5e04b51d69a0","study_id":"60edd13110225f80f9f3709b","session_id":"6196c1ef2c8262b36228ad6f","condition":"full-information","relevant_dimensions":["antennae","wings"],"bee_group":{"antennae":"B","wings":"1","pattern":"X","legs":"X"},"bonus":1.7600000000000013},{"rt":1115.800000000745,"stimulus":"bees-with-color/bee-A1SM.svg","response":0,"trial_type":"image-button-response","trial_index":35,"time_elapsed":230934,"internal_node_id":"0.0-4.0-0.14","subject_id":"5f91ad02439b5e04b51d69a0","study_id":"60edd13110225f80f9f3709b","session_id":"6196c1ef2c8262b36228ad6f","condition":"full-information","relevant_dimensions":["antennae","wings"],"bee_group":{"antennae":"B","wings":"1","pattern":"X","legs":"X"},"action":"harvest","summary":"good-harvest","bonus":1.7600000000000013},{"rt":448.69999999925494,"stimulus":"\n                    <p><b>Action: <em>harvest</em></b></p>\n                    <p>This is the bee that you just saw.</p>\n                    <img src=\"bees-with-color/bee-A1SM.svg\" width=\"200\">\n                    <p><span class=\"greenText\"><b>Successful harvest!</b></span><br>Your pay has increased by $0.02. Your bonus pay is now $0.66.</p>\n            ","response":0,"trial_type":"html-button-response","trial_index":36,"time_elapsed":231384,"internal_node_id":"0.0-4.0-1.14","subject_id":"5f91ad02439b5e04b51d69a0","study_id":"60edd13110225f80f9f3709b","session_id":"6196c1ef2c8262b36228ad6f","condition":"full-information","relevant_dimensions":["antennae","wings"],"bee_group":{"antennae":"B","wings":"1","pattern":"X","legs":"X"},"bonus":1.7600000000000013},{"rt":1435.5,"stimulus":"bees-with-color/bee-B1DF.svg","response":1,"trial_type":"image-button-response","trial_index":37,"time_elapsed":232820,"internal_node_id":"0.0-4.0-0.15","subject_id":"5f91ad02439b5e04b51d69a0","study_id":"60edd13110225f80f9f3709b","session_id":"6196c1ef2c8262b36228ad6f","condition":"full-information","relevant_dimensions":["antennae","wings"],"bee_group":{"antennae":"B","wings":"1","pattern":"X","legs":"X"},"action":"avoid","summary":"good-avoid","bonus":1.7600000000000013},{"rt":653.3000000007451,"stimulus":"\n                    <p><b>Action: <em>avoid</em></b></p>\n                    <p>This is the bee that you just saw.</p>\n                    <img src=\"bees-with-color/bee-B1DF.svg\" width=\"200\">\n                    <p><span class=\"greenText\">Good choice!</span>  This bee would have stung you.<br>Your bonus pay is unchanged, and remains at $0.66.</p>\n            ","response":0,"trial_type":"html-button-response","trial_index":38,"time_elapsed":233474,"internal_node_id":"0.0-4.0-1.15","subject_id":"5f91ad02439b5e04b51d69a0","study_id":"60edd13110225f80f9f3709b","session_id":"6196c1ef2c8262b36228ad6f","condition":"full-information","relevant_dimensions":["antennae","wings"],"bee_group":{"antennae":"B","wings":"1","pattern":"X","legs":"X"},"bonus":1.7600000000000013},{"rt":2201.2000000011176,"stimulus":"bees-with-color/bee-A2SF.svg","response":0,"trial_type":"image-button-response","trial_index":39,"time_elapsed":235676,"internal_node_id":"0.0-4.0-0.16","subject_id":"5f91ad02439b5e04b51d69a0","study_id":"60edd13110225f80f9f3709b","session_id":"6196c1ef2c8262b36228ad6f","condition":"full-information","relevant_dimensions":["antennae","wings"],"bee_group":{"antennae":"B","wings":"1","pattern":"X","legs":"X"},"action":"harvest","summary":"good-harvest","bonus":1.7600000000000013},{"rt":601.5,"stimulus":"\n                    <p><b>Action: <em>harvest</em></b></p>\n                    <p>This is the bee that you just saw.</p>\n                    <img src=\"bees-with-color/bee-A2SF.svg\" width=\"200\">\n                    <p><span class=\"greenText\"><b>Successful harvest!</b></span><br>Your pay has increased by $0.02. Your bonus pay is now $0.68.</p>\n            ","response":0,"trial_type":"html-button-response","trial_index":40,"time_elapsed":236279,"internal_node_id":"0.0-4.0-1.16","subject_id":"5f91ad02439b5e04b51d69a0","study_id":"60edd13110225f80f9f3709b","session_id":"6196c1ef2c8262b36228ad6f","condition":"full-information","relevant_dimensions":["antennae","wings"],"bee_group":{"antennae":"B","wings":"1","pattern":"X","legs":"X"},"bonus":1.7600000000000013},{"rt":1913,"stimulus":"bees-with-color/bee-B1SF.svg","response":1,"trial_type":"image-button-response","trial_index":41,"time_elapsed":238192,"internal_node_id":"0.0-4.0-0.17","subject_id":"5f91ad02439b5e04b51d69a0","study_id":"60edd13110225f80f9f3709b","session_id":"6196c1ef2c8262b36228ad6f","condition":"full-information","relevant_dimensions":["antennae","wings"],"bee_group":{"antennae":"B","wings":"1","pattern":"X","legs":"X"},"action":"avoid","summary":"good-avoid","bonus":1.7600000000000013},{"rt":584.7999999988824,"stimulus":"\n                    <p><b>Action: <em>avoid</em></b></p>\n                    <p>This is the bee that you just saw.</p>\n                    <img src=\"bees-with-color/bee-B1SF.svg\" width=\"200\">\n                    <p><span class=\"greenText\">Good choice!</span>  This bee would have stung you.<br>Your bonus pay is unchanged, and remains at $0.68.</p>\n            ","response":0,"trial_type":"html-button-response","trial_index":42,"time_elapsed":238778,"internal_node_id":"0.0-4.0-1.17","subject_id":"5f91ad02439b5e04b51d69a0","study_id":"60edd13110225f80f9f3709b","session_id":"6196c1ef2c8262b36228ad6f","condition":"full-information","relevant_dimensions":["antennae","wings"],"bee_group":{"antennae":"B","wings":"1","pattern":"X","legs":"X"},"bonus":1.7600000000000013},{"rt":725.5999999996275,"stimulus":"bees-with-color/bee-A2SM.svg","response":0,"trial_type":"image-button-response","trial_index":43,"time_elapsed":239505,"internal_node_id":"0.0-4.0-0.18","subject_id":"5f91ad02439b5e04b51d69a0","study_id":"60edd13110225f80f9f3709b","session_id":"6196c1ef2c8262b36228ad6f","condition":"full-information","relevant_dimensions":["antennae","wings"],"bee_group":{"antennae":"B","wings":"1","pattern":"X","legs":"X"},"action":"harvest","summary":"good-harvest","bonus":1.7600000000000013},{"rt":744.5999999996275,"stimulus":"\n                    <p><b>Action: <em>harvest</em></b></p>\n                    <p>This is the bee that you just saw.</p>\n                    <img src=\"bees-with-color/bee-A2SM.svg\" width=\"200\">\n                    <p><span class=\"greenText\"><b>Successful harvest!</b></span><br>Your pay has increased by $0.02. Your bonus pay is now $0.70.</p>\n            ","response":0,"trial_type":"html-button-response","trial_index":44,"time_elapsed":240250,"internal_node_id":"0.0-4.0-1.18","subject_id":"5f91ad02439b5e04b51d69a0","study_id":"60edd13110225f80f9f3709b","session_id":"6196c1ef2c8262b36228ad6f","condition":"full-information","relevant_dimensions":["antennae","wings"],"bee_group":{"antennae":"B","wings":"1","pattern":"X","legs":"X"},"bonus":1.7600000000000013},{"rt":2366,"stimulus":"bees-with-color/bee-B2DM.svg","response":0,"trial_type":"image-button-response","trial_index":45,"time_elapsed":242617,"internal_node_id":"0.0-4.0-0.19","subject_id":"5f91ad02439b5e04b51d69a0","study_id":"60edd13110225f80f9f3709b","session_id":"6196c1ef2c8262b36228ad6f","condition":"full-information","relevant_dimensions":["antennae","wings"],"bee_group":{"antennae":"B","wings":"1","pattern":"X","legs":"X"},"action":"harvest","summary":"good-harvest","bonus":1.7600000000000013},{"rt":2916.5,"stimulus":"\n                    <p><b>Action: <em>harvest</em></b></p>\n                    <p>This is the bee that you just saw.</p>\n                    <img src=\"bees-with-color/bee-B2DM.svg\" width=\"200\">\n                    <p><span class=\"greenText\"><b>Successful harvest!</b></span><br>Your pay has increased by $0.02. Your bonus pay is now $0.72.</p>\n            ","response":0,"trial_type":"html-button-response","trial_index":46,"time_elapsed":245534,"internal_node_id":"0.0-4.0-1.19","subject_id":"5f91ad02439b5e04b51d69a0","study_id":"60edd13110225f80f9f3709b","session_id":"6196c1ef2c8262b36228ad6f","condition":"full-information","relevant_dimensions":["antennae","wings"],"bee_group":{"antennae":"B","wings":"1","pattern":"X","legs":"X"},"bonus":1.7600000000000013},{"rt":1676,"stimulus":"bees-with-color/bee-A1SM.svg","response":0,"trial_type":"image-button-response","trial_index":47,"time_elapsed":247211,"internal_node_id":"0.0-4.0-0.20","subject_id":"5f91ad02439b5e04b51d69a0","study_id":"60edd13110225f80f9f3709b","session_id":"6196c1ef2c8262b36228ad6f","condition":"full-information","relevant_dimensions":["antennae","wings"],"bee_group":{"antennae":"B","wings":"1","pattern":"X","legs":"X"},"action":"harvest","summary":"good-harvest","bonus":1.7600000000000013},{"rt":572.6999999992549,"stimulus":"\n                    <p><b>Action: <em>harvest</em></b></p>\n                    <p>This is the bee that you just saw.</p>\n                    <img src=\"bees-with-color/bee-A1SM.svg\" width=\"200\">\n                    <p><span class=\"greenText\"><b>Successful harvest!</b></span><br>Your pay has increased by $0.02. Your bonus pay is now $0.74.</p>\n            ","response":0,"trial_type":"html-button-response","trial_index":48,"time_elapsed":247785,"internal_node_id":"0.0-4.0-1.20","subject_id":"5f91ad02439b5e04b51d69a0","study_id":"60edd13110225f80f9f3709b","session_id":"6196c1ef2c8262b36228ad6f","condition":"full-information","relevant_dimensions":["antennae","wings"],"bee_group":{"antennae":"B","wings":"1","pattern":"X","legs":"X"},"bonus":1.7600000000000013},{"rt":802.4000000003725,"stimulus":"bees-with-color/bee-A2DF.svg","response":0,"trial_type":"image-button-response","trial_index":49,"time_elapsed":248588,"internal_node_id":"0.0-4.0-0.21","subject_id":"5f91ad02439b5e04b51d69a0","study_id":"60edd13110225f80f9f3709b","session_id":"6196c1ef2c8262b36228ad6f","condition":"full-information","relevant_dimensions":["antennae","wings"],"bee_group":{"antennae":"B","wings":"1","pattern":"X","legs":"X"},"action":"harvest","summary":"good-harvest","bonus":1.7600000000000013},{"rt":511.09999999962747,"stimulus":"\n                    <p><b>Action: <em>harvest</em></b></p>\n                    <p>This is the bee that you just saw.</p>\n                    <img src=\"bees-with-color/bee-A2DF.svg\" width=\"200\">\n                    <p><span class=\"greenText\"><b>Successful harvest!</b></span><br>Your pay has increased by $0.02. Your bonus pay is now $0.76.</p>\n            ","response":0,"trial_type":"html-button-response","trial_index":50,"time_elapsed":249100,"internal_node_id":"0.0-4.0-1.21","subject_id":"5f91ad02439b5e04b51d69a0","study_id":"60edd13110225f80f9f3709b","session_id":"6196c1ef2c8262b36228ad6f","condition":"full-information","relevant_dimensions":["antennae","wings"],"bee_group":{"antennae":"B","wings":"1","pattern":"X","legs":"X"},"bonus":1.7600000000000013},{"rt":1169.699999999255,"stimulus":"bees-with-color/bee-B1DF.svg","response":1,"trial_type":"image-button-response","trial_index":51,"time_elapsed":250270,"internal_node_id":"0.0-4.0-0.22","subject_id":"5f91ad02439b5e04b51d69a0","study_id":"60edd13110225f80f9f3709b","session_id":"6196c1ef2c8262b36228ad6f","condition":"full-information","relevant_dimensions":["antennae","wings"],"bee_group":{"antennae":"B","wings":"1","pattern":"X","legs":"X"},"action":"avoid","summary":"good-avoid","bonus":1.7600000000000013},{"rt":615.5,"stimulus":"\n                    <p><b>Action: <em>avoid</em></b></p>\n                    <p>This is the bee that you just saw.</p>\n                    <img src=\"bees-with-color/bee-B1DF.svg\" width=\"200\">\n                    <p><span class=\"greenText\">Good choice!</span>  This bee would have stung you.<br>Your bonus pay is unchanged, and remains at $0.76.</p>\n            ","response":0,"trial_type":"html-button-response","trial_index":52,"time_elapsed":250887,"internal_node_id":"0.0-4.0-1.22","subject_id":"5f91ad02439b5e04b51d69a0","study_id":"60edd13110225f80f9f3709b","session_id":"6196c1ef2c8262b36228ad6f","condition":"full-information","relevant_dimensions":["antennae","wings"],"bee_group":{"antennae":"B","wings":"1","pattern":"X","legs":"X"},"bonus":1.7600000000000013},{"rt":750.4000000003725,"stimulus":"bees-with-color/bee-A2DM.svg","response":0,"trial_type":"image-button-response","trial_index":53,"time_elapsed":251638,"internal_node_id":"0.0-4.0-0.23","subject_id":"5f91ad02439b5e04b51d69a0","study_id":"60edd13110225f80f9f3709b","session_id":"6196c1ef2c8262b36228ad6f","condition":"full-information","relevant_dimensions":["antennae","wings"],"bee_group":{"antennae":"B","wings":"1","pattern":"X","legs":"X"},"action":"harvest","summary":"good-harvest","bonus":1.7600000000000013},{"rt":598.4000000003725,"stimulus":"\n                    <p><b>Action: <em>harvest</em></b></p>\n                    <p>This is the bee that you just saw.</p>\n                    <img src=\"bees-with-color/bee-A2DM.svg\" width=\"200\">\n                    <p><span class=\"greenText\"><b>Successful harvest!</b></span><br>Your pay has increased by $0.02. Your bonus pay is now $0.78.</p>\n            ","response":0,"trial_type":"html-button-response","trial_index":54,"time_elapsed":252237,"internal_node_id":"0.0-4.0-1.23","subject_id":"5f91ad02439b5e04b51d69a0","study_id":"60edd13110225f80f9f3709b","session_id":"6196c1ef2c8262b36228ad6f","condition":"full-information","relevant_dimensions":["antennae","wings"],"bee_group":{"antennae":"B","wings":"1","pattern":"X","legs":"X"},"bonus":1.7600000000000013},{"rt":1576.7000000011176,"stimulus":"bees-with-color/bee-B1SM.svg","response":1,"trial_type":"image-button-response","trial_index":55,"time_elapsed":253814,"internal_node_id":"0.0-4.0-0.24","subject_id":"5f91ad02439b5e04b51d69a0","study_id":"60edd13110225f80f9f3709b","session_id":"6196c1ef2c8262b36228ad6f","condition":"full-information","relevant_dimensions":["antennae","wings"],"bee_group":{"antennae":"B","wings":"1","pattern":"X","legs":"X"},"action":"avoid","summary":"good-avoid","bonus":1.7600000000000013},{"rt":797,"stimulus":"\n                    <p><b>Action: <em>avoid</em></b></p>\n                    <p>This is the bee that you just saw.</p>\n                    <img src=\"bees-with-color/bee-B1SM.svg\" width=\"200\">\n                    <p><span class=\"greenText\">Good choice!</span>  This bee would have stung you.<br>Your bonus pay is unchanged, and remains at $0.78.</p>\n            ","response":0,"trial_type":"html-button-response","trial_index":56,"time_elapsed":254612,"internal_node_id":"0.0-4.0-1.24","subject_id":"5f91ad02439b5e04b51d69a0","study_id":"60edd13110225f80f9f3709b","session_id":"6196c1ef2c8262b36228ad6f","condition":"full-information","relevant_dimensions":["antennae","wings"],"bee_group":{"antennae":"B","wings":"1","pattern":"X","legs":"X"},"bonus":1.7600000000000013},{"rt":831.9000000003725,"stimulus":"bees-with-color/bee-B1DM.svg","response":0,"trial_type":"image-button-response","trial_index":57,"time_elapsed":255445,"internal_node_id":"0.0-4.0-0.25","subject_id":"5f91ad02439b5e04b51d69a0","study_id":"60edd13110225f80f9f3709b","session_id":"6196c1ef2c8262b36228ad6f","condition":"full-information","relevant_dimensions":["antennae","wings"],"bee_group":{"antennae":"B","wings":"1","pattern":"X","legs":"X"},"action":"harvest","summary":"bad-harvest","bonus":1.7600000000000013},{"rt":2915.2999999988824,"stimulus":"\n                    <p><b>Action: <em>harvest</em></b></p>\n                    <p>This is the bee that you just saw.</p>\n                    <img src=\"bees-with-color/bee-B1DM.svg\" width=\"200\">\n                    <p><span class=\"redText\">Bad choice, the bee was angry.</span><br><b>You have been stung!</b><br>Your pay has been decreased by $0.10. Your bonus pay is now $0.68.</p>\n            ","response":0,"trial_type":"html-button-response","trial_index":58,"time_elapsed":258361,"internal_node_id":"0.0-4.0-1.25","subject_id":"5f91ad02439b5e04b51d69a0","study_id":"60edd13110225f80f9f3709b","session_id":"6196c1ef2c8262b36228ad6f","condition":"full-information","relevant_dimensions":["antennae","wings"],"bee_group":{"antennae":"B","wings":"1","pattern":"X","legs":"X"},"bonus":1.7600000000000013},{"rt":2491.199999999255,"stimulus":"bees-with-color/bee-A1DM.svg","response":0,"trial_type":"image-button-response","trial_index":59,"time_elapsed":260853,"internal_node_id":"0.0-4.0-0.26","subject_id":"5f91ad02439b5e04b51d69a0","study_id":"60edd13110225f80f9f3709b","session_id":"6196c1ef2c8262b36228ad6f","condition":"full-information","relevant_dimensions":["antennae","wings"],"bee_group":{"antennae":"B","wings":"1","pattern":"X","legs":"X"},"action":"harvest","summary":"good-harvest","bonus":1.7600000000000013},{"rt":548.0999999996275,"stimulus":"\n                    <p><b>Action: <em>harvest</em></b></p>\n                    <p>This is the bee that you just saw.</p>\n                    <img src=\"bees-with-color/bee-A1DM.svg\" width=\"200\">\n                    <p><span class=\"greenText\"><b>Successful harvest!</b></span><br>Your pay has increased by $0.02. Your bonus pay is now $0.70.</p>\n            ","response":0,"trial_type":"html-button-response","trial_index":60,"time_elapsed":261402,"internal_node_id":"0.0-4.0-1.26","subject_id":"5f91ad02439b5e04b51d69a0","study_id":"60edd13110225f80f9f3709b","session_id":"6196c1ef2c8262b36228ad6f","condition":"full-information","relevant_dimensions":["antennae","wings"],"bee_group":{"antennae":"B","wings":"1","pattern":"X","legs":"X"},"bonus":1.7600000000000013},{"rt":2262,"stimulus":"bees-with-color/bee-A1SF.svg","response":0,"trial_type":"image-button-response","trial_index":61,"time_elapsed":263665,"internal_node_id":"0.0-4.0-0.27","subject_id":"5f91ad02439b5e04b51d69a0","study_id":"60edd13110225f80f9f3709b","session_id":"6196c1ef2c8262b36228ad6f","condition":"full-information","relevant_dimensions":["antennae","wings"],"bee_group":{"antennae":"B","wings":"1","pattern":"X","legs":"X"},"action":"harvest","summary":"good-harvest","bonus":1.7600000000000013},{"rt":658.9000000003725,"stimulus":"\n                    <p><b>Action: <em>harvest</em></b></p>\n                    <p>This is the bee that you just saw.</p>\n                    <img src=\"bees-with-color/bee-A1SF.svg\" width=\"200\">\n                    <p><span class=\"greenText\"><b>Successful harvest!</b></span><br>Your pay has increased by $0.02. Your bonus pay is now $0.72.</p>\n            ","response":0,"trial_type":"html-button-response","trial_index":62,"time_elapsed":264325,"internal_node_id":"0.0-4.0-1.27","subject_id":"5f91ad02439b5e04b51d69a0","study_id":"60edd13110225f80f9f3709b","session_id":"6196c1ef2c8262b36228ad6f","condition":"full-information","relevant_dimensions":["antennae","wings"],"bee_group":{"antennae":"B","wings":"1","pattern":"X","legs":"X"},"bonus":1.7600000000000013},{"rt":1356.4000000003725,"stimulus":"bees-with-color/bee-B2SF.svg","response":0,"trial_type":"image-button-response","trial_index":63,"time_elapsed":265682,"internal_node_id":"0.0-4.0-0.28","subject_id":"5f91ad02439b5e04b51d69a0","study_id":"60edd13110225f80f9f3709b","session_id":"6196c1ef2c8262b36228ad6f","condition":"full-information","relevant_dimensions":["antennae","wings"],"bee_group":{"antennae":"B","wings":"1","pattern":"X","legs":"X"},"action":"harvest","summary":"good-harvest","bonus":1.7600000000000013},{"rt":491,"stimulus":"\n                    <p><b>Action: <em>harvest</em></b></p>\n                    <p>This is the bee that you just saw.</p>\n                    <img src=\"bees-with-color/bee-B2SF.svg\" width=\"200\">\n                    <p><span class=\"greenText\"><b>Successful harvest!</b></span><br>Your pay has increased by $0.02. Your bonus pay is now $0.74.</p>\n            ","response":0,"trial_type":"html-button-response","trial_index":64,"time_elapsed":266174,"internal_node_id":"0.0-4.0-1.28","subject_id":"5f91ad02439b5e04b51d69a0","study_id":"60edd13110225f80f9f3709b","session_id":"6196c1ef2c8262b36228ad6f","condition":"full-information","relevant_dimensions":["antennae","wings"],"bee_group":{"antennae":"B","wings":"1","pattern":"X","legs":"X"},"bonus":1.7600000000000013},{"rt":1487.5,"stimulus":"bees-with-color/bee-A1DF.svg","response":0,"trial_type":"image-button-response","trial_index":65,"time_elapsed":267662,"internal_node_id":"0.0-4.0-0.29","subject_id":"5f91ad02439b5e04b51d69a0","study_id":"60edd13110225f80f9f3709b","session_id":"6196c1ef2c8262b36228ad6f","condition":"full-information","relevant_dimensions":["antennae","wings"],"bee_group":{"antennae":"B","wings":"1","pattern":"X","legs":"X"},"action":"harvest","summary":"good-harvest","bonus":1.7600000000000013},{"rt":560,"stimulus":"\n                    <p><b>Action: <em>harvest</em></b></p>\n                    <p>This is the bee that you just saw.</p>\n                    <img src=\"bees-with-color/bee-A1DF.svg\" width=\"200\">\n                    <p><span class=\"greenText\"><b>Successful harvest!</b></span><br>Your pay has increased by $0.02. Your bonus pay is now $0.76.</p>\n            ","response":0,"trial_type":"html-button-response","trial_index":66,"time_elapsed":268223,"internal_node_id":"0.0-4.0-1.29","subject_id":"5f91ad02439b5e04b51d69a0","study_id":"60edd13110225f80f9f3709b","session_id":"6196c1ef2c8262b36228ad6f","condition":"full-information","relevant_dimensions":["antennae","wings"],"bee_group":{"antennae":"B","wings":"1","pattern":"X","legs":"X"},"bonus":1.7600000000000013},{"rt":1189.5,"stimulus":"bees-with-color/bee-B2SM.svg","response":0,"trial_type":"image-button-response","trial_index":67,"time_elapsed":269413,"internal_node_id":"0.0-4.0-0.30","subject_id":"5f91ad02439b5e04b51d69a0","study_id":"60edd13110225f80f9f3709b","session_id":"6196c1ef2c8262b36228ad6f","condition":"full-information","relevant_dimensions":["antennae","wings"],"bee_group":{"antennae":"B","wings":"1","pattern":"X","legs":"X"},"action":"harvest","summary":"good-harvest","bonus":1.7600000000000013},{"rt":502.09999999962747,"stimulus":"\n                    <p><b>Action: <em>harvest</em></b></p>\n                    <p>This is the bee that you just saw.</p>\n                    <img src=\"bees-with-color/bee-B2SM.svg\" width=\"200\">\n                    <p><span class=\"greenText\"><b>Successful harvest!</b></span><br>Your pay has increased by $0.02. Your bonus pay is now $0.78.</p>\n            ","response":0,"trial_type":"html-button-response","trial_index":68,"time_elapsed":269916,"internal_node_id":"0.0-4.0-1.30","subject_id":"5f91ad02439b5e04b51d69a0","study_id":"60edd13110225f80f9f3709b","session_id":"6196c1ef2c8262b36228ad6f","condition":"full-information","relevant_dimensions":["antennae","wings"],"bee_group":{"antennae":"B","wings":"1","pattern":"X","legs":"X"},"bonus":1.7600000000000013},{"rt":1593.199999999255,"stimulus":"bees-with-color/bee-B2DF.svg","response":0,"trial_type":"image-button-response","trial_index":69,"time_elapsed":271510,"internal_node_id":"0.0-4.0-0.31","subject_id":"5f91ad02439b5e04b51d69a0","study_id":"60edd13110225f80f9f3709b","session_id":"6196c1ef2c8262b36228ad6f","condition":"full-information","relevant_dimensions":["antennae","wings"],"bee_group":{"antennae":"B","wings":"1","pattern":"X","legs":"X"},"action":"harvest","summary":"good-harvest","bonus":1.7600000000000013},{"rt":602.1999999992549,"stimulus":"\n                    <p><b>Action: <em>harvest</em></b></p>\n                    <p>This is the bee that you just saw.</p>\n                    <img src=\"bees-with-color/bee-B2DF.svg\" width=\"200\">\n                    <p><span class=\"greenText\"><b>Successful harvest!</b></span><br>Your pay has increased by $0.02. Your bonus pay is now $0.80.</p>\n            ","response":0,"trial_type":"html-button-response","trial_index":70,"time_elapsed":272113,"internal_node_id":"0.0-4.0-1.31","subject_id":"5f91ad02439b5e04b51d69a0","study_id":"60edd13110225f80f9f3709b","session_id":"6196c1ef2c8262b36228ad6f","condition":"full-information","relevant_dimensions":["antennae","wings"],"bee_group":{"antennae":"B","wings":"1","pattern":"X","legs":"X"},"bonus":1.7600000000000013},{"rt":1145.300000000745,"stimulus":"bees-with-color/bee-A2DF.svg","response":0,"trial_type":"image-button-response","trial_index":71,"time_elapsed":273259,"internal_node_id":"0.0-4.0-0.32","subject_id":"5f91ad02439b5e04b51d69a0","study_id":"60edd13110225f80f9f3709b","session_id":"6196c1ef2c8262b36228ad6f","condition":"full-information","relevant_dimensions":["antennae","wings"],"bee_group":{"antennae":"B","wings":"1","pattern":"X","legs":"X"},"action":"harvest","summary":"good-harvest","bonus":1.7600000000000013},{"rt":527.4000000003725,"stimulus":"\n                    <p><b>Action: <em>harvest</em></b></p>\n                    <p>This is the bee that you just saw.</p>\n                    <img src=\"bees-with-color/bee-A2DF.svg\" width=\"200\">\n                    <p><span class=\"greenText\"><b>Successful harvest!</b></span><br>Your pay has increased by $0.02. Your bonus pay is now $0.82.</p>\n            ","response":0,"trial_type":"html-button-response","trial_index":72,"time_elapsed":273787,"internal_node_id":"0.0-4.0-1.32","subject_id":"5f91ad02439b5e04b51d69a0","study_id":"60edd13110225f80f9f3709b","session_id":"6196c1ef2c8262b36228ad6f","condition":"full-information","relevant_dimensions":["antennae","wings"],"bee_group":{"antennae":"B","wings":"1","pattern":"X","legs":"X"},"bonus":1.7600000000000013},{"rt":1048.5999999996275,"stimulus":"bees-with-color/bee-A2SF.svg","response":0,"trial_type":"image-button-response","trial_index":73,"time_elapsed":274836,"internal_node_id":"0.0-4.0-0.33","subject_id":"5f91ad02439b5e04b51d69a0","study_id":"60edd13110225f80f9f3709b","session_id":"6196c1ef2c8262b36228ad6f","condition":"full-information","relevant_dimensions":["antennae","wings"],"bee_group":{"antennae":"B","wings":"1","pattern":"X","legs":"X"},"action":"harvest","summary":"good-harvest","bonus":1.7600000000000013},{"rt":800.3000000007451,"stimulus":"\n                    <p><b>Action: <em>harvest</em></b></p>\n                    <p>This is the bee that you just saw.</p>\n                    <img src=\"bees-with-color/bee-A2SF.svg\" width=\"200\">\n                    <p><span class=\"greenText\"><b>Successful harvest!</b></span><br>Your pay has increased by $0.02. Your bonus pay is now $0.84.</p>\n            ","response":0,"trial_type":"html-button-response","trial_index":74,"time_elapsed":275637,"internal_node_id":"0.0-4.0-1.33","subject_id":"5f91ad02439b5e04b51d69a0","study_id":"60edd13110225f80f9f3709b","session_id":"6196c1ef2c8262b36228ad6f","condition":"full-information","relevant_dimensions":["antennae","wings"],"bee_group":{"antennae":"B","wings":"1","pattern":"X","legs":"X"},"bonus":1.7600000000000013},{"rt":906.5,"stimulus":"bees-with-color/bee-B2SF.svg","response":0,"trial_type":"image-button-response","trial_index":75,"time_elapsed":276544,"internal_node_id":"0.0-4.0-0.34","subject_id":"5f91ad02439b5e04b51d69a0","study_id":"60edd13110225f80f9f3709b","session_id":"6196c1ef2c8262b36228ad6f","condition":"full-information","relevant_dimensions":["antennae","wings"],"bee_group":{"antennae":"B","wings":"1","pattern":"X","legs":"X"},"action":"harvest","summary":"good-harvest","bonus":1.7600000000000013},{"rt":503.5,"stimulus":"\n                    <p><b>Action: <em>harvest</em></b></p>\n                    <p>This is the bee that you just saw.</p>\n                    <img src=\"bees-with-color/bee-B2SF.svg\" width=\"200\">\n                    <p><span class=\"greenText\"><b>Successful harvest!</b></span><br>Your pay has increased by $0.02. Your bonus pay is now $0.86.</p>\n            ","response":0,"trial_type":"html-button-response","trial_index":76,"time_elapsed":277049,"internal_node_id":"0.0-4.0-1.34","subject_id":"5f91ad02439b5e04b51d69a0","study_id":"60edd13110225f80f9f3709b","session_id":"6196c1ef2c8262b36228ad6f","condition":"full-information","relevant_dimensions":["antennae","wings"],"bee_group":{"antennae":"B","wings":"1","pattern":"X","legs":"X"},"bonus":1.7600000000000013},{"rt":1049.199999999255,"stimulus":"bees-with-color/bee-B2DM.svg","response":0,"trial_type":"image-button-response","trial_index":77,"time_elapsed":278099,"internal_node_id":"0.0-4.0-0.35","subject_id":"5f91ad02439b5e04b51d69a0","study_id":"60edd13110225f80f9f3709b","session_id":"6196c1ef2c8262b36228ad6f","condition":"full-information","relevant_dimensions":["antennae","wings"],"bee_group":{"antennae":"B","wings":"1","pattern":"X","legs":"X"},"action":"harvest","summary":"good-harvest","bonus":1.7600000000000013},{"rt":573.1999999992549,"stimulus":"\n                    <p><b>Action: <em>harvest</em></b></p>\n                    <p>This is the bee that you just saw.</p>\n                    <img src=\"bees-with-color/bee-B2DM.svg\" width=\"200\">\n                    <p><span class=\"greenText\"><b>Successful harvest!</b></span><br>Your pay has increased by $0.02. Your bonus pay is now $0.88.</p>\n            ","response":0,"trial_type":"html-button-response","trial_index":78,"time_elapsed":278673,"internal_node_id":"0.0-4.0-1.35","subject_id":"5f91ad02439b5e04b51d69a0","study_id":"60edd13110225f80f9f3709b","session_id":"6196c1ef2c8262b36228ad6f","condition":"full-information","relevant_dimensions":["antennae","wings"],"bee_group":{"antennae":"B","wings":"1","pattern":"X","legs":"X"},"bonus":1.7600000000000013},{"rt":1173.0999999996275,"stimulus":"bees-with-color/bee-B1DM.svg","response":1,"trial_type":"image-button-response","trial_index":79,"time_elapsed":279847,"internal_node_id":"0.0-4.0-0.36","subject_id":"5f91ad02439b5e04b51d69a0","study_id":"60edd13110225f80f9f3709b","session_id":"6196c1ef2c8262b36228ad6f","condition":"full-information","relevant_dimensions":["antennae","wings"],"bee_group":{"antennae":"B","wings":"1","pattern":"X","legs":"X"},"action":"avoid","summary":"good-avoid","bonus":1.7600000000000013},{"rt":688.5,"stimulus":"\n                    <p><b>Action: <em>avoid</em></b></p>\n                    <p>This is the bee that you just saw.</p>\n                    <img src=\"bees-with-color/bee-B1DM.svg\" width=\"200\">\n                    <p><span class=\"greenText\">Good choice!</span>  This bee would have stung you.<br>Your bonus pay is unchanged, and remains at $0.88.</p>\n            ","response":0,"trial_type":"html-button-response","trial_index":80,"time_elapsed":280536,"internal_node_id":"0.0-4.0-1.36","subject_id":"5f91ad02439b5e04b51d69a0","study_id":"60edd13110225f80f9f3709b","session_id":"6196c1ef2c8262b36228ad6f","condition":"full-information","relevant_dimensions":["antennae","wings"],"bee_group":{"antennae":"B","wings":"1","pattern":"X","legs":"X"},"bonus":1.7600000000000013},{"rt":1363.4000000003725,"stimulus":"bees-with-color/bee-A1DM.svg","response":0,"trial_type":"image-button-response","trial_index":81,"time_elapsed":281900,"internal_node_id":"0.0-4.0-0.37","subject_id":"5f91ad02439b5e04b51d69a0","study_id":"60edd13110225f80f9f3709b","session_id":"6196c1ef2c8262b36228ad6f","condition":"full-information","relevant_dimensions":["antennae","wings"],"bee_group":{"antennae":"B","wings":"1","pattern":"X","legs":"X"},"action":"harvest","summary":"good-harvest","bonus":1.7600000000000013},{"rt":557,"stimulus":"\n                    <p><b>Action: <em>harvest</em></b></p>\n                    <p>This is the bee that you just saw.</p>\n                    <img src=\"bees-with-color/bee-A1DM.svg\" width=\"200\">\n                    <p><span class=\"greenText\"><b>Successful harvest!</b></span><br>Your pay has increased by $0.02. Your bonus pay is now $0.90.</p>\n            ","response":0,"trial_type":"html-button-response","trial_index":82,"time_elapsed":282458,"internal_node_id":"0.0-4.0-1.37","subject_id":"5f91ad02439b5e04b51d69a0","study_id":"60edd13110225f80f9f3709b","session_id":"6196c1ef2c8262b36228ad6f","condition":"full-information","relevant_dimensions":["antennae","wings"],"bee_group":{"antennae":"B","wings":"1","pattern":"X","legs":"X"},"bonus":1.7600000000000013},{"rt":1792.2999999988824,"stimulus":"bees-with-color/bee-A2DM.svg","response":0,"trial_type":"image-button-response","trial_index":83,"time_elapsed":284251,"internal_node_id":"0.0-4.0-0.38","subject_id":"5f91ad02439b5e04b51d69a0","study_id":"60edd13110225f80f9f3709b","session_id":"6196c1ef2c8262b36228ad6f","condition":"full-information","relevant_dimensions":["antennae","wings"],"bee_group":{"antennae":"B","wings":"1","pattern":"X","legs":"X"},"action":"harvest","summary":"good-harvest","bonus":1.7600000000000013},{"rt":690.6999999992549,"stimulus":"\n                    <p><b>Action: <em>harvest</em></b></p>\n                    <p>This is the bee that you just saw.</p>\n                    <img src=\"bees-with-color/bee-A2DM.svg\" width=\"200\">\n                    <p><span class=\"greenText\"><b>Successful harvest!</b></span><br>Your pay has increased by $0.02. Your bonus pay is now $0.92.</p>\n            ","response":0,"trial_type":"html-button-response","trial_index":84,"time_elapsed":284942,"internal_node_id":"0.0-4.0-1.38","subject_id":"5f91ad02439b5e04b51d69a0","study_id":"60edd13110225f80f9f3709b","session_id":"6196c1ef2c8262b36228ad6f","condition":"full-information","relevant_dimensions":["antennae","wings"],"bee_group":{"antennae":"B","wings":"1","pattern":"X","legs":"X"},"bonus":1.7600000000000013},{"rt":1249.9000000003725,"stimulus":"bees-with-color/bee-B1SM.svg","response":1,"trial_type":"image-button-response","trial_index":85,"time_elapsed":286193,"internal_node_id":"0.0-4.0-0.39","subject_id":"5f91ad02439b5e04b51d69a0","study_id":"60edd13110225f80f9f3709b","session_id":"6196c1ef2c8262b36228ad6f","condition":"full-information","relevant_dimensions":["antennae","wings"],"bee_group":{"antennae":"B","wings":"1","pattern":"X","legs":"X"},"action":"avoid","summary":"good-avoid","bonus":1.7600000000000013},{"rt":530.0999999996275,"stimulus":"\n                    <p><b>Action: <em>avoid</em></b></p>\n                    <p>This is the bee that you just saw.</p>\n                    <img src=\"bees-with-color/bee-B1SM.svg\" width=\"200\">\n                    <p><span class=\"greenText\">Good choice!</span>  This bee would have stung you.<br>Your bonus pay is unchanged, and remains at $0.92.</p>\n            ","response":0,"trial_type":"html-button-response","trial_index":86,"time_elapsed":286724,"internal_node_id":"0.0-4.0-1.39","subject_id":"5f91ad02439b5e04b51d69a0","study_id":"60edd13110225f80f9f3709b","session_id":"6196c1ef2c8262b36228ad6f","condition":"full-information","relevant_dimensions":["antennae","wings"],"bee_group":{"antennae":"B","wings":"1","pattern":"X","legs":"X"},"bonus":1.7600000000000013},{"rt":1142.0999999996275,"stimulus":"bees-with-color/bee-B1SF.svg","response":1,"trial_type":"image-button-response","trial_index":87,"time_elapsed":287867,"internal_node_id":"0.0-4.0-0.40","subject_id":"5f91ad02439b5e04b51d69a0","study_id":"60edd13110225f80f9f3709b","session_id":"6196c1ef2c8262b36228ad6f","condition":"full-information","relevant_dimensions":["antennae","wings"],"bee_group":{"antennae":"B","wings":"1","pattern":"X","legs":"X"},"action":"avoid","summary":"good-avoid","bonus":1.7600000000000013},{"rt":466.2999999988824,"stimulus":"\n                    <p><b>Action: <em>avoid</em></b></p>\n                    <p>This is the bee that you just saw.</p>\n                    <img src=\"bees-with-color/bee-B1SF.svg\" width=\"200\">\n                    <p><span class=\"greenText\">Good choice!</span>  This bee would have stung you.<br>Your bonus pay is unchanged, and remains at $0.92.</p>\n            ","response":0,"trial_type":"html-button-response","trial_index":88,"time_elapsed":288334,"internal_node_id":"0.0-4.0-1.40","subject_id":"5f91ad02439b5e04b51d69a0","study_id":"60edd13110225f80f9f3709b","session_id":"6196c1ef2c8262b36228ad6f","condition":"full-information","relevant_dimensions":["antennae","wings"],"bee_group":{"antennae":"B","wings":"1","pattern":"X","legs":"X"},"bonus":1.7600000000000013},{"rt":3981.0999999996275,"stimulus":"bees-with-color/bee-B2SM.svg","response":0,"trial_type":"image-button-response","trial_index":89,"time_elapsed":292317,"internal_node_id":"0.0-4.0-0.41","subject_id":"5f91ad02439b5e04b51d69a0","study_id":"60edd13110225f80f9f3709b","session_id":"6196c1ef2c8262b36228ad6f","condition":"full-information","relevant_dimensions":["antennae","wings"],"bee_group":{"antennae":"B","wings":"1","pattern":"X","legs":"X"},"action":"harvest","summary":"good-harvest","bonus":1.7600000000000013},{"rt":561.9000000003725,"stimulus":"\n                    <p><b>Action: <em>harvest</em></b></p>\n                    <p>This is the bee that you just saw.</p>\n                    <img src=\"bees-with-color/bee-B2SM.svg\" width=\"200\">\n                    <p><span class=\"greenText\"><b>Successful harvest!</b></span><br>Your pay has increased by $0.02. Your bonus pay is now $0.94.</p>\n            ","response":0,"trial_type":"html-button-response","trial_index":90,"time_elapsed":292879,"internal_node_id":"0.0-4.0-1.41","subject_id":"5f91ad02439b5e04b51d69a0","study_id":"60edd13110225f80f9f3709b","session_id":"6196c1ef2c8262b36228ad6f","condition":"full-information","relevant_dimensions":["antennae","wings"],"bee_group":{"antennae":"B","wings":"1","pattern":"X","legs":"X"},"bonus":1.7600000000000013},{"rt":1402.9000000003725,"stimulus":"bees-with-color/bee-A2SM.svg","response":0,"trial_type":"image-button-response","trial_index":91,"time_elapsed":294283,"internal_node_id":"0.0-4.0-0.42","subject_id":"5f91ad02439b5e04b51d69a0","study_id":"60edd13110225f80f9f3709b","session_id":"6196c1ef2c8262b36228ad6f","condition":"full-information","relevant_dimensions":["antennae","wings"],"bee_group":{"antennae":"B","wings":"1","pattern":"X","legs":"X"},"action":"harvest","summary":"good-harvest","bonus":1.7600000000000013},{"rt":764.4000000003725,"stimulus":"\n                    <p><b>Action: <em>harvest</em></b></p>\n                    <p>This is the bee that you just saw.</p>\n                    <img src=\"bees-with-color/bee-A2SM.svg\" width=\"200\">\n                    <p><span class=\"greenText\"><b>Successful harvest!</b></span><br>Your pay has increased by $0.02. Your bonus pay is now $0.96.</p>\n            ","response":0,"trial_type":"html-button-response","trial_index":92,"time_elapsed":295048,"internal_node_id":"0.0-4.0-1.42","subject_id":"5f91ad02439b5e04b51d69a0","study_id":"60edd13110225f80f9f3709b","session_id":"6196c1ef2c8262b36228ad6f","condition":"full-information","relevant_dimensions":["antennae","wings"],"bee_group":{"antennae":"B","wings":"1","pattern":"X","legs":"X"},"bonus":1.7600000000000013},{"rt":4995.299999998882,"stimulus":"bees-with-color/bee-A1SM.svg","response":0,"trial_type":"image-button-response","trial_index":93,"time_elapsed":300045,"internal_node_id":"0.0-4.0-0.43","subject_id":"5f91ad02439b5e04b51d69a0","study_id":"60edd13110225f80f9f3709b","session_id":"6196c1ef2c8262b36228ad6f","condition":"full-information","relevant_dimensions":["antennae","wings"],"bee_group":{"antennae":"B","wings":"1","pattern":"X","legs":"X"},"action":"harvest","summary":"good-harvest","bonus":1.7600000000000013},{"rt":503.6000000014901,"stimulus":"\n                    <p><b>Action: <em>harvest</em></b></p>\n                    <p>This is the bee that you just saw.</p>\n                    <img src=\"bees-with-color/bee-A1SM.svg\" width=\"200\">\n                    <p><span class=\"greenText\"><b>Successful harvest!</b></span><br>Your pay has increased by $0.02. Your bonus pay is now $0.98.</p>\n            ","response":0,"trial_type":"html-button-response","trial_index":94,"time_elapsed":300549,"internal_node_id":"0.0-4.0-1.43","subject_id":"5f91ad02439b5e04b51d69a0","study_id":"60edd13110225f80f9f3709b","session_id":"6196c1ef2c8262b36228ad6f","condition":"full-information","relevant_dimensions":["antennae","wings"],"bee_group":{"antennae":"B","wings":"1","pattern":"X","legs":"X"},"bonus":1.7600000000000013},{"rt":1211.699999999255,"stimulus":"bees-with-color/bee-A1SF.svg","response":0,"trial_type":"image-button-response","trial_index":95,"time_elapsed":301762,"internal_node_id":"0.0-4.0-0.44","subject_id":"5f91ad02439b5e04b51d69a0","study_id":"60edd13110225f80f9f3709b","session_id":"6196c1ef2c8262b36228ad6f","condition":"full-information","relevant_dimensions":["antennae","wings"],"bee_group":{"antennae":"B","wings":"1","pattern":"X","legs":"X"},"action":"harvest","summary":"good-harvest","bonus":1.7600000000000013},{"rt":576.8999999985099,"stimulus":"\n                    <p><b>Action: <em>harvest</em></b></p>\n                    <p>This is the bee that you just saw.</p>\n                    <img src=\"bees-with-color/bee-A1SF.svg\" width=\"200\">\n                    <p><span class=\"greenText\"><b>Successful harvest!</b></span><br>Your pay has increased by $0.02. Your bonus pay is now $1.00.</p>\n            ","response":0,"trial_type":"html-button-response","trial_index":96,"time_elapsed":302339,"internal_node_id":"0.0-4.0-1.44","subject_id":"5f91ad02439b5e04b51d69a0","study_id":"60edd13110225f80f9f3709b","session_id":"6196c1ef2c8262b36228ad6f","condition":"full-information","relevant_dimensions":["antennae","wings"],"bee_group":{"antennae":"B","wings":"1","pattern":"X","legs":"X"},"bonus":1.7600000000000013},{"rt":910.2999999988824,"stimulus":"bees-with-color/bee-B1DF.svg","response":1,"trial_type":"image-button-response","trial_index":97,"time_elapsed":303250,"internal_node_id":"0.0-4.0-0.45","subject_id":"5f91ad02439b5e04b51d69a0","study_id":"60edd13110225f80f9f3709b","session_id":"6196c1ef2c8262b36228ad6f","condition":"full-information","relevant_dimensions":["antennae","wings"],"bee_group":{"antennae":"B","wings":"1","pattern":"X","legs":"X"},"action":"avoid","summary":"good-avoid","bonus":1.7600000000000013},{"rt":653,"stimulus":"\n                    <p><b>Action: <em>avoid</em></b></p>\n                    <p>This is the bee that you just saw.</p>\n                    <img src=\"bees-with-color/bee-B1DF.svg\" width=\"200\">\n                    <p><span class=\"greenText\">Good choice!</span>  This bee would have stung you.<br>Your bonus pay is unchanged, and remains at $1.00.</p>\n            ","response":0,"trial_type":"html-button-response","trial_index":98,"time_elapsed":303904,"internal_node_id":"0.0-4.0-1.45","subject_id":"5f91ad02439b5e04b51d69a0","study_id":"60edd13110225f80f9f3709b","session_id":"6196c1ef2c8262b36228ad6f","condition":"full-information","relevant_dimensions":["antennae","wings"],"bee_group":{"antennae":"B","wings":"1","pattern":"X","legs":"X"},"bonus":1.7600000000000013},{"rt":1378.300000000745,"stimulus":"bees-with-color/bee-B2DF.svg","response":0,"trial_type":"image-button-response","trial_index":99,"time_elapsed":305283,"internal_node_id":"0.0-4.0-0.46","subject_id":"5f91ad02439b5e04b51d69a0","study_id":"60edd13110225f80f9f3709b","session_id":"6196c1ef2c8262b36228ad6f","condition":"full-information","relevant_dimensions":["antennae","wings"],"bee_group":{"antennae":"B","wings":"1","pattern":"X","legs":"X"},"action":"harvest","summary":"good-harvest","bonus":1.7600000000000013},{"rt":487,"stimulus":"\n                    <p><b>Action: <em>harvest</em></b></p>\n                    <p>This is the bee that you just saw.</p>\n                    <img src=\"bees-with-color/bee-B2DF.svg\" width=\"200\">\n                    <p><span class=\"greenText\"><b>Successful harvest!</b></span><br>Your pay has increased by $0.02. Your bonus pay is now $1.02.</p>\n            ","response":0,"trial_type":"html-button-response","trial_index":100,"time_elapsed":305771,"internal_node_id":"0.0-4.0-1.46","subject_id":"5f91ad02439b5e04b51d69a0","study_id":"60edd13110225f80f9f3709b","session_id":"6196c1ef2c8262b36228ad6f","condition":"full-information","relevant_dimensions":["antennae","wings"],"bee_group":{"antennae":"B","wings":"1","pattern":"X","legs":"X"},"bonus":1.7600000000000013},{"rt":1331.7000000011176,"stimulus":"bees-with-color/bee-A1DF.svg","response":0,"trial_type":"image-button-response","trial_index":101,"time_elapsed":307104,"internal_node_id":"0.0-4.0-0.47","subject_id":"5f91ad02439b5e04b51d69a0","study_id":"60edd13110225f80f9f3709b","session_id":"6196c1ef2c8262b36228ad6f","condition":"full-information","relevant_dimensions":["antennae","wings"],"bee_group":{"antennae":"B","wings":"1","pattern":"X","legs":"X"},"action":"harvest","summary":"good-harvest","bonus":1.7600000000000013},{"rt":434.80000000074506,"stimulus":"\n                    <p><b>Action: <em>harvest</em></b></p>\n                    <p>This is the bee that you just saw.</p>\n                    <img src=\"bees-with-color/bee-A1DF.svg\" width=\"200\">\n                    <p><span class=\"greenText\"><b>Successful harvest!</b></span><br>Your pay has increased by $0.02. Your bonus pay is now $1.04.</p>\n            ","response":0,"trial_type":"html-button-response","trial_index":102,"time_elapsed":307539,"internal_node_id":"0.0-4.0-1.47","subject_id":"5f91ad02439b5e04b51d69a0","study_id":"60edd13110225f80f9f3709b","session_id":"6196c1ef2c8262b36228ad6f","condition":"full-information","relevant_dimensions":["antennae","wings"],"bee_group":{"antennae":"B","wings":"1","pattern":"X","legs":"X"},"bonus":1.7600000000000013},{"rt":812,"stimulus":"bees-with-color/bee-A2SM.svg","response":0,"trial_type":"image-button-response","trial_index":103,"time_elapsed":308352,"internal_node_id":"0.0-4.0-0.48","subject_id":"5f91ad02439b5e04b51d69a0","study_id":"60edd13110225f80f9f3709b","session_id":"6196c1ef2c8262b36228ad6f","condition":"full-information","relevant_dimensions":["antennae","wings"],"bee_group":{"antennae":"B","wings":"1","pattern":"X","legs":"X"},"action":"harvest","summary":"good-harvest","bonus":1.7600000000000013},{"rt":520.2999999988824,"stimulus":"\n                    <p><b>Action: <em>harvest</em></b></p>\n                    <p>This is the bee that you just saw.</p>\n                    <img src=\"bees-with-color/bee-A2SM.svg\" width=\"200\">\n                    <p><span class=\"greenText\"><b>Successful harvest!</b></span><br>Your pay has increased by $0.02. Your bonus pay is now $1.06.</p>\n            ","response":0,"trial_type":"html-button-response","trial_index":104,"time_elapsed":308873,"internal_node_id":"0.0-4.0-1.48","subject_id":"5f91ad02439b5e04b51d69a0","study_id":"60edd13110225f80f9f3709b","session_id":"6196c1ef2c8262b36228ad6f","condition":"full-information","relevant_dimensions":["antennae","wings"],"bee_group":{"antennae":"B","wings":"1","pattern":"X","legs":"X"},"bonus":1.7600000000000013},{"rt":1742.5999999996275,"stimulus":"bees-with-color/bee-A1DF.svg","response":0,"trial_type":"image-button-response","trial_index":105,"time_elapsed":310616,"internal_node_id":"0.0-4.0-0.49","subject_id":"5f91ad02439b5e04b51d69a0","study_id":"60edd13110225f80f9f3709b","session_id":"6196c1ef2c8262b36228ad6f","condition":"full-information","relevant_dimensions":["antennae","wings"],"bee_group":{"antennae":"B","wings":"1","pattern":"X","legs":"X"},"action":"harvest","summary":"good-harvest","bonus":1.7600000000000013},{"rt":494.2000000011176,"stimulus":"\n                    <p><b>Action: <em>harvest</em></b></p>\n                    <p>This is the bee that you just saw.</p>\n                    <img src=\"bees-with-color/bee-A1DF.svg\" width=\"200\">\n                    <p><span class=\"greenText\"><b>Successful harvest!</b></span><br>Your pay has increased by $0.02. Your bonus pay is now $1.08.</p>\n            ","response":0,"trial_type":"html-button-response","trial_index":106,"time_elapsed":311111,"internal_node_id":"0.0-4.0-1.49","subject_id":"5f91ad02439b5e04b51d69a0","study_id":"60edd13110225f80f9f3709b","session_id":"6196c1ef2c8262b36228ad6f","condition":"full-information","relevant_dimensions":["antennae","wings"],"bee_group":{"antennae":"B","wings":"1","pattern":"X","legs":"X"},"bonus":1.7600000000000013},{"rt":785.3000000007451,"stimulus":"bees-with-color/bee-A2DM.svg","response":0,"trial_type":"image-button-response","trial_index":107,"time_elapsed":311897,"internal_node_id":"0.0-4.0-0.50","subject_id":"5f91ad02439b5e04b51d69a0","study_id":"60edd13110225f80f9f3709b","session_id":"6196c1ef2c8262b36228ad6f","condition":"full-information","relevant_dimensions":["antennae","wings"],"bee_group":{"antennae":"B","wings":"1","pattern":"X","legs":"X"},"action":"harvest","summary":"good-harvest","bonus":1.7600000000000013},{"rt":518.6000000014901,"stimulus":"\n                    <p><b>Action: <em>harvest</em></b></p>\n                    <p>This is the bee that you just saw.</p>\n                    <img src=\"bees-with-color/bee-A2DM.svg\" width=\"200\">\n                    <p><span class=\"greenText\"><b>Successful harvest!</b></span><br>Your pay has increased by $0.02. Your bonus pay is now $1.10.</p>\n            ","response":0,"trial_type":"html-button-response","trial_index":108,"time_elapsed":312417,"internal_node_id":"0.0-4.0-1.50","subject_id":"5f91ad02439b5e04b51d69a0","study_id":"60edd13110225f80f9f3709b","session_id":"6196c1ef2c8262b36228ad6f","condition":"full-information","relevant_dimensions":["antennae","wings"],"bee_group":{"antennae":"B","wings":"1","pattern":"X","legs":"X"},"bonus":1.7600000000000013},{"rt":772.5,"stimulus":"bees-with-color/bee-A2SF.svg","response":0,"trial_type":"image-button-response","trial_index":109,"time_elapsed":313190,"internal_node_id":"0.0-4.0-0.51","subject_id":"5f91ad02439b5e04b51d69a0","study_id":"60edd13110225f80f9f3709b","session_id":"6196c1ef2c8262b36228ad6f","condition":"full-information","relevant_dimensions":["antennae","wings"],"bee_group":{"antennae":"B","wings":"1","pattern":"X","legs":"X"},"action":"harvest","summary":"good-harvest","bonus":1.7600000000000013},{"rt":1810.5,"stimulus":"\n                    <p><b>Action: <em>harvest</em></b></p>\n                    <p>This is the bee that you just saw.</p>\n                    <img src=\"bees-with-color/bee-A2SF.svg\" width=\"200\">\n                    <p><span class=\"greenText\"><b>Successful harvest!</b></span><br>Your pay has increased by $0.02. Your bonus pay is now $1.12.</p>\n            ","response":0,"trial_type":"html-button-response","trial_index":110,"time_elapsed":315002,"internal_node_id":"0.0-4.0-1.51","subject_id":"5f91ad02439b5e04b51d69a0","study_id":"60edd13110225f80f9f3709b","session_id":"6196c1ef2c8262b36228ad6f","condition":"full-information","relevant_dimensions":["antennae","wings"],"bee_group":{"antennae":"B","wings":"1","pattern":"X","legs":"X"},"bonus":1.7600000000000013},{"rt":2154.2000000011176,"stimulus":"bees-with-color/bee-B2DF.svg","response":0,"trial_type":"image-button-response","trial_index":111,"time_elapsed":317157,"internal_node_id":"0.0-4.0-0.52","subject_id":"5f91ad02439b5e04b51d69a0","study_id":"60edd13110225f80f9f3709b","session_id":"6196c1ef2c8262b36228ad6f","condition":"full-information","relevant_dimensions":["antennae","wings"],"bee_group":{"antennae":"B","wings":"1","pattern":"X","legs":"X"},"action":"harvest","summary":"good-harvest","bonus":1.7600000000000013},{"rt":647.4000000003725,"stimulus":"\n                    <p><b>Action: <em>harvest</em></b></p>\n                    <p>This is the bee that you just saw.</p>\n                    <img src=\"bees-with-color/bee-B2DF.svg\" width=\"200\">\n                    <p><span class=\"greenText\"><b>Successful harvest!</b></span><br>Your pay has increased by $0.02. Your bonus pay is now $1.14.</p>\n            ","response":0,"trial_type":"html-button-response","trial_index":112,"time_elapsed":317805,"internal_node_id":"0.0-4.0-1.52","subject_id":"5f91ad02439b5e04b51d69a0","study_id":"60edd13110225f80f9f3709b","session_id":"6196c1ef2c8262b36228ad6f","condition":"full-information","relevant_dimensions":["antennae","wings"],"bee_group":{"antennae":"B","wings":"1","pattern":"X","legs":"X"},"bonus":1.7600000000000013},{"rt":1068.0999999996275,"stimulus":"bees-with-color/bee-B1DM.svg","response":1,"trial_type":"image-button-response","trial_index":113,"time_elapsed":318874,"internal_node_id":"0.0-4.0-0.53","subject_id":"5f91ad02439b5e04b51d69a0","study_id":"60edd13110225f80f9f3709b","session_id":"6196c1ef2c8262b36228ad6f","condition":"full-information","relevant_dimensions":["antennae","wings"],"bee_group":{"antennae":"B","wings":"1","pattern":"X","legs":"X"},"action":"avoid","summary":"good-avoid","bonus":1.7600000000000013},{"rt":2330.5,"stimulus":"\n                    <p><b>Action: <em>avoid</em></b></p>\n                    <p>This is the bee that you just saw.</p>\n                    <img src=\"bees-with-color/bee-B1DM.svg\" width=\"200\">\n                    <p><span class=\"greenText\">Good choice!</span>  This bee would have stung you.<br>Your bonus pay is unchanged, and remains at $1.14.</p>\n            ","response":0,"trial_type":"html-button-response","trial_index":114,"time_elapsed":321206,"internal_node_id":"0.0-4.0-1.53","subject_id":"5f91ad02439b5e04b51d69a0","study_id":"60edd13110225f80f9f3709b","session_id":"6196c1ef2c8262b36228ad6f","condition":"full-information","relevant_dimensions":["antennae","wings"],"bee_group":{"antennae":"B","wings":"1","pattern":"X","legs":"X"},"bonus":1.7600000000000013},{"rt":2276.800000000745,"stimulus":"bees-with-color/bee-B1SF.svg","response":1,"trial_type":"image-button-response","trial_index":115,"time_elapsed":323483,"internal_node_id":"0.0-4.0-0.54","subject_id":"5f91ad02439b5e04b51d69a0","study_id":"60edd13110225f80f9f3709b","session_id":"6196c1ef2c8262b36228ad6f","condition":"full-information","relevant_dimensions":["antennae","wings"],"bee_group":{"antennae":"B","wings":"1","pattern":"X","legs":"X"},"action":"avoid","summary":"good-avoid","bonus":1.7600000000000013},{"rt":783.2000000011176,"stimulus":"\n                    <p><b>Action: <em>avoid</em></b></p>\n                    <p>This is the bee that you just saw.</p>\n                    <img src=\"bees-with-color/bee-B1SF.svg\" width=\"200\">\n                    <p><span class=\"greenText\">Good choice!</span>  This bee would have stung you.<br>Your bonus pay is unchanged, and remains at $1.14.</p>\n            ","response":0,"trial_type":"html-button-response","trial_index":116,"time_elapsed":324267,"internal_node_id":"0.0-4.0-1.54","subject_id":"5f91ad02439b5e04b51d69a0","study_id":"60edd13110225f80f9f3709b","session_id":"6196c1ef2c8262b36228ad6f","condition":"full-information","relevant_dimensions":["antennae","wings"],"bee_group":{"antennae":"B","wings":"1","pattern":"X","legs":"X"},"bonus":1.7600000000000013},{"rt":875.3999999985099,"stimulus":"bees-with-color/bee-A1DM.svg","response":0,"trial_type":"image-button-response","trial_index":117,"time_elapsed":325144,"internal_node_id":"0.0-4.0-0.55","subject_id":"5f91ad02439b5e04b51d69a0","study_id":"60edd13110225f80f9f3709b","session_id":"6196c1ef2c8262b36228ad6f","condition":"full-information","relevant_dimensions":["antennae","wings"],"bee_group":{"antennae":"B","wings":"1","pattern":"X","legs":"X"},"action":"harvest","summary":"good-harvest","bonus":1.7600000000000013},{"rt":478.7000000011176,"stimulus":"\n                    <p><b>Action: <em>harvest</em></b></p>\n                    <p>This is the bee that you just saw.</p>\n                    <img src=\"bees-with-color/bee-A1DM.svg\" width=\"200\">\n                    <p><span class=\"greenText\"><b>Successful harvest!</b></span><br>Your pay has increased by $0.02. Your bonus pay is now $1.16.</p>\n            ","response":0,"trial_type":"html-button-response","trial_index":118,"time_elapsed":325623,"internal_node_id":"0.0-4.0-1.55","subject_id":"5f91ad02439b5e04b51d69a0","study_id":"60edd13110225f80f9f3709b","session_id":"6196c1ef2c8262b36228ad6f","condition":"full-information","relevant_dimensions":["antennae","wings"],"bee_group":{"antennae":"B","wings":"1","pattern":"X","legs":"X"},"bonus":1.7600000000000013},{"rt":809.3000000007451,"stimulus":"bees-with-color/bee-A1SF.svg","response":0,"trial_type":"image-button-response","trial_index":119,"time_elapsed":326433,"internal_node_id":"0.0-4.0-0.56","subject_id":"5f91ad02439b5e04b51d69a0","study_id":"60edd13110225f80f9f3709b","session_id":"6196c1ef2c8262b36228ad6f","condition":"full-information","relevant_dimensions":["antennae","wings"],"bee_group":{"antennae":"B","wings":"1","pattern":"X","legs":"X"},"action":"harvest","summary":"good-harvest","bonus":1.7600000000000013},{"rt":485.30000000074506,"stimulus":"\n                    <p><b>Action: <em>harvest</em></b></p>\n                    <p>This is the bee that you just saw.</p>\n                    <img src=\"bees-with-color/bee-A1SF.svg\" width=\"200\">\n                    <p><span class=\"greenText\"><b>Successful harvest!</b></span><br>Your pay has increased by $0.02. Your bonus pay is now $1.18.</p>\n            ","response":0,"trial_type":"html-button-response","trial_index":120,"time_elapsed":326919,"internal_node_id":"0.0-4.0-1.56","subject_id":"5f91ad02439b5e04b51d69a0","study_id":"60edd13110225f80f9f3709b","session_id":"6196c1ef2c8262b36228ad6f","condition":"full-information","relevant_dimensions":["antennae","wings"],"bee_group":{"antennae":"B","wings":"1","pattern":"X","legs":"X"},"bonus":1.7600000000000013},{"rt":1128,"stimulus":"bees-with-color/bee-B2SM.svg","response":0,"trial_type":"image-button-response","trial_index":121,"time_elapsed":328048,"internal_node_id":"0.0-4.0-0.57","subject_id":"5f91ad02439b5e04b51d69a0","study_id":"60edd13110225f80f9f3709b","session_id":"6196c1ef2c8262b36228ad6f","condition":"full-information","relevant_dimensions":["antennae","wings"],"bee_group":{"antennae":"B","wings":"1","pattern":"X","legs":"X"},"action":"harvest","summary":"good-harvest","bonus":1.7600000000000013},{"rt":397.2000000011176,"stimulus":"\n                    <p><b>Action: <em>harvest</em></b></p>\n                    <p>This is the bee that you just saw.</p>\n                    <img src=\"bees-with-color/bee-B2SM.svg\" width=\"200\">\n                    <p><span class=\"greenText\"><b>Successful harvest!</b></span><br>Your pay has increased by $0.02. Your bonus pay is now $1.20.</p>\n            ","response":0,"trial_type":"html-button-response","trial_index":122,"time_elapsed":328446,"internal_node_id":"0.0-4.0-1.57","subject_id":"5f91ad02439b5e04b51d69a0","study_id":"60edd13110225f80f9f3709b","session_id":"6196c1ef2c8262b36228ad6f","condition":"full-information","relevant_dimensions":["antennae","wings"],"bee_group":{"antennae":"B","wings":"1","pattern":"X","legs":"X"},"bonus":1.7600000000000013},{"rt":2609.0999999996275,"stimulus":"bees-with-color/bee-A1SM.svg","response":0,"trial_type":"image-button-response","trial_index":123,"time_elapsed":331056,"internal_node_id":"0.0-4.0-0.58","subject_id":"5f91ad02439b5e04b51d69a0","study_id":"60edd13110225f80f9f3709b","session_id":"6196c1ef2c8262b36228ad6f","condition":"full-information","relevant_dimensions":["antennae","wings"],"bee_group":{"antennae":"B","wings":"1","pattern":"X","legs":"X"},"action":"harvest","summary":"good-harvest","bonus":1.7600000000000013},{"rt":441.59999999962747,"stimulus":"\n                    <p><b>Action: <em>harvest</em></b></p>\n                    <p>This is the bee that you just saw.</p>\n                    <img src=\"bees-with-color/bee-A1SM.svg\" width=\"200\">\n                    <p><span class=\"greenText\"><b>Successful harvest!</b></span><br>Your pay has increased by $0.02. Your bonus pay is now $1.22.</p>\n            ","response":0,"trial_type":"html-button-response","trial_index":124,"time_elapsed":331498,"internal_node_id":"0.0-4.0-1.58","subject_id":"5f91ad02439b5e04b51d69a0","study_id":"60edd13110225f80f9f3709b","session_id":"6196c1ef2c8262b36228ad6f","condition":"full-information","relevant_dimensions":["antennae","wings"],"bee_group":{"antennae":"B","wings":"1","pattern":"X","legs":"X"},"bonus":1.7600000000000013},{"rt":836.2999999988824,"stimulus":"bees-with-color/bee-B1DF.svg","response":1,"trial_type":"image-button-response","trial_index":125,"time_elapsed":332335,"internal_node_id":"0.0-4.0-0.59","subject_id":"5f91ad02439b5e04b51d69a0","study_id":"60edd13110225f80f9f3709b","session_id":"6196c1ef2c8262b36228ad6f","condition":"full-information","relevant_dimensions":["antennae","wings"],"bee_group":{"antennae":"B","wings":"1","pattern":"X","legs":"X"},"action":"avoid","summary":"good-avoid","bonus":1.7600000000000013},{"rt":653.0999999996275,"stimulus":"\n                    <p><b>Action: <em>avoid</em></b></p>\n                    <p>This is the bee that you just saw.</p>\n                    <img src=\"bees-with-color/bee-B1DF.svg\" width=\"200\">\n                    <p><span class=\"greenText\">Good choice!</span>  This bee would have stung you.<br>Your bonus pay is unchanged, and remains at $1.22.</p>\n            ","response":0,"trial_type":"html-button-response","trial_index":126,"time_elapsed":332989,"internal_node_id":"0.0-4.0-1.59","subject_id":"5f91ad02439b5e04b51d69a0","study_id":"60edd13110225f80f9f3709b","session_id":"6196c1ef2c8262b36228ad6f","condition":"full-information","relevant_dimensions":["antennae","wings"],"bee_group":{"antennae":"B","wings":"1","pattern":"X","legs":"X"},"bonus":1.7600000000000013},{"rt":1380.0999999996275,"stimulus":"bees-with-color/bee-B2SF.svg","response":0,"trial_type":"image-button-response","trial_index":127,"time_elapsed":334370,"internal_node_id":"0.0-4.0-0.60","subject_id":"5f91ad02439b5e04b51d69a0","study_id":"60edd13110225f80f9f3709b","session_id":"6196c1ef2c8262b36228ad6f","condition":"full-information","relevant_dimensions":["antennae","wings"],"bee_group":{"antennae":"B","wings":"1","pattern":"X","legs":"X"},"action":"harvest","summary":"good-harvest","bonus":1.7600000000000013},{"rt":824.5,"stimulus":"\n                    <p><b>Action: <em>harvest</em></b></p>\n                    <p>This is the bee that you just saw.</p>\n                    <img src=\"bees-with-color/bee-B2SF.svg\" width=\"200\">\n                    <p><span class=\"greenText\"><b>Successful harvest!</b></span><br>Your pay has increased by $0.02. Your bonus pay is now $1.24.</p>\n            ","response":0,"trial_type":"html-button-response","trial_index":128,"time_elapsed":335196,"internal_node_id":"0.0-4.0-1.60","subject_id":"5f91ad02439b5e04b51d69a0","study_id":"60edd13110225f80f9f3709b","session_id":"6196c1ef2c8262b36228ad6f","condition":"full-information","relevant_dimensions":["antennae","wings"],"bee_group":{"antennae":"B","wings":"1","pattern":"X","legs":"X"},"bonus":1.7600000000000013},{"rt":911.4000000003725,"stimulus":"bees-with-color/bee-B1SM.svg","response":1,"trial_type":"image-button-response","trial_index":129,"time_elapsed":336108,"internal_node_id":"0.0-4.0-0.61","subject_id":"5f91ad02439b5e04b51d69a0","study_id":"60edd13110225f80f9f3709b","session_id":"6196c1ef2c8262b36228ad6f","condition":"full-information","relevant_dimensions":["antennae","wings"],"bee_group":{"antennae":"B","wings":"1","pattern":"X","legs":"X"},"action":"avoid","summary":"good-avoid","bonus":1.7600000000000013},{"rt":504.59999999962747,"stimulus":"\n                    <p><b>Action: <em>avoid</em></b></p>\n                    <p>This is the bee that you just saw.</p>\n                    <img src=\"bees-with-color/bee-B1SM.svg\" width=\"200\">\n                    <p><span class=\"greenText\">Good choice!</span>  This bee would have stung you.<br>Your bonus pay is unchanged, and remains at $1.24.</p>\n            ","response":0,"trial_type":"html-button-response","trial_index":130,"time_elapsed":336614,"internal_node_id":"0.0-4.0-1.61","subject_id":"5f91ad02439b5e04b51d69a0","study_id":"60edd13110225f80f9f3709b","session_id":"6196c1ef2c8262b36228ad6f","condition":"full-information","relevant_dimensions":["antennae","wings"],"bee_group":{"antennae":"B","wings":"1","pattern":"X","legs":"X"},"bonus":1.7600000000000013},{"rt":847.8000000007451,"stimulus":"bees-with-color/bee-A2DF.svg","response":0,"trial_type":"image-button-response","trial_index":131,"time_elapsed":337462,"internal_node_id":"0.0-4.0-0.62","subject_id":"5f91ad02439b5e04b51d69a0","study_id":"60edd13110225f80f9f3709b","session_id":"6196c1ef2c8262b36228ad6f","condition":"full-information","relevant_dimensions":["antennae","wings"],"bee_group":{"antennae":"B","wings":"1","pattern":"X","legs":"X"},"action":"harvest","summary":"good-harvest","bonus":1.7600000000000013},{"rt":492.2000000011176,"stimulus":"\n                    <p><b>Action: <em>harvest</em></b></p>\n                    <p>This is the bee that you just saw.</p>\n                    <img src=\"bees-with-color/bee-A2DF.svg\" width=\"200\">\n                    <p><span class=\"greenText\"><b>Successful harvest!</b></span><br>Your pay has increased by $0.02. Your bonus pay is now $1.26.</p>\n            ","response":0,"trial_type":"html-button-response","trial_index":132,"time_elapsed":337955,"internal_node_id":"0.0-4.0-1.62","subject_id":"5f91ad02439b5e04b51d69a0","study_id":"60edd13110225f80f9f3709b","session_id":"6196c1ef2c8262b36228ad6f","condition":"full-information","relevant_dimensions":["antennae","wings"],"bee_group":{"antennae":"B","wings":"1","pattern":"X","legs":"X"},"bonus":1.7600000000000013},{"rt":1135.2000000011176,"stimulus":"bees-with-color/bee-B2DM.svg","response":0,"trial_type":"image-button-response","trial_index":133,"time_elapsed":339091,"internal_node_id":"0.0-4.0-0.63","subject_id":"5f91ad02439b5e04b51d69a0","study_id":"60edd13110225f80f9f3709b","session_id":"6196c1ef2c8262b36228ad6f","condition":"full-information","relevant_dimensions":["antennae","wings"],"bee_group":{"antennae":"B","wings":"1","pattern":"X","legs":"X"},"action":"harvest","summary":"good-harvest","bonus":1.7600000000000013},{"rt":425.09999999962747,"stimulus":"\n                    <p><b>Action: <em>harvest</em></b></p>\n                    <p>This is the bee that you just saw.</p>\n                    <img src=\"bees-with-color/bee-B2DM.svg\" width=\"200\">\n                    <p><span class=\"greenText\"><b>Successful harvest!</b></span><br>Your pay has increased by $0.02. Your bonus pay is now $1.28.</p>\n            ","response":0,"trial_type":"html-button-response","trial_index":134,"time_elapsed":339517,"internal_node_id":"0.0-4.0-1.63","subject_id":"5f91ad02439b5e04b51d69a0","study_id":"60edd13110225f80f9f3709b","session_id":"6196c1ef2c8262b36228ad6f","condition":"full-information","relevant_dimensions":["antennae","wings"],"bee_group":{"antennae":"B","wings":"1","pattern":"X","legs":"X"},"bonus":1.7600000000000013},{"rt":9778.599999999627,"stimulus":"You have completed the first part of this experiment.<br><br>You will now begin a shorter second part, in which you will receive no feedback.<br>The same rules regarding bonus pay apply.<br><br>Press any key to begin.","response":"enter","trial_type":"html-keyboard-response","trial_index":135,"time_elapsed":349296,"internal_node_id":"0.0-5.0","subject_id":"5f91ad02439b5e04b51d69a0","study_id":"60edd13110225f80f9f3709b","session_id":"6196c1ef2c8262b36228ad6f","condition":"full-information","relevant_dimensions":["antennae","wings"],"bee_group":{"antennae":"B","wings":"1","pattern":"X","legs":"X"},"bonus":1.7600000000000013},{"rt":4388.5999999996275,"stimulus":"bees-with-color/bee-B2DM.svg","response":0,"trial_type":"image-button-response","trial_index":136,"time_elapsed":353690,"internal_node_id":"0.0-6.0-0.0","subject_id":"5f91ad02439b5e04b51d69a0","study_id":"60edd13110225f80f9f3709b","session_id":"6196c1ef2c8262b36228ad6f","condition":"full-information","relevant_dimensions":["antennae","wings"],"bee_group":{"antennae":"B","wings":"1","pattern":"X","legs":"X"},"bonus":1.7600000000000013},{"rt":2495.7000000011176,"stimulus":"bees-with-color/bee-B1SM.svg","response":1,"trial_type":"image-button-response","trial_index":137,"time_elapsed":356187,"internal_node_id":"0.0-6.0-0.1","subject_id":"5f91ad02439b5e04b51d69a0","study_id":"60edd13110225f80f9f3709b","session_id":"6196c1ef2c8262b36228ad6f","condition":"full-information","relevant_dimensions":["antennae","wings"],"bee_group":{"antennae":"B","wings":"1","pattern":"X","legs":"X"},"bonus":1.7600000000000013},{"rt":3790.5,"stimulus":"bees-with-color/bee-A2DF.svg","response":0,"trial_type":"image-button-response","trial_index":138,"time_elapsed":359979,"internal_node_id":"0.0-6.0-0.2","subject_id":"5f91ad02439b5e04b51d69a0","study_id":"60edd13110225f80f9f3709b","session_id":"6196c1ef2c8262b36228ad6f","condition":"full-information","relevant_dimensions":["antennae","wings"],"bee_group":{"antennae":"B","wings":"1","pattern":"X","legs":"X"},"bonus":1.7600000000000013},{"rt":911,"stimulus":"bees-with-color/bee-A1SM.svg","response":0,"trial_type":"image-button-response","trial_index":139,"time_elapsed":360891,"internal_node_id":"0.0-6.0-0.3","subject_id":"5f91ad02439b5e04b51d69a0","study_id":"60edd13110225f80f9f3709b","session_id":"6196c1ef2c8262b36228ad6f","condition":"full-information","relevant_dimensions":["antennae","wings"],"bee_group":{"antennae":"B","wings":"1","pattern":"X","legs":"X"},"bonus":1.7600000000000013},{"rt":2219,"stimulus":"bees-with-color/bee-B2SM.svg","response":0,"trial_type":"image-button-response","trial_index":140,"time_elapsed":363111,"internal_node_id":"0.0-6.0-0.4","subject_id":"5f91ad02439b5e04b51d69a0","study_id":"60edd13110225f80f9f3709b","session_id":"6196c1ef2c8262b36228ad6f","condition":"full-information","relevant_dimensions":["antennae","wings"],"bee_group":{"antennae":"B","wings":"1","pattern":"X","legs":"X"},"bonus":1.7600000000000013},{"rt":907.7000000011176,"stimulus":"bees-with-color/bee-B1SF.svg","response":1,"trial_type":"image-button-response","trial_index":141,"time_elapsed":364020,"internal_node_id":"0.0-6.0-0.5","subject_id":"5f91ad02439b5e04b51d69a0","study_id":"60edd13110225f80f9f3709b","session_id":"6196c1ef2c8262b36228ad6f","condition":"full-information","relevant_dimensions":["antennae","wings"],"bee_group":{"antennae":"B","wings":"1","pattern":"X","legs":"X"},"bonus":1.7600000000000013},{"rt":830.8000000007451,"stimulus":"bees-with-color/bee-A1DF.svg","response":0,"trial_type":"image-button-response","trial_index":142,"time_elapsed":364852,"internal_node_id":"0.0-6.0-0.6","subject_id":"5f91ad02439b5e04b51d69a0","study_id":"60edd13110225f80f9f3709b","session_id":"6196c1ef2c8262b36228ad6f","condition":"full-information","relevant_dimensions":["antennae","wings"],"bee_group":{"antennae":"B","wings":"1","pattern":"X","legs":"X"},"bonus":1.7600000000000013},{"rt":761.5999999996275,"stimulus":"bees-with-color/bee-B2DF.svg","response":0,"trial_type":"image-button-response","trial_index":143,"time_elapsed":365615,"internal_node_id":"0.0-6.0-0.7","subject_id":"5f91ad02439b5e04b51d69a0","study_id":"60edd13110225f80f9f3709b","session_id":"6196c1ef2c8262b36228ad6f","condition":"full-information","relevant_dimensions":["antennae","wings"],"bee_group":{"antennae":"B","wings":"1","pattern":"X","legs":"X"},"bonus":1.7600000000000013},{"rt":752.2000000011176,"stimulus":"bees-with-color/bee-A2SM.svg","response":0,"trial_type":"image-button-response","trial_index":144,"time_elapsed":366368,"internal_node_id":"0.0-6.0-0.8","subject_id":"5f91ad02439b5e04b51d69a0","study_id":"60edd13110225f80f9f3709b","session_id":"6196c1ef2c8262b36228ad6f","condition":"full-information","relevant_dimensions":["antennae","wings"],"bee_group":{"antennae":"B","wings":"1","pattern":"X","legs":"X"},"bonus":1.7600000000000013},{"rt":706.4000000003725,"stimulus":"bees-with-color/bee-A2SF.svg","response":0,"trial_type":"image-button-response","trial_index":145,"time_elapsed":367075,"internal_node_id":"0.0-6.0-0.9","subject_id":"5f91ad02439b5e04b51d69a0","study_id":"60edd13110225f80f9f3709b","session_id":"6196c1ef2c8262b36228ad6f","condition":"full-information","relevant_dimensions":["antennae","wings"],"bee_group":{"antennae":"B","wings":"1","pattern":"X","legs":"X"},"bonus":1.7600000000000013},{"rt":829.9000000003725,"stimulus":"bees-with-color/bee-B1DF.svg","response":1,"trial_type":"image-button-response","trial_index":146,"time_elapsed":367906,"internal_node_id":"0.0-6.0-0.10","subject_id":"5f91ad02439b5e04b51d69a0","study_id":"60edd13110225f80f9f3709b","session_id":"6196c1ef2c8262b36228ad6f","condition":"full-information","relevant_dimensions":["antennae","wings"],"bee_group":{"antennae":"B","wings":"1","pattern":"X","legs":"X"},"bonus":1.7600000000000013},{"rt":720.3000000007451,"stimulus":"bees-with-color/bee-A2DM.svg","response":0,"trial_type":"image-button-response","trial_index":147,"time_elapsed":368628,"internal_node_id":"0.0-6.0-0.11","subject_id":"5f91ad02439b5e04b51d69a0","study_id":"60edd13110225f80f9f3709b","session_id":"6196c1ef2c8262b36228ad6f","condition":"full-information","relevant_dimensions":["antennae","wings"],"bee_group":{"antennae":"B","wings":"1","pattern":"X","legs":"X"},"bonus":1.7600000000000013},{"rt":841.0999999996275,"stimulus":"bees-with-color/bee-A1DM.svg","response":0,"trial_type":"image-button-response","trial_index":148,"time_elapsed":369470,"internal_node_id":"0.0-6.0-0.12","subject_id":"5f91ad02439b5e04b51d69a0","study_id":"60edd13110225f80f9f3709b","session_id":"6196c1ef2c8262b36228ad6f","condition":"full-information","relevant_dimensions":["antennae","wings"],"bee_group":{"antennae":"B","wings":"1","pattern":"X","legs":"X"},"bonus":1.7600000000000013},{"rt":780.4000000003725,"stimulus":"bees-with-color/bee-B1DM.svg","response":1,"trial_type":"image-button-response","trial_index":149,"time_elapsed":370252,"internal_node_id":"0.0-6.0-0.13","subject_id":"5f91ad02439b5e04b51d69a0","study_id":"60edd13110225f80f9f3709b","session_id":"6196c1ef2c8262b36228ad6f","condition":"full-information","relevant_dimensions":["antennae","wings"],"bee_group":{"antennae":"B","wings":"1","pattern":"X","legs":"X"},"bonus":1.7600000000000013},{"rt":777.6999999992549,"stimulus":"bees-with-color/bee-A1SF.svg","response":0,"trial_type":"image-button-response","trial_index":150,"time_elapsed":371031,"internal_node_id":"0.0-6.0-0.14","subject_id":"5f91ad02439b5e04b51d69a0","study_id":"60edd13110225f80f9f3709b","session_id":"6196c1ef2c8262b36228ad6f","condition":"full-information","relevant_dimensions":["antennae","wings"],"bee_group":{"antennae":"B","wings":"1","pattern":"X","legs":"X"},"bonus":1.7600000000000013},{"rt":703.2000000011176,"stimulus":"bees-with-color/bee-B2SF.svg","response":0,"trial_type":"image-button-response","trial_index":151,"time_elapsed":371735,"internal_node_id":"0.0-6.0-0.15","subject_id":"5f91ad02439b5e04b51d69a0","study_id":"60edd13110225f80f9f3709b","session_id":"6196c1ef2c8262b36228ad6f","condition":"full-information","relevant_dimensions":["antennae","wings"],"bee_group":{"antennae":"B","wings":"1","pattern":"X","legs":"X"},"bonus":1.7600000000000013},{"rt":909,"stimulus":"bees-with-color/bee-B1SF.svg","response":1,"trial_type":"image-button-response","trial_index":152,"time_elapsed":372645,"internal_node_id":"0.0-6.0-0.16","subject_id":"5f91ad02439b5e04b51d69a0","study_id":"60edd13110225f80f9f3709b","session_id":"6196c1ef2c8262b36228ad6f","condition":"full-information","relevant_dimensions":["antennae","wings"],"bee_group":{"antennae":"B","wings":"1","pattern":"X","legs":"X"},"bonus":1.7600000000000013},{"rt":699.7999999988824,"stimulus":"bees-with-color/bee-B2DF.svg","response":0,"trial_type":"image-button-response","trial_index":153,"time_elapsed":373346,"internal_node_id":"0.0-6.0-0.17","subject_id":"5f91ad02439b5e04b51d69a0","study_id":"60edd13110225f80f9f3709b","session_id":"6196c1ef2c8262b36228ad6f","condition":"full-information","relevant_dimensions":["antennae","wings"],"bee_group":{"antennae":"B","wings":"1","pattern":"X","legs":"X"},"bonus":1.7600000000000013},{"rt":719.0999999996275,"stimulus":"bees-with-color/bee-A1SM.svg","response":0,"trial_type":"image-button-response","trial_index":154,"time_elapsed":374066,"internal_node_id":"0.0-6.0-0.18","subject_id":"5f91ad02439b5e04b51d69a0","study_id":"60edd13110225f80f9f3709b","session_id":"6196c1ef2c8262b36228ad6f","condition":"full-information","relevant_dimensions":["antennae","wings"],"bee_group":{"antennae":"B","wings":"1","pattern":"X","legs":"X"},"bonus":1.7600000000000013},{"rt":730.6999999992549,"stimulus":"bees-with-color/bee-A1DM.svg","response":0,"trial_type":"image-button-response","trial_index":155,"time_elapsed":374798,"internal_node_id":"0.0-6.0-0.19","subject_id":"5f91ad02439b5e04b51d69a0","study_id":"60edd13110225f80f9f3709b","session_id":"6196c1ef2c8262b36228ad6f","condition":"full-information","relevant_dimensions":["antennae","wings"],"bee_group":{"antennae":"B","wings":"1","pattern":"X","legs":"X"},"bonus":1.7600000000000013},{"rt":1121.3999999985099,"stimulus":"bees-with-color/bee-B1DF.svg","response":1,"trial_type":"image-button-response","trial_index":156,"time_elapsed":375920,"internal_node_id":"0.0-6.0-0.20","subject_id":"5f91ad02439b5e04b51d69a0","study_id":"60edd13110225f80f9f3709b","session_id":"6196c1ef2c8262b36228ad6f","condition":"full-information","relevant_dimensions":["antennae","wings"],"bee_group":{"antennae":"B","wings":"1","pattern":"X","legs":"X"},"bonus":1.7600000000000013},{"rt":1357.800000000745,"stimulus":"bees-with-color/bee-A2DF.svg","response":0,"trial_type":"image-button-response","trial_index":157,"time_elapsed":377279,"internal_no