[{"success":true,"trial_type":"fullscreen","trial_index":0,"time_elapsed":2459,"internal_node_id":"0.0-0.0","subject_id":"6106a6781a1f8976c5b3d045","study_id":"60edd13110225f80f9f3709b","session_id":"6196c1f73c18f0d0b25ffe2a","condition":"full-information","relevant_dimensions":["antennae","legs"],"bee_group":{"antennae":"A","wings":"X","pattern":"X","legs":"M"},"bonus":0.040000000000000424},{"success":true,"timeout":false,"failed_images":[],"failed_audio":[],"failed_video":[],"trial_type":"preload","trial_index":1,"time_elapsed":4441,"internal_node_id":"0.0-1.0","subject_id":"6106a6781a1f8976c5b3d045","study_id":"60edd13110225f80f9f3709b","session_id":"6196c1f73c18f0d0b25ffe2a","condition":"full-information","relevant_dimensions":["antennae","legs"],"bee_group":{"antennae":"A","wings":"X","pattern":"X","legs":"M"},"bonus":0.040000000000000424},{"rt":31658.600000023842,"stimulus":"Welcome! Press any key to begin.","response":" ","trial_type":"html-keyboard-response","trial_index":2,"time_elapsed":36100,"internal_node_id":"0.0-2.0","subject_id":"6106a6781a1f8976c5b3d045","study_id":"60edd13110225f80f9f3709b","session_id":"6196c1f73c18f0d0b25ffe2a","condition":"full-information","relevant_dimensions":["antennae","legs"],"bee_group":{"antennae":"A","wings":"X","pattern":"X","legs":"M"},"bonus":0.040000000000000424},{"view_history":[{"page_index":0,"viewing_time":51982.799999952316},{"page_index":1,"viewing_time":18856},{"page_index":2,"viewing_time":12759.700000047684},{"page_index":3,"viewing_time":14584},{"page_index":4,"viewing_time":6672},{"page_index":5,"viewing_time":4784.100000023842},{"page_index":6,"viewing_time":8832},{"page_index":7,"viewing_time":4136},{"page_index":6,"viewing_time":9407.899999976158},{"page_index":7,"viewing_time":2784},{"page_index":8,"viewing_time":2184.100000023842},{"page_index":7,"viewing_time":1807.7999999523163},{"page_index":6,"viewing_time":872.2000000476837},{"page_index":7,"viewing_time":856},{"page_index":8,"viewing_time":1191.8999999761581},{"page_index":9,"viewing_time":2952.100000023842},{"page_index":8,"viewing_time":368.10000002384186},{"page_index":7,"viewing_time":2079.899999976158},{"page_index":8,"viewing_time":2352.100000023842},{"page_index":7,"viewing_time":1799.6999999284744},{"page_index":8,"viewing_time":2704.2000000476837},{"page_index":9,"viewing_time":984},{"page_index":10,"viewing_time":2175.899999976158},{"page_index":11,"viewing_time":8216.100000023842},{"page_index":12,"viewing_time":8783.899999976158},{"page_index":13,"viewing_time":1200.1000000238419},{"page_index":14,"viewing_time":2935.7999999523163}],"rt":178262.5,"trial_type":"instructions","trial_index":3,"time_elapsed":214362,"internal_node_id":"0.0-3.0-0.0","subject_id":"6106a6781a1f8976c5b3d045","study_id":"60edd13110225f80f9f3709b","session_id":"6196c1f73c18f0d0b25ffe2a","condition":"full-information","relevant_dimensions":["antennae","legs"],"bee_group":{"antennae":"A","wings":"X","pattern":"X","legs":"M"},"bonus":0.040000000000000424},{"rt":11334,"response":{"Q0":["Two or six legs","Stripes or spots on body","Single or double wings","Antennae or no antennae"]},"question_order":[0],"trial_type":"survey-multi-select","trial_index":4,"time_elapsed":225699,"internal_node_id":"0.0-3.0-1.0","subject_id":"6106a6781a1f8976c5b3d045","study_id":"60edd13110225f80f9f3709b","session_id":"6196c1f73c18f0d0b25ffe2a","condition":"full-information","relevant_dimensions":["antennae","legs"],"bee_group":{"antennae":"A","wings":"X","pattern":"X","legs":"M"},"correct":true,"bonus":0.040000000000000424},{"rt":22723.599999904633,"response":{"Q1":"No.","Q2":"Based on the four features of the bee.","Q3":"You do not learn if it was friendly or dangerous, and do not alter your bonus."},"question_order":[0,1,2],"trial_type":"survey-multi-choice","trial_index":5,"time_elapsed":248427,"internal_node_id":"0.0-3.0-2.0","subject_id":"6106a6781a1f8976c5b3d045","study_id":"60edd13110225f80f9f3709b","session_id":"6196c1f73c18f0d0b25ffe2a","condition":"full-information","relevant_dimensions":["antennae","legs"],"bee_group":{"antennae":"A","wings":"X","pattern":"X","legs":"M"},"correct":false,"bonus":0.040000000000000424},{"rt":3716.6999999284744,"stimulus":"<p>You did not answer all comprehension questions correctly.<br>Press <b>continue</b> to review the instructions again.</p>","response":0,"trial_type":"html-button-response","trial_index":6,"time_elapsed":252147,"internal_node_id":"0.0-3.0-3.0","subject_id":"6106a6781a1f8976c5b3d045","study_id":"60edd13110225f80f9f3709b","session_id":"6196c1f73c18f0d0b25ffe2a","condition":"full-information","relevant_dimensions":["antennae","legs"],"bee_group":{"antennae":"A","wings":"X","pattern":"X","legs":"M"},"bonus":0.040000000000000424},{"view_history":[{"page_index":0,"viewing_time":998.7000000476837},{"page_index":1,"viewing_time":2552},{"page_index":2,"viewing_time":1472.1000000238419},{"page_index":3,"viewing_time":543.7999999523163},{"page_index":4,"viewing_time":511.89999997615814},{"page_index":5,"viewing_time":896.2000000476837},{"page_index":6,"viewing_time":4328},{"page_index":7,"viewing_time":1031.8999999761581},{"page_index":8,"viewing_time":528},{"page_index":9,"viewing_time":464.10000002384186},{"page_index":10,"viewing_time":384},{"page_index":11,"viewing_time":831.8999999761581},{"page_index":12,"viewing_time":856.5},{"page_index":13,"viewing_time":968.2000000476837},{"page_index":14,"viewing_time":807.2999999523163}],"rt":17174.700000047684,"trial_type":"instructions","trial_index":7,"time_elapsed":269323,"internal_node_id":"0.0-3.0-4.0-0.0","subject_id":"6106a6781a1f8976c5b3d045","study_id":"60edd13110225f80f9f3709b","session_id":"6196c1f73c18f0d0b25ffe2a","condition":"full-information","relevant_dimensions":["antennae","legs"],"bee_group":{"antennae":"A","wings":"X","pattern":"X","legs":"M"},"bonus":0.040000000000000424},{"rt":8278.100000023842,"response":{"Q0":["Two or six legs","Stripes or spots on body","Single or double wings","Antennae or no antennae"]},"question_order":[0],"trial_type":"survey-multi-select","trial_index":8,"time_elapsed":277603,"internal_node_id":"0.0-3.0-4.0-1.0","subject_id":"6106a6781a1f8976c5b3d045","study_id":"60edd13110225f80f9f3709b","session_id":"6196c1f73c18f0d0b25ffe2a","condition":"full-information","relevant_dimensions":["antennae","legs"],"bee_group":{"antennae":"A","wings":"X","pattern":"X","legs":"M"},"correct":true,"bonus":0.040000000000000424},{"rt":18092.799999952316,"response":{"Q1":"No.","Q2":"Based on the four features of the bee.","Q3":"You learn if it was friendly or dangerous, but do not alter your bonus."},"question_order":[0,1,2],"trial_type":"survey-multi-choice","trial_index":9,"time_elapsed":295699,"internal_node_id":"0.0-3.0-4.0-2.0","subject_id":"6106a6781a1f8976c5b3d045","study_id":"60edd13110225f80f9f3709b","session_id":"6196c1f73c18f0d0b25ffe2a","condition":"full-information","relevant_dimensions":["antennae","legs"],"bee_group":{"antennae":"A","wings":"X","pattern":"X","legs":"M"},"correct":true,"bonus":0.040000000000000424},{"rt":1532.3999999761581,"stimulus":"<p>Congrats, you got everything right<br>When you're ready, click the button below to continue to the experiment.</p>","response":0,"trial_type":"html-button-response","trial_index":10,"time_elapsed":297235,"internal_node_id":"0.0-3.0-4.0-3.0","subject_id":"6106a6781a1f8976c5b3d045","study_id":"60edd13110225f80f9f3709b","session_id":"6196c1f73c18f0d0b25ffe2a","condition":"full-information","relevant_dimensions":["antennae","legs"],"bee_group":{"antennae":"A","wings":"X","pattern":"X","legs":"M"},"bonus":0.040000000000000424},{"rt":5861.899999976158,"stimulus":"bees-with-color/bee-B1DF.svg","response":0,"trial_type":"image-button-response","trial_index":11,"time_elapsed":303099,"internal_node_id":"0.0-4.0-0.0","subject_id":"6106a6781a1f8976c5b3d045","study_id":"60edd13110225f80f9f3709b","session_id":"6196c1f73c18f0d0b25ffe2a","condition":"full-information","relevant_dimensions":["antennae","legs"],"bee_group":{"antennae":"A","wings":"X","pattern":"X","legs":"M"},"action":"harvest","summary":"good-harvest","bonus":0.040000000000000424},{"rt":1477.7999999523163,"stimulus":"\n                    <p><b>Action: <em>harvest</em></b></p>\n                    <p>This is the bee that you just saw.</p>\n                    <img src=\"bees-with-color/bee-B1DF.svg\" width=\"200\">\n                    <p><span class=\"greenText\"><b>Successful harvest!</b></span><br>Your pay has increased by $0.02. Your bonus pay is now $0.56.</p>\n            ","response":0,"trial_type":"html-button-response","trial_index":12,"time_elapsed":304579,"internal_node_id":"0.0-4.0-1.0","subject_id":"6106a6781a1f8976c5b3d045","study_id":"60edd13110225f80f9f3709b","session_id":"6196c1f73c18f0d0b25ffe2a","condition":"full-information","relevant_dimensions":["antennae","legs"],"bee_group":{"antennae":"A","wings":"X","pattern":"X","legs":"M"},"bonus":0.040000000000000424},{"rt":3894.5,"stimulus":"bees-with-color/bee-A2SF.svg","response":0,"trial_type":"image-button-response","trial_index":13,"time_elapsed":308475,"internal_node_id":"0.0-4.0-0.1","subject_id":"6106a6781a1f8976c5b3d045","study_id":"60edd13110225f80f9f3709b","session_id":"6196c1f73c18f0d0b25ffe2a","condition":"full-information","relevant_dimensions":["antennae","legs"],"bee_group":{"antennae":"A","wings":"X","pattern":"X","legs":"M"},"action":"harvest","summary":"good-harvest","bonus":0.040000000000000424},{"rt":966.3999999761581,"stimulus":"\n                    <p><b>Action: <em>harvest</em></b></p>\n                    <p>This is the bee that you just saw.</p>\n                    <img src=\"bees-with-color/bee-A2SF.svg\" width=\"200\">\n                    <p><span class=\"greenText\"><b>Successful harvest!</b></span><br>Your pay has increased by $0.02. Your bonus pay is now $0.58.</p>\n            ","response":0,"trial_type":"html-button-response","trial_index":14,"time_elapsed":309443,"internal_node_id":"0.0-4.0-1.1","subject_id":"6106a6781a1f8976c5b3d045","study_id":"60edd13110225f80f9f3709b","session_id":"6196c1f73c18f0d0b25ffe2a","condition":"full-information","relevant_dimensions":["antennae","legs"],"bee_group":{"antennae":"A","wings":"X","pattern":"X","legs":"M"},"bonus":0.040000000000000424},{"rt":1726.1000000238419,"stimulus":"bees-with-color/bee-B2DM.svg","response":0,"trial_type":"image-button-response","trial_index":15,"time_elapsed":311171,"internal_node_id":"0.0-4.0-0.2","subject_id":"6106a6781a1f8976c5b3d045","study_id":"60edd13110225f80f9f3709b","session_id":"6196c1f73c18f0d0b25ffe2a","condition":"full-information","relevant_dimensions":["antennae","legs"],"bee_group":{"antennae":"A","wings":"X","pattern":"X","legs":"M"},"action":"harvest","summary":"good-harvest","bonus":0.040000000000000424},{"rt":678.7000000476837,"stimulus":"\n                    <p><b>Action: <em>harvest</em></b></p>\n                    <p>This is the bee that you just saw.</p>\n                    <img src=\"bees-with-color/bee-B2DM.svg\" width=\"200\">\n                    <p><span class=\"greenText\"><b>Successful harvest!</b></span><br>Your pay has increased by $0.02. Your bonus pay is now $0.60.</p>\n            ","response":0,"trial_type":"html-button-response","trial_index":16,"time_elapsed":311851,"internal_node_id":"0.0-4.0-1.2","subject_id":"6106a6781a1f8976c5b3d045","study_id":"60edd13110225f80f9f3709b","session_id":"6196c1f73c18f0d0b25ffe2a","condition":"full-information","relevant_dimensions":["antennae","legs"],"bee_group":{"antennae":"A","wings":"X","pattern":"X","legs":"M"},"bonus":0.040000000000000424},{"rt":1726.8999999761581,"stimulus":"bees-with-color/bee-A1DF.svg","response":0,"trial_type":"image-button-response","trial_index":17,"time_elapsed":313579,"internal_node_id":"0.0-4.0-0.3","subject_id":"6106a6781a1f8976c5b3d045","study_id":"60edd13110225f80f9f3709b","session_id":"6196c1f73c18f0d0b25ffe2a","condition":"full-information","relevant_dimensions":["antennae","legs"],"bee_group":{"antennae":"A","wings":"X","pattern":"X","legs":"M"},"action":"harvest","summary":"good-harvest","bonus":0.040000000000000424},{"rt":751,"stimulus":"\n                    <p><b>Action: <em>harvest</em></b></p>\n                    <p>This is the bee that you just saw.</p>\n                    <img src=\"bees-with-color/bee-A1DF.svg\" width=\"200\">\n                    <p><span class=\"greenText\"><b>Successful harvest!</b></span><br>Your pay has increased by $0.02. Your bonus pay is now $0.62.</p>\n            ","response":0,"trial_type":"html-button-response","trial_index":18,"time_elapsed":314331,"internal_node_id":"0.0-4.0-1.3","subject_id":"6106a6781a1f8976c5b3d045","study_id":"60edd13110225f80f9f3709b","session_id":"6196c1f73c18f0d0b25ffe2a","condition":"full-information","relevant_dimensions":["antennae","legs"],"bee_group":{"antennae":"A","wings":"X","pattern":"X","legs":"M"},"bonus":0.040000000000000424},{"rt":1422.8999999761581,"stimulus":"bees-with-color/bee-B1DM.svg","response":0,"trial_type":"image-button-response","trial_index":19,"time_elapsed":315755,"internal_node_id":"0.0-4.0-0.4","subject_id":"6106a6781a1f8976c5b3d045","study_id":"60edd13110225f80f9f3709b","session_id":"6196c1f73c18f0d0b25ffe2a","condition":"full-information","relevant_dimensions":["antennae","legs"],"bee_group":{"antennae":"A","wings":"X","pattern":"X","legs":"M"},"action":"harvest","summary":"good-harvest","bonus":0.040000000000000424},{"rt":1727.1000000238419,"stimulus":"\n                    <p><b>Action: <em>harvest</em></b></p>\n                    <p>This is the bee that you just saw.</p>\n                    <img src=\"bees-with-color/bee-B1DM.svg\" width=\"200\">\n                    <p><span class=\"greenText\"><b>Successful harvest!</b></span><br>Your pay has increased by $0.02. Your bonus pay is now $0.64.</p>\n            ","response":0,"trial_type":"html-button-response","trial_index":20,"time_elapsed":317483,"internal_node_id":"0.0-4.0-1.4","subject_id":"6106a6781a1f8976c5b3d045","study_id":"60edd13110225f80f9f3709b","session_id":"6196c1f73c18f0d0b25ffe2a","condition":"full-information","relevant_dimensions":["antennae","legs"],"bee_group":{"antennae":"A","wings":"X","pattern":"X","legs":"M"},"bonus":0.040000000000000424},{"rt":2918.7000000476837,"stimulus":"bees-with-color/bee-A2SM.svg","response":0,"trial_type":"image-button-response","trial_index":21,"time_elapsed":320403,"internal_node_id":"0.0-4.0-0.5","subject_id":"6106a6781a1f8976c5b3d045","study_id":"60edd13110225f80f9f3709b","session_id":"6196c1f73c18f0d0b25ffe2a","condition":"full-information","relevant_dimensions":["antennae","legs"],"bee_group":{"antennae":"A","wings":"X","pattern":"X","legs":"M"},"action":"harvest","summary":"bad-harvest","bonus":0.040000000000000424},{"rt":6294.600000023842,"stimulus":"\n                    <p><b>Action: <em>harvest</em></b></p>\n                    <p>This is the bee that you just saw.</p>\n                    <img src=\"bees-with-color/bee-A2SM.svg\" width=\"200\">\n                    <p><span class=\"redText\">Bad choice, the bee was angry.</span><br><b>You have been stung!</b><br>Your pay has been decreased by $0.10. Your bonus pay is now $0.54.</p>\n            ","response":0,"trial_type":"html-button-response","trial_index":22,"time_elapsed":326699,"internal_node_id":"0.0-4.0-1.5","subject_id":"6106a6781a1f8976c5b3d045","study_id":"60edd13110225f80f9f3709b","session_id":"6196c1f73c18f0d0b25ffe2a","condition":"full-information","relevant_dimensions":["antennae","legs"],"bee_group":{"antennae":"A","wings":"X","pattern":"X","legs":"M"},"bonus":0.040000000000000424},{"rt":2590.399999976158,"stimulus":"bees-with-color/bee-A1DM.svg","response":1,"trial_type":"image-button-response","trial_index":23,"time_elapsed":329292,"internal_node_id":"0.0-4.0-0.6","subject_id":"6106a6781a1f8976c5b3d045","study_id":"60edd13110225f80f9f3709b","session_id":"6196c1f73c18f0d0b25ffe2a","condition":"full-information","relevant_dimensions":["antennae","legs"],"bee_group":{"antennae":"A","wings":"X","pattern":"X","legs":"M"},"action":"avoid","summary":"good-avoid","bonus":0.040000000000000424},{"rt":3246.9000000953674,"stimulus":"\n                    <p><b>Action: <em>avoid</em></b></p>\n                    <p>This is the bee that you just saw.</p>\n                    <img src=\"bees-with-color/bee-A1DM.svg\" width=\"200\">\n                    <p><span class=\"greenText\">Good choice!</span>  This bee would have stung you.<br>Your bonus pay is unchanged, and remains at $0.54.</p>\n            ","response":0,"trial_type":"html-button-response","trial_index":24,"time_elapsed":332540,"internal_node_id":"0.0-4.0-1.6","subject_id":"6106a6781a1f8976c5b3d045","study_id":"60edd13110225f80f9f3709b","session_id":"6196c1f73c18f0d0b25ffe2a","condition":"full-information","relevant_dimensions":["antennae","legs"],"bee_group":{"antennae":"A","wings":"X","pattern":"X","legs":"M"},"bonus":0.040000000000000424},{"rt":19902.700000047684,"stimulus":"bees-with-color/bee-B1SF.svg","response":1,"trial_type":"image-button-response","trial_index":25,"time_elapsed":352444,"internal_node_id":"0.0-4.0-0.7","subject_id":"6106a6781a1f8976c5b3d045","study_id":"60edd13110225f80f9f3709b","session_id":"6196c1f73c18f0d0b25ffe2a","condition":"full-information","relevant_dimensions":["antennae","legs"],"bee_group":{"antennae":"A","wings":"X","pattern":"X","legs":"M"},"action":"avoid","summary":"bad-avoid","bonus":0.040000000000000424},{"rt":3006.399999976158,"stimulus":"\n                    <p><b>Action: <em>avoid</em></b></p>\n                    <p>This is the bee that you just saw.</p>\n                    <img src=\"bees-with-color/bee-B1SF.svg\" width=\"200\">\n                    <p><span class=\"redText\">Bad choice,</span> the bee was friendly.<br>Your bonus pay is unchanged, and remains at $0.54.</p>\n            ","response":0,"trial_type":"html-button-response","trial_index":26,"time_elapsed":355451,"internal_node_id":"0.0-4.0-1.7","subject_id":"6106a6781a1f8976c5b3d045","study_id":"60edd13110225f80f9f3709b","session_id":"6196c1f73c18f0d0b25ffe2a","condition":"full-information","relevant_dimensions":["antennae","legs"],"bee_group":{"antennae":"A","wings":"X","pattern":"X","legs":"M"},"bonus":0.040000000000000424},{"rt":1902.3000000715256,"stimulus":"bees-with-color/bee-B2SF.svg","response":0,"trial_type":"image-button-response","trial_index":27,"time_elapsed":357355,"internal_node_id":"0.0-4.0-0.8","subject_id":"6106a6781a1f8976c5b3d045","study_id":"60edd13110225f80f9f3709b","session_id":"6196c1f73c18f0d0b25ffe2a","condition":"full-information","relevant_dimensions":["antennae","legs"],"bee_group":{"antennae":"A","wings":"X","pattern":"X","legs":"M"},"action":"harvest","summary":"good-harvest","bonus":0.040000000000000424},{"rt":3398.399999976158,"stimulus":"\n                    <p><b>Action: <em>harvest</em></b></p>\n                    <p>This is the bee that you just saw.</p>\n                    <img src=\"bees-with-color/bee-B2SF.svg\" width=\"200\">\n                    <p><span class=\"greenText\"><b>Successful harvest!</b></span><br>Your pay has increased by $0.02. Your bonus pay is now $0.56.</p>\n            ","response":0,"trial_type":"html-button-response","trial_index":28,"time_elapsed":360755,"internal_node_id":"0.0-4.0-1.8","subject_id":"6106a6781a1f8976c5b3d045","study_id":"60edd13110225f80f9f3709b","session_id":"6196c1f73c18f0d0b25ffe2a","condition":"full-information","relevant_dimensions":["antennae","legs"],"bee_group":{"antennae":"A","wings":"X","pattern":"X","legs":"M"},"bonus":0.040000000000000424},{"rt":1510.1999999284744,"stimulus":"bees-with-color/bee-A1SF.svg","response":0,"trial_type":"image-button-response","trial_index":29,"time_elapsed":362267,"internal_node_id":"0.0-4.0-0.9","subject_id":"6106a6781a1f8976c5b3d045","study_id":"60edd13110225f80f9f3709b","session_id":"6196c1f73c18f0d0b25ffe2a","condition":"full-information","relevant_dimensions":["antennae","legs"],"bee_group":{"antennae":"A","wings":"X","pattern":"X","legs":"M"},"action":"harvest","summary":"good-harvest","bonus":0.040000000000000424},{"rt":767.1000000238419,"stimulus":"\n                    <p><b>Action: <em>harvest</em></b></p>\n                    <p>This is the bee that you just saw.</p>\n                    <img src=\"bees-with-color/bee-A1SF.svg\" width=\"200\">\n                    <p><span class=\"greenText\"><b>Successful harvest!</b></span><br>Your pay has increased by $0.02. Your bonus pay is now $0.58.</p>\n            ","response":0,"trial_type":"html-button-response","trial_index":30,"time_elapsed":363036,"internal_node_id":"0.0-4.0-1.9","subject_id":"6106a6781a1f8976c5b3d045","study_id":"60edd13110225f80f9f3709b","session_id":"6196c1f73c18f0d0b25ffe2a","condition":"full-information","relevant_dimensions":["antennae","legs"],"bee_group":{"antennae":"A","wings":"X","pattern":"X","legs":"M"},"bonus":0.040000000000000424},{"rt":950.6000000238419,"stimulus":"bees-with-color/bee-B2DF.svg","response":1,"trial_type":"image-button-response","trial_index":31,"time_elapsed":363987,"internal_node_id":"0.0-4.0-0.10","subject_id":"6106a6781a1f8976c5b3d045","study_id":"60edd13110225f80f9f3709b","session_id":"6196c1f73c18f0d0b25ffe2a","condition":"full-information","relevant_dimensions":["antennae","legs"],"bee_group":{"antennae":"A","wings":"X","pattern":"X","legs":"M"},"action":"avoid","summary":"bad-avoid","bonus":0.040000000000000424},{"rt":2703.600000023842,"stimulus":"\n                    <p><b>Action: <em>avoid</em></b></p>\n                    <p>This is the bee that you just saw.</p>\n                    <img src=\"bees-with-color/bee-B2DF.svg\" width=\"200\">\n                    <p><span class=\"redText\">Bad choice,</span> the bee was friendly.<br>Your bonus pay is unchanged, and remains at $0.58.</p>\n            ","response":0,"trial_type":"html-button-response","trial_index":32,"time_elapsed":366692,"internal_node_id":"0.0-4.0-1.10","subject_id":"6106a6781a1f8976c5b3d045","study_id":"60edd13110225f80f9f3709b","session_id":"6196c1f73c18f0d0b25ffe2a","condition":"full-information","relevant_dimensions":["antennae","legs"],"bee_group":{"antennae":"A","wings":"X","pattern":"X","legs":"M"},"bonus":0.040000000000000424},{"rt":2221.7999999523163,"stimulus":"bees-with-color/bee-B2SM.svg","response":1,"trial_type":"image-button-response","trial_index":33,"time_elapsed":368915,"internal_node_id":"0.0-4.0-0.11","subject_id":"6106a6781a1f8976c5b3d045","study_id":"60edd13110225f80f9f3709b","session_id":"6196c1f73c18f0d0b25ffe2a","condition":"full-information","relevant_dimensions":["antennae","legs"],"bee_group":{"antennae":"A","wings":"X","pattern":"X","legs":"M"},"action":"avoid","summary":"bad-avoid","bonus":0.040000000000000424},{"rt":782.5,"stimulus":"\n                    <p><b>Action: <em>avoid</em></b></p>\n                    <p>This is the bee that you just saw.</p>\n                    <img src=\"bees-with-color/bee-B2SM.svg\" width=\"200\">\n                    <p><span class=\"redText\">Bad choice,</span> the bee was friendly.<br>Your bonus pay is unchanged, and remains at $0.58.</p>\n            ","response":0,"trial_type":"html-button-response","trial_index":34,"time_elapsed":369700,"internal_node_id":"0.0-4.0-1.11","subject_id":"6106a6781a1f8976c5b3d045","study_id":"60edd13110225f80f9f3709b","session_id":"6196c1f73c18f0d0b25ffe2a","condition":"full-information","relevant_dimensions":["antennae","legs"],"bee_group":{"antennae":"A","wings":"X","pattern":"X","legs":"M"},"bonus":0.040000000000000424},{"rt":1118.6000000238419,"stimulus":"bees-with-color/bee-A1SM.svg","response":0,"trial_type":"image-button-response","trial_index":35,"time_elapsed":370819,"internal_node_id":"0.0-4.0-0.12","subject_id":"6106a6781a1f8976c5b3d045","study_id":"60edd13110225f80f9f3709b","session_id":"6196c1f73c18f0d0b25ffe2a","condition":"full-information","relevant_dimensions":["antennae","legs"],"bee_group":{"antennae":"A","wings":"X","pattern":"X","legs":"M"},"action":"harvest","summary":"bad-harvest","bonus":0.040000000000000424},{"rt":982.8999999761581,"stimulus":"\n                    <p><b>Action: <em>harvest</em></b></p>\n                    <p>This is the bee that you just saw.</p>\n                    <img src=\"bees-with-color/bee-A1SM.svg\" width=\"200\">\n                    <p><span class=\"redText\">Bad choice, the bee was angry.</span><br><b>You have been stung!</b><br>Your pay has been decreased by $0.10. Your bonus pay is now $0.48.</p>\n            ","response":0,"trial_type":"html-button-response","trial_index":36,"time_elapsed":371803,"internal_node_id":"0.0-4.0-1.12","subject_id":"6106a6781a1f8976c5b3d045","study_id":"60edd13110225f80f9f3709b","session_id":"6196c1f73c18f0d0b25ffe2a","condition":"full-information","relevant_dimensions":["antennae","legs"],"bee_group":{"antennae":"A","wings":"X","pattern":"X","legs":"M"},"bonus":0.040000000000000424},{"rt":2934.899999976158,"stimulus":"bees-with-color/bee-A2DF.svg","response":1,"trial_type":"image-button-response","trial_index":37,"time_elapsed":374739,"internal_node_id":"0.0-4.0-0.13","subject_id":"6106a6781a1f8976c5b3d045","study_id":"60edd13110225f80f9f3709b","session_id":"6196c1f73c18f0d0b25ffe2a","condition":"full-information","relevant_dimensions":["antennae","legs"],"bee_group":{"antennae":"A","wings":"X","pattern":"X","legs":"M"},"action":"avoid","summary":"bad-avoid","bonus":0.040000000000000424},{"rt":926.7000000476837,"stimulus":"\n                    <p><b>Action: <em>avoid</em></b></p>\n                    <p>This is the bee that you just saw.</p>\n                    <img src=\"bees-with-color/bee-A2DF.svg\" width=\"200\">\n                    <p><span class=\"redText\">Bad choice,</span> the bee was friendly.<br>Your bonus pay is unchanged, and remains at $0.48.</p>\n            ","response":0,"trial_type":"html-button-response","trial_index":38,"time_elapsed":375668,"internal_node_id":"0.0-4.0-1.13","subject_id":"6106a6781a1f8976c5b3d045","study_id":"60edd13110225f80f9f3709b","session_id":"6196c1f73c18f0d0b25ffe2a","condition":"full-information","relevant_dimensions":["antennae","legs"],"bee_group":{"antennae":"A","wings":"X","pattern":"X","legs":"M"},"bonus":0.040000000000000424},{"rt":798.3999999761581,"stimulus":"bees-with-color/bee-A2DM.svg","response":0,"trial_type":"image-button-response","trial_index":39,"time_elapsed":376468,"internal_node_id":"0.0-4.0-0.14","subject_id":"6106a6781a1f8976c5b3d045","study_id":"60edd13110225f80f9f3709b","session_id":"6196c1f73c18f0d0b25ffe2a","condition":"full-information","relevant_dimensions":["antennae","legs"],"bee_group":{"antennae":"A","wings":"X","pattern":"X","legs":"M"},"action":"harvest","summary":"bad-harvest","bonus":0.040000000000000424},{"rt":814.8000000715256,"stimulus":"\n                    <p><b>Action: <em>harvest</em></b></p>\n                    <p>This is the bee that you just saw.</p>\n                    <img src=\"bees-with-color/bee-A2DM.svg\" width=\"200\">\n                    <p><span class=\"redText\">Bad choice, the bee was angry.</span><br><b>You have been stung!</b><br>Your pay has been decreased by $0.10. Your bonus pay is now $0.38.</p>\n            ","response":0,"trial_type":"html-button-response","trial_index":40,"time_elapsed":377284,"internal_node_id":"0.0-4.0-1.14","subject_id":"6106a6781a1f8976c5b3d045","study_id":"60edd13110225f80f9f3709b","session_id":"6196c1f73c18f0d0b25ffe2a","condition":"full-information","relevant_dimensions":["antennae","legs"],"bee_group":{"antennae":"A","wings":"X","pattern":"X","legs":"M"},"bonus":0.040000000000000424},{"rt":1310.9000000953674,"stimulus":"bees-with-color/bee-B1SM.svg","response":1,"trial_type":"image-button-response","trial_index":41,"time_elapsed":378596,"internal_node_id":"0.0-4.0-0.15","subject_id":"6106a6781a1f8976c5b3d045","study_id":"60edd13110225f80f9f3709b","session_id":"6196c1f73c18f0d0b25ffe2a","condition":"full-information","relevant_dimensions":["antennae","legs"],"bee_group":{"antennae":"A","wings":"X","pattern":"X","legs":"M"},"action":"avoid","summary":"bad-avoid","bonus":0.040000000000000424},{"rt":822.8000000715256,"stimulus":"\n                    <p><b>Action: <em>avoid</em></b></p>\n                    <p>This is the bee that you just saw.</p>\n                    <img src=\"bees-with-color/bee-B1SM.svg\" width=\"200\">\n                    <p><span class=\"redText\">Bad choice,</span> the bee was friendly.<br>Your bonus pay is unchanged, and remains at $0.38.</p>\n            ","response":0,"trial_type":"html-button-response","trial_index":42,"time_elapsed":379420,"internal_node_id":"0.0-4.0-1.15","subject_id":"6106a6781a1f8976c5b3d045","study_id":"60edd13110225f80f9f3709b","session_id":"6196c1f73c18f0d0b25ffe2a","condition":"full-information","relevant_dimensions":["antennae","legs"],"bee_group":{"antennae":"A","wings":"X","pattern":"X","legs":"M"},"bonus":0.040000000000000424},{"rt":758.8999999761581,"stimulus":"bees-with-color/bee-B1DM.svg","response":0,"trial_type":"image-button-response","trial_index":43,"time_elapsed":380180,"internal_node_id":"0.0-4.0-0.16","subject_id":"6106a6781a1f8976c5b3d045","study_id":"60edd13110225f80f9f3709b","session_id":"6196c1f73c18f0d0b25ffe2a","condition":"full-information","relevant_dimensions":["antennae","legs"],"bee_group":{"antennae":"A","wings":"X","pattern":"X","legs":"M"},"action":"harvest","summary":"good-harvest","bonus":0.040000000000000424},{"rt":774.3999999761581,"stimulus":"\n                    <p><b>Action: <em>harvest</em></b></p>\n                    <p>This is the bee that you just saw.</p>\n                    <img src=\"bees-with-color/bee-B1DM.svg\" width=\"200\">\n                    <p><span class=\"greenText\"><b>Successful harvest!</b></span><br>Your pay has increased by $0.02. Your bonus pay is now $0.40.</p>\n            ","response":0,"trial_type":"html-button-response","trial_index":44,"time_elapsed":380955,"internal_node_id":"0.0-4.0-1.16","subject_id":"6106a6781a1f8976c5b3d045","study_id":"60edd13110225f80f9f3709b","session_id":"6196c1f73c18f0d0b25ffe2a","condition":"full-information","relevant_dimensions":["antennae","legs"],"bee_group":{"antennae":"A","wings":"X","pattern":"X","legs":"M"},"bonus":0.040000000000000424},{"rt":1454.7999999523163,"stimulus":"bees-with-color/bee-B2SF.svg","response":0,"trial_type":"image-button-response","trial_index":45,"time_elapsed":382411,"internal_node_id":"0.0-4.0-0.17","subject_id":"6106a6781a1f8976c5b3d045","study_id":"60edd13110225f80f9f3709b","session_id":"6196c1f73c18f0d0b25ffe2a","condition":"full-information","relevant_dimensions":["antennae","legs"],"bee_group":{"antennae":"A","wings":"X","pattern":"X","legs":"M"},"action":"harvest","summary":"good-harvest","bonus":0.040000000000000424},{"rt":583,"stimulus":"\n                    <p><b>Action: <em>harvest</em></b></p>\n                    <p>This is the bee that you just saw.</p>\n                    <img src=\"bees-with-color/bee-B2SF.svg\" width=\"200\">\n                    <p><span class=\"greenText\"><b>Successful harvest!</b></span><br>Your pay has increased by $0.02. Your bonus pay is now $0.42.</p>\n            ","response":0,"trial_type":"html-button-response","trial_index":46,"time_elapsed":382995,"internal_node_id":"0.0-4.0-1.17","subject_id":"6106a6781a1f8976c5b3d045","study_id":"60edd13110225f80f9f3709b","session_id":"6196c1f73c18f0d0b25ffe2a","condition":"full-information","relevant_dimensions":["antennae","legs"],"bee_group":{"antennae":"A","wings":"X","pattern":"X","legs":"M"},"bonus":0.040000000000000424},{"rt":1039.6999999284744,"stimulus":"bees-with-color/bee-B2DM.svg","response":1,"trial_type":"image-button-response","trial_index":47,"time_elapsed":384036,"internal_node_id":"0.0-4.0-0.18","subject_id":"6106a6781a1f8976c5b3d045","study_id":"60edd13110225f80f9f3709b","session_id":"6196c1f73c18f0d0b25ffe2a","condition":"full-information","relevant_dimensions":["antennae","legs"],"bee_group":{"antennae":"A","wings":"X","pattern":"X","legs":"M"},"action":"avoid","summary":"bad-avoid","bonus":0.040000000000000424},{"rt":1318,"stimulus":"\n                    <p><b>Action: <em>avoid</em></b></p>\n                    <p>This is the bee that you just saw.</p>\n                    <img src=\"bees-with-color/bee-B2DM.svg\" width=\"200\">\n                    <p><span class=\"redText\">Bad choice,</span> the bee was friendly.<br>Your bonus pay is unchanged, and remains at $0.42.</p>\n            ","response":0,"trial_type":"html-button-response","trial_index":48,"time_elapsed":385355,"internal_node_id":"0.0-4.0-1.18","subject_id":"6106a6781a1f8976c5b3d045","study_id":"60edd13110225f80f9f3709b","session_id":"6196c1f73c18f0d0b25ffe2a","condition":"full-information","relevant_dimensions":["antennae","legs"],"bee_group":{"antennae":"A","wings":"X","pattern":"X","legs":"M"},"bonus":0.040000000000000424},{"rt":1695.2999999523163,"stimulus":"bees-with-color/bee-A1DM.svg","response":1,"trial_type":"image-button-response","trial_index":49,"time_elapsed":387051,"internal_node_id":"0.0-4.0-0.19","subject_id":"6106a6781a1f8976c5b3d045","study_id":"60edd13110225f80f9f3709b","session_id":"6196c1f73c18f0d0b25ffe2a","condition":"full-information","relevant_dimensions":["antennae","legs"],"bee_group":{"antennae":"A","wings":"X","pattern":"X","legs":"M"},"action":"avoid","summary":"good-avoid","bonus":0.040000000000000424},{"rt":1919.1999999284744,"stimulus":"\n                    <p><b>Action: <em>avoid</em></b></p>\n                    <p>This is the bee that you just saw.</p>\n                    <img src=\"bees-with-color/bee-A1DM.svg\" width=\"200\">\n                    <p><span class=\"greenText\">Good choice!</span>  This bee would have stung you.<br>Your bonus pay is unchanged, and remains at $0.42.</p>\n            ","response":0,"trial_type":"html-button-response","trial_index":50,"time_elapsed":388972,"internal_node_id":"0.0-4.0-1.19","subject_id":"6106a6781a1f8976c5b3d045","study_id":"60edd13110225f80f9f3709b","session_id":"6196c1f73c18f0d0b25ffe2a","condition":"full-information","relevant_dimensions":["antennae","legs"],"bee_group":{"antennae":"A","wings":"X","pattern":"X","legs":"M"},"bonus":0.040000000000000424},{"rt":2438.2999999523163,"stimulus":"bees-with-color/bee-A2DF.svg","response":0,"trial_type":"image-button-response","trial_index":51,"time_elapsed":391411,"internal_node_id":"0.0-4.0-0.20","subject_id":"6106a6781a1f8976c5b3d045","study_id":"60edd13110225f80f9f3709b","session_id":"6196c1f73c18f0d0b25ffe2a","condition":"full-information","relevant_dimensions":["antennae","legs"],"bee_group":{"antennae":"A","wings":"X","pattern":"X","legs":"M"},"action":"harvest","summary":"good-harvest","bonus":0.040000000000000424},{"rt":806.7999999523163,"stimulus":"\n                    <p><b>Action: <em>harvest</em></b></p>\n                    <p>This is the bee that you just saw.</p>\n                    <img src=\"bees-with-color/bee-A2DF.svg\" width=\"200\">\n                    <p><span class=\"greenText\"><b>Successful harvest!</b></span><br>Your pay has increased by $0.02. Your bonus pay is now $0.44.</p>\n            ","response":0,"trial_type":"html-button-response","trial_index":52,"time_elapsed":392219,"internal_node_id":"0.0-4.0-1.20","subject_id":"6106a6781a1f8976c5b3d045","study_id":"60edd13110225f80f9f3709b","session_id":"6196c1f73c18f0d0b25ffe2a","condition":"full-information","relevant_dimensions":["antennae","legs"],"bee_group":{"antennae":"A","wings":"X","pattern":"X","legs":"M"},"bonus":0.040000000000000424},{"rt":878.3999999761581,"stimulus":"bees-with-color/bee-B2DF.svg","response":0,"trial_type":"image-button-response","trial_index":53,"time_elapsed":393099,"internal_node_id":"0.0-4.0-0.21","subject_id":"6106a6781a1f8976c5b3d045","study_id":"60edd13110225f80f9f3709b","session_id":"6196c1f73c18f0d0b25ffe2a","condition":"full-information","relevant_dimensions":["antennae","legs"],"bee_group":{"antennae":"A","wings":"X","pattern":"X","legs":"M"},"action":"harvest","summary":"good-harvest","bonus":0.040000000000000424},{"rt":558.3999999761581,"stimulus":"\n                    <p><b>Action: <em>harvest</em></b></p>\n                    <p>This is the bee that you just saw.</p>\n                    <img src=\"bees-with-color/bee-B2DF.svg\" width=\"200\">\n                    <p><span class=\"greenText\"><b>Successful harvest!</b></span><br>Your pay has increased by $0.02. Your bonus pay is now $0.46.</p>\n            ","response":0,"trial_type":"html-button-response","trial_index":54,"time_elapsed":393659,"internal_node_id":"0.0-4.0-1.21","subject_id":"6106a6781a1f8976c5b3d045","study_id":"60edd13110225f80f9f3709b","session_id":"6196c1f73c18f0d0b25ffe2a","condition":"full-information","relevant_dimensions":["antennae","legs"],"bee_group":{"antennae":"A","wings":"X","pattern":"X","legs":"M"},"bonus":0.040000000000000424},{"rt":895.2000000476837,"stimulus":"bees-with-color/bee-A2DM.svg","response":0,"trial_type":"image-button-response","trial_index":55,"time_elapsed":394555,"internal_node_id":"0.0-4.0-0.22","subject_id":"6106a6781a1f8976c5b3d045","study_id":"60edd13110225f80f9f3709b","session_id":"6196c1f73c18f0d0b25ffe2a","condition":"full-information","relevant_dimensions":["antennae","legs"],"bee_group":{"antennae":"A","wings":"X","pattern":"X","legs":"M"},"action":"harvest","summary":"bad-harvest","bonus":0.040000000000000424},{"rt":567.0999999046326,"stimulus":"\n                    <p><b>Action: <em>harvest</em></b></p>\n                    <p>This is the bee that you just saw.</p>\n                    <img src=\"bees-with-color/bee-A2DM.svg\" width=\"200\">\n                    <p><span class=\"redText\">Bad choice, the bee was angry.</span><br><b>You have been stung!</b><br>Your pay has been decreased by $0.10. Your bonus pay is now $0.36.</p>\n            ","response":0,"trial_type":"html-button-response","trial_index":56,"time_elapsed":395123,"internal_node_id":"0.0-4.0-1.22","subject_id":"6106a6781a1f8976c5b3d045","study_id":"60edd13110225f80f9f3709b","session_id":"6196c1f73c18f0d0b25ffe2a","condition":"full-information","relevant_dimensions":["antennae","legs"],"bee_group":{"antennae":"A","wings":"X","pattern":"X","legs":"M"},"bonus":0.040000000000000424},{"rt":1358.7000000476837,"stimulus":"bees-with-color/bee-A2SF.svg","response":0,"trial_type":"image-button-response","trial_index":57,"time_elapsed":396483,"internal_node_id":"0.0-4.0-0.23","subject_id":"6106a6781a1f8976c5b3d045","study_id":"60edd13110225f80f9f3709b","session_id":"6196c1f73c18f0d0b25ffe2a","condition":"full-information","relevant_dimensions":["antennae","legs"],"bee_group":{"antennae":"A","wings":"X","pattern":"X","legs":"M"},"action":"harvest","summary":"good-harvest","bonus":0.040000000000000424},{"rt":830.7000000476837,"stimulus":"\n                    <p><b>Action: <em>harvest</em></b></p>\n                    <p>This is the bee that you just saw.</p>\n                    <img src=\"bees-with-color/bee-A2SF.svg\" width=\"200\">\n                    <p><span class=\"greenText\"><b>Successful harvest!</b></span><br>Your pay has increased by $0.02. Your bonus pay is now $0.38.</p>\n            ","response":0,"trial_type":"html-button-response","trial_index":58,"time_elapsed":397315,"internal_node_id":"0.0-4.0-1.23","subject_id":"6106a6781a1f8976c5b3d045","study_id":"60edd13110225f80f9f3709b","session_id":"6196c1f73c18f0d0b25ffe2a","condition":"full-information","relevant_dimensions":["antennae","legs"],"bee_group":{"antennae":"A","wings":"X","pattern":"X","legs":"M"},"bonus":0.040000000000000424},{"rt":10135,"stimulus":"bees-with-color/bee-A2SM.svg","response":0,"trial_type":"image-button-response","trial_index":59,"time_elapsed":407451,"internal_node_id":"0.0-4.0-0.24","subject_id":"6106a6781a1f8976c5b3d045","study_id":"60edd13110225f80f9f3709b","session_id":"6196c1f73c18f0d0b25ffe2a","condition":"full-information","relevant_dimensions":["antennae","legs"],"bee_group":{"antennae":"A","wings":"X","pattern":"X","legs":"M"},"action":"harvest","summary":"bad-harvest","bonus":0.040000000000000424},{"rt":831,"stimulus":"\n                    <p><b>Action: <em>harvest</em></b></p>\n                    <p>This is the bee that you just saw.</p>\n                    <img src=\"bees-with-color/bee-A2SM.svg\" width=\"200\">\n                    <p><span class=\"redText\">Bad choice, the bee was angry.</span><br><b>You have been stung!</b><br>Your pay has been decreased by $0.10. Your bonus pay is now $0.28.</p>\n            ","response":0,"trial_type":"html-button-response","trial_index":60,"time_elapsed":408283,"internal_node_id":"0.0-4.0-1.24","subject_id":"6106a6781a1f8976c5b3d045","study_id":"60edd13110225f80f9f3709b","session_id":"6196c1f73c18f0d0b25ffe2a","condition":"full-information","relevant_dimensions":["antennae","legs"],"bee_group":{"antennae":"A","wings":"X","pattern":"X","legs":"M"},"bonus":0.040000000000000424},{"rt":1062.2000000476837,"stimulus":"bees-with-color/bee-A1SF.svg","response":0,"trial_type":"image-button-response","trial_index":61,"time_elapsed":409347,"internal_node_id":"0.0-4.0-0.25","subject_id":"6106a6781a1f8976c5b3d045","study_id":"60edd13110225f80f9f3709b","session_id":"6196c1f73c18f0d0b25ffe2a","condition":"full-information","relevant_dimensions":["antennae","legs"],"bee_group":{"antennae":"A","wings":"X","pattern":"X","legs":"M"},"action":"harvest","summary":"good-harvest","bonus":0.040000000000000424},{"rt":646.8000000715256,"stimulus":"\n                    <p><b>Action: <em>harvest</em></b></p>\n                    <p>This is the bee that you just saw.</p>\n                    <img src=\"bees-with-color/bee-A1SF.svg\" width=\"200\">\n                    <p><span class=\"greenText\"><b>Successful harvest!</b></span><br>Your pay has increased by $0.02. Your bonus pay is now $0.30.</p>\n            ","response":0,"trial_type":"html-button-response","trial_index":62,"time_elapsed":409995,"internal_node_id":"0.0-4.0-1.25","subject_id":"6106a6781a1f8976c5b3d045","study_id":"60edd13110225f80f9f3709b","session_id":"6196c1f73c18f0d0b25ffe2a","condition":"full-information","relevant_dimensions":["antennae","legs"],"bee_group":{"antennae":"A","wings":"X","pattern":"X","legs":"M"},"bonus":0.040000000000000424},{"rt":1582.8000000715256,"stimulus":"bees-with-color/bee-B1SM.svg","response":1,"trial_type":"image-button-response","trial_index":63,"time_elapsed":411579,"internal_node_id":"0.0-4.0-0.26","subject_id":"6106a6781a1f8976c5b3d045","study_id":"60edd13110225f80f9f3709b","session_id":"6196c1f73c18f0d0b25ffe2a","condition":"full-information","relevant_dimensions":["antennae","legs"],"bee_group":{"antennae":"A","wings":"X","pattern":"X","legs":"M"},"action":"avoid","summary":"bad-avoid","bonus":0.040000000000000424},{"rt":758.8000000715256,"stimulus":"\n                    <p><b>Action: <em>avoid</em></b></p>\n                    <p>This is the bee that you just saw.</p>\n                    <img src=\"bees-with-color/bee-B1SM.svg\" width=\"200\">\n                    <p><span class=\"redText\">Bad choice,</span> the bee was friendly.<br>Your bonus pay is unchanged, and remains at $0.30.</p>\n            ","response":0,"trial_type":"html-button-response","trial_index":64,"time_elapsed":412339,"internal_node_id":"0.0-4.0-1.26","subject_id":"6106a6781a1f8976c5b3d045","study_id":"60edd13110225f80f9f3709b","session_id":"6196c1f73c18f0d0b25ffe2a","condition":"full-information","relevant_dimensions":["antennae","legs"],"bee_group":{"antennae":"A","wings":"X","pattern":"X","legs":"M"},"bonus":0.040000000000000424},{"rt":990.5,"stimulus":"bees-with-color/bee-B1DF.svg","response":1,"trial_type":"image-button-response","trial_index":65,"time_elapsed":413331,"internal_node_id":"0.0-4.0-0.27","subject_id":"6106a6781a1f8976c5b3d045","study_id":"60edd13110225f80f9f3709b","session_id":"6196c1f73c18f0d0b25ffe2a","condition":"full-information","relevant_dimensions":["antennae","legs"],"bee_group":{"antennae":"A","wings":"X","pattern":"X","legs":"M"},"action":"avoid","summary":"bad-avoid","bonus":0.040000000000000424},{"rt":622.8000000715256,"stimulus":"\n                    <p><b>Action: <em>avoid</em></b></p>\n                    <p>This is the bee that you just saw.</p>\n                    <img src=\"bees-with-color/bee-B1DF.svg\" width=\"200\">\n                    <p><span class=\"redText\">Bad choice,</span> the bee was friendly.<br>Your bonus pay is unchanged, and remains at $0.30.</p>\n            ","response":0,"trial_type":"html-button-response","trial_index":66,"time_elapsed":413955,"internal_node_id":"0.0-4.0-1.27","subject_id":"6106a6781a1f8976c5b3d045","study_id":"60edd13110225f80f9f3709b","session_id":"6196c1f73c18f0d0b25ffe2a","condition":"full-information","relevant_dimensions":["antennae","legs"],"bee_group":{"antennae":"A","wings":"X","pattern":"X","legs":"M"},"bonus":0.040000000000000424},{"rt":662.7000000476837,"stimulus":"bees-with-color/bee-B1SF.svg","response":0,"trial_type":"image-button-response","trial_index":67,"time_elapsed":414619,"internal_node_id":"0.0-4.0-0.28","subject_id":"6106a6781a1f8976c5b3d045","study_id":"60edd13110225f80f9f3709b","session_id":"6196c1f73c18f0d0b25ffe2a","condition":"full-information","relevant_dimensions":["antennae","legs"],"bee_group":{"antennae":"A","wings":"X","pattern":"X","legs":"M"},"action":"harvest","summary":"good-harvest","bonus":0.040000000000000424},{"rt":615,"stimulus":"\n                    <p><b>Action: <em>harvest</em></b></p>\n                    <p>This is the bee that you just saw.</p>\n                    <img src=\"bees-with-color/bee-B1SF.svg\" width=\"200\">\n                    <p><span class=\"greenText\"><b>Successful harvest!</b></span><br>Your pay has increased by $0.02. Your bonus pay is now $0.32.</p>\n            ","response":0,"trial_type":"html-button-response","trial_index":68,"time_elapsed":415235,"internal_node_id":"0.0-4.0-1.28","subject_id":"6106a6781a1f8976c5b3d045","study_id":"60edd13110225f80f9f3709b","session_id":"6196c1f73c18f0d0b25ffe2a","condition":"full-information","relevant_dimensions":["antennae","legs"],"bee_group":{"antennae":"A","wings":"X","pattern":"X","legs":"M"},"bonus":0.040000000000000424},{"rt":710.7999999523163,"stimulus":"bees-with-color/bee-B2SM.svg","response":0,"trial_type":"image-button-response","trial_index":69,"time_elapsed":415947,"internal_node_id":"0.0-4.0-0.29","subject_id":"6106a6781a1f8976c5b3d045","study_id":"60edd13110225f80f9f3709b","session_id":"6196c1f73c18f0d0b25ffe2a","condition":"full-information","relevant_dimensions":["antennae","legs"],"bee_group":{"antennae":"A","wings":"X","pattern":"X","legs":"M"},"action":"harvest","summary":"good-harvest","bonus":0.040000000000000424},{"rt":574.8999999761581,"stimulus":"\n                    <p><b>Action: <em>harvest</em></b></p>\n                    <p>This is the bee that you just saw.</p>\n                    <img src=\"bees-with-color/bee-B2SM.svg\" width=\"200\">\n                    <p><span class=\"greenText\"><b>Successful harvest!</b></span><br>Your pay has increased by $0.02. Your bonus pay is now $0.34.</p>\n            ","response":0,"trial_type":"html-button-response","trial_index":70,"time_elapsed":416523,"internal_node_id":"0.0-4.0-1.29","subject_id":"6106a6781a1f8976c5b3d045","study_id":"60edd13110225f80f9f3709b","session_id":"6196c1f73c18f0d0b25ffe2a","condition":"full-information","relevant_dimensions":["antennae","legs"],"bee_group":{"antennae":"A","wings":"X","pattern":"X","legs":"M"},"bonus":0.040000000000000424},{"rt":1199.5999999046326,"stimulus":"bees-with-color/bee-A1SM.svg","response":1,"trial_type":"image-button-response","trial_index":71,"time_elapsed":417724,"internal_node_id":"0.0-4.0-0.30","subject_id":"6106a6781a1f8976c5b3d045","study_id":"60edd13110225f80f9f3709b","session_id":"6196c1f73c18f0d0b25ffe2a","condition":"full-information","relevant_dimensions":["antennae","legs"],"bee_group":{"antennae":"A","wings":"X","pattern":"X","legs":"M"},"action":"avoid","summary":"good-avoid","bonus":0.040000000000000424},{"rt":902.8999999761581,"stimulus":"\n                    <p><b>Action: <em>avoid</em></b></p>\n                    <p>This is the bee that you just saw.</p>\n                    <img src=\"bees-with-color/bee-A1SM.svg\" width=\"200\">\n                    <p><span class=\"greenText\">Good choice!</span>  This bee would have stung you.<br>Your bonus pay is unchanged, and remains at $0.34.</p>\n            ","response":0,"trial_type":"html-button-response","trial_index":72,"time_elapsed":418628,"internal_node_id":"0.0-4.0-1.30","subject_id":"6106a6781a1f8976c5b3d045","study_id":"60edd13110225f80f9f3709b","session_id":"6196c1f73c18f0d0b25ffe2a","condition":"full-information","relevant_dimensions":["antennae","legs"],"bee_group":{"antennae":"A","wings":"X","pattern":"X","legs":"M"},"bonus":0.040000000000000424},{"rt":973.6000000238419,"stimulus":"bees-with-color/bee-A1DF.svg","response":1,"trial_type":"image-button-response","trial_index":73,"time_elapsed":419603,"internal_node_id":"0.0-4.0-0.31","subject_id":"6106a6781a1f8976c5b3d045","study_id":"60edd13110225f80f9f3709b","session_id":"6196c1f73c18f0d0b25ffe2a","condition":"full-information","relevant_dimensions":["antennae","legs"],"bee_group":{"antennae":"A","wings":"X","pattern":"X","legs":"M"},"action":"avoid","summary":"bad-avoid","bonus":0.040000000000000424},{"rt":646.2999999523163,"stimulus":"\n                    <p><b>Action: <em>avoid</em></b></p>\n                    <p>This is the bee that you just saw.</p>\n                    <img src=\"bees-with-color/bee-A1DF.svg\" width=\"200\">\n                    <p><span class=\"redText\">Bad choice,</span> the bee was friendly.<br>Your bonus pay is unchanged, and remains at $0.34.</p>\n            ","response":0,"trial_type":"html-button-response","trial_index":74,"time_elapsed":420251,"internal_node_id":"0.0-4.0-1.31","subject_id":"6106a6781a1f8976c5b3d045","study_id":"60edd13110225f80f9f3709b","session_id":"6196c1f73c18f0d0b25ffe2a","condition":"full-information","relevant_dimensions":["antennae","legs"],"bee_group":{"antennae":"A","wings":"X","pattern":"X","legs":"M"},"bonus":0.040000000000000424},{"rt":1438.5,"stimulus":"bees-with-color/bee-B1SM.svg","response":0,"trial_type":"image-button-response","trial_index":75,"time_elapsed":421691,"internal_node_id":"0.0-4.0-0.32","subject_id":"6106a6781a1f8976c5b3d045","study_id":"60edd13110225f80f9f3709b","session_id":"6196c1f73c18f0d0b25ffe2a","condition":"full-information","relevant_dimensions":["antennae","legs"],"bee_group":{"antennae":"A","wings":"X","pattern":"X","legs":"M"},"action":"harvest","summary":"good-harvest","bonus":0.040000000000000424},{"rt":590.3999999761581,"stimulus":"\n                    <p><b>Action: <em>harvest</em></b></p>\n                    <p>This is the bee that you just saw.</p>\n                    <img src=\"bees-with-color/bee-B1SM.svg\" width=\"200\">\n                    <p><span class=\"greenText\"><b>Successful harvest!</b></span><br>Your pay has increased by $0.02. Your bonus pay is now $0.36.</p>\n            ","response":0,"trial_type":"html-button-response","trial_index":76,"time_elapsed":422283,"internal_node_id":"0.0-4.0-1.32","subject_id":"6106a6781a1f8976c5b3d045","study_id":"60edd13110225f80f9f3709b","session_id":"6196c1f73c18f0d0b25ffe2a","condition":"full-information","relevant_dimensions":["antennae","legs"],"bee_group":{"antennae":"A","wings":"X","pattern":"X","legs":"M"},"bonus":0.040000000000000424},{"rt":1006.7000000476837,"stimulus":"bees-with-color/bee-A2DM.svg","response":0,"trial_type":"image-button-response","trial_index":77,"time_elapsed":423291,"internal_node_id":"0.0-4.0-0.33","subject_id":"6106a6781a1f8976c5b3d045","study_id":"60edd13110225f80f9f3709b","session_id":"6196c1f73c18f0d0b25ffe2a","condition":"full-information","relevant_dimensions":["antennae","legs"],"bee_group":{"antennae":"A","wings":"X","pattern":"X","legs":"M"},"action":"harvest","summary":"bad-harvest","bonus":0.040000000000000424},{"rt":1415.1000000238419,"stimulus":"\n                    <p><b>Action: <em>harvest</em></b></p>\n                    <p>This is the bee that you just saw.</p>\n                    <img src=\"bees-with-color/bee-A2DM.svg\" width=\"200\">\n                    <p><span class=\"redText\">Bad choice, the bee was angry.</span><br><b>You have been stung!</b><br>Your pay has been decreased by $0.10. Your bonus pay is now $0.26.</p>\n            ","response":0,"trial_type":"html-button-response","trial_index":78,"time_elapsed":424707,"internal_node_id":"0.0-4.0-1.33","subject_id":"6106a6781a1f8976c5b3d045","study_id":"60edd13110225f80f9f3709b","session_id":"6196c1f73c18f0d0b25ffe2a","condition":"full-information","relevant_dimensions":["antennae","legs"],"bee_group":{"antennae":"A","wings":"X","pattern":"X","legs":"M"},"bonus":0.040000000000000424},{"rt":1374.8000000715256,"stimulus":"bees-with-color/bee-B2DF.svg","response":1,"trial_type":"image-button-response","trial_index":79,"time_elapsed":426083,"internal_node_id":"0.0-4.0-0.34","subject_id":"6106a6781a1f8976c5b3d045","study_id":"60edd13110225f80f9f3709b","session_id":"6196c1f73c18f0d0b25ffe2a","condition":"full-information","relevant_dimensions":["antennae","legs"],"bee_group":{"antennae":"A","wings":"X","pattern":"X","legs":"M"},"action":"avoid","summary":"bad-avoid","bonus":0.040000000000000424},{"rt":694.8999999761581,"stimulus":"\n                    <p><b>Action: <em>avoid</em></b></p>\n                    <p>This is the bee that you just saw.</p>\n                    <img src=\"bees-with-color/bee-B2DF.svg\" width=\"200\">\n                    <p><span class=\"redText\">Bad choice,</span> the bee was friendly.<br>Your bonus pay is unchanged, and remains at $0.26.</p>\n            ","response":0,"trial_type":"html-button-response","trial_index":80,"time_elapsed":426779,"internal_node_id":"0.0-4.0-1.34","subject_id":"6106a6781a1f8976c5b3d045","study_id":"60edd13110225f80f9f3709b","session_id":"6196c1f73c18f0d0b25ffe2a","condition":"full-information","relevant_dimensions":["antennae","legs"],"bee_group":{"antennae":"A","wings":"X","pattern":"X","legs":"M"},"bonus":0.040000000000000424},{"rt":630.8999999761581,"stimulus":"bees-with-color/bee-B1SF.svg","response":0,"trial_type":"image-button-response","trial_index":81,"time_elapsed":427411,"internal_node_id":"0.0-4.0-0.35","subject_id":"6106a6781a1f8976c5b3d045","study_id":"60edd13110225f80f9f3709b","session_id":"6196c1f73c18f0d0b25ffe2a","condition":"full-information","relevant_dimensions":["antennae","legs"],"bee_group":{"antennae":"A","wings":"X","pattern":"X","legs":"M"},"action":"harvest","summary":"good-harvest","bonus":0.040000000000000424},{"rt":839.2999999523163,"stimulus":"\n                    <p><b>Action: <em>harvest</em></b></p>\n                    <p>This is the bee that you just saw.</p>\n                    <img src=\"bees-with-color/bee-B1SF.svg\" width=\"200\">\n                    <p><span class=\"greenText\"><b>Successful harvest!</b></span><br>Your pay has increased by $0.02. Your bonus pay is now $0.28.</p>\n            ","response":0,"trial_type":"html-button-response","trial_index":82,"time_elapsed":428252,"internal_node_id":"0.0-4.0-1.35","subject_id":"6106a6781a1f8976c5b3d045","study_id":"60edd13110225f80f9f3709b","session_id":"6196c1f73c18f0d0b25ffe2a","condition":"full-information","relevant_dimensions":["antennae","legs"],"bee_group":{"antennae":"A","wings":"X","pattern":"X","legs":"M"},"bonus":0.040000000000000424},{"rt":518.7000000476837,"stimulus":"bees-with-color/bee-B2SM.svg","response":0,"trial_type":"image-button-response","trial_index":83,"time_elapsed":428771,"internal_node_id":"0.0-4.0-0.36","subject_id":"6106a6781a1f8976c5b3d045","study_id":"60edd13110225f80f9f3709b","session_id":"6196c1f73c18f0d0b25ffe2a","condition":"full-information","relevant_dimensions":["antennae","legs"],"bee_group":{"antennae":"A","wings":"X","pattern":"X","legs":"M"},"action":"harvest","summary":"good-harvest","bonus":0.040000000000000424},{"rt":510.7999999523163,"stimulus":"\n                    <p><b>Action: <em>harvest</em></b></p>\n                    <p>This is the bee that you just saw.</p>\n                    <img src=\"bees-with-color/bee-B2SM.svg\" width=\"200\">\n                    <p><span class=\"greenText\"><b>Successful harvest!</b></span><br>Your pay has increased by $0.02. Your bonus pay is now $0.30.</p>\n            ","response":0,"trial_type":"html-button-response","trial_index":84,"time_elapsed":429283,"internal_node_id":"0.0-4.0-1.36","subject_id":"6106a6781a1f8976c5b3d045","study_id":"60edd13110225f80f9f3709b","session_id":"6196c1f73c18f0d0b25ffe2a","condition":"full-information","relevant_dimensions":["antennae","legs"],"bee_group":{"antennae":"A","wings":"X","pattern":"X","legs":"M"},"bonus":0.040000000000000424},{"rt":4031,"stimulus":"bees-with-color/bee-A2SF.svg","response":1,"trial_type":"image-button-response","trial_index":85,"time_elapsed":433315,"internal_node_id":"0.0-4.0-0.37","subject_id":"6106a6781a1f8976c5b3d045","study_id":"60edd13110225f80f9f3709b","session_id":"6196c1f73c18f0d0b25ffe2a","condition":"full-information","relevant_dimensions":["antennae","legs"],"bee_group":{"antennae":"A","wings":"X","pattern":"X","legs":"M"},"action":"avoid","summary":"bad-avoid","bonus":0.040000000000000424},{"rt":646.8999999761581,"stimulus":"\n                    <p><b>Action: <em>avoid</em></b></p>\n                    <p>This is the bee that you just saw.</p>\n                    <img src=\"bees-with-color/bee-A2SF.svg\" width=\"200\">\n                    <p><span class=\"redText\">Bad choice,</span> the bee was friendly.<br>Your bonus pay is unchanged, and remains at $0.30.</p>\n            ","response":0,"trial_type":"html-button-response","trial_index":86,"time_elapsed":433963,"internal_node_id":"0.0-4.0-1.37","subject_id":"6106a6781a1f8976c5b3d045","study_id":"60edd13110225f80f9f3709b","session_id":"6196c1f73c18f0d0b25ffe2a","condition":"full-information","relevant_dimensions":["antennae","legs"],"bee_group":{"antennae":"A","wings":"X","pattern":"X","legs":"M"},"bonus":0.040000000000000424},{"rt":830.7000000476837,"stimulus":"bees-with-color/bee-B1DM.svg","response":0,"trial_type":"image-button-response","trial_index":87,"time_elapsed":434795,"internal_node_id":"0.0-4.0-0.38","subject_id":"6106a6781a1f8976c5b3d045","study_id":"60edd13110225f80f9f3709b","session_id":"6196c1f73c18f0d0b25ffe2a","condition":"full-information","relevant_dimensions":["antennae","legs"],"bee_group":{"antennae":"A","wings":"X","pattern":"X","legs":"M"},"action":"harvest","summary":"good-harvest","bonus":0.040000000000000424},{"rt":527,"stimulus":"\n                    <p><b>Action: <em>harvest</em></b></p>\n                    <p>This is the bee that you just saw.</p>\n                    <img src=\"bees-with-color/bee-B1DM.svg\" width=\"200\">\n                    <p><span class=\"greenText\"><b>Successful harvest!</b></span><br>Your pay has increased by $0.02. Your bonus pay is now $0.32.</p>\n            ","response":0,"trial_type":"html-button-response","trial_index":88,"time_elapsed":435323,"internal_node_id":"0.0-4.0-1.38","subject_id":"6106a6781a1f8976c5b3d045","study_id":"60edd13110225f80f9f3709b","session_id":"6196c1f73c18f0d0b25ffe2a","condition":"full-information","relevant_dimensions":["antennae","legs"],"bee_group":{"antennae":"A","wings":"X","pattern":"X","legs":"M"},"bonus":0.040000000000000424},{"rt":1422.8999999761581,"stimulus":"bees-with-color/bee-A1SM.svg","response":0,"trial_type":"image-button-response","trial_index":89,"time_elapsed":436747,"internal_node_id":"0.0-4.0-0.39","subject_id":"6106a6781a1f8976c5b3d045","study_id":"60edd13110225f80f9f3709b","session_id":"6196c1f73c18f0d0b25ffe2a","condition":"full-information","relevant_dimensions":["antennae","legs"],"bee_group":{"antennae":"A","wings":"X","pattern":"X","legs":"M"},"action":"harvest","summary":"bad-harvest","bonus":0.040000000000000424},{"rt":598.7999999523163,"stimulus":"\n                    <p><b>Action: <em>harvest</em></b></p>\n                    <p>This is the bee that you just saw.</p>\n                    <img src=\"bees-with-color/bee-A1SM.svg\" width=\"200\">\n                    <p><span class=\"redText\">Bad choice, the bee was angry.</span><br><b>You have been stung!</b><br>Your pay has been decreased by $0.10. Your bonus pay is now $0.22.</p>\n            ","response":0,"trial_type":"html-button-response","trial_index":90,"time_elapsed":437347,"internal_node_id":"0.0-4.0-1.39","subject_id":"6106a6781a1f8976c5b3d045","study_id":"60edd13110225f80f9f3709b","session_id":"6196c1f73c18f0d0b25ffe2a","condition":"full-information","relevant_dimensions":["antennae","legs"],"bee_group":{"antennae":"A","wings":"X","pattern":"X","legs":"M"},"bonus":0.040000000000000424},{"rt":2886.899999976158,"stimulus":"bees-with-color/bee-B1DF.svg","response":0,"trial_type":"image-button-response","trial_index":91,"time_elapsed":440235,"internal_node_id":"0.0-4.0-0.40","subject_id":"6106a6781a1f8976c5b3d045","study_id":"60edd13110225f80f9f3709b","session_id":"6196c1f73c18f0d0b25ffe2a","condition":"full-information","relevant_dimensions":["antennae","legs"],"bee_group":{"antennae":"A","wings":"X","pattern":"X","legs":"M"},"action":"harvest","summary":"good-harvest","bonus":0.040000000000000424},{"rt":574.8999999761581,"stimulus":"\n                    <p><b>Action: <em>harvest</em></b></p>\n                    <p>This is the bee that you just saw.</p>\n                    <img src=\"bees-with-color/bee-B1DF.svg\" width=\"200\">\n                    <p><span class=\"greenText\"><b>Successful harvest!</b></span><br>Your pay has increased by $0.02. Your bonus pay is now $0.24.</p>\n            ","response":0,"trial_type":"html-button-response","trial_index":92,"time_elapsed":440811,"internal_node_id":"0.0-4.0-1.40","subject_id":"6106a6781a1f8976c5b3d045","study_id":"60edd13110225f80f9f3709b","session_id":"6196c1f73c18f0d0b25ffe2a","condition":"full-information","relevant_dimensions":["antennae","legs"],"bee_group":{"antennae":"A","wings":"X","pattern":"X","legs":"M"},"bonus":0.040000000000000424},{"rt":654.8000000715256,"stimulus":"bees-with-color/bee-B2DM.svg","response":0,"trial_type":"image-button-response","trial_index":93,"time_elapsed":441467,"internal_node_id":"0.0-4.0-0.41","subject_id":"6106a6781a1f8976c5b3d045","study_id":"60edd13110225f80f9f3709b","session_id":"6196c1f73c18f0d0b25ffe2a","condition":"full-information","relevant_dimensions":["antennae","legs"],"bee_group":{"antennae":"A","wings":"X","pattern":"X","legs":"M"},"action":"harvest","summary":"good-harvest","bonus":0.040000000000000424},{"rt":470.8000000715256,"stimulus":"\n                    <p><b>Action: <em>harvest</em></b></p>\n                    <p>This is the bee that you just saw.</p>\n                    <img src=\"bees-with-color/bee-B2DM.svg\" width=\"200\">\n                    <p><span class=\"greenText\"><b>Successful harvest!</b></span><br>Your pay has increased by $0.02. Your bonus pay is now $0.26.</p>\n            ","response":0,"trial_type":"html-button-response","trial_index":94,"time_elapsed":441939,"internal_node_id":"0.0-4.0-1.41","subject_id":"6106a6781a1f8976c5b3d045","study_id":"60edd13110225f80f9f3709b","session_id":"6196c1f73c18f0d0b25ffe2a","condition":"full-information","relevant_dimensions":["antennae","legs"],"bee_group":{"antennae":"A","wings":"X","pattern":"X","legs":"M"},"bonus":0.040000000000000424},{"rt":518.8000000715256,"stimulus":"bees-with-color/bee-B2SF.svg","response":0,"trial_type":"image-button-response","trial_index":95,"time_elapsed":442459,"internal_node_id":"0.0-4.0-0.42","subject_id":"6106a6781a1f8976c5b3d045","study_id":"60edd13110225f80f9f3709b","session_id":"6196c1f73c18f0d0b25ffe2a","condition":"full-information","relevant_dimensions":["antennae","legs"],"bee_group":{"antennae":"A","wings":"X","pattern":"X","legs":"M"},"action":"harvest","summary":"good-harvest","bonus":0.040000000000000424},{"rt":415,"stimulus":"\n                    <p><b>Action: <em>harvest</em></b></p>\n                    <p>This is the bee that you just saw.</p>\n                    <img src=\"bees-with-color/bee-B2SF.svg\" width=\"200\">\n                    <p><span class=\"greenText\"><b>Successful harvest!</b></span><br>Your pay has increased by $0.02. Your bonus pay is now $0.28.</p>\n            ","response":0,"trial_type":"html-button-response","trial_index":96,"time_elapsed":442875,"internal_node_id":"0.0-4.0-1.42","subject_id":"6106a6781a1f8976c5b3d045","study_id":"60edd13110225f80f9f3709b","session_id":"6196c1f73c18f0d0b25ffe2a","condition":"full-information","relevant_dimensions":["antennae","legs"],"bee_group":{"antennae":"A","wings":"X","pattern":"X","legs":"M"},"bonus":0.040000000000000424},{"rt":1262.8999999761581,"stimulus":"bees-with-color/bee-A1DF.svg","response":0,"trial_type":"image-button-response","trial_index":97,"time_elapsed":444139,"internal_node_id":"0.0-4.0-0.43","subject_id":"6106a6781a1f8976c5b3d045","study_id":"60edd13110225f80f9f3709b","session_id":"6196c1f73c18f0d0b25ffe2a","condition":"full-information","relevant_dimensions":["antennae","legs"],"bee_group":{"antennae":"A","wings":"X","pattern":"X","legs":"M"},"action":"harvest","summary":"good-harvest","bonus":0.040000000000000424},{"rt":630.9000000953674,"stimulus":"\n                    <p><b>Action: <em>harvest</em></b></p>\n                    <p>This is the bee that you just saw.</p>\n                    <img src=\"bees-with-color/bee-A1DF.svg\" width=\"200\">\n                    <p><span class=\"greenText\"><b>Successful harvest!</b></span><br>Your pay has increased by $0.02. Your bonus pay is now $0.30.</p>\n            ","response":0,"trial_type":"html-button-response","trial_index":98,"time_elapsed":444771,"internal_node_id":"0.0-4.0-1.43","subject_id":"6106a6781a1f8976c5b3d045","study_id":"60edd13110225f80f9f3709b","session_id":"6196c1f73c18f0d0b25ffe2a","condition":"full-information","relevant_dimensions":["antennae","legs"],"bee_group":{"antennae":"A","wings":"X","pattern":"X","legs":"M"},"bonus":0.040000000000000424},{"rt":686.6000000238419,"stimulus":"bees-with-color/bee-A2DF.svg","response":0,"trial_type":"image-button-response","trial_index":99,"time_elapsed":445459,"internal_node_id":"0.0-4.0-0.44","subject_id":"6106a6781a1f8976c5b3d045","study_id":"60edd13110225f80f9f3709b","session_id":"6196c1f73c18f0d0b25ffe2a","condition":"full-information","relevant_dimensions":["antennae","legs"],"bee_group":{"antennae":"A","wings":"X","pattern":"X","legs":"M"},"action":"harvest","summary":"good-harvest","bonus":0.040000000000000424},{"rt":470.7000000476837,"stimulus":"\n                    <p><b>Action: <em>harvest</em></b></p>\n                    <p>This is the bee that you just saw.</p>\n                    <img src=\"bees-with-color/bee-A2DF.svg\" width=\"200\">\n                    <p><span class=\"greenText\"><b>Successful harvest!</b></span><br>Your pay has increased by $0.02. Your bonus pay is now $0.32.</p>\n            ","response":0,"trial_type":"html-button-response","trial_index":100,"time_elapsed":445931,"internal_node_id":"0.0-4.0-1.44","subject_id":"6106a6781a1f8976c5b3d045","study_id":"60edd13110225f80f9f3709b","session_id":"6196c1f73c18f0d0b25ffe2a","condition":"full-information","relevant_dimensions":["antennae","legs"],"bee_group":{"antennae":"A","wings":"X","pattern":"X","legs":"M"},"bonus":0.040000000000000424},{"rt":1447.1000000238419,"stimulus":"bees-with-color/bee-A2SM.svg","response":1,"trial_type":"image-button-response","trial_index":101,"time_elapsed":447379,"internal_node_id":"0.0-4.0-0.45","subject_id":"6106a6781a1f8976c5b3d045","study_id":"60edd13110225f80f9f3709b","session_id":"6196c1f73c18f0d0b25ffe2a","condition":"full-information","relevant_dimensions":["antennae","legs"],"bee_group":{"antennae":"A","wings":"X","pattern":"X","legs":"M"},"action":"avoid","summary":"good-avoid","bonus":0.040000000000000424},{"rt":614.8000000715256,"stimulus":"\n                    <p><b>Action: <em>avoid</em></b></p>\n                    <p>This is the bee that you just saw.</p>\n                    <img src=\"bees-with-color/bee-A2SM.svg\" width=\"200\">\n                    <p><span class=\"greenText\">Good choice!</span>  This bee would have stung you.<br>Your bonus pay is unchanged, and remains at $0.32.</p>\n            ","response":0,"trial_type":"html-button-response","trial_index":102,"time_elapsed":447995,"internal_node_id":"0.0-4.0-1.45","subject_id":"6106a6781a1f8976c5b3d045","study_id":"60edd13110225f80f9f3709b","session_id":"6196c1f73c18f0d0b25ffe2a","condition":"full-information","relevant_dimensions":["antennae","legs"],"bee_group":{"antennae":"A","wings":"X","pattern":"X","legs":"M"},"bonus":0.040000000000000424},{"rt":3254.899999976158,"stimulus":"bees-with-color/bee-A1DM.svg","response":0,"trial_type":"image-button-response","trial_index":103,"time_elapsed":451251,"internal_node_id":"0.0-4.0-0.46","subject_id":"6106a6781a1f8976c5b3d045","study_id":"60edd13110225f80f9f3709b","session_id":"6196c1f73c18f0d0b25ffe2a","condition":"full-information","relevant_dimensions":["antennae","legs"],"bee_group":{"antennae":"A","wings":"X","pattern":"X","legs":"M"},"action":"harvest","summary":"bad-harvest","bonus":0.040000000000000424},{"rt":1238.8000000715256,"stimulus":"\n                    <p><b>Action: <em>harvest</em></b></p>\n                    <p>This is the bee that you just saw.</p>\n                    <img src=\"bees-with-color/bee-A1DM.svg\" width=\"200\">\n                    <p><span class=\"redText\">Bad choice, the bee was angry.</span><br><b>You have been stung!</b><br>Your pay has been decreased by $0.10. Your bonus pay is now $0.22.</p>\n            ","response":0,"trial_type":"html-button-response","trial_index":104,"time_elapsed":452491,"internal_node_id":"0.0-4.0-1.46","subject_id":"6106a6781a1f8976c5b3d045","study_id":"60edd13110225f80f9f3709b","session_id":"6196c1f73c18f0d0b25ffe2a","condition":"full-information","relevant_dimensions":["antennae","legs"],"bee_group":{"antennae":"A","wings":"X","pattern":"X","legs":"M"},"bonus":0.040000000000000424},{"rt":1830.8000000715256,"stimulus":"bees-with-color/bee-A1SF.svg","response":1,"trial_type":"image-button-response","trial_index":105,"time_elapsed":454323,"internal_node_id":"0.0-4.0-0.47","subject_id":"6106a6781a1f8976c5b3d045","study_id":"60edd13110225f80f9f3709b","session_id":"6196c1f73c18f0d0b25ffe2a","condition":"full-information","relevant_dimensions":["antennae","legs"],"bee_group":{"antennae":"A","wings":"X","pattern":"X","legs":"M"},"action":"avoid","summary":"bad-avoid","bonus":0.040000000000000424},{"rt":558.9000000953674,"stimulus":"\n                    <p><b>Action: <em>avoid</em></b></p>\n                    <p>This is the bee that you just saw.</p>\n                    <img src=\"bees-with-color/bee-A1SF.svg\" width=\"200\">\n                    <p><span class=\"redText\">Bad choice,</span> the bee was friendly.<br>Your bonus pay is unchanged, and remains at $0.22.</p>\n            ","response":0,"trial_type":"html-button-response","trial_index":106,"time_elapsed":454883,"internal_node_id":"0.0-4.0-1.47","subject_id":"6106a6781a1f8976c5b3d045","study_id":"60edd13110225f80f9f3709b","session_id":"6196c1f73c18f0d0b25ffe2a","condition":"full-information","relevant_dimensions":["antennae","legs"],"bee_group":{"antennae":"A","wings":"X","pattern":"X","legs":"M"},"bonus":0.040000000000000424},{"rt":998.8999999761581,"stimulus":"bees-with-color/bee-A2SF.svg","response":0,"trial_type":"image-button-response","trial_index":107,"time_elapsed":455883,"internal_node_id":"0.0-4.0-0.48","subject_id":"6106a6781a1f8976c5b3d045","study_id":"60edd13110225f80f9f3709b","session_id":"6196c1f73c18f0d0b25ffe2a","condition":"full-information","relevant_dimensions":["antennae","legs"],"bee_group":{"antennae":"A","wings":"X","pattern":"X","legs":"M"},"action":"harvest","summary":"good-harvest","bonus":0.040000000000000424},{"rt":494.8000000715256,"stimulus":"\n                    <p><b>Action: <em>harvest</em></b></p>\n                    <p>This is the bee that you just saw.</p>\n                    <img src=\"bees-with-color/bee-A2SF.svg\" width=\"200\">\n                    <p><span class=\"greenText\"><b>Successful harvest!</b></span><br>Your pay has increased by $0.02. Your bonus pay is now $0.24.</p>\n            ","response":0,"trial_type":"html-button-response","trial_index":108,"time_elapsed":456379,"internal_node_id":"0.0-4.0-1.48","subject_id":"6106a6781a1f8976c5b3d045","study_id":"60edd13110225f80f9f3709b","session_id":"6196c1f73c18f0d0b25ffe2a","condition":"full-information","relevant_dimensions":["antennae","legs"],"bee_group":{"antennae":"A","wings":"X","pattern":"X","legs":"M"},"bonus":0.040000000000000424},{"rt":950.3999999761581,"stimulus":"bees-with-color/bee-A1SM.svg","response":0,"trial_type":"image-button-response","trial_index":109,"time_elapsed":457331,"internal_node_id":"0.0-4.0-0.49","subject_id":"6106a6781a1f8976c5b3d045","study_id":"60edd13110225f80f9f3709b","session_id":"6196c1f73c18f0d0b25ffe2a","condition":"full-information","relevant_dimensions":["antennae","legs"],"bee_group":{"antennae":"A","wings":"X","pattern":"X","legs":"M"},"action":"harvest","summary":"bad-harvest","bonus":0.040000000000000424},{"rt":462.89999997615814,"stimulus":"\n                    <p><b>Action: <em>harvest</em></b></p>\n                    <p>This is the bee that you just saw.</p>\n                    <img src=\"bees-with-color/bee-A1SM.svg\" width=\"200\">\n                    <p><span class=\"redText\">Bad choice, the bee was angry.</span><br><b>You have been stung!</b><br>Your pay has been decreased by $0.10. Your bonus pay is now $0.14.</p>\n            ","response":0,"trial_type":"html-button-response","trial_index":110,"time_elapsed":457795,"internal_node_id":"0.0-4.0-1.49","subject_id":"6106a6781a1f8976c5b3d045","study_id":"60edd13110225f80f9f3709b","session_id":"6196c1f73c18f0d0b25ffe2a","condition":"full-information","relevant_dimensions":["antennae","legs"],"bee_group":{"antennae":"A","wings":"X","pattern":"X","legs":"M"},"bonus":0.040000000000000424},{"rt":3479,"stimulus":"bees-with-color/bee-A2DM.svg","response":0,"trial_type":"image-button-response","trial_index":111,"time_elapsed":461275,"internal_node_id":"0.0-4.0-0.50","subject_id":"6106a6781a1f8976c5b3d045","study_id":"60edd13110225f80f9f3709b","session_id":"6196c1f73c18f0d0b25ffe2a","condition":"full-information","relevant_dimensions":["antennae","legs"],"bee_group":{"antennae":"A","wings":"X","pattern":"X","legs":"M"},"action":"harvest","summary":"bad-harvest","bonus":0.040000000000000424},{"rt":534.6000000238419,"stimulus":"\n                    <p><b>Action: <em>harvest</em></b></p>\n                    <p>This is the bee that you just saw.</p>\n                    <img src=\"bees-with-color/bee-A2DM.svg\" width=\"200\">\n                    <p><span class=\"redText\">Bad choice, the bee was angry.</span><br><b>You have been stung!</b><br>Your pay has been decreased by $0.10. Your bonus pay is now $0.04.</p>\n            ","response":0,"trial_type":"html-button-response","trial_index":112,"time_elapsed":461811,"internal_node_id":"0.0-4.0-1.50","subject_id":"6106a6781a1f8976c5b3d045","study_id":"60edd13110225f80f9f3709b","session_id":"6196c1f73c18f0d0b25ffe2a","condition":"full-information","relevant_dimensions":["antennae","legs"],"bee_group":{"antennae":"A","wings":"X","pattern":"X","legs":"M"},"bonus":0.040000000000000424},{"rt":790.9000000953674,"stimulus":"bees-with-color/bee-A1SF.svg","response":1,"trial_type":"image-button-response","trial_index":113,"time_elapsed":462603,"internal_node_id":"0.0-4.0-0.51","subject_id":"6106a6781a1f8976c5b3d045","study_id":"60edd13110225f80f9f3709b","session_id":"6196c1f73c18f0d0b25ffe2a","condition":"full-information","relevant_dimensions":["antennae","legs"],"bee_group":{"antennae":"A","wings":"X","pattern":"X","legs":"M"},"action":"avoid","summary":"bad-avoid","bonus":0.040000000000000424},{"rt":719.1000000238419,"stimulus":"\n                    <p><b>Action: <em>avoid</em></b></p>\n                    <p>This is the bee that you just saw.</p>\n                    <img src=\"bees-with-color/bee-A1SF.svg\" width=\"200\">\n                    <p><span class=\"redText\">Bad choice,</span> the bee was friendly.<br>Your bonus pay is unchanged, and remains at $0.04.</p>\n            ","response":0,"trial_type":"html-button-response","trial_index":114,"time_elapsed":463323,"internal_node_id":"0.0-4.0-1.51","subject_id":"6106a6781a1f8976c5b3d045","study_id":"60edd13110225f80f9f3709b","session_id":"6196c1f73c18f0d0b25ffe2a","condition":"full-information","relevant_dimensions":["antennae","legs"],"bee_group":{"antennae":"A","wings":"X","pattern":"X","legs":"M"},"bonus":0.040000000000000424},{"rt":415.10000002384186,"stimulus":"bees-with-color/bee-A1DF.svg","response":0,"trial_type":"image-button-response","trial_index":115,"time_elapsed":463739,"internal_node_id":"0.0-4.0-0.52","subject_id":"6106a6781a1f8976c5b3d045","study_id":"60edd13110225f80f9f3709b","session_id":"6196c1f73c18f0d0b25ffe2a","condition":"full-information","relevant_dimensions":["antennae","legs"],"bee_group":{"antennae":"A","wings":"X","pattern":"X","legs":"M"},"action":"harvest","summary":"good-harvest","bonus":0.040000000000000424},{"rt":503,"stimulus":"\n                    <p><b>Action: <em>harvest</em></b></p>\n                    <p>This is the bee that you just saw.</p>\n                    <img src=\"bees-with-color/bee-A1DF.svg\" width=\"200\">\n                    <p><span class=\"greenText\"><b>Successful harvest!</b></span><br>Your pay has increased by $0.02. Your bonus pay is now $0.06.</p>\n            ","response":0,"trial_type":"html-button-response","trial_index":116,"time_elapsed":464243,"internal_node_id":"0.0-4.0-1.52","subject_id":"6106a6781a1f8976c5b3d045","study_id":"60edd13110225f80f9f3709b","session_id":"6196c1f73c18f0d0b25ffe2a","condition":"full-information","relevant_dimensions":["antennae","legs"],"bee_group":{"antennae":"A","wings":"X","pattern":"X","legs":"M"},"bonus":0.040000000000000424},{"rt":855.1000000238419,"stimulus":"bees-with-color/bee-B1DM.svg","response":0,"trial_type":"image-button-response","trial_index":117,"time_elapsed":465099,"internal_node_id":"0.0-4.0-0.53","subject_id":"6106a6781a1f8976c5b3d045","study_id":"60edd13110225f80f9f3709b","session_id":"6196c1f73c18f0d0b25ffe2a","condition":"full-information","relevant_dimensions":["antennae","legs"],"bee_group":{"antennae":"A","wings":"X","pattern":"X","legs":"M"},"action":"harvest","summary":"good-harvest","bonus":0.040000000000000424},{"rt":695,"stimulus":"\n                    <p><b>Action: <em>harvest</em></b></p>\n                    <p>This is the bee that you just saw.</p>\n                    <img src=\"bees-with-color/bee-B1DM.svg\" width=\"200\">\n                    <p><span class=\"greenText\"><b>Successful harvest!</b></span><br>Your pay has increased by $0.02. Your bonus pay is now $0.08.</p>\n            ","response":0,"trial_type":"html-button-response","trial_index":118,"time_elapsed":465795,"internal_node_id":"0.0-4.0-1.53","subject_id":"6106a6781a1f8976c5b3d045","study_id":"60edd13110225f80f9f3709b","session_id":"6196c1f73c18f0d0b25ffe2a","condition":"full-information","relevant_dimensions":["antennae","legs"],"bee_group":{"antennae":"A","wings":"X","pattern":"X","legs":"M"},"bonus":0.040000000000000424},{"rt":455.89999997615814,"stimulus":"bees-with-color/bee-B1SF.svg","response":0,"trial_type":"image-button-response","trial_index":119,"time_elapsed":466252,"internal_node_id":"0.0-4.0-0.54","subject_id":"6106a6781a1f8976c5b3d045","study_id":"60edd13110225f80f9f3709b","session_id":"6196c1f73c18f0d0b25ffe2a","condition":"full-information","relevant_dimensions":["antennae","legs"],"bee_group":{"antennae":"A","wings":"X","pattern":"X","legs":"M"},"action":"harvest","summary":"good-harvest","bonus":0.040000000000000424},{"rt":414.2000000476837,"stimulus":"\n                    <p><b>Action: <em>harvest</em></b></p>\n                    <p>This is the bee that you just saw.</p>\n                    <img src=\"bees-with-color/bee-B1SF.svg\" width=\"200\">\n                    <p><span class=\"greenText\"><b>Successful harvest!</b></span><br>Your pay has increased by $0.02. Your bonus pay is now $0.10.</p>\n            ","response":0,"trial_type":"html-button-response","trial_index":120,"time_elapsed":466667,"internal_node_id":"0.0-4.0-1.54","subject_id":"6106a6781a1f8976c5b3d045","study_id":"60edd13110225f80f9f3709b","session_id":"6196c1f73c18f0d0b25ffe2a","condition":"full-information","relevant_dimensions":["antennae","legs"],"bee_group":{"antennae":"A","wings":"X","pattern":"X","legs":"M"},"bonus":0.040000000000000424},{"rt":527.8999999761581,"stimulus":"bees-with-color/bee-B1DF.svg","response":0,"trial_type":"image-button-response","trial_index":121,"time_elapsed":467196,"internal_node_id":"0.0-4.0-0.55","subject_id":"6106a6781a1f8976c5b3d045","study_id":"60edd13110225f80f9f3709b","session_id":"6196c1f73c18f0d0b25ffe2a","condition":"full-information","relevant_dimensions":["antennae","legs"],"bee_group":{"antennae":"A","wings":"X","pattern":"X","legs":"M"},"action":"harvest","summary":"good-harvest","bonus":0.040000000000000424},{"rt":438.10000002384186,"stimulus":"\n                    <p><b>Action: <em>harvest</em></b></p>\n                    <p>This is the bee that you just saw.</p>\n                    <img src=\"bees-with-color/bee-B1DF.svg\" width=\"200\">\n                    <p><span class=\"greenText\"><b>Successful harvest!</b></span><br>Your pay has increased by $0.02. Your bonus pay is now $0.12.</p>\n            ","response":0,"trial_type":"html-button-response","trial_index":122,"time_elapsed":467635,"internal_node_id":"0.0-4.0-1.55","subject_id":"6106a6781a1f8976c5b3d045","study_id":"60edd13110225f80f9f3709b","session_id":"6196c1f73c18f0d0b25ffe2a","condition":"full-information","relevant_dimensions":["antennae","legs"],"bee_group":{"antennae":"A","wings":"X","pattern":"X","legs":"M"},"bonus":0.040000000000000424},{"rt":463.10000002384186,"stimulus":"bees-with-color/bee-B2DF.svg","response":0,"trial_type":"image-button-response","trial_index":123,"time_elapsed":468099,"internal_node_id":"0.0-4.0-0.56","subject_id":"6106a6781a1f8976c5b3d045","study_id":"60edd13110225f80f9f3709b","session_id":"6196c1f73c18f0d0b25ffe2a","condition":"full-information","relevant_dimensions":["antennae","legs"],"bee_group":{"antennae":"A","wings":"X","pattern":"X","legs":"M"},"action":"harvest","summary":"good-harvest","bonus":0.040000000000000424},{"rt":438.89999997615814,"stimulus":"\n                    <p><b>Action: <em>harvest</em></b></p>\n                    <p>This is the bee that you just saw.</p>\n                    <img src=\"bees-with-color/bee-B2DF.svg\" width=\"200\">\n                    <p><span class=\"greenText\"><b>Successful harvest!</b></span><br>Your pay has increased by $0.02. Your bonus pay is now $0.14.</p>\n            ","response":0,"trial_type":"html-button-response","trial_index":124,"time_elapsed":468539,"internal_node_id":"0.0-4.0-1.56","subject_id":"6106a6781a1f8976c5b3d045","study_id":"60edd13110225f80f9f3709b","session_id":"6196c1f73c18f0d0b25ffe2a","condition":"full-information","relevant_dimensions":["antennae","legs"],"bee_group":{"antennae":"A","wings":"X","pattern":"X","legs":"M"},"bonus":0.040000000000000424},{"rt":1159.2000000476837,"stimulus":"bees-with-color/bee-B2SM.svg","response":0,"trial_type":"image-button-response","trial_index":125,"time_elapsed":469699,"internal_node_id":"0.0-4.0-0.57","subject_id":"6106a6781a1f8976c5b3d045","study_id":"60edd13110225f80f9f3709b","session_id":"6196c1f73c18f0d0b25ffe2a","condition":"full-information","relevant_dimensions":["antennae","legs"],"bee_group":{"antennae":"A","wings":"X","pattern":"X","legs":"M"},"action":"harvest","summary":"good-harvest","bonus":0.040000000000000424},{"rt":606.6000000238419,"stimulus":"\n                    <p><b>Action: <em>harvest</em></b></p>\n                    <p>This is the bee that you just saw.</p>\n                    <img src=\"bees-with-color/bee-B2SM.svg\" width=\"200\">\n                    <p><span class=\"greenText\"><b>Successful harvest!</b></span><br>Your pay has increased by $0.02. Your bonus pay is now $0.16.</p>\n            ","response":0,"trial_type":"html-button-response","trial_index":126,"time_elapsed":470307,"internal_node_id":"0.0-4.0-1.57","subject_id":"6106a6781a1f8976c5b3d045","study_id":"60edd13110225f80f9f3709b","session_id":"6196c1f73c18f0d0b25ffe2a","condition":"full-information","relevant_dimensions":["antennae","legs"],"bee_group":{"antennae":"A","wings":"X","pattern":"X","legs":"M"},"bonus":0.040000000000000424},{"rt":1511,"stimulus":"bees-with-color/bee-A1DM.svg","response":1,"trial_type":"image-button-response","trial_index":127,"time_elapsed":471819,"internal_node_id":"0.0-4.0-0.58","subject_id":"6106a6781a1f8976c5b3d045","study_id":"60edd13110225f80f9f3709b","session_id":"6196c1f73c18f0d0b25ffe2a","condition":"full-information","relevant_dimensions":["antennae","legs"],"bee_group":{"antennae":"A","wings":"X","pattern":"X","legs":"M"},"action":"avoid","summary":"good-avoid","bonus":0.040000000000000424},{"rt":1278.8999999761581,"stimulus":"\n                    <p><b>Action: <em>avoid</em></b></p>\n                    <p>This is the bee that you just saw.</p>\n                    <img src=\"bees-with-color/bee-A1DM.svg\" width=\"200\">\n                    <p><span class=\"greenText\">Good choice!</span>  This bee would have stung you.<br>Your bonus pay is unchanged, and remains at $0.16.</p>\n            ","response":0,"trial_type":"html-button-response","trial_index":128,"time_elapsed":473099,"internal_node_id":"0.0-4.0-1.58","subject_id":"6106a6781a1f8976c5b3d045","study_id":"60edd13110225f80f9f3709b","session_id":"6196c1f73c18f0d0b25ffe2a","condition":"full-information","relevant_dimensions":["antennae","legs"],"bee_group":{"antennae":"A","wings":"X","pattern":"X","legs":"M"},"bonus":0.040000000000000424},{"rt":2534.899999976158,"stimulus":"bees-with-color/bee-A2SM.svg","response":0,"trial_type":"image-button-response","trial_index":129,"time_elapsed":475635,"internal_node_id":"0.0-4.0-0.59","subject_id":"6106a6781a1f8976c5b3d045","study_id":"60edd13110225f80f9f3709b","session_id":"6196c1f73c18f0d0b25ffe2a","condition":"full-information","relevant_dimensions":["antennae","legs"],"bee_group":{"antennae":"A","wings":"X","pattern":"X","legs":"M"},"action":"harvest","summary":"bad-harvest","bonus":0.040000000000000424},{"rt":1006.8999999761581,"stimulus":"\n                    <p><b>Action: <em>harvest</em></b></p>\n                    <p>This is the bee that you just saw.</p>\n                    <img src=\"bees-with-color/bee-A2SM.svg\" width=\"200\">\n                    <p><span class=\"redText\">Bad choice, the bee was angry.</span><br><b>You have been stung!</b><br>Your pay has been decreased by $0.10. Your bonus pay is now $0.06.</p>\n            ","response":0,"trial_type":"html-button-response","trial_index":130,"time_elapsed":476643,"internal_node_id":"0.0-4.0-1.59","subject_id":"6106a6781a1f8976c5b3d045","study_id":"60edd13110225f80f9f3709b","session_id":"6196c1f73c18f0d0b25ffe2a","condition":"full-information","relevant_dimensions":["antennae","legs"],"bee_group":{"antennae":"A","wings":"X","pattern":"X","legs":"M"},"bonus":0.040000000000000424},{"rt":2102.5,"stimulus":"bees-with-color/bee-B2SF.svg","response":0,"trial_type":"image-button-response","trial_index":131,"time_elapsed":478747,"internal_node_id":"0.0-4.0-0.60","subject_id":"6106a6781a1f8976c5b3d045","study_id":"60edd13110225f80f9f3709b","session_id":"6196c1f73c18f0d0b25ffe2a","condition":"full-information","relevant_dimensions":["antennae","legs"],"bee_group":{"antennae":"A","wings":"X","pattern":"X","legs":"M"},"action":"harvest","summary":"good-harvest","bonus":0.040000000000000424},{"rt":551.5,"stimulus":"\n                    <p><b>Action: <em>harvest</em></b></p>\n                    <p>This is the bee that you just saw.</p>\n                    <img src=\"bees-with-color/bee-B2SF.svg\" width=\"200\">\n                    <p><span class=\"greenText\"><b>Successful harvest!</b></span><br>Your pay has increased by $0.02. Your bonus pay is now $0.08.</p>\n            ","response":0,"trial_type":"html-button-response","trial_index":132,"time_elapsed":479300,"internal_node_id":"0.0-4.0-1.60","subject_id":"6106a6781a1f8976c5b3d045","study_id":"60edd13110225f80f9f3709b","session_id":"6196c1f73c18f0d0b25ffe2a","condition":"full-information","relevant_dimensions":["antennae","legs"],"bee_group":{"antennae":"A","wings":"X","pattern":"X","legs":"M"},"bonus":0.040000000000000424},{"rt":821.8999999761581,"stimulus":"bees-with-color/bee-A2DF.svg","response":0,"trial_type":"image-button-response","trial_index":133,"time_elapsed":480123,"internal_node_id":"0.0-4.0-0.61","subject_id":"6106a6781a1f8976c5b3d045","study_id":"60edd13110225f80f9f3709b","session_id":"6196c1f73c18f0d0b25ffe2a","condition":"full-information","relevant_dimensions":["antennae","legs"],"bee_group":{"antennae":"A","wings":"X","pattern":"X","legs":"M"},"action":"harvest","summary":"good-harvest","bonus":0.040000000000000424},{"rt":702.8000000715256,"stimulus":"\n                    <p><b>Action: <em>harvest</em></b></p>\n                    <p>This is the bee that you just saw.</p>\n                    <img src=\"bees-with-color/bee-A2DF.svg\" width=\"200\">\n                    <p><span class=\"greenText\"><b>Successful harvest!</b></span><br>Your pay has increased by $0.02. Your bonus pay is now $0.10.</p>\n            ","response":0,"trial_type":"html-button-response","trial_index":134,"time_elapsed":480827,"internal_node_id":"0.0-4.0-1.61","subject_id":"6106a6781a1f8976c5b3d045","study_id":"60edd13110225f80f9f3709b","session_id":"6196c1f73c18f0d0b25ffe2a","condition":"full-information","relevant_dimensions":["antennae","legs"],"bee_group":{"antennae":"A","wings":"X","pattern":"X","legs":"M"},"bonus":0.040000000000000424},{"rt":591.1000000238419,"stimulus":"bees-with-color/bee-B1SM.svg","response":0,"trial_type":"image-button-response","trial_index":135,"time_elapsed":481419,"internal_node_id":"0.0-4.0-0.62","subject_id":"6106a6781a1f8976c5b3d045","study_id":"60edd13110225f80f9f3709b","session_id":"6196c1f73c18f0d0b25ffe2a","condition":"full-information","relevant_dimensions":["antennae","legs"],"bee_group":{"antennae":"A","wings":"X","pattern":"X","legs":"M"},"action":"harvest","summary":"good-harvest","bonus":0.040000000000000424},{"rt":422.8000000715256,"stimulus":"\n                    <p><b>Action: <em>harvest</em></b></p>\n                    <p>This is the bee that you just saw.</p>\n                    <img src=\"bees-with-color/bee-B1SM.svg\" width=\"200\">\n                    <p><span class=\"greenText\"><b>Successful harvest!</b></span><br>Your pay has increased by $0.02. Your bonus pay is now $0.12.</p>\n            ","response":0,"trial_type":"html-button-response","trial_index":136,"time_elapsed":481843,"internal_node_id":"0.0-4.0-1.62","subject_id":"6106a6781a1f8976c5b3d045","study_id":"60edd13110225f80f9f3709b","session_id":"6196c1f73c18f0d0b25ffe2a","condition":"full-information","relevant_dimensions":["antennae","legs"],"bee_group":{"antennae":"A","wings":"X","pattern":"X","legs":"M"},"bonus":0.040000000000000424},{"rt":519.2000000476837,"stimulus":"bees-with-color/bee-B2DM.svg","response":0,"trial_type":"image-button-response","trial_index":137,"time_elapsed":482364,"internal_node_id":"0.0-4.0-0.63","subject_id":"6106a6781a1f8976c5b3d045","study_id":"60edd13110225f80f9f3709b","session_id":"6196c1f73c18f0d0b25ffe2a","condition":"full-information","relevant_dimensions":["antennae","legs"],"bee_group":{"antennae":"A","wings":"X","pattern":"X","legs":"M"},"action":"harvest","summary":"good-harvest","bonus":0.040000000000000424},{"rt":382.39999997615814,"stimulus":"\n                    <p><b>Action: <em>harvest</em></b></p>\n                    <p>This is the bee that you just saw.</p>\n                    <img src=\"bees-with-color/bee-B2DM.svg\" width=\"200\">\n                    <p><span class=\"greenText\"><b>Successful harvest!</b></span><br>Your pay has increased by $0.02. Your bonus pay is now $0.14.</p>\n            ","response":0,"trial_type":"html-button-response","trial_index":138,"time_elapsed":482747,"internal_node_id":"0.0-4.0-1.63","subject_id":"6106a6781a1f8976c5b3d045","study_id":"60edd13110225f80f9f3709b","session_id":"6196c1f73c18f0d0b25ffe2a","condition":"full-information","relevant_dimensions":["antennae","legs"],"bee_group":{"antennae":"A","wings":"X","pattern":"X","legs":"M"},"bonus":0.040000000000000424},{"rt":6440.699999928474,"stimulus":"You have completed the first part of this experiment.<br><br>You will now begin a shorter second part, in which you will receive no feedback.<br>The same rules regarding bonus pay apply.<br><br>Press any key to begin.","response":" ","trial_type":"html-keyboard-response","trial_index":139,"time_elapsed":489189,"internal_node_id":"0.0-5.0","subject_id":"6106a6781a1f8976c5b3d045","study_id":"60edd13110225f80f9f3709b","session_id":"6196c1f73c18f0d0b25ffe2a","condition":"full-information","relevant_dimensions":["antennae","legs"],"bee_group":{"antennae":"A","wings":"X","pattern":"X","legs":"M"},"bonus":0.040000000000000424},{"rt":1614.1000000238419,"stimulus":"bees-with-color/bee-B1DF.svg","response":0,"trial_type":"image-button-response","trial_index":140,"time_elapsed":490811,"internal_node_id":"0.0-6.0-0.0","subject_id":"6106a6781a1f8976c5b3d045","study_id":"60edd13110225f80f9f3709b","session_id":"6196c1f73c18f0d0b25ffe2a","condition":"full-information","relevant_dimensions":["antennae","legs"],"bee_group":{"antennae":"A","wings":"X","pattern":"X","legs":"M"},"bonus":0.040000000000000424},{"rt":654.3000000715256,"stimulus":"bees-with-color/bee-B2DF.svg","response":0,"trial_type":"image-button-response","trial_index":141,"time_elapsed":491467,"internal_node_id":"0.0-6.0-0.1","subject_id":"6106a6781a1f8976c5b3d045","study_id":"60edd13110225f80f9f3709b","session_id":"6196c1f73c18f0d0b25ffe2a","condition":"full-information","relevant_dimensions":["antennae","legs"],"bee_group":{"antennae":"A","wings":"X","pattern":"X","legs":"M"},"bonus":0.040000000000000424},{"rt":1414.2000000476837,"stimulus":"bees-with-color/bee-A2DF.svg","response":0,"trial_type":"image-button-response","trial_index":142,"time_elapsed":492883,"internal_node_id":"0.0-6.0-0.2","subject_id":"6106a6781a1f8976c5b3d045","study_id":"60edd13110225f80f9f3709b","session_id":"6196c1f73c18f0d0b25ffe2a","condition":"full-information","relevant_dimensions":["antennae","legs"],"bee_group":{"antennae":"A","wings":"X","pattern":"X","legs":"M"},"bonus":0.040000000000000424},{"rt":1214.5,"stimulus":"bees-with-color/bee-A2SM.svg","response":1,"trial_type":"image-button-response","trial_index":143,"time_elapsed":494099,"internal_node_id":"0.0-6.0-0.3","subject_id":"6106a6781a1f8976c5b3d045","study_id":"60edd13110225f80f9f3709b","session_id":"6196c1f73c18f0d0b25ffe2a","condition":"full-information","relevant_dimensions":["antennae","legs"],"bee_group":{"antennae":"A","wings":"X","pattern":"X","legs":"M"},"bonus":0.040000000000000424},{"rt":693.8999999761581,"stimulus":"bees-with-color/bee-B2SF.svg","response":0,"trial_type":"image-button-response","trial_index":144,"time_elapsed":494795,"internal_node_id":"0.0-6.0-0.4","subject_id":"6106a6781a1f8976c5b3d045","study_id":"60edd13110225f80f9f3709b","session_id":"6196c1f73c18f0d0b25ffe2a","condition":"full-information","relevant_dimensions":["antennae","legs"],"bee_group":{"antennae":"A","wings":"X","pattern":"X","legs":"M"},"bonus":0.040000000000000424},{"rt":1294.2999999523163,"stimulus":"bees-with-color/bee-A2DM.svg","response":0,"trial_type":"image-button-response","trial_index":145,"time_elapsed":496091,"internal_node_id":"0.0-6.0-0.5","subject_id":"6106a6781a1f8976c5b3d045","study_id":"60edd13110225f80f9f3709b","session_id":"6196c1f73c18f0d0b25ffe2a","condition":"full-information","relevant_dimensions":["antennae","legs"],"bee_group":{"antennae":"A","wings":"X","pattern":"X","legs":"M"},"bonus":0.040000000000000424},{"rt":918.2999999523163,"stimulus":"bees-with-color/bee-B1DM.svg","response":0,"trial_type":"image-button-response","trial_index":146,"time_elapsed":497011,"internal_node_id":"0.0-6.0-0.6","subject_id":"6106a6781a1f8976c5b3d045","study_id":"60edd13110225f80f9f3709b","session_id":"6196c1f73c18f0d0b25ffe2a","condition":"full-information","relevant_dimensions":["antennae","legs"],"bee_group":{"antennae":"A","wings":"X","pattern":"X","legs":"M"},"bonus":0.040000000000000424},{"rt":517.8999999761581,"stimulus":"bees-with-color/bee-B2SM.svg","response":0,"trial_type":"image-button-response","trial_index":147,"time_elapsed":497531,"internal_node_id":"0.0-6.0-0.7","subject_id":"6106a6781a1f8976c5b3d045","study_id":"60edd13110225f80f9f3709b","session_id":"6196c1f73c18f0d0b25ffe2a","condition":"full-information","relevant_dimensions":["antennae","legs"],"bee_group":{"antennae":"A","wings":"X","pattern":"X","legs":"M"},"bonus":0.040000000000000424},{"rt":710.1000000238419,"stimulus":"bees-with-color/bee-A1DF.svg","response":1,"trial_type":"image-button-response","trial_index":148,"time_elapsed":498243,"internal_node_id":"0.0-6.0-0.8","subject_id":"6106a6781a1f8976c5b3d045","study_id":"60edd13110225f80f9f3709b","session_id":"6196c1f73c18f0d0b25ffe2a","condition":"full-information","relevant_dimensions":["antennae","legs"],"bee_group":{"antennae":"A","wings":"X","pattern":"X","legs":"M"},"bonus":0.040000000000000424},{"rt":1278.6000000238419,"stimulus":"bees-with-color/bee-A1SF.svg","response":0,"trial_type":"image-button-response","trial_index":149,"time_elapsed":499523,"internal_node_id":"0.0-6.0-0.9","subject_id":"6106a6781a1f8976c5b3d045","study_id":"60edd13110225f80f9f3709b","session_id":"6196c1f73c18f0d0b25ffe2a","condition":"full-information","relevant_dimensions":["antennae","legs"],"bee_group":{"antennae":"A","wings":"X","pattern":"X","legs":"M"},"bonus":0.040000000000000424},{"rt":1102.5,"stimulus":"bees-with-color/bee-B1SM.svg","response":0,"trial_type":"image-button-response","trial_index":150,"time_elapsed":500627,"internal_node_id":"0.0-6.0-0.10","subject_id":"6106a6781a1f8976c5b3d045","study_id":"60edd13110225f80f9f3709b","session_id":"6196c1f73c18f0d0b25ffe2a","condition":"full-information","relevant_dimensions":["antennae","legs"],"bee_group":{"antennae":"A","wings":"X","pattern":"X","legs":"M"},"bonus":0.040000000000000424},{"rt":454.7999999523163,"stimulus":"bees-with-color/bee-B2DM.svg","response":0,"trial_type":"image-button-response","trial_index":151,"time_elapsed":501083,"internal_node_id":"0.0-6.0-0.11","subject_id":"6106a6781a1f8976c5b3d045","study_id":"60edd13110225f80f9f3709b","session_id":"6196c1f73c18f0d0b25ffe2a","condition":"full-information","relevant_dimensions":["antennae","legs"],"bee_group":{"antennae":"A","wings":"X","pattern":"X","legs":"M"},"bonus":0.040000000000000424},{"rt":2078.600000023842,"stimulus":"bees-with-color/bee-A1DM.svg","response":1,"trial_type":"image-button-response","trial_index":152,"time_elapsed":503163,"internal_node_id":"0.0-6.0-0.12","subject_id":"6106a6781a1f8976c5b3d045","study_id":"60edd13110225f80f9f3709b","session_id":"6196c1f73c18f0d0b25ffe2a","condition":"full-information","relevant_dimensions":["antennae","legs"],"bee_group":{"antennae":"A","wings":"X","pattern":"X","legs":"M"},"bonus":0.040000000000000424},{"rt":2710.600000023842,"stimulus":"