[{"success":true,"trial_type":"fullscreen","trial_index":0,"time_elapsed":41996,"internal_node_id":"0.0-0.0","subject_id":"615373f88839471e0ab77399","study_id":"6197b3f67c2b5cd3b6d9596a","session_id":"619bfbde9196daaf4686adc6","condition":"full-information","relevant_dimensions":["antennae","legs"],"bee_group":{"antennae":"A","wings":"X","pattern":"X","legs":"M"},"bonus":1.7800000000000011},{"success":true,"timeout":false,"failed_images":[],"failed_audio":[],"failed_video":[],"trial_type":"preload","trial_index":1,"time_elapsed":43935,"internal_node_id":"0.0-1.0","subject_id":"615373f88839471e0ab77399","study_id":"6197b3f67c2b5cd3b6d9596a","session_id":"619bfbde9196daaf4686adc6","condition":"full-information","relevant_dimensions":["antennae","legs"],"bee_group":{"antennae":"A","wings":"X","pattern":"X","legs":"M"},"bonus":1.7800000000000011},{"rt":63529.59999999404,"stimulus":"Welcome! Press any key to begin.","response":"control","trial_type":"html-keyboard-response","trial_index":2,"time_elapsed":107465,"internal_node_id":"0.0-2.0","subject_id":"615373f88839471e0ab77399","study_id":"6197b3f67c2b5cd3b6d9596a","session_id":"619bfbde9196daaf4686adc6","condition":"full-information","relevant_dimensions":["antennae","legs"],"bee_group":{"antennae":"A","wings":"X","pattern":"X","legs":"M"},"bonus":1.7800000000000011},{"view_history":[{"page_index":0,"viewing_time":11720.70000000298},{"page_index":1,"viewing_time":20443.79999999702},{"page_index":2,"viewing_time":11270.20000000298},{"page_index":3,"viewing_time":17928.20000000298},{"page_index":4,"viewing_time":7419.79999999702},{"page_index":5,"viewing_time":8996},{"page_index":6,"viewing_time":19567.10000000149},{"page_index":7,"viewing_time":16372.19999999553},{"page_index":8,"viewing_time":16520.80000000447},{"page_index":9,"viewing_time":77168.29999999702},{"page_index":10,"viewing_time":9520.80000000447},{"page_index":11,"viewing_time":41332},{"page_index":12,"viewing_time":13785.89999999851},{"page_index":13,"viewing_time":945220.1000000015},{"page_index":14,"viewing_time":3960.39999999851}],"rt":1221227,"trial_type":"instructions","trial_index":3,"time_elapsed":1328693,"internal_node_id":"0.0-3.0-0.0","subject_id":"615373f88839471e0ab77399","study_id":"6197b3f67c2b5cd3b6d9596a","session_id":"619bfbde9196daaf4686adc6","condition":"full-information","relevant_dimensions":["antennae","legs"],"bee_group":{"antennae":"A","wings":"X","pattern":"X","legs":"M"},"bonus":1.7800000000000011},{"rt":13892.20000000298,"response":{"Q0":["Two or six legs","Stripes or spots on body","Single or double wings","Antennae or no antennae"]},"question_order":[0],"trial_type":"survey-multi-select","trial_index":4,"time_elapsed":1342589,"internal_node_id":"0.0-3.0-1.0","subject_id":"615373f88839471e0ab77399","study_id":"6197b3f67c2b5cd3b6d9596a","session_id":"619bfbde9196daaf4686adc6","condition":"full-information","relevant_dimensions":["antennae","legs"],"bee_group":{"antennae":"A","wings":"X","pattern":"X","legs":"M"},"correct":true,"bonus":1.7800000000000011},{"rt":30619,"response":{"Q1":"No.","Q2":"Based on the four features of the bee.","Q3":"You learn if it was friendly or dangerous, but do not alter your bonus."},"question_order":[0,1,2],"trial_type":"survey-multi-choice","trial_index":5,"time_elapsed":1373210,"internal_node_id":"0.0-3.0-2.0","subject_id":"615373f88839471e0ab77399","study_id":"6197b3f67c2b5cd3b6d9596a","session_id":"619bfbde9196daaf4686adc6","condition":"full-information","relevant_dimensions":["antennae","legs"],"bee_group":{"antennae":"A","wings":"X","pattern":"X","legs":"M"},"correct":true,"bonus":1.7800000000000011},{"rt":4481.70000000298,"stimulus":"<p>Congrats, you got everything right<br>When you're ready, click the button below to continue to the experiment.</p>","response":0,"trial_type":"html-button-response","trial_index":6,"time_elapsed":1377693,"internal_node_id":"0.0-3.0-3.0","subject_id":"615373f88839471e0ab77399","study_id":"6197b3f67c2b5cd3b6d9596a","session_id":"619bfbde9196daaf4686adc6","condition":"full-information","relevant_dimensions":["antennae","legs"],"bee_group":{"antennae":"A","wings":"X","pattern":"X","legs":"M"},"bonus":1.7800000000000011},{"rt":21833.5,"stimulus":"bees-with-color/bee-B2DM.svg","response":0,"trial_type":"image-button-response","trial_index":7,"time_elapsed":1399528,"internal_node_id":"0.0-4.0-0.0","subject_id":"615373f88839471e0ab77399","study_id":"6197b3f67c2b5cd3b6d9596a","session_id":"619bfbde9196daaf4686adc6","condition":"full-information","relevant_dimensions":["antennae","legs"],"bee_group":{"antennae":"A","wings":"X","pattern":"X","legs":"M"},"action":"harvest","summary":"good-harvest","bonus":1.7800000000000011},{"rt":8621.79999999702,"stimulus":"\n                    <p><b>Action: <em>harvest</em></b></p>\n                    <p>This is the bee that you just saw.</p>\n                    <img src=\"bees-with-color/bee-B2DM.svg\" width=\"200\">\n                    <p><span class=\"greenText\"><b>Successful harvest!</b></span><br>Your pay has increased by $0.02. Your bonus pay is now $0.56.</p>\n            ","response":0,"trial_type":"html-button-response","trial_index":8,"time_elapsed":1408152,"internal_node_id":"0.0-4.0-1.0","subject_id":"615373f88839471e0ab77399","study_id":"6197b3f67c2b5cd3b6d9596a","session_id":"619bfbde9196daaf4686adc6","condition":"full-information","relevant_dimensions":["antennae","legs"],"bee_group":{"antennae":"A","wings":"X","pattern":"X","legs":"M"},"bonus":1.7800000000000011},{"rt":15170.80000000447,"stimulus":"bees-with-color/bee-A2SM.svg","response":1,"trial_type":"image-button-response","trial_index":9,"time_elapsed":1423324,"internal_node_id":"0.0-4.0-0.1","subject_id":"615373f88839471e0ab77399","study_id":"6197b3f67c2b5cd3b6d9596a","session_id":"619bfbde9196daaf4686adc6","condition":"full-information","relevant_dimensions":["antennae","legs"],"bee_group":{"antennae":"A","wings":"X","pattern":"X","legs":"M"},"action":"avoid","summary":"good-avoid","bonus":1.7800000000000011},{"rt":7168.29999999702,"stimulus":"\n                    <p><b>Action: <em>avoid</em></b></p>\n                    <p>This is the bee that you just saw.</p>\n                    <img src=\"bees-with-color/bee-A2SM.svg\" width=\"200\">\n                    <p><span class=\"greenText\">Good choice!</span>  This bee would have stung you.<br>Your bonus pay is unchanged, and remains at $0.56.</p>\n            ","response":0,"trial_type":"html-button-response","trial_index":10,"time_elapsed":1430493,"internal_node_id":"0.0-4.0-1.1","subject_id":"615373f88839471e0ab77399","study_id":"6197b3f67c2b5cd3b6d9596a","session_id":"619bfbde9196daaf4686adc6","condition":"full-information","relevant_dimensions":["antennae","legs"],"bee_group":{"antennae":"A","wings":"X","pattern":"X","legs":"M"},"bonus":1.7800000000000011},{"rt":12976.19999999553,"stimulus":"bees-with-color/bee-A2SF.svg","response":0,"trial_type":"image-button-response","trial_index":11,"time_elapsed":1443470,"internal_node_id":"0.0-4.0-0.2","subject_id":"615373f88839471e0ab77399","study_id":"6197b3f67c2b5cd3b6d9596a","session_id":"619bfbde9196daaf4686adc6","condition":"full-information","relevant_dimensions":["antennae","legs"],"bee_group":{"antennae":"A","wings":"X","pattern":"X","legs":"M"},"action":"harvest","summary":"good-harvest","bonus":1.7800000000000011},{"rt":5889.89999999851,"stimulus":"\n                    <p><b>Action: <em>harvest</em></b></p>\n                    <p>This is the bee that you just saw.</p>\n                    <img src=\"bees-with-color/bee-A2SF.svg\" width=\"200\">\n                    <p><span class=\"greenText\"><b>Successful harvest!</b></span><br>Your pay has increased by $0.02. Your bonus pay is now $0.58.</p>\n            ","response":0,"trial_type":"html-button-response","trial_index":12,"time_elapsed":1449362,"internal_node_id":"0.0-4.0-1.2","subject_id":"615373f88839471e0ab77399","study_id":"6197b3f67c2b5cd3b6d9596a","session_id":"619bfbde9196daaf4686adc6","condition":"full-information","relevant_dimensions":["antennae","legs"],"bee_group":{"antennae":"A","wings":"X","pattern":"X","legs":"M"},"bonus":1.7800000000000011},{"rt":13739.30000000447,"stimulus":"bees-with-color/bee-A1SM.svg","response":0,"trial_type":"image-button-response","trial_index":13,"time_elapsed":1463102,"internal_node_id":"0.0-4.0-0.3","subject_id":"615373f88839471e0ab77399","study_id":"6197b3f67c2b5cd3b6d9596a","session_id":"619bfbde9196daaf4686adc6","condition":"full-information","relevant_dimensions":["antennae","legs"],"bee_group":{"antennae":"A","wings":"X","pattern":"X","legs":"M"},"action":"harvest","summary":"bad-harvest","bonus":1.7800000000000011},{"rt":5598.60000000149,"stimulus":"\n                    <p><b>Action: <em>harvest</em></b></p>\n                    <p>This is the bee that you just saw.</p>\n                    <img src=\"bees-with-color/bee-A1SM.svg\" width=\"200\">\n                    <p><span class=\"redText\">Bad choice, the bee was angry.</span><br><b>You have been stung!</b><br>Your pay has been decreased by $0.10. Your bonus pay is now $0.48.</p>\n            ","response":0,"trial_type":"html-button-response","trial_index":14,"time_elapsed":1468702,"internal_node_id":"0.0-4.0-1.3","subject_id":"615373f88839471e0ab77399","study_id":"6197b3f67c2b5cd3b6d9596a","session_id":"619bfbde9196daaf4686adc6","condition":"full-information","relevant_dimensions":["antennae","legs"],"bee_group":{"antennae":"A","wings":"X","pattern":"X","legs":"M"},"bonus":1.7800000000000011},{"rt":15930.79999999702,"stimulus":"bees-with-color/bee-B1SM.svg","response":0,"trial_type":"image-button-response","trial_index":15,"time_elapsed":1484634,"internal_node_id":"0.0-4.0-0.4","subject_id":"615373f88839471e0ab77399","study_id":"6197b3f67c2b5cd3b6d9596a","session_id":"619bfbde9196daaf4686adc6","condition":"full-information","relevant_dimensions":["antennae","legs"],"bee_group":{"antennae":"A","wings":"X","pattern":"X","legs":"M"},"action":"harvest","summary":"good-harvest","bonus":1.7800000000000011},{"rt":5738.5,"stimulus":"\n                    <p><b>Action: <em>harvest</em></b></p>\n                    <p>This is the bee that you just saw.</p>\n                    <img src=\"bees-with-color/bee-B1SM.svg\" width=\"200\">\n                    <p><span class=\"greenText\"><b>Successful harvest!</b></span><br>Your pay has increased by $0.02. Your bonus pay is now $0.50.</p>\n            ","response":0,"trial_type":"html-button-response","trial_index":16,"time_elapsed":1490374,"internal_node_id":"0.0-4.0-1.4","subject_id":"615373f88839471e0ab77399","study_id":"6197b3f67c2b5cd3b6d9596a","session_id":"619bfbde9196daaf4686adc6","condition":"full-information","relevant_dimensions":["antennae","legs"],"bee_group":{"antennae":"A","wings":"X","pattern":"X","legs":"M"},"bonus":1.7800000000000011},{"rt":14398.79999999702,"stimulus":"bees-with-color/bee-B1DF.svg","response":0,"trial_type":"image-button-response","trial_index":17,"time_elapsed":1504774,"internal_node_id":"0.0-4.0-0.5","subject_id":"615373f88839471e0ab77399","study_id":"6197b3f67c2b5cd3b6d9596a","session_id":"619bfbde9196daaf4686adc6","condition":"full-information","relevant_dimensions":["antennae","legs"],"bee_group":{"antennae":"A","wings":"X","pattern":"X","legs":"M"},"action":"harvest","summary":"good-harvest","bonus":1.7800000000000011},{"rt":6203.70000000298,"stimulus":"\n                    <p><b>Action: <em>harvest</em></b></p>\n                    <p>This is the bee that you just saw.</p>\n                    <img src=\"bees-with-color/bee-B1DF.svg\" width=\"200\">\n                    <p><span class=\"greenText\"><b>Successful harvest!</b></span><br>Your pay has increased by $0.02. Your bonus pay is now $0.52.</p>\n            ","response":0,"trial_type":"html-button-response","trial_index":18,"time_elapsed":1510979,"internal_node_id":"0.0-4.0-1.5","subject_id":"615373f88839471e0ab77399","study_id":"6197b3f67c2b5cd3b6d9596a","session_id":"619bfbde9196daaf4686adc6","condition":"full-information","relevant_dimensions":["antennae","legs"],"bee_group":{"antennae":"A","wings":"X","pattern":"X","legs":"M"},"bonus":1.7800000000000011},{"rt":17712.5,"stimulus":"bees-with-color/bee-B2SF.svg","response":1,"trial_type":"image-button-response","trial_index":19,"time_elapsed":1528693,"internal_node_id":"0.0-4.0-0.6","subject_id":"615373f88839471e0ab77399","study_id":"6197b3f67c2b5cd3b6d9596a","session_id":"619bfbde9196daaf4686adc6","condition":"full-information","relevant_dimensions":["antennae","legs"],"bee_group":{"antennae":"A","wings":"X","pattern":"X","legs":"M"},"action":"avoid","summary":"bad-avoid","bonus":1.7800000000000011},{"rt":4814.70000000298,"stimulus":"\n                    <p><b>Action: <em>avoid</em></b></p>\n                    <p>This is the bee that you just saw.</p>\n                    <img src=\"bees-with-color/bee-B2SF.svg\" width=\"200\">\n                    <p><span class=\"redText\">Bad choice,</span> the bee was friendly.<br>Your bonus pay is unchanged, and remains at $0.52.</p>\n            ","response":0,"trial_type":"html-button-response","trial_index":20,"time_elapsed":1533509,"internal_node_id":"0.0-4.0-1.6","subject_id":"615373f88839471e0ab77399","study_id":"6197b3f67c2b5cd3b6d9596a","session_id":"619bfbde9196daaf4686adc6","condition":"full-information","relevant_dimensions":["antennae","legs"],"bee_group":{"antennae":"A","wings":"X","pattern":"X","legs":"M"},"bonus":1.7800000000000011},{"rt":16019.10000000149,"stimulus":"bees-with-color/bee-B2DF.svg","response":1,"trial_type":"image-button-response","trial_index":21,"time_elapsed":1549529,"internal_node_id":"0.0-4.0-0.7","subject_id":"615373f88839471e0ab77399","study_id":"6197b3f67c2b5cd3b6d9596a","session_id":"619bfbde9196daaf4686adc6","condition":"full-information","relevant_dimensions":["antennae","legs"],"bee_group":{"antennae":"A","wings":"X","pattern":"X","legs":"M"},"action":"avoid","summary":"bad-avoid","bonus":1.7800000000000011},{"rt":1498.8000000044703,"stimulus":"\n                    <p><b>Action: <em>avoid</em></b></p>\n                    <p>This is the bee that you just saw.</p>\n                    <img src=\"bees-with-color/bee-B2DF.svg\" width=\"200\">\n                    <p><span class=\"redText\">Bad choice,</span> the bee was friendly.<br>Your bonus pay is unchanged, and remains at $0.52.</p>\n            ","response":0,"trial_type":"html-button-response","trial_index":22,"time_elapsed":1551029,"internal_node_id":"0.0-4.0-1.7","subject_id":"615373f88839471e0ab77399","study_id":"6197b3f67c2b5cd3b6d9596a","session_id":"619bfbde9196daaf4686adc6","condition":"full-information","relevant_dimensions":["antennae","legs"],"bee_group":{"antennae":"A","wings":"X","pattern":"X","legs":"M"},"bonus":1.7800000000000011},{"rt":26931.20000000298,"stimulus":"bees-with-color/bee-A1DF.svg","response":1,"trial_type":"image-button-response","trial_index":23,"time_elapsed":1577962,"internal_node_id":"0.0-4.0-0.8","subject_id":"615373f88839471e0ab77399","study_id":"6197b3f67c2b5cd3b6d9596a","session_id":"619bfbde9196daaf4686adc6","condition":"full-information","relevant_dimensions":["antennae","legs"],"bee_group":{"antennae":"A","wings":"X","pattern":"X","legs":"M"},"action":"avoid","summary":"bad-avoid","bonus":1.7800000000000011},{"rt":1359.3999999985099,"stimulus":"\n                    <p><b>Action: <em>avoid</em></b></p>\n                    <p>This is the bee that you just saw.</p>\n                    <img src=\"bees-with-color/bee-A1DF.svg\" width=\"200\">\n                    <p><span class=\"redText\">Bad choice,</span> the bee was friendly.<br>Your bonus pay is unchanged, and remains at $0.52.</p>\n            ","response":0,"trial_type":"html-button-response","trial_index":24,"time_elapsed":1579322,"internal_node_id":"0.0-4.0-1.8","subject_id":"615373f88839471e0ab77399","study_id":"6197b3f67c2b5cd3b6d9596a","session_id":"619bfbde9196daaf4686adc6","condition":"full-information","relevant_dimensions":["antennae","legs"],"bee_group":{"antennae":"A","wings":"X","pattern":"X","legs":"M"},"bonus":1.7800000000000011},{"rt":19272.10000000149,"stimulus":"bees-with-color/bee-B1DM.svg","response":0,"trial_type":"image-button-response","trial_index":25,"time_elapsed":1598596,"internal_node_id":"0.0-4.0-0.9","subject_id":"615373f88839471e0ab77399","study_id":"6197b3f67c2b5cd3b6d9596a","session_id":"619bfbde9196daaf4686adc6","condition":"full-information","relevant_dimensions":["antennae","legs"],"bee_group":{"antennae":"A","wings":"X","pattern":"X","legs":"M"},"action":"harvest","summary":"good-harvest","bonus":1.7800000000000011},{"rt":4038.5,"stimulus":"\n                    <p><b>Action: <em>harvest</em></b></p>\n                    <p>This is the bee that you just saw.</p>\n                    <img src=\"bees-with-color/bee-B1DM.svg\" width=\"200\">\n                    <p><span class=\"greenText\"><b>Successful harvest!</b></span><br>Your pay has increased by $0.02. Your bonus pay is now $0.54.</p>\n            ","response":0,"trial_type":"html-button-response","trial_index":26,"time_elapsed":1602636,"internal_node_id":"0.0-4.0-1.9","subject_id":"615373f88839471e0ab77399","study_id":"6197b3f67c2b5cd3b6d9596a","session_id":"619bfbde9196daaf4686adc6","condition":"full-information","relevant_dimensions":["antennae","legs"],"bee_group":{"antennae":"A","wings":"X","pattern":"X","legs":"M"},"bonus":1.7800000000000011},{"rt":31530.10000000149,"stimulus":"bees-with-color/bee-B2SM.svg","response":1,"trial_type":"image-button-response","trial_index":27,"time_elapsed":1634167,"internal_node_id":"0.0-4.0-0.10","subject_id":"615373f88839471e0ab77399","study_id":"6197b3f67c2b5cd3b6d9596a","session_id":"619bfbde9196daaf4686adc6","condition":"full-information","relevant_dimensions":["antennae","legs"],"bee_group":{"antennae":"A","wings":"X","pattern":"X","legs":"M"},"action":"avoid","summary":"bad-avoid","bonus":1.7800000000000011},{"rt":1154.8999999985099,"stimulus":"\n                    <p><b>Action: <em>avoid</em></b></p>\n                    <p>This is the bee that you just saw.</p>\n                    <img src=\"bees-with-color/bee-B2SM.svg\" width=\"200\">\n                    <p><span class=\"redText\">Bad choice,</span> the bee was friendly.<br>Your bonus pay is unchanged, and remains at $0.54.</p>\n            ","response":0,"trial_type":"html-button-response","trial_index":28,"time_elapsed":1635323,"internal_node_id":"0.0-4.0-1.10","subject_id":"615373f88839471e0ab77399","study_id":"6197b3f67c2b5cd3b6d9596a","session_id":"619bfbde9196daaf4686adc6","condition":"full-information","relevant_dimensions":["antennae","legs"],"bee_group":{"antennae":"A","wings":"X","pattern":"X","legs":"M"},"bonus":1.7800000000000011},{"rt":27362.89999999851,"stimulus":"bees-with-color/bee-A2DM.svg","response":1,"trial_type":"image-button-response","trial_index":29,"time_elapsed":1662686,"internal_node_id":"0.0-4.0-0.11","subject_id":"615373f88839471e0ab77399","study_id":"6197b3f67c2b5cd3b6d9596a","session_id":"619bfbde9196daaf4686adc6","condition":"full-information","relevant_dimensions":["antennae","legs"],"bee_group":{"antennae":"A","wings":"X","pattern":"X","legs":"M"},"action":"avoid","summary":"good-avoid","bonus":1.7800000000000011},{"rt":6122.80000000447,"stimulus":"\n                    <p><b>Action: <em>avoid</em></b></p>\n                    <p>This is the bee that you just saw.</p>\n                    <img src=\"bees-with-color/bee-A2DM.svg\" width=\"200\">\n                    <p><span class=\"greenText\">Good choice!</span>  This bee would have stung you.<br>Your bonus pay is unchanged, and remains at $0.54.</p>\n            ","response":0,"trial_type":"html-button-response","trial_index":30,"time_elapsed":1668810,"internal_node_id":"0.0-4.0-1.11","subject_id":"615373f88839471e0ab77399","study_id":"6197b3f67c2b5cd3b6d9596a","session_id":"619bfbde9196daaf4686adc6","condition":"full-information","relevant_dimensions":["antennae","legs"],"bee_group":{"antennae":"A","wings":"X","pattern":"X","legs":"M"},"bonus":1.7800000000000011},{"rt":30573.89999999851,"stimulus":"bees-with-color/bee-A2DF.svg","response":0,"trial_type":"image-button-response","trial_index":31,"time_elapsed":1699385,"internal_node_id":"0.0-4.0-0.12","subject_id":"615373f88839471e0ab77399","study_id":"6197b3f67c2b5cd3b6d9596a","session_id":"619bfbde9196daaf4686adc6","condition":"full-information","relevant_dimensions":["antennae","legs"],"bee_group":{"antennae":"A","wings":"X","pattern":"X","legs":"M"},"action":"harvest","summary":"good-harvest","bonus":1.7800000000000011},{"rt":3459.7999999970198,"stimulus":"\n                    <p><b>Action: <em>harvest</em></b></p>\n                    <p>This is the bee that you just saw.</p>\n                    <img src=\"bees-with-color/bee-A2DF.svg\" width=\"200\">\n                    <p><span class=\"greenText\"><b>Successful harvest!</b></span><br>Your pay has increased by $0.02. Your bonus pay is now $0.56.</p>\n            ","response":0,"trial_type":"html-button-response","trial_index":32,"time_elapsed":1702846,"internal_node_id":"0.0-4.0-1.12","subject_id":"615373f88839471e0ab77399","study_id":"6197b3f67c2b5cd3b6d9596a","session_id":"619bfbde9196daaf4686adc6","condition":"full-information","relevant_dimensions":["antennae","legs"],"bee_group":{"antennae":"A","wings":"X","pattern":"X","legs":"M"},"bonus":1.7800000000000011},{"rt":23830.79999999702,"stimulus":"bees-with-color/bee-A1SF.svg","response":1,"trial_type":"image-button-response","trial_index":33,"time_elapsed":1726678,"internal_node_id":"0.0-4.0-0.13","subject_id":"615373f88839471e0ab77399","study_id":"6197b3f67c2b5cd3b6d9596a","session_id":"619bfbde9196daaf4686adc6","condition":"full-information","relevant_dimensions":["antennae","legs"],"bee_group":{"antennae":"A","wings":"X","pattern":"X","legs":"M"},"action":"avoid","summary":"bad-avoid","bonus":1.7800000000000011},{"rt":3572.5,"stimulus":"\n                    <p><b>Action: <em>avoid</em></b></p>\n                    <p>This is the bee that you just saw.</p>\n                    <img src=\"bees-with-color/bee-A1SF.svg\" width=\"200\">\n                    <p><span class=\"redText\">Bad choice,</span> the bee was friendly.<br>Your bonus pay is unchanged, and remains at $0.56.</p>\n            ","response":0,"trial_type":"html-button-response","trial_index":34,"time_elapsed":1730252,"internal_node_id":"0.0-4.0-1.13","subject_id":"615373f88839471e0ab77399","study_id":"6197b3f67c2b5cd3b6d9596a","session_id":"619bfbde9196daaf4686adc6","condition":"full-information","relevant_dimensions":["antennae","legs"],"bee_group":{"antennae":"A","wings":"X","pattern":"X","legs":"M"},"bonus":1.7800000000000011},{"rt":35014.20000000298,"stimulus":"bees-with-color/bee-A1DM.svg","response":1,"trial_type":"image-button-response","trial_index":35,"time_elapsed":1765268,"internal_node_id":"0.0-4.0-0.14","subject_id":"615373f88839471e0ab77399","study_id":"6197b3f67c2b5cd3b6d9596a","session_id":"619bfbde9196daaf4686adc6","condition":"full-information","relevant_dimensions":["antennae","legs"],"bee_group":{"antennae":"A","wings":"X","pattern":"X","legs":"M"},"action":"avoid","summary":"good-avoid","bonus":1.7800000000000011},{"rt":3903.6999999955297,"stimulus":"\n                    <p><b>Action: <em>avoid</em></b></p>\n                    <p>This is the bee that you just saw.</p>\n                    <img src=\"bees-with-color/bee-A1DM.svg\" width=\"200\">\n                    <p><span class=\"greenText\">Good choice!</span>  This bee would have stung you.<br>Your bonus pay is unchanged, and remains at $0.56.</p>\n            ","response":0,"trial_type":"html-button-response","trial_index":36,"time_elapsed":1769172,"internal_node_id":"0.0-4.0-1.14","subject_id":"615373f88839471e0ab77399","study_id":"6197b3f67c2b5cd3b6d9596a","session_id":"619bfbde9196daaf4686adc6","condition":"full-information","relevant_dimensions":["antennae","legs"],"bee_group":{"antennae":"A","wings":"X","pattern":"X","legs":"M"},"bonus":1.7800000000000011},{"rt":24814.79999999702,"stimulus":"bees-with-color/bee-B1SF.svg","response":0,"trial_type":"image-button-response","trial_index":37,"time_elapsed":1793988,"internal_node_id":"0.0-4.0-0.15","subject_id":"615373f88839471e0ab77399","study_id":"6197b3f67c2b5cd3b6d9596a","session_id":"619bfbde9196daaf4686adc6","condition":"full-information","relevant_dimensions":["antennae","legs"],"bee_group":{"antennae":"A","wings":"X","pattern":"X","legs":"M"},"action":"harvest","summary":"good-harvest","bonus":1.7800000000000011},{"rt":1451.6999999955297,"stimulus":"\n                    <p><b>Action: <em>harvest</em></b></p>\n                    <p>This is the bee that you just saw.</p>\n                    <img src=\"bees-with-color/bee-B1SF.svg\" width=\"200\">\n                    <p><span class=\"greenText\"><b>Successful harvest!</b></span><br>Your pay has increased by $0.02. Your bonus pay is now $0.58.</p>\n            ","response":0,"trial_type":"html-button-response","trial_index":38,"time_elapsed":1795440,"internal_node_id":"0.0-4.0-1.15","subject_id":"615373f88839471e0ab77399","study_id":"6197b3f67c2b5cd3b6d9596a","session_id":"619bfbde9196daaf4686adc6","condition":"full-information","relevant_dimensions":["antennae","legs"],"bee_group":{"antennae":"A","wings":"X","pattern":"X","legs":"M"},"bonus":1.7800000000000011},{"rt":10127.39999999851,"stimulus":"bees-with-color/bee-B1DF.svg","response":0,"trial_type":"image-button-response","trial_index":39,"time_elapsed":1805569,"internal_node_id":"0.0-4.0-0.16","subject_id":"615373f88839471e0ab77399","study_id":"6197b3f67c2b5cd3b6d9596a","session_id":"619bfbde9196daaf4686adc6","condition":"full-information","relevant_dimensions":["antennae","legs"],"bee_group":{"antennae":"A","wings":"X","pattern":"X","legs":"M"},"action":"harvest","summary":"good-harvest","bonus":1.7800000000000011},{"rt":1207.3999999985099,"stimulus":"\n                    <p><b>Action: <em>harvest</em></b></p>\n                    <p>This is the bee that you just saw.</p>\n                    <img src=\"bees-with-color/bee-B1DF.svg\" width=\"200\">\n                    <p><span class=\"greenText\"><b>Successful harvest!</b></span><br>Your pay has increased by $0.02. Your bonus pay is now $0.60.</p>\n            ","response":0,"trial_type":"html-button-response","trial_index":40,"time_elapsed":1806777,"internal_node_id":"0.0-4.0-1.16","subject_id":"615373f88839471e0ab77399","study_id":"6197b3f67c2b5cd3b6d9596a","session_id":"619bfbde9196daaf4686adc6","condition":"full-information","relevant_dimensions":["antennae","legs"],"bee_group":{"antennae":"A","wings":"X","pattern":"X","legs":"M"},"bonus":1.7800000000000011},{"rt":14792.69999999553,"stimulus":"bees-with-color/bee-A2SF.svg","response":0,"trial_type":"image-button-response","trial_index":41,"time_elapsed":1821571,"internal_node_id":"0.0-4.0-0.17","subject_id":"615373f88839471e0ab77399","study_id":"6197b3f67c2b5cd3b6d9596a","session_id":"619bfbde9196daaf4686adc6","condition":"full-information","relevant_dimensions":["antennae","legs"],"bee_group":{"antennae":"A","wings":"X","pattern":"X","legs":"M"},"action":"harvest","summary":"good-harvest","bonus":1.7800000000000011},{"rt":1071.5,"stimulus":"\n                    <p><b>Action: <em>harvest</em></b></p>\n                    <p>This is the bee that you just saw.</p>\n                    <img src=\"bees-with-color/bee-A2SF.svg\" width=\"200\">\n                    <p><span class=\"greenText\"><b>Successful harvest!</b></span><br>Your pay has increased by $0.02. Your bonus pay is now $0.62.</p>\n            ","response":0,"trial_type":"html-button-response","trial_index":42,"time_elapsed":1822643,"internal_node_id":"0.0-4.0-1.17","subject_id":"615373f88839471e0ab77399","study_id":"6197b3f67c2b5cd3b6d9596a","session_id":"619bfbde9196daaf4686adc6","condition":"full-information","relevant_dimensions":["antennae","legs"],"bee_group":{"antennae":"A","wings":"X","pattern":"X","legs":"M"},"bonus":1.7800000000000011},{"rt":8475.69999999553,"stimulus":"bees-with-color/bee-B1SF.svg","response":0,"trial_type":"image-button-response","trial_index":43,"time_elapsed":1831120,"internal_node_id":"0.0-4.0-0.18","subject_id":"615373f88839471e0ab77399","study_id":"6197b3f67c2b5cd3b6d9596a","session_id":"619bfbde9196daaf4686adc6","condition":"full-information","relevant_dimensions":["antennae","legs"],"bee_group":{"antennae":"A","wings":"X","pattern":"X","legs":"M"},"action":"harvest","summary":"good-harvest","bonus":1.7800000000000011},{"rt":947.0999999940395,"stimulus":"\n                    <p><b>Action: <em>harvest</em></b></p>\n                    <p>This is the bee that you just saw.</p>\n                    <img src=\"bees-with-color/bee-B1SF.svg\" width=\"200\">\n                    <p><span class=\"greenText\"><b>Successful harvest!</b></span><br>Your pay has increased by $0.02. Your bonus pay is now $0.64.</p>\n            ","response":0,"trial_type":"html-button-response","trial_index":44,"time_elapsed":1832068,"internal_node_id":"0.0-4.0-1.18","subject_id":"615373f88839471e0ab77399","study_id":"6197b3f67c2b5cd3b6d9596a","session_id":"619bfbde9196daaf4686adc6","condition":"full-information","relevant_dimensions":["antennae","legs"],"bee_group":{"antennae":"A","wings":"X","pattern":"X","legs":"M"},"bonus":1.7800000000000011},{"rt":16368.79999999702,"stimulus":"bees-with-color/bee-B2DF.svg","response":0,"trial_type":"image-button-response","trial_index":45,"time_elapsed":1848438,"internal_node_id":"0.0-4.0-0.19","subject_id":"615373f88839471e0ab77399","study_id":"6197b3f67c2b5cd3b6d9596a","session_id":"619bfbde9196daaf4686adc6","condition":"full-information","relevant_dimensions":["antennae","legs"],"bee_group":{"antennae":"A","wings":"X","pattern":"X","legs":"M"},"action":"harvest","summary":"good-harvest","bonus":1.7800000000000011},{"rt":3267,"stimulus":"\n                    <p><b>Action: <em>harvest</em></b></p>\n                    <p>This is the bee that you just saw.</p>\n                    <img src=\"bees-with-color/bee-B2DF.svg\" width=\"200\">\n                    <p><span class=\"greenText\"><b>Successful harvest!</b></span><br>Your pay has increased by $0.02. Your bonus pay is now $0.66.</p>\n            ","response":0,"trial_type":"html-button-response","trial_index":46,"time_elapsed":1851706,"internal_node_id":"0.0-4.0-1.19","subject_id":"615373f88839471e0ab77399","study_id":"6197b3f67c2b5cd3b6d9596a","session_id":"619bfbde9196daaf4686adc6","condition":"full-information","relevant_dimensions":["antennae","legs"],"bee_group":{"antennae":"A","wings":"X","pattern":"X","legs":"M"},"bonus":1.7800000000000011},{"rt":38618.29999999702,"stimulus":"bees-with-color/bee-A1DM.svg","response":1,"trial_type":"image-button-response","trial_index":47,"time_elapsed":1890326,"internal_node_id":"0.0-4.0-0.20","subject_id":"615373f88839471e0ab77399","study_id":"6197b3f67c2b5cd3b6d9596a","session_id":"619bfbde9196daaf4686adc6","condition":"full-information","relevant_dimensions":["antennae","legs"],"bee_group":{"antennae":"A","wings":"X","pattern":"X","legs":"M"},"action":"avoid","summary":"good-avoid","bonus":1.7800000000000011},{"rt":1602.5,"stimulus":"\n                    <p><b>Action: <em>avoid</em></b></p>\n                    <p>This is the bee that you just saw.</p>\n                    <img src=\"bees-with-color/bee-A1DM.svg\" width=\"200\">\n                    <p><span class=\"greenText\">Good choice!</span>  This bee would have stung you.<br>Your bonus pay is unchanged, and remains at $0.66.</p>\n            ","response":0,"trial_type":"html-button-response","trial_index":48,"time_elapsed":1891930,"internal_node_id":"0.0-4.0-1.20","subject_id":"615373f88839471e0ab77399","study_id":"6197b3f67c2b5cd3b6d9596a","session_id":"619bfbde9196daaf4686adc6","condition":"full-information","relevant_dimensions":["antennae","legs"],"bee_group":{"antennae":"A","wings":"X","pattern":"X","legs":"M"},"bonus":1.7800000000000011},{"rt":176886.90000000596,"stimulus":"bees-with-color/bee-B2SF.svg","response":0,"trial_type":"image-button-response","trial_index":49,"time_elapsed":2068818,"internal_node_id":"0.0-4.0-0.21","subject_id":"615373f88839471e0ab77399","study_id":"6197b3f67c2b5cd3b6d9596a","session_id":"619bfbde9196daaf4686adc6","condition":"full-information","relevant_dimensions":["antennae","legs"],"bee_group":{"antennae":"A","wings":"X","pattern":"X","legs":"M"},"action":"harvest","summary":"good-harvest","bonus":1.7800000000000011},{"rt":1380.2000000029802,"stimulus":"\n                    <p><b>Action: <em>harvest</em></b></p>\n                    <p>This is the bee that you just saw.</p>\n                    <img src=\"bees-with-color/bee-B2SF.svg\" width=\"200\">\n                    <p><span class=\"greenText\"><b>Successful harvest!</b></span><br>Your pay has increased by $0.02. Your bonus pay is now $0.68.</p>\n            ","response":0,"trial_type":"html-button-response","trial_index":50,"time_elapsed":2070199,"internal_node_id":"0.0-4.0-1.21","subject_id":"615373f88839471e0ab77399","study_id":"6197b3f67c2b5cd3b6d9596a","session_id":"619bfbde9196daaf4686adc6","condition":"full-information","relevant_dimensions":["antennae","legs"],"bee_group":{"antennae":"A","wings":"X","pattern":"X","legs":"M"},"bonus":1.7800000000000011},{"rt":1478.8999999985099,"stimulus":"bees-with-color/bee-B2DM.svg","response":0,"trial_type":"image-button-response","trial_index":51,"time_elapsed":2071678,"internal_node_id":"0.0-4.0-0.22","subject_id":"615373f88839471e0ab77399","study_id":"6197b3f67c2b5cd3b6d9596a","session_id":"619bfbde9196daaf4686adc6","condition":"full-information","relevant_dimensions":["antennae","legs"],"bee_group":{"antennae":"A","wings":"X","pattern":"X","legs":"M"},"action":"harvest","summary":"good-harvest","bonus":1.7800000000000011},{"rt":792.1000000014901,"stimulus":"\n                    <p><b>Action: <em>harvest</em></b></p>\n                    <p>This is the bee that you just saw.</p>\n                    <img src=\"bees-with-color/bee-B2DM.svg\" width=\"200\">\n                    <p><span class=\"greenText\"><b>Successful harvest!</b></span><br>Your pay has increased by $0.02. Your bonus pay is now $0.70.</p>\n            ","response":0,"trial_type":"html-button-response","trial_index":52,"time_elapsed":2072471,"internal_node_id":"0.0-4.0-1.22","subject_id":"615373f88839471e0ab77399","study_id":"6197b3f67c2b5cd3b6d9596a","session_id":"619bfbde9196daaf4686adc6","condition":"full-information","relevant_dimensions":["antennae","legs"],"bee_group":{"antennae":"A","wings":"X","pattern":"X","legs":"M"},"bonus":1.7800000000000011},{"rt":42199,"stimulus":"bees-with-color/bee-A2SM.svg","response":1,"trial_type":"image-button-response","trial_index":53,"time_elapsed":2114671,"internal_node_id":"0.0-4.0-0.23","subject_id":"615373f88839471e0ab77399","study_id":"6197b3f67c2b5cd3b6d9596a","session_id":"619bfbde9196daaf4686adc6","condition":"full-information","relevant_dimensions":["antennae","legs"],"bee_group":{"antennae":"A","wings":"X","pattern":"X","legs":"M"},"action":"avoid","summary":"good-avoid","bonus":1.7800000000000011},{"rt":3804,"stimulus":"\n                    <p><b>Action: <em>avoid</em></b></p>\n                    <p>This is the bee that you just saw.</p>\n                    <img src=\"bees-with-color/bee-A2SM.svg\" width=\"200\">\n                    <p><span class=\"greenText\">Good choice!</span>  This bee would have stung you.<br>Your bonus pay is unchanged, and remains at $0.70.</p>\n            ","response":0,"trial_type":"html-button-response","trial_index":54,"time_elapsed":2118476,"internal_node_id":"0.0-4.0-1.23","subject_id":"615373f88839471e0ab77399","study_id":"6197b3f67c2b5cd3b6d9596a","session_id":"619bfbde9196daaf4686adc6","condition":"full-information","relevant_dimensions":["antennae","legs"],"bee_group":{"antennae":"A","wings":"X","pattern":"X","legs":"M"},"bonus":1.7800000000000011},{"rt":4027.10000000149,"stimulus":"bees-with-color/bee-A2DF.svg","response":0,"trial_type":"image-button-response","trial_index":55,"time_elapsed":2122504,"internal_node_id":"0.0-4.0-0.24","subject_id":"615373f88839471e0ab77399","study_id":"6197b3f67c2b5cd3b6d9596a","session_id":"619bfbde9196daaf4686adc6","condition":"full-information","relevant_dimensions":["antennae","legs"],"bee_group":{"antennae":"A","wings":"X","pattern":"X","legs":"M"},"action":"harvest","summary":"good-harvest","bonus":1.7800000000000011},{"rt":846.8000000044703,"stimulus":"\n                    <p><b>Action: <em>harvest</em></b></p>\n                    <p>This is the bee that you just saw.</p>\n                    <img src=\"bees-with-color/bee-A2DF.svg\" width=\"200\">\n                    <p><span class=\"greenText\"><b>Successful harvest!</b></span><br>Your pay has increased by $0.02. Your bonus pay is now $0.72.</p>\n            ","response":0,"trial_type":"html-button-response","trial_index":56,"time_elapsed":2123352,"internal_node_id":"0.0-4.0-1.24","subject_id":"615373f88839471e0ab77399","study_id":"6197b3f67c2b5cd3b6d9596a","session_id":"619bfbde9196daaf4686adc6","condition":"full-information","relevant_dimensions":["antennae","legs"],"bee_group":{"antennae":"A","wings":"X","pattern":"X","legs":"M"},"bonus":1.7800000000000011},{"rt":1278.3999999985099,"stimulus":"bees-with-color/bee-A1DF.svg","response":0,"trial_type":"image-button-response","trial_index":57,"time_elapsed":2124632,"internal_node_id":"0.0-4.0-0.25","subject_id":"615373f88839471e0ab77399","study_id":"6197b3f67c2b5cd3b6d9596a","session_id":"619bfbde9196daaf4686adc6","condition":"full-information","relevant_dimensions":["antennae","legs"],"bee_group":{"antennae":"A","wings":"X","pattern":"X","legs":"M"},"action":"harvest","summary":"good-harvest","bonus":1.7800000000000011},{"rt":638.2000000029802,"stimulus":"\n                    <p><b>Action: <em>harvest</em></b></p>\n                    <p>This is the bee that you just saw.</p>\n                    <img src=\"bees-with-color/bee-A1DF.svg\" width=\"200\">\n                    <p><span class=\"greenText\"><b>Successful harvest!</b></span><br>Your pay has increased by $0.02. Your bonus pay is now $0.74.</p>\n            ","response":0,"trial_type":"html-button-response","trial_index":58,"time_elapsed":2125272,"internal_node_id":"0.0-4.0-1.25","subject_id":"615373f88839471e0ab77399","study_id":"6197b3f67c2b5cd3b6d9596a","session_id":"619bfbde9196daaf4686adc6","condition":"full-information","relevant_dimensions":["antennae","legs"],"bee_group":{"antennae":"A","wings":"X","pattern":"X","legs":"M"},"bonus":1.7800000000000011},{"rt":1287.3000000044703,"stimulus":"bees-with-color/bee-B1DM.svg","response":0,"trial_type":"image-button-response","trial_index":59,"time_elapsed":2126560,"internal_node_id":"0.0-4.0-0.26","subject_id":"615373f88839471e0ab77399","study_id":"6197b3f67c2b5cd3b6d9596a","session_id":"619bfbde9196daaf4686adc6","condition":"full-information","relevant_dimensions":["antennae","legs"],"bee_group":{"antennae":"A","wings":"X","pattern":"X","legs":"M"},"action":"harvest","summary":"good-harvest","bonus":1.7800000000000011},{"rt":575.5,"stimulus":"\n                    <p><b>Action: <em>harvest</em></b></p>\n                    <p>This is the bee that you just saw.</p>\n                    <img src=\"bees-with-color/bee-B1DM.svg\" width=\"200\">\n                    <p><span class=\"greenText\"><b>Successful harvest!</b></span><br>Your pay has increased by $0.02. Your bonus pay is now $0.76.</p>\n            ","response":0,"trial_type":"html-button-response","trial_index":60,"time_elapsed":2127136,"internal_node_id":"0.0-4.0-1.26","subject_id":"615373f88839471e0ab77399","study_id":"6197b3f67c2b5cd3b6d9596a","session_id":"619bfbde9196daaf4686adc6","condition":"full-information","relevant_dimensions":["antennae","legs"],"bee_group":{"antennae":"A","wings":"X","pattern":"X","legs":"M"},"bonus":1.7800000000000011},{"rt":2355,"stimulus":"bees-with-color/bee-A1SM.svg","response":1,"trial_type":"image-button-response","trial_index":61,"time_elapsed":2129492,"internal_node_id":"0.0-4.0-0.27","subject_id":"615373f88839471e0ab77399","study_id":"6197b3f67c2b5cd3b6d9596a","session_id":"619bfbde9196daaf4686adc6","condition":"full-information","relevant_dimensions":["antennae","legs"],"bee_group":{"antennae":"A","wings":"X","pattern":"X","legs":"M"},"action":"avoid","summary":"good-avoid","bonus":1.7800000000000011},{"rt":715.0999999940395,"stimulus":"\n                    <p><b>Action: <em>avoid</em></b></p>\n                    <p>This is the bee that you just saw.</p>\n                    <img src=\"bees-with-color/bee-A1SM.svg\" width=\"200\">\n                    <p><span class=\"greenText\">Good choice!</span>  This bee would have stung you.<br>Your bonus pay is unchanged, and remains at $0.76.</p>\n            ","response":0,"trial_type":"html-button-response","trial_index":62,"time_elapsed":2130208,"internal_node_id":"0.0-4.0-1.27","subject_id":"615373f88839471e0ab77399","study_id":"6197b3f67c2b5cd3b6d9596a","session_id":"619bfbde9196daaf4686adc6","condition":"full-information","relevant_dimensions":["antennae","legs"],"bee_group":{"antennae":"A","wings":"X","pattern":"X","legs":"M"},"bonus":1.7800000000000011},{"rt":1999.2000000029802,"stimulus":"bees-with-color/bee-B2SM.svg","response":0,"trial_type":"image-button-response","trial_index":63,"time_elapsed":2132208,"internal_node_id":"0.0-4.0-0.28","subject_id":"615373f88839471e0ab77399","study_id":"6197b3f67c2b5cd3b6d9596a","session_id":"619bfbde9196daaf4686adc6","condition":"full-information","relevant_dimensions":["antennae","legs"],"bee_group":{"antennae":"A","wings":"X","pattern":"X","legs":"M"},"action":"harvest","summary":"good-harvest","bonus":1.7800000000000011},{"rt":615,"stimulus":"\n                    <p><b>Action: <em>harvest</em></b></p>\n                    <p>This is the bee that you just saw.</p>\n                    <img src=\"bees-with-color/bee-B2SM.svg\" width=\"200\">\n                    <p><span class=\"greenText\"><b>Successful harvest!</b></span><br>Your pay has increased by $0.02. Your bonus pay is now $0.78.</p>\n            ","response":0,"trial_type":"html-button-response","trial_index":64,"time_elapsed":2132824,"internal_node_id":"0.0-4.0-1.28","subject_id":"615373f88839471e0ab77399","study_id":"6197b3f67c2b5cd3b6d9596a","session_id":"619bfbde9196daaf4686adc6","condition":"full-information","relevant_dimensions":["antennae","legs"],"bee_group":{"antennae":"A","wings":"X","pattern":"X","legs":"M"},"bonus":1.7800000000000011},{"rt":1150.5,"stimulus":"bees-with-color/bee-B1SM.svg","response":0,"trial_type":"image-button-response","trial_index":65,"time_elapsed":2133975,"internal_node_id":"0.0-4.0-0.29","subject_id":"615373f88839471e0ab77399","study_id":"6197b3f67c2b5cd3b6d9596a","session_id":"619bfbde9196daaf4686adc6","condition":"full-information","relevant_dimensions":["antennae","legs"],"bee_group":{"antennae":"A","wings":"X","pattern":"X","legs":"M"},"action":"harvest","summary":"good-harvest","bonus":1.7800000000000011},{"rt":559.3999999985099,"stimulus":"\n                    <p><b>Action: <em>harvest</em></b></p>\n                    <p>This is the bee that you just saw.</p>\n                    <img src=\"bees-with-color/bee-B1SM.svg\" width=\"200\">\n                    <p><span class=\"greenText\"><b>Successful harvest!</b></span><br>Your pay has increased by $0.02. Your bonus pay is now $0.80.</p>\n            ","response":0,"trial_type":"html-button-response","trial_index":66,"time_elapsed":2134536,"internal_node_id":"0.0-4.0-1.29","subject_id":"615373f88839471e0ab77399","study_id":"6197b3f67c2b5cd3b6d9596a","session_id":"619bfbde9196daaf4686adc6","condition":"full-information","relevant_dimensions":["antennae","legs"],"bee_group":{"antennae":"A","wings":"X","pattern":"X","legs":"M"},"bonus":1.7800000000000011},{"rt":1410.8000000044703,"stimulus":"bees-with-color/bee-A1SF.svg","response":0,"trial_type":"image-button-response","trial_index":67,"time_elapsed":2135948,"internal_node_id":"0.0-4.0-0.30","subject_id":"615373f88839471e0ab77399","study_id":"6197b3f67c2b5cd3b6d9596a","session_id":"619bfbde9196daaf4686adc6","condition":"full-information","relevant_dimensions":["antennae","legs"],"bee_group":{"antennae":"A","wings":"X","pattern":"X","legs":"M"},"action":"harvest","summary":"good-harvest","bonus":1.7800000000000011},{"rt":494.8999999985099,"stimulus":"\n                    <p><b>Action: <em>harvest</em></b></p>\n                    <p>This is the bee that you just saw.</p>\n                    <img src=\"bees-with-color/bee-A1SF.svg\" width=\"200\">\n                    <p><span class=\"greenText\"><b>Successful harvest!</b></span><br>Your pay has increased by $0.02. Your bonus pay is now $0.82.</p>\n            ","response":0,"trial_type":"html-button-response","trial_index":68,"time_elapsed":2136443,"internal_node_id":"0.0-4.0-1.30","subject_id":"615373f88839471e0ab77399","study_id":"6197b3f67c2b5cd3b6d9596a","session_id":"619bfbde9196daaf4686adc6","condition":"full-information","relevant_dimensions":["antennae","legs"],"bee_group":{"antennae":"A","wings":"X","pattern":"X","legs":"M"},"bonus":1.7800000000000011},{"rt":3255.89999999851,"stimulus":"bees-with-color/bee-A2DM.svg","response":1,"trial_type":"image-button-response","trial_index":69,"time_elapsed":2139700,"internal_node_id":"0.0-4.0-0.31","subject_id":"615373f88839471e0ab77399","study_id":"6197b3f67c2b5cd3b6d9596a","session_id":"619bfbde9196daaf4686adc6","condition":"full-information","relevant_dimensions":["antennae","legs"],"bee_group":{"antennae":"A","wings":"X","pattern":"X","legs":"M"},"action":"avoid","summary":"good-avoid","bonus":1.7800000000000011},{"rt":742.8999999985099,"stimulus":"\n                    <p><b>Action: <em>avoid</em></b></p>\n                    <p>This is the bee that you just saw.</p>\n                    <img src=\"bees-with-color/bee-A2DM.svg\" width=\"200\">\n                    <p><span class=\"greenText\">Good choice!</span>  This bee would have stung you.<br>Your bonus pay is unchanged, and remains at $0.82.</p>\n            ","response":0,"trial_type":"html-button-response","trial_index":70,"time_elapsed":2140444,"internal_node_id":"0.0-4.0-1.31","subject_id":"615373f88839471e0ab77399","study_id":"6197b3f67c2b5cd3b6d9596a","session_id":"619bfbde9196daaf4686adc6","condition":"full-information","relevant_dimensions":["antennae","legs"],"bee_group":{"antennae":"A","wings":"X","pattern":"X","legs":"M"},"bonus":1.7800000000000011},{"rt":2395,"stimulus":"bees-with-color/bee-B2DM.svg","response":0,"trial_type":"image-button-response","trial_index":71,"time_elapsed":2142840,"internal_node_id":"0.0-4.0-0.32","subject_id":"615373f88839471e0ab77399","study_id":"6197b3f67c2b5cd3b6d9596a","session_id":"619bfbde9196daaf4686adc6","condition":"full-information","relevant_dimensions":["antennae","legs"],"bee_group":{"antennae":"A","wings":"X","pattern":"X","legs":"M"},"action":"harvest","summary":"good-harvest","bonus":1.7800000000000011},{"rt":702.8999999985099,"stimulus":"\n                    <p><b>Action: <em>harvest</em></b></p>\n                    <p>This is the bee that you just saw.</p>\n                    <img src=\"bees-with-color/bee-B2DM.svg\" width=\"200\">\n                    <p><span class=\"greenText\"><b>Successful harvest!</b></span><br>Your pay has increased by $0.02. Your bonus pay is now $0.84.</p>\n            ","response":0,"trial_type":"html-button-response","trial_index":72,"time_elapsed":2143544,"internal_node_id":"0.0-4.0-1.32","subject_id":"615373f88839471e0ab77399","study_id":"6197b3f67c2b5cd3b6d9596a","session_id":"619bfbde9196daaf4686adc6","condition":"full-information","relevant_dimensions":["antennae","legs"],"bee_group":{"antennae":"A","wings":"X","pattern":"X","legs":"M"},"bonus":1.7800000000000011},{"rt":1290.1999999955297,"stimulus":"bees-with-color/bee-B2SM.svg","response":0,"trial_type":"image-button-response","trial_index":73,"time_elapsed":2144835,"internal_node_id":"0.0-4.0-0.33","subject_id":"615373f88839471e0ab77399","study_id":"6197b3f67c2b5cd3b6d9596a","session_id":"619bfbde9196daaf4686adc6","condition":"full-information","relevant_dimensions":["antennae","legs"],"bee_group":{"antennae":"A","wings":"X","pattern":"X","legs":"M"},"action":"harvest","summary":"good-harvest","bonus":1.7800000000000011},{"rt":679.8999999985099,"stimulus":"\n                    <p><b>Action: <em>harvest</em></b></p>\n                    <p>This is the bee that you just saw.</p>\n                    <img src=\"bees-with-color/bee-B2SM.svg\" width=\"200\">\n                    <p><span class=\"greenText\"><b>Successful harvest!</b></span><br>Your pay has increased by $0.02. Your bonus pay is now $0.86.</p>\n            ","response":0,"trial_type":"html-button-response","trial_index":74,"time_elapsed":2145516,"internal_node_id":"0.0-4.0-1.33","subject_id":"615373f88839471e0ab77399","study_id":"6197b3f67c2b5cd3b6d9596a","session_id":"619bfbde9196daaf4686adc6","condition":"full-information","relevant_dimensions":["antennae","legs"],"bee_group":{"antennae":"A","wings":"X","pattern":"X","legs":"M"},"bonus":1.7800000000000011},{"rt":1378.5,"stimulus":"bees-with-color/bee-A2SF.svg","response":0,"trial_type":"image-button-response","trial_index":75,"time_elapsed":2146895,"internal_node_id":"0.0-4.0-0.34","subject_id":"615373f88839471e0ab77399","study_id":"6197b3f67c2b5cd3b6d9596a","session_id":"619bfbde9196daaf4686adc6","condition":"full-information","relevant_dimensions":["antennae","legs"],"bee_group":{"antennae":"A","wings":"X","pattern":"X","legs":"M"},"action":"harvest","summary":"good-harvest","bonus":1.7800000000000011},{"rt":554.3000000044703,"stimulus":"\n                    <p><b>Action: <em>harvest</em></b></p>\n                    <p>This is the bee that you just saw.</p>\n                    <img src=\"bees-with-color/bee-A2SF.svg\" width=\"200\">\n                    <p><span class=\"greenText\"><b>Successful harvest!</b></span><br>Your pay has increased by $0.02. Your bonus pay is now $0.88.</p>\n            ","response":0,"trial_type":"html-button-response","trial_index":76,"time_elapsed":2147451,"internal_node_id":"0.0-4.0-1.34","subject_id":"615373f88839471e0ab77399","study_id":"6197b3f67c2b5cd3b6d9596a","session_id":"619bfbde9196daaf4686adc6","condition":"full-information","relevant_dimensions":["antennae","legs"],"bee_group":{"antennae":"A","wings":"X","pattern":"X","legs":"M"},"bonus":1.7800000000000011},{"rt":1874.7999999970198,"stimulus":"bees-with-color/bee-A1SM.svg","response":1,"trial_type":"image-button-response","trial_index":77,"time_elapsed":2149326,"internal_node_id":"0.0-4.0-0.35","subject_id":"615373f88839471e0ab77399","study_id":"6197b3f67c2b5cd3b6d9596a","session_id":"619bfbde9196daaf4686adc6","condition":"full-information","relevant_dimensions":["antennae","legs"],"bee_group":{"antennae":"A","wings":"X","pattern":"X","legs":"M"},"action":"avoid","summary":"good-avoid","bonus":1.7800000000000011},{"rt":581,"stimulus":"\n                    <p><b>Action: <em>avoid</em></b></p>\n                    <p>This is the bee that you just saw.</p>\n                    <img src=\"bees-with-color/bee-A1SM.svg\" width=\"200\">\n                    <p><span class=\"greenText\">Good choice!</span>  This bee would have stung you.<br>Your bonus pay is unchanged, and remains at $0.88.</p>\n            ","response":0,"trial_type":"html-button-response","trial_index":78,"time_elapsed":2149908,"internal_node_id":"0.0-4.0-1.35","subject_id":"615373f88839471e0ab77399","study_id":"6197b3f67c2b5cd3b6d9596a","session_id":"619bfbde9196daaf4686adc6","condition":"full-information","relevant_dimensions":["antennae","legs"],"bee_group":{"antennae":"A","wings":"X","pattern":"X","legs":"M"},"bonus":1.7800000000000011},{"rt":1899.3999999985099,"stimulus":"bees-with-color/bee-A2DF.svg","response":0,"trial_type":"image-button-response","trial_index":79,"time_elapsed":2151808,"internal_node_id":"0.0-4.0-0.36","subject_id":"615373f88839471e0ab77399","study_id":"6197b3f67c2b5cd3b6d9596a","session_id":"619bfbde9196daaf4686adc6","condition":"full-information","relevant_dimensions":["antennae","legs"],"bee_group":{"antennae":"A","wings":"X","pattern":"X","legs":"M"},"action":"harvest","summary":"good-harvest","bonus":1.7800000000000011},{"rt":662.1000000014901,"stimulus":"\n                    <p><b>Action: <em>harvest</em></b></p>\n                    <p>This is the bee that you just saw.</p>\n                    <img src=\"bees-with-color/bee-A2DF.svg\" width=\"200\">\n                    <p><span class=\"greenText\"><b>Successful harvest!</b></span><br>Your pay has increased by $0.02. Your bonus pay is now $0.90.</p>\n            ","response":0,"trial_type":"html-button-response","trial_index":80,"time_elapsed":2152471,"internal_node_id":"0.0-4.0-1.36","subject_id":"615373f88839471e0ab77399","study_id":"6197b3f67c2b5cd3b6d9596a","session_id":"619bfbde9196daaf4686adc6","condition":"full-information","relevant_dimensions":["antennae","legs"],"bee_group":{"antennae":"A","wings":"X","pattern":"X","legs":"M"},"bonus":1.7800000000000011},{"rt":1448.5,"stimulus":"bees-with-color/bee-B2SF.svg","response":0,"trial_type":"image-button-response","trial_index":81,"time_elapsed":2153921,"internal_node_id":"0.0-4.0-0.37","subject_id":"615373f88839471e0ab77399","study_id":"6197b3f67c2b5cd3b6d9596a","session_id":"619bfbde9196daaf4686adc6","condition":"full-information","relevant_dimensions":["antennae","legs"],"bee_group":{"antennae":"A","wings":"X","pattern":"X","legs":"M"},"action":"harvest","summary":"good-harvest","bonus":1.7800000000000011},{"rt":502.5,"stimulus":"\n                    <p><b>Action: <em>harvest</em></b></p>\n                    <p>This is the bee that you just saw.</p>\n                    <img src=\"bees-with-color/bee-B2SF.svg\" width=\"200\">\n                    <p><span class=\"greenText\"><b>Successful harvest!</b></span><br>Your pay has increased by $0.02. Your bonus pay is now $0.92.</p>\n            ","response":0,"trial_type":"html-button-response","trial_index":82,"time_elapsed":2154424,"internal_node_id":"0.0-4.0-1.37","subject_id":"615373f88839471e0ab77399","study_id":"6197b3f67c2b5cd3b6d9596a","session_id":"619bfbde9196daaf4686adc6","condition":"full-information","relevant_dimensions":["antennae","legs"],"bee_group":{"antennae":"A","wings":"X","pattern":"X","legs":"M"},"bonus":1.7800000000000011},{"rt":1294.6999999955297,"stimulus":"bees-with-color/bee-A1DM.svg","response":1,"trial_type":"image-button-response","trial_index":83,"time_elapsed":2155720,"internal_node_id":"0.0-4.0-0.38","subject_id":"615373f88839471e0ab77399","study_id":"6197b3f67c2b5cd3b6d9596a","session_id":"619bfbde9196daaf4686adc6","condition":"full-information","relevant_dimensions":["antennae","legs"],"bee_group":{"antennae":"A","wings":"X","pattern":"X","legs":"M"},"action":"avoid","summary":"good-avoid","bonus":1.7800000000000011},{"rt":563.3999999985099,"stimulus":"\n                    <p><b>Action: <em>avoid</em></b></p>\n                    <p>This is the bee that you just saw.</p>\n                    <img src=\"bees-with-color/bee-A1DM.svg\" width=\"200\">\n                    <p><span class=\"greenText\">Good choice!</span>  This bee would have stung you.<br>Your bonus pay is unchanged, and remains at $0.92.</p>\n            ","response":0,"trial_type":"html-button-response","trial_index":84,"time_elapsed":2156284,"internal_node_id":"0.0-4.0-1.38","subject_id":"615373f88839471e0ab77399","study_id":"6197b3f67c2b5cd3b6d9596a","session_id":"619bfbde9196daaf4686adc6","condition":"full-information","relevant_dimensions":["antennae","legs"],"bee_group":{"antennae":"A","wings":"X","pattern":"X","legs":"M"},"bonus":1.7800000000000011},{"rt":1679.7000000029802,"stimulus":"bees-with-color/bee-A1SF.svg","response":0,"trial_type":"image-button-response","trial_index":85,"time_elapsed":2157964,"internal_node_id":"0.0-4.0-0.39","subject_id":"615373f88839471e0ab77399","study_id":"6197b3f67c2b5cd3b6d9596a","session_id":"619bfbde9196daaf4686adc6","condition":"full-information","relevant_dimensions":["antennae","legs"],"bee_group":{"antennae":"A","wings":"X","pattern":"X","legs":"M"},"action":"harvest","summary":"good-harvest","bonus":1.7800000000000011},{"rt":587.3999999985099,"stimulus":"\n                    <p><b>Action: <em>harvest</em></b></p>\n                    <p>This is the bee that you just saw.</p>\n                    <img src=\"bees-with-color/bee-A1SF.svg\" width=\"200\">\n                    <p><span class=\"greenText\"><b>Successful harvest!</b></span><br>Your pay has increased by $0.02. Your bonus pay is now $0.94.</p>\n            ","response":0,"trial_type":"html-button-response","trial_index":86,"time_elapsed":2158553,"internal_node_id":"0.0-4.0-1.39","subject_id":"615373f88839471e0ab77399","study_id":"6197b3f67c2b5cd3b6d9596a","session_id":"619bfbde9196daaf4686adc6","condition":"full-information","relevant_dimensions":["antennae","legs"],"bee_group":{"antennae":"A","wings":"X","pattern":"X","legs":"M"},"bonus":1.7800000000000011},{"rt":2450,"stimulus":"bees-with-color/bee-B1DM.svg","response":0,"trial_type":"image-button-response","trial_index":87,"time_elapsed":2161003,"internal_node_id":"0.0-4.0-0.40","subject_id":"615373f88839471e0ab77399","study_id":"6197b3f67c2b5cd3b6d9596a","session_id":"619bfbde9196daaf4686adc6","condition":"full-information","relevant_dimensions":["antennae","legs"],"bee_group":{"antennae":"A","wings":"X","pattern":"X","legs":"M"},"action":"harvest","summary":"good-harvest","bonus":1.7800000000000011},{"rt":751.7000000029802,"stimulus":"\n                    <p><b>Action: <em>harvest</em></b></p>\n                    <p>This is the bee that you just saw.</p>\n                    <img src=\"bees-with-color/bee-B1DM.svg\" width=\"200\">\n                    <p><span class=\"greenText\"><b>Successful harvest!</b></span><br>Your pay has increased by $0.02. Your bonus pay is now $0.96.</p>\n            ","response":0,"trial_type":"html-button-response","trial_index":88,"time_elapsed":2161756,"internal_node_id":"0.0-4.0-1.40","subject_id":"615373f88839471e0ab77399","study_id":"6197b3f67c2b5cd3b6d9596a","session_id":"619bfbde9196daaf4686adc6","condition":"full-information","relevant_dimensions":["antennae","legs"],"bee_group":{"antennae":"A","wings":"X","pattern":"X","legs":"M"},"bonus":1.7800000000000011},{"rt":2390.89999999851,"stimulus":"bees-with-color/bee-B2DF.svg","response":0,"trial_type":"image-button-response","trial_index":89,"time_elapsed":2164148,"internal_node_id":"0.0-4.0-0.41","subject_id":"615373f88839471e0ab77399","study_id":"6197b3f67c2b5cd3b6d9596a","session_id":"619bfbde9196daaf4686adc6","condition":"full-information","relevant_dimensions":["antennae","legs"],"bee_group":{"antennae":"A","wings":"X","pattern":"X","legs":"M"},"action":"harvest","summary":"good-harvest","bonus":1.7800000000000011},{"rt":563.1999999955297,"stimulus":"\n                    <p><b>Action: <em>harvest</em></b></p>\n                    <p>This is the bee that you just saw.</p>\n                    <img src=\"bees-with-color/bee-B2DF.svg\" width=\"200\">\n                    <p><span class=\"greenText\"><b>Successful harvest!</b></span><br>Your pay has increased by $0.02. Your bonus pay is now $0.98.</p>\n            ","response":0,"trial_type":"html-button-response","trial_index":90,"time_elapsed":2164712,"internal_node_id":"0.0-4.0-1.41","subject_id":"615373f88839471e0ab77399","study_id":"6197b3f67c2b5cd3b6d9596a","session_id":"619bfbde9196daaf4686adc6","condition":"full-information","relevant_dimensions":["antennae","legs"],"bee_group":{"antennae":"A","wings":"X","pattern":"X","legs":"M"},"bonus":1.7800000000000011},{"rt":770.7999999970198,"stimulus":"bees-with-color/bee-B1SF.svg","response":0,"trial_type":"image-button-response","trial_index":91,"time_elapsed":2165484,"internal_node_id":"0.0-4.0-0.42","subject_id":"615373f88839471e0ab77399","study_id":"6197b3f67c2b5cd3b6d9596a","session_id":"619bfbde9196daaf4686adc6","condition":"full-information","relevant_dimensions":["antennae","legs"],"bee_group":{"antennae":"A","wings":"X","pattern":"X","legs":"M"},"action":"harvest","summary":"good-harvest","bonus":1.7800000000000011},{"rt":526.7999999970198,"stimulus":"\n                    <p><b>Action: <em>harvest</em></b></p>\n                    <p>This is the bee that you just saw.</p>\n                    <img src=\"bees-with-color/bee-B1SF.svg\" width=\"200\">\n                    <p><span class=\"greenText\"><b>Successful harvest!</b></span><br>Your pay has increased by $0.02. Your bonus pay is now $1.00.</p>\n            ","response":0,"trial_type":"html-button-response","trial_index":92,"time_elapsed":2166011,"internal_node_id":"0.0-4.0-1.42","subject_id":"615373f88839471e0ab77399","study_id":"6197b3f67c2b5cd3b6d9596a","session_id":"619bfbde9196daaf4686adc6","condition":"full-information","relevant_dimensions":["antennae","legs"],"bee_group":{"antennae":"A","wings":"X","pattern":"X","legs":"M"},"bonus":1.7800000000000011},{"rt":1471.4000000059605,"stimulus":"bees-with-color/bee-A2SM.svg","response":1,"trial_type":"image-button-response","trial_index":93,"time_elapsed":2167483,"internal_node_id":"0.0-4.0-0.43","subject_id":"615373f88839471e0ab77399","study_id":"6197b3f67c2b5cd3b6d9596a","session_id":"619bfbde9196daaf4686adc6","condition":"full-information","relevant_dimensions":["antennae","legs"],"bee_group":{"antennae":"A","wings":"X","pattern":"X","legs":"M"},"action":"avoid","summary":"good-avoid","bonus":1.7800000000000011},{"rt":516.3000000044703,"stimulus":"\n                    <p><b>Action: <em>avoid</em></b></p>\n                    <p>This is the bee that you just saw.</p>\n                    <img src=\"bees-with-color/bee-A2SM.svg\" width=\"200\">\n                    <p><span class=\"greenText\">Good choice!</span>  This bee would have stung you.<br>Your bonus pay is unchanged, and remains at $1.00.</p>\n            ","response":0,"trial_type":"html-button-response","trial_index":94,"time_elapsed":2168000,"internal_node_id":"0.0-4.0-1.43","subject_id":"615373f88839471e0ab77399","study_id":"6197b3f67c2b5cd3b6d9596a","session_id":"619bfbde9196daaf4686adc6","condition":"full-information","relevant_dimensions":["antennae","legs"],"bee_group":{"antennae":"A","wings":"X","pattern":"X","legs":"M"},"bonus":1.7800000000000011},{"rt":1038.3999999985099,"stimulus":"bees-with-color/bee-A2DM.svg","response":1,"trial_type":"image-button-response","trial_index":95,"time_elapsed":2169040,"internal_node_id":"0.0-4.0-0.44","subject_id":"615373f88839471e0ab77399","study_id":"6197b3f67c2b5cd3b6d9596a","session_id":"619bfbde9196daaf4686adc6","condition":"full-information","relevant_dimensions":["antennae","legs"],"bee_group":{"antennae":"A","wings":"X","pattern":"X","legs":"M"},"action":"avoid","summary":"good-avoid","bonus":1.7800000000000011},{"rt":575.1000000014901,"stimulus":"\n                    <p><b>Action: <em>avoid</em></b></p>\n                    <p>This is the bee that you just saw.</p>\n                    <img src=\"bees-with-color/bee-A2DM.svg\" width=\"200\">\n                    <p><span class=\"greenText\">Good choice!</span>  This bee would have stung you.<br>Your bonus pay is unchanged, and remains at $1.00.</p>\n            ","response":0,"trial_type":"html-button-response","trial_index":96,"time_elapsed":2169616,"internal_node_id":"0.0-4.0-1.44","subject_id":"615373f88839471e0ab77399","study_id":"6197b3f67c2b5cd3b6d9596a","session_id":"619bfbde9196daaf4686adc6","condition":"full-information","relevant_dimensions":["antennae","legs"],"bee_group":{"antennae":"A","wings":"X","pattern":"X","legs":"M"},"bonus":1.7800000000000011},{"rt":886.5,"stimulus":"bees-with-color/bee-A1DF.svg","response":0,"trial_type":"image-button-response","trial_index":97,"time_elapsed":2170504,"internal_node_id":"0.0-4.0-0.45","subject_id":"615373f88839471e0ab77399","study_id":"6197b3f67c2b5cd3b6d9596a","session_id":"619bfbde9196daaf4686adc6","condition":"full-information","relevant_dimensions":["antennae","legs"],"bee_group":{"antennae":"A","wings":"X","pattern":"X","legs":"M"},"action":"harvest","summary":"good-harvest","bonus":1.7800000000000011},{"rt":591.5,"stimulus":"\n                    <p><b>Action: <em>harvest</em></b></p>\n                    <p>This is the bee that you just saw.</p>\n                    <img src=\"bees-with-color/bee-A1DF.svg\" width=\"200\">\n                    <p><span class=\"greenText\"><b>Successful harvest!</b></span><br>Your pay has increased by $0.02. Your bonus pay is now $1.02.</p>\n            ","response":0,"trial_type":"html-button-response","trial_index":98,"time_elapsed":2171096,"internal_node_id":"0.0-4.0-1.45","subject_id":"615373f88839471e0ab77399","study_id":"6197b3f67c2b5cd3b6d9596a","session_id":"619bfbde9196daaf4686adc6","condition":"full-information","relevant_dimensions":["antennae","legs"],"bee_group":{"antennae":"A","wings":"X","pattern":"X","legs":"M"},"bonus":1.7800000000000011},{"rt":922.3999999985099,"stimulus":"bees-with-color/bee-B1DF.svg","response":0,"trial_type":"image-button-response","trial_index":99,"time_elapsed":2172019,"internal_node_id":"0.0-4.0-0.46","subject_id":"615373f88839471e0ab77399","study_id":"6197b3f67c2b5cd3b6d9596a","session_id":"619bfbde9196daaf4686adc6","condition":"full-information","relevant_dimensions":["antennae","legs"],"bee_group":{"antennae":"A","wings":"X","pattern":"X","legs":"M"},"action":"harvest","summary":"good-harvest","bonus":1.7800000000000011},{"rt":575.8999999985099,"stimulus":"\n                    <p><b>Action: <em>harvest</em></b></p>\n                    <p>This is the bee that you just saw.</p>\n                    <img src=\"bees-with-color/bee-B1DF.svg\" width=\"200\">\n                    <p><span class=\"greenText\"><b>Successful harvest!</b></span><br>Your pay has increased by $0.02. Your bonus pay is now $1.04.</p>\n            ","response":0,"trial_type":"html-button-response","trial_index":100,"time_elapsed":2172596,"internal_node_id":"0.0-4.0-1.46","subject_id":"615373f88839471e0ab77399","study_id":"6197b3f67c2b5cd3b6d9596a","session_id":"619bfbde9196daaf4686adc6","condition":"full-information","relevant_dimensions":["antennae","legs"],"bee_group":{"antennae":"A","wings":"X","pattern":"X","legs":"M"},"bonus":1.7800000000000011},{"rt":2166.5,"stimulus":"bees-with-color/bee-B1SM.svg","response":0,"trial_type":"image-button-response","trial_index":101,"time_elapsed":2174763,"internal_node_id":"0.0-4.0-0.47","subject_id":"615373f88839471e0ab77399","study_id":"6197b3f67c2b5cd3b6d9596a","session_id":"619bfbde9196daaf4686adc6","condition":"full-information","relevant_dimensions":["antennae","legs"],"bee_group":{"antennae":"A","wings":"X","pattern":"X","legs":"M"},"action":"harvest","summary":"good-harvest","bonus":1.7800000000000011},{"rt":591.4000000059605,"stimulus":"\n                    <p><b>Action: <em>harvest</em></b></p>\n                    <p>This is the bee that you just saw.</p>\n                    <img src=\"bees-with-color/bee-B1SM.svg\" width=\"200\">\n                    <p><span class=\"greenText\"><b>Successful harvest!</b></span><br>Your pay has increased by $0.02. Your bonus pay is now $1.06.</p>\n            ","response":0,"trial_type":"html-button-response","trial_index":102,"time_elapsed":2175356,"internal_node_id":"0.0-4.0-1.47","subject_id":"615373f88839471e0ab77399","study_id":"6197b3f67c2b5cd3b6d9596a","session_id":"619bfbde9196daaf4686adc6","condition":"full-information","relevant_dimensions":["antennae","legs"],"bee_group":{"antennae":"A","wings":"X","pattern":"X","legs":"M"},"bonus":1.7800000000000011},{"rt":1119.3999999985099,"stimulus":"bees-with-color/bee-B2DM.svg","response":0,"trial_type":"image-button-response","trial_index":103,"time_elapsed":2176476,"internal_node_id":"0.0-4.0-0.48","subject_id":"615373f88839471e0ab77399","study_id":"6197b3f67c2b5cd3b6d9596a","session_id":"619bfbde9196daaf4686adc6","condition":"full-information","relevant_dimensions":["antennae","legs"],"bee_group":{"antennae":"A","wings":"X","pattern":"X","legs":"M"},"action":"harvest","summary":"good-harvest","bonus":1.7800000000000011},{"rt":570.8999999985099,"stimulus":"\n                    <p><b>Action: <em>harvest</em></b></p>\n                    <p>This is the bee that you just saw.</p>\n                    <img src=\"bees-with-color/bee-B2DM.svg\" width=\"200\">\n                    <p><span class=\"greenText\"><b>Successful harvest!</b></span><br>Your pay has increased by $0.02. Your bonus pay is now $1.08.</p>\n            ","response":0,"trial_type":"html-button-response","trial_index":104,"time_elapsed":2177047,"internal_node_id":"0.0-4.0-1.48","subject_id":"615373f88839471e0ab77399","study_id":"6197b3f67c2b5cd3b6d9596a","session_id":"619bfbde9196daaf4686adc6","condition":"full-information","relevant_dimensions":["antennae","legs"],"bee_group":{"antennae":"A","wings":"X","pattern":"X","legs":"M"},"bonus":1.7800000000000011},{"rt":1223.2000000029802,"stimulus":"bees-with-color/bee-A1DF.svg","response":0,"trial_type":"image-button-response","trial_index":105,"time_elapsed":2178271,"internal_node_id":"0.0-4.0-0.49","subject_id":"615373f88839471e0ab77399","study_id":"6197b3f67c2b5cd3b6d9596a","session_id":"619bfbde9196daaf4686adc6","condition":"full-information","relevant_dimensions":["antennae","legs"],"bee_group":{"antennae":"A","wings":"X","pattern":"X","legs":"M"},"action":"harvest","summary":"good-harvest","bonus":1.7800000000000011},{"rt":536.6999999955297,"stimulus":"\n                    <p><b>Action: <em>harvest</em></b></p>\n                    <p>This is the bee that you just saw.</p>\n                    <img src=\"bees-with-color/bee-A1DF.svg\" width=\"200\">\n                    <p><span class=\"greenText\"><b>Successful harvest!</b></span><br>Your pay has increased by $0.02. Your bonus pay is now $1.10.</p>\n            ","response":0,"trial_type":"html-button-response","trial_index":106,"time_elapsed":2178809,"internal_node_id":"0.0-4.0-1.49","subject_id":"615373f88839471e0ab77399","study_id":"6197b3f67c2b5cd3b6d9596a","session_id":"619bfbde9196daaf4686adc6","condition":"full-information","relevant_dimensions":["antennae","legs"],"bee_group":{"antennae":"A","wings":"X","pattern":"X","legs":"M"},"bonus":1.7800000000000011},{"rt":1194,"stimulus":"bees-with-color/bee-A2SM.svg","response":1,"trial_type":"image-button-response","trial_index":107,"time_elapsed":2180004,"internal_node_id":"0.0-4.0-0.50","subject_id":"615373f88839471e0ab77399","study_id":"6197b3f67c2b5cd3b6d9596a","session_id":"619bfbde9196daaf4686adc6","condition":"full-information","relevant_dimensions":["antennae","legs"],"bee_group":{"antennae":"A","wings":"X","pattern":"X","legs":"M"},"action":"avoid","summary":"good-avoid","bonus":1.7800000000000011},{"rt":551.2999999970198,"stimulus":"\n                    <p><b>Action: <em>avoid</em></b></p>\n                    <p>This is the bee that you just saw.</p>\n                    <img src=\"bees-with-color/bee-A2SM.svg\" width=\"200\">\n                    <p><span class=\"greenText\">Good choice!</span>  This bee would have stung you.<br>Your bonus pay is unchanged, and remains at $1.10.</p>\n            ","response":0,"trial_type":"html-button-response","trial_index":108,"time_elapsed":2180556,"internal_node_id":"0.0-4.0-1.50","subject_id":"615373f88839471e0ab77399","study_id":"6197b3f67c2b5cd3b6d9596a","session_id":"619bfbde9196daaf4686adc6","condition":"full-information","relevant_dimensions":["antennae","legs"],"bee_group":{"antennae":"A","wings":"X","pattern":"X","legs":"M"},"bonus":1.7800000000000011},{"rt":783.6000000014901,"stimulus":"bees-with-color/bee-A2SF.svg","response":0,"trial_type":"image-button-response","trial_index":109,"time_elapsed":2181340,"internal_node_id":"0.0-4.0-0.51","subject_id":"615373f88839471e0ab77399","study_id":"6197b3f67c2b5cd3b6d9596a","session_id":"619bfbde9196daaf4686adc6","condition":"full-information","relevant_dimensions":["antennae","legs"],"bee_group":{"antennae":"A","wings":"X","pattern":"X","legs":"M"},"action":"harvest","summary":"good-harvest","bonus":1.7800000000000011},{"rt":1018.5,"stimulus":"\n                    <p><b>Action: <em>harvest</em></b></p>\n                    <p>This is the bee that you just saw.</p>\n                    <img src=\"bees-with-color/bee-A2SF.svg\" width=\"200\">\n                    <p><span class=\"greenText\"><b>Successful harvest!</b></span><br>Your pay has increased by $0.02. Your bonus pay is now $1.12.</p>\n            ","response":0,"trial_type":"html-button-response","trial_index":110,"time_elapsed":2182360,"internal_node_id":"0.0-4.0-1.51","subject_id":"615373f88839471e0ab77399","study_id":"6197b3f67c2b5cd3b6d9596a","session_id":"619bfbde9196daaf4686adc6","condition":"full-information","relevant_dimensions":["antennae","legs"],"bee_group":{"antennae":"A","wings":"X","pattern":"X","legs":"M"},"bonus":1.7800000000000011},{"rt":1143.3999999985099,"stimulus":"bees-with-color/bee-B1SM.svg","response":0,"trial_type":"image-button-response","trial_index":111,"time_elapsed":2183504,"internal_node_id":"0.0-4.0-0.52","subject_id":"615373f88839471e0ab77399","study_id":"6197b3f67c2b5cd3b6d9596a","session_id":"619bfbde9196daaf4686adc6","condition":"full-information","relevant_dimensions":["antennae","legs"],"bee_group":{"antennae":"A","wings":"X","pattern":"X","legs":"M"},"action":"harvest","summary":"good-harvest","bonus":1.7800000000000011},{"rt":667.1000000014901,"stimulus":"\n                    <p><b>Action: <em>harvest</em></b></p>\n                    <p>This is the bee that you just saw.</p>\n                    <img src=\"bees-with-color/bee-B1SM.svg\" width=\"200\">\n                    <p><span class=\"greenText\"><b>Successful harvest!</b></span><br>Your pay has increased by $0.02. Your bonus pay is now $1.14.</p>\n            ","response":0,"trial_type":"html-button-response","trial_index":112,"time_elapsed":2184172,"internal_node_id":"0.0-4.0-1.52","subject_id":"615373f88839471e0ab77399","study_id":"6197b3f67c2b5cd3b6d9596a","session_id":"619bfbde9196daaf4686adc6","condition":"full-information","relevant_dimensions":["antennae","legs"],"bee_group":{"antennae":"A","wings":"X","pattern":"X","legs":"M"},"bonus":1.7800000000000011},{"rt":1242.8999999985099,"stimulus":"bees-with-color/bee-A1SF.svg","response":0,"trial_type":"image-button-response","trial_index":113,"time_elapsed":2185416,"internal_node_id":"0.0-4.0-0.53","subject_id":"615373f88839471e0ab77399","study_id":"6197b3f67c2b5cd3b6d9596a","session_id":"619bfbde9196daaf4686adc6","condition":"full-information","relevant_dimensions":["antennae","legs"],"bee_group":{"antennae":"A","wings":"X","pattern":"X","legs":"M"},"action":"harvest","summary":"good-harvest","bonus":1.7800000000000011},{"rt":603,"stimulus":"\n                    <p><b>Action: <em>harvest</em></b></p>\n                    <p>This is the bee that you just saw.</p>\n                    <img src=\"bees-with-color/bee-A1SF.svg\" width=\"200\">\n                    <p><span class=\"greenText\"><b>Successful harvest!</b></span><br>Your pay has increased by $0.02. Your bonus pay is now $1.16.</p>\n            ","response":0,"trial_type":"html-button-response","trial_index":114,"time_elapsed":2186020,"internal_node_id":"0.0-4.0-1.53","subject_id":"615373f88839471e0ab77399","study_id":"6197b3f67c2b5cd3b6d9596a","session_id":"619bfbde9196daaf4686adc6","condition":"full-information","relevant_dimensions":["antennae","legs"],"bee_group":{"antennae":"A","wings":"X","pattern":"X","legs":"M"},"bonus":1.7800000000000011},{"rt":1203.8999999985099,"stimulus":"bees-with-color/bee-A1SM.svg","response":1,"trial_type":"image-button-response","trial_index":115,"time_elapsed":2187224,"internal_node_id":"0.0-4.0-0.54","subject_id":"615373f88839471e0ab77399","study_id":"6197b3f67c2b5cd3b6d9596a","session_id":"619bfbde9196daaf4686adc6","condition":"full-information","relevant_dimensions":["antennae","legs"],"bee_group":{"antennae":"A","wings":"X","pattern":"X","legs":"M"},"action":"avoid","summary":"good-avoid","bonus":1.7800000000000011},{"rt":510.5,"stimulus":"\n                    <p><b>Action: <em>avoid</em></b></p>\n                    <p>This is the bee that you just saw.</p>\n                    <img src=\"bees-with-color/bee-A1SM.svg\" width=\"200\">\n                    <p><span class=\"greenText\">Good choice!</span>  This bee would have stung you.<br>Your bonus pay is unchanged, and remains at $1.16.</p>\n            ","response":0,"trial_type":"html-button-response","trial_index":116,"time_elapsed":2187736,"internal_node_id":"0.0-4.0-1.54","subject_id":"615373f88839471e0ab77399","study_id":"6197b3f67c2b5cd3b6d9596a","session_id":"619bfbde9196daaf4686adc6","condition":"full-information","relevant_dimensions":["antennae","legs"],"bee_group":{"antennae":"A","wings":"X","pattern":"X","legs":"M"},"bonus":1.7800000000000011},{"rt":1364.3000000044703,"stimulus":"bees-with-color/bee-B1DM.svg","response":0,"trial_type":"image-button-response","trial_index":117,"time_elapsed":2189100,"internal_node_id":"0.0-4.0-0.55","subject_id":"615373f88839471e0ab77399","study_id":"6197b3f67c2b5cd3b6d9596a","session_id":"619bfbde9196daaf4686adc6","condition":"full-information","relevant_dimensions":["antennae","legs"],"bee_group":{"antennae":"A","wings":"X","pattern":"X","legs":"M"},"action":"harvest","summary":"good-harvest","bonus":1.7800000000000011},{"rt":547.6000000014901,"stimulus":"\n                    <p><b>Action: <em>harvest</em></b></p>\n                    <p>This is the bee that you just saw.</p>\n                    <img src=\"bees-with-color/bee-B1DM.svg\" width=\"200\">\n                    <p><span class=\"greenText\"><b>Successful harvest!</b></span><br>Your pay has increased by $0.02. Your bonus pay is now $1.18.</p>\n            ","response":0,"trial_type":"html-button-response","trial_index":118,"time_elapsed":2189648,"internal_node_id":"0.0-4.0-1.55","subject_id":"615373f88839471e0ab77399","study_id":"6197b3f67c2b5cd3b6d9596a","session_id":"619bfbde9196daaf4686adc6","condition":"full-information","relevant_dimensions":["antennae","legs"],"bee_group":{"antennae":"A","wings":"X","pattern":"X","legs":"M"},"bonus":1.7800000000000011},{"rt":931.3000000044703,"stimulus":"bees-with-color/bee-B1DF.svg","response":0,"trial_type":"image-button-response","trial_index":119,"time_elapsed":2190581,"internal_node_id":"0.0-4.0-0.56","subject_id":"615373f88839471e0ab77399","study_id":"6197b3f67c2b5cd3b6d9596a","session_id":"619bfbde9196daaf4686adc6","condition":"full-information","relevant_dimensions":["antennae","legs"],"bee_group":{"antennae":"A","wings":"X","pattern":"X","legs":"M"},"action":"harvest","summary":"good-harvest","bonus":1.7800000000000011},{"rt":530.9000000059605,"stimulus":"\n                    <p><b>Action: <em>harvest</em></b></p>\n                    <p>This is the bee that you just saw.</p>\n                    <img src=\"bees-with-color/bee-B1DF.svg\" width=\"200\">\n                    <p><span class=\"greenText\"><b>Successful harvest!</b></span><br>Your pay has increased by $0.02. Your bonus pay is now $1.20.</p>\n            ","response":0,"trial_type":"html-button-response","trial_index":120,"time_elapsed":2191113,"internal_node_id":"0.0-4.0-1.56","subject_id":"615373f88839471e0ab77399","study_id":"6197b3f67c2b5cd3b6d9596a","session_id":"619bfbde9196daaf4686adc6","condition":"full-information","relevant_dimensions":["antennae","legs"],"bee_group":{"antennae":"A","wings":"X","pattern":"X","legs":"M"},"bonus":1.7800000000000011},{"rt":918.6000000014901,"stimulus":"bees-with-color/bee-A2DF.svg","response":0,"trial_type":"image-button-response","trial_index":121,"time_elapsed":2192033,"internal_node_id":"0.0-4.0-0.57","subject_id":"615373f88839471e0ab77399","study_id":"6197b3f67c2b5cd3b6d9596a","session_id":"619bfbde9196daaf4686adc6","condition":"full-information","relevant_dimensions":["antennae","legs"],"bee_group":{"antennae":"A","wings":"X","pattern":"X","legs":"M"},"action":"harvest","summary":"good-harvest","bonus":1.7800000000000011},{"rt":994.4000000059605,"stimulus":"\n                    <p><b>Action: <em>harvest</em></b></p>\n                    <p>This is the bee that you just saw.</p>\n                    <img src=\"bees-with-color/bee-A2DF.svg\" width=\"200\">\n                    <p><span class=\"greenText\"><b>Successful harvest!</b></span><br>Your pay has increased by $0.02. Your bonus pay is now $1.22.</p>\n            ","response":0,"trial_type":"html-button-response","trial_index":122,"time_elapsed":2193028,"internal_node_id":"0.0-4.0-1.57","subject_id":"615373f88839471e0ab77399","study_id":"6197b3f67c2b5cd3b6d9596a","session_id":"619bfbde9196daaf4686adc6","condition":"full-information","relevant_dimensions":["antennae","legs"],"bee_group":{"antennae":"A","wings":"X","pattern":"X","legs":"M"},"bonus":1.7800000000000011},{"rt":963.5,"stimulus":"bees-with-color/bee-A2DM.svg","response":1,"trial_type":"image-button-response","trial_index":123,"time_elapsed":2193992,"internal_node_id":"0.0-4.0-0.58","subject_id":"615373f88839471e0ab77399","study_id":"6197b3f67c2b5cd3b6d9596a","session_id":"619bfbde9196daaf4686adc6","condition":"full-information","relevant_dimensions":["antennae","legs"],"bee_group":{"antennae":"A","wings":"X","pattern":"X","legs":"M"},"action":"avoid","summary":"good-avoid","bonus":1.7800000000000011},{"rt":718.7999999970198,"stimulus":"\n                    <p><b>Action: <em>avoid</em></b></p>\n                    <p>This is the bee that you just saw.</p>\n                    <img src=\"bees-with-color/bee-A2DM.svg\" width=\"200\">\n                    <p><span class=\"greenText\">Good choice!</span>  This bee would have stung you.<br>Your bonus pay is unchanged, and remains at $1.22.</p>\n            ","response":0,"trial_type":"html-button-response","trial_index":124,"time_elapsed":2194712,"internal_node_id":"0.0-4.0-1.58","subject_id":"615373f88839471e0ab77399","study_id":"6197b3f67c2b5cd3b6d9596a","session_id":"619bfbde9196daaf4686adc6","condition":"full-information","relevant_dimensions":["antennae","legs"],"bee_group":{"antennae":"A","wings":"X","pattern":"X","legs":"M"},"bonus":1.7800000000000011},{"rt":843.5,"stimulus":"bees-with-color/bee-B2SF.svg","response":0,"trial_type":"image-button-response","trial_index":125,"time_elapsed":2195557,"internal_node_id":"0.0-4.0-0.59","subject_id":"615373f88839471e0ab77399","study_id":"6197b3f67c2b5cd3b6d9596a","session_id":"619bfbde9196daaf4686adc6","condition":"full-information","relevant_dimensions":["antennae","legs"],"bee_group":{"antennae":"A","wings":"X","pattern":"X","legs":"M"},"action":"harvest","summary":"good-harvest","bonus":1.7800000000000011},{"rt":559.2000000029802,"stimulus":"\n                    <p><b>Action: <em>harvest</em></b></p>\n                    <p>This is the bee that you just saw.</p>\n                    <img src=\"bees-with-color/bee-B2SF.svg\" width=\"200\">\n                    <p><span class=\"greenText\"><b>Successful harvest!</b></span><br>Your pay has increased by $0.02. Your bonus pay is now $1.24.</p>\n            ","response":0,"trial_type":"html-button-response","trial_index":126,"time_elapsed":2196117,"internal_node_id":"0.0-4.0-1.59","subject_id":"615373f88839471e0ab77399","study_id":"6197b3f67c2b5cd3b6d9596a","session_id":"619bfbde9196daaf4686adc6","condition":"full-information","relevant_dimensions":["antennae","legs"],"bee_group":{"antennae":"A","wings":"X","pattern":"X","legs":"M"},"bonus":1.7800000000000011},{"rt":1090.3000000044703,"stimulus":"bees-with-color/bee-B2SM.svg","response":0,"trial_type":"image-button-response","trial_index":127,"time_elapsed":2197208,"internal_node_id":"0.0-4.0-0.60","subject_id":"615373f88839471e0ab77399","study_id":"6197b3f67c2b5cd3b6d9596a","session_id":"619bfbde9196daaf4686adc6","condition":"full-information","relevant_dimensions":["antennae","legs"],"bee_group":{"antennae":"A","wings":"X","pattern":"X","legs":"M"},"action":"harvest","summary":"good-harvest","bonus":1.7800000000000011},{"rt":571.7000000029802,"stimulus":"\n                    <p><b>Action: <em>harvest</em></b></p>\n                    <p>This is the bee that you just saw.</p>\n                    <img src=\"bees-with-color/bee-B2SM.svg\" width=\"200\">\n                    <p><span class=\"greenText\"><b>Successful harvest!</b></span><br>Your pay has increased by $0.02. Your bonus pay is now $1.26.</p>\n            ","response":0,"trial_type":"html-button-response","trial_index":128,"time_elapsed":2197780,"internal_node_id":"0.0-4.0-1.60","subject_id":"615373f88839471e0ab77399","study_id":"6197b3f67c2b5cd3b6d9596a","session_id":"619bfbde9196daaf4686adc6","condition":"full-information","relevant_dimensions":["antennae","legs"],"bee_group":{"antennae":"A","wings":"X","pattern":"X","legs":"M"},"bonus":1.7800000000000011},{"rt":1419.1999999955297,"stimulus":"bees-with-color/bee-A1DM.svg","response":1,"trial_type":"image-button-response","trial_index":129,"time_elapsed":2199200,"internal_node_id":"0.0-4.0-0.61","subject_id":"615373f88839471e0ab77399","study_id":"6197b3f67c2b5cd3b6d9596a","session_id":"619bfbde9196daaf4686adc6","condition":"full-information","relevant_dimensions":["antennae","legs"],"bee_group":{"antennae":"A","wings":"X","pattern":"X","legs":"M"},"action":"avoid","summary":"good-avoid","bonus":1.7800000000000011},{"rt":523.7000000029802,"stimulus":"\n                    <p><b>Action: <em>avoid</em></b></p>\n                    <p>This is the bee that you just saw.</p>\n                    <img src=\"bees-with-color/bee-A1DM.svg\" width=\"200\">\n                    <p><span class=\"greenText\">Good choice!</span>  This bee would have stung you.<br>Your bonus pay is unchanged, and remains at $1.26.</p>\n            ","response":0,"trial_type":"html-button-response","trial_index":130,"time_elapsed":2199725,"internal_node_id":"0.0-4.0-1.61","subject_id":"615373f88839471e0ab77399","study_id":"6197b3f67c2b5cd3b6d9596a","session_id":"619bfbde9196daaf4686adc6","condition":"full-information","relevant_dimensions":["antennae","legs"],"bee_group":{"antennae":"A","wings":"X","pattern":"X","legs":"M"},"bonus":1.7800000000000011},{"rt":1322.5999999940395,"stimulus":"bees-with-color/bee-B1SF.svg","response":0,"trial_type":"image-button-response","trial_index":131,"time_elapsed":2201048,"internal_node_id":"0.0-4.0-0.62","subject_id":"615373f88839471e0ab77399","study_id":"6197b3f67c2b5cd3b6d9596a","session_id":"619bfbde9196daaf4686adc6","condition":"full-information","relevant_dimensions":["antennae","legs"],"bee_group":{"antennae":"A","wings":"X","pattern":"X","legs":"M"},"action":"harvest","summary":"good-harvest","bonus":1.7800000000000011},{"rt":759.7000000029802,"stimulus":"\n                    <p><b>Action: <em>harvest</em></b></p>\n                    <p>This is the bee that you just saw.</p>\n                    <img src=\"bees-with-color/bee-B1SF.svg\" width=\"200\">\n                    <p><span class=\"greenText\"><b>Successful harvest!</b></span><br>Your pay has increased by $0.02. Your bonus pay is now $1.28.</p>\n            ","response":0,"trial_type":"html-button-response","trial_index":132,"time_elapsed":2201809,"internal_node_id":"0.0-4.0-1.62","subject_id":"615373f88839471e0ab77399","study_id":"6197b3f67c2b5cd3b6d9596a","session_id":"619bfbde9196daaf4686adc6","condition":"full-information","relevant_dimensions":["antennae","legs"],"bee_group":{"antennae":"A","wings":"X","pattern":"X","legs":"M"},"bonus":1.7800000000000011},{"rt":867.4000000059605,"stimulus":"bees-with-color/bee-B2DF.svg","response":0,"trial_type":"image-button-response","trial_index":133,"time_elapsed":2202677,"internal_node_id":"0.0-4.0-0.63","subject_id":"615373f88839471e0ab77399","study_id":"6197b3f67c2b5cd3b6d9596a","session_id":"619bfbde9196daaf4686adc6","condition":"full-information","relevant_dimensions":["antennae","legs"],"bee_group":{"antennae":"A","wings":"X","pattern":"X","legs":"M"},"action":"harvest","summary":"good-harvest","bonus":1.7800000000000011},{"rt":616.1000000014901,"stimulus":"\n                    <p><b>Action: <em>harvest</em></b></p>\n                    <p>This is the bee that you just saw.</p>\n                    <img src=\"bees-with-color/bee-B2DF.svg\" width=\"200\">\n                    <p><span class=\"greenText\"><b>Successful harvest!</b></span><br>Your pay has increased by $0.02. Your bonus pay is now $1.30.</p>\n            ","response":0,"trial_type":"html-button-response","trial_index":134,"time_elapsed":2203294,"internal_node_id":"0.0-4.0-1.63","subject_id":"615373f88839471e0ab77399","study_id":"6197b3f67c2b5cd3b6d9596a","session_id":"619bfbde9196daaf4686adc6","condition":"full-information","relevant_dimensions":["antennae","legs"],"bee_group":{"antennae":"A","wings":"X","pattern":"X","legs":"M"},"bonus":1.7800000000000011},{"rt":12807.10000000149,"stimulus":"You have completed the first part of this experiment.<br><br>You will now begin a shorter second part, in which you will receive no feedback.<br>The same rules regarding bonus pay apply.<br><br>Press any key to begin.","response":"h","trial_type":"html-keyboard-response","trial_index":135,"time_elapsed":2216102,"internal_node_id":"0.0-5.0","subject_id":"615373f88839471e0ab77399","study_id":"6197b3f67c2b5cd3b6d9596a","session_id":"619bfbde9196daaf4686adc6","condition":"full-information","relevant_dimensions":["antennae","legs"],"bee_group":{"antennae":"A","wings":"X","pattern":"X","legs":"M"},"bonus":1.7800000000000011},{"rt":1858.7000000029802,"stimulus":"bees-with-color/bee-A2SF.svg","response":0,"trial_type":"image-button-response","trial_index":136,"time_elapsed":2217965,"internal_node_id":"0.0-6.0-0.0","subject_id":"615373f88839471e0ab77399","study_id":"6197b3f67c2b5cd3b6d9596a","session_id":"619bfbde9196daaf4686adc6","condition":"full-information","relevant_dimensions":["antennae","legs"],"bee_group":{"antennae":"A","wings":"X","pattern":"X","legs":"M"},"bonus":1.7800000000000011},{"rt":1706.5,"stimulus":"bees-with-color/bee-A1SF.svg","response":0,"trial_type":"image-button-response","trial_index":137,"time_elapsed":2219673,"internal_node_id":"0.0-6.0-0.1","subject_id":"615373f88839471e0ab77399","study_id":"6197b3f67c2b5cd3b6d9596a","session_id":"619bfbde9196daaf4686adc6","condition":"full-information","relevant_dimensions":["antennae","legs"],"bee_group":{"antennae":"A","wings":"X","pattern":"X","legs":"M"},"bonus":1.7800000000000011},{"rt":978.2999999970198,"stimulus":"bees-with-color/bee-B1SM.svg","response":0,"trial_type":"image-button-response","trial_index":138,"time_elapsed":2220652,"internal_node_id":"0.0-6.0-0.2","subject_id":"615373f88839471e0ab77399","study_id":"6197b3f67c2b5cd3b6d9596a","session_id":"619bfbde9196daaf4686adc6","condition":"full-information","relevant_dimensions":["antennae","legs"],"bee_group":{"antennae":"A","wings":"X","pattern":"X","legs":"M"},"bonus":1.7800000000000011},{"rt":1259.1000000014901,"stimulus":"bees-with-color/bee-A1DM.svg","response":1,"trial_type":"image-button-response","trial_index":139,"time_elapsed":2221912,"internal_node_id":"0.0-6.0-0.3","subject_id":"615373f88839471e0ab77399","study_id":"6197b3f67c2b5cd3b6d9596a","session_id":"619bfbde9196daaf4686adc6","condition":"full-information","relevant_dimensions":["antennae","legs"],"bee_group":{"antennae":"A","wings":"X","pattern":"X","legs":"M"},"bonus":1.7800000000000011},{"rt":1282.5,"stimulus":"bees-with-color/bee-B2DM.svg","response":0,"trial_type":"image-button-response","trial_index":140,"time_elapsed":2223196,"internal_node_id":"0.0-6.0-0.4","subject_id":"615373f88839471e0ab77399","study_id":"6197b3f67c2b5cd3b6d9596a","session_id":"619bfbde9196daaf4686adc6","condition":"full-information","relevant_dimensions":["antennae","legs"],"bee_group":{"antennae":"A","wings":"X","pattern":"X","legs":"M"},"bonus":1.7800000000000011},{"rt":974.5,"stimulus":"bees-with-color/bee-B1DM.svg","response":0,"trial_type":"image-button-response","trial_index":141,"time_elapsed":2224173,"internal_node_id":"0.0-6.0-0.5","subject_id":"615373f88839471e0ab77399","study_id":"6197b3f67c2b5cd3b6d9596a","session_id":"619bfbde9196daaf4686adc6","condition":"full-information","relevant_dimensions":["antennae","legs"],"bee_group":{"antennae":"A","wings":"X","pattern":"X","legs":"M"},"bonus":1.7800000000000011},{"rt":1430,"stimulus":"bees-with-color/bee-B1SF.svg","response":0,"trial_type":"image-button-response","trial_index":142,"time_elapsed":2225604,"internal_node_id":"0.0-6.0-0.6","subject_id":"615373f88839471e0ab77399","study_id":"6197b3f67c2b5cd3b6d9596a","session_id":"619bfbde9196daaf4686adc6","condition":"full-information","relevant_dimensions":["antennae","legs"],"bee_group":{"antennae":"A","wings":"X","pattern":"X","legs":"M"},"bonus":1.7800000000000011},{"rt":1118.6000000014901,"stimulus":"bees-with-color/bee-A2DM.svg","response":1,"trial_type":"image-button-response","trial_index":143,"time_elapsed":2226724,"internal_node_id":"0.0-6.0-0.7","subject_id":"615373f88839471e0ab77399","study_id":"6197b3f67c2b5cd3b6d9596a","session_id":"619bfbde9196daaf4686adc6","condition":"full-information","relevant_dimensions":["antennae","legs"],"bee_group":{"antennae":"A","wings":"X","pattern":"X","legs":"M"},"bonus":1.7800000000000011},{"rt":1089.6000000014901,"stimulus":"bees-with-color/bee-A2DF.svg","response":0,"trial_type":"image-button-response","trial_index":144,"time_elapsed":2227815,"internal_node_id":"0.0-6.0-0.8","subject_id":"615373f88839471e0ab77399","study_id":"6197b3f67c2b5cd3b6d9596a","session_id":"619bfbde9196daaf4686adc6","condition":"full-information","relevant_dimensions":["antennae","legs"],"bee_group":{"antennae":"A","wings":"X","pattern":"X","legs":"M"},"bonus":1.7800000000000011},{"rt":1228.1000000014901,"stimulus":"bees-with-color/bee-B2SF.svg","response":0,"trial_type":"image-button-response","trial_index":145,"time_elapsed":2229044,"internal_node_id":"0.0-6.0-0.9","subject_id":"615373f88839471e0ab77399","study_id":"6197b3f67c2b5cd3b6d9596a","session_id":"619bfbde9196daaf4686adc6","condition":"full-information","relevant_dimensions":["antennae","legs"],"bee_group":{"antennae":"A","wings":"X","pattern":"X","legs":"M"},"bonus":1.7800000000000011},{"rt":847.3999999985099,"stimulus":"bees-with-color/bee-A1DF.svg","response":0,"trial_type":"image-button-response","trial_index":146,"time_elapsed":2229893,"internal_node_id":"0.0-6.0-0.10","subject_id":"615373f88839471e0ab77399","study_id":"6197b3f67c2b5cd3b6d9596a","session_id":"619bfbde9196daaf4686adc6","condition":"full-information","relevant_dimensions":["antennae","legs"],"bee_group":{"antennae":"A","wings":"X","pattern":"X","legs":"M"},"bonus":1.7800000000000011},{"rt":882.8999999985099,"stimulus":"bees-with-color/bee-B1DF.svg","response":0,"trial_type":"image-button-response","trial_index":147,"time_elapsed":2230777,"internal_node_id":"0.0-6.0-0.11","subject_id":"615373f88839471e0ab77399","study_id":"6197b3f67c2b5cd3b6d9596a","session_id":"619bfbde9196daaf4686adc6","condition":"full-information","relevant_dimensions":["antennae","legs"],"bee_group":{"antennae":"A","wings":"X","pattern":"X","legs":"M"},"bonus":1.7800000000000011},{"rt":1122.7999999970198,"stimulus":"bees-with-color/bee-A1SM.svg","response":1,"trial_type":"image-button-response","trial_index":148,"time_elapsed":2231901,"internal_node_id":"0.0-6.0-0.12","subject_id":"615373f88839471e0ab77399","study_id":"6197b3f67c2b5cd3b6d9596a","session_id":"619bfbde9196daaf4686adc6","condition":"full-information","relevant_dimensions":["antennae","legs"],"bee_group":{"antennae":"A","wings":"X","pattern":"X","legs":"M"},"bonus":1.7800000000000011},{"rt":1046.5,"stimulus":"bees-with-color/bee-B2SM.svg","response":0,"trial_type":"image-button-response","trial_index":149,"time_elapsed":2232948,"internal_node_id":"0.0-6.0-0.13","subject_id":"615373f88839471e0ab77399","study_id":"6197b3f67c2b5cd3b6d9596a","session_id":"619bfbde9196daaf4686adc6","condition":"full-information","relevant_dimensions":["antennae","legs"],"bee_group":{"antennae":"A","wings":"X","pattern":"X","legs":"M"},"bonus":1.7800000000000011},{"rt":934,"stimulus":"bees-with-color/bee-A2SM.svg","response":1,"trial_type":"image-button-response","trial_index":150,"time_elapsed":2233884,"internal_node_id":"0.0-6.0-0.14","subject_id":"615373f88839471e0ab77399","study_id":"6197b3f67c2b5cd3b6d9596a","session_id":"619bfbde9196daaf4686adc6","condition":"full-information","relevant_dimensions":["antennae","legs"],"bee_group":{"antennae":"A","wings":"X","pattern":"X","legs":"M"},"bonus":1.7800000000000011},{"rt":735.5,"stimulus":"bees-with-color/bee-B2DF.svg","response":0,"trial_type":"image-button-response","trial_index":151,"time_elapsed":2234620,"internal_node_id":"0.0-6.0-0.15","subject_id":"615373f88839471e0ab77399","study_id":"6197b3f67c2b5cd3b6d9596a","session_id":"619bfbde9196daaf4686adc6","condition":"full-information","relevant_dimensions":["antennae","legs"],"bee_group":{"antennae":"A","wings":"X","pattern":"X","legs":"M"},"bonus":1.7800000000000011},{"rt":759.3999999985099,"stimulus":"bees-with-color/bee-A1DF.svg","response":0,"trial_type":"image-button-response","trial_index":152,"time_elapsed":2235380,"internal_node_id":"0.0-6.0-0.16","subject_id":"615373f88839471e0ab77399","study_id":"6197b3f67c2b5cd3b6d9596a","session_id":"619bfbde9196daaf4686adc6","condition":"full-information","relevant_dimensions":["antennae","legs"],"bee_group":{"antennae":"A","wings":"X","pattern":"X","legs":"M"},"bonus":1.7800000000000011},{"rt":906.6999999955297,"stimulus":"bees-with-color/bee-A1SF.svg","response":0,"trial_type":"image-button-response","trial_index":153,"time_elapsed":2236288,"internal_node_id":"0.0-6.0-0.17","subject_id":"615373f88839471e0ab77399","study_id":"6197b3f67c2b5cd3b6d9596a","session_id":"619bfbde9196daaf4686adc6","condition":"full-information","relevant_dimensions":["antennae","legs"],"bee_group":{"antennae":"A","wings":"X","pattern":"X","legs":"M"},"bonus":1.7800000000000011},{"rt":671.0999999940395,"stimulus":"bees-with-color/bee-B1SF.svg","response":0,"trial_type":"image-button-response","trial_index":154,"time_elapsed":2236961,"internal_node_id":"0.0-6.0-0.18","subject_id":"615373f88839471e0ab77399","study_id":"6197b3f67c2b5cd3b6d9596a","session_id":"619bfbde9196daaf4686adc6","condition":"full-information","relevant_dimensions":["antennae","legs"],"bee_group":{"antennae":"A","wings":"X","pattern":"X","legs":"M"},"bonus":1.7800000000000011},{"rt":886.5,"stimulus":"bees-with-color/bee-A2DM.svg","response":1,"trial_type":"image-button-response","trial_index":155,"time_elapsed":2237848,"internal_node_id":"0.0-6.0-0.19","subject_id":"615373f88839471e0ab77399","study_id":"6197b3f67c2b5cd3b6d9596a","session_id":"619bfbde9196daaf4686adc6","condition":"full-information","relevant_dimensions":["antennae","legs"],"bee_group":{"antennae":"A","wings":"X","pattern":"X","legs":"M"},"bonus":1.7800000000000011},{"rt":1018.3999999985099,"stimulus":"bees-with-color/bee-A1SM.svg","response":1,"trial_type":"image-button-response","trial_index":156,"time_elapsed":2238868,"internal_node_id":"0.0-6.0-0.20","subject_id":"615373f88839471e0ab77399","study_id":"6197b3f67c2b5cd3b6d9596a","session_id":"619bfbde9196daaf4686adc6","condition":"full-information","relevant_dimensions":["antennae","legs"],"bee_group":{"antennae":"A","wings":"X","pattern":"X","legs":"M"},"bonus":1.7800000000000011},{"rt":707.5,"stimulus":"bees-with-color/bee-B2SF.svg","response":0,"trial_type":"image-button-response","trial_index":157,"time_elapsed":2239577,"internal_node_id":"0.0-6.0-0.21","subject_id":"615373f88839471e0ab77399","study_id":"6197b3f67c2b5cd3b6d9596a"