[{"success":true,"trial_type":"fullscreen","trial_index":0,"time_elapsed":3903,"internal_node_id":"0.0-0.0","subject_id":"5f9261c7e1a8d117eadb3ba9","study_id":"60edd13110225f80f9f3709b","session_id":"6196c708b633ae8b44261b90","condition":"contingent","relevant_dimensions":["pattern","legs"],"bee_group":{"antennae":"X","wings":"X","pattern":"D","legs":"M"},"bonus":1.3600000000000012},{"success":true,"timeout":false,"failed_images":[],"failed_audio":[],"failed_video":[],"trial_type":"preload","trial_index":1,"time_elapsed":5438,"internal_node_id":"0.0-1.0","subject_id":"5f9261c7e1a8d117eadb3ba9","study_id":"60edd13110225f80f9f3709b","session_id":"6196c708b633ae8b44261b90","condition":"contingent","relevant_dimensions":["pattern","legs"],"bee_group":{"antennae":"X","wings":"X","pattern":"D","legs":"M"},"bonus":1.3600000000000012},{"rt":1755,"stimulus":"Welcome! Press any key to begin.","response":"enter","trial_type":"html-keyboard-response","trial_index":2,"time_elapsed":7194,"internal_node_id":"0.0-2.0","subject_id":"5f9261c7e1a8d117eadb3ba9","study_id":"60edd13110225f80f9f3709b","session_id":"6196c708b633ae8b44261b90","condition":"contingent","relevant_dimensions":["pattern","legs"],"bee_group":{"antennae":"X","wings":"X","pattern":"D","legs":"M"},"bonus":1.3600000000000012},{"view_history":[{"page_index":0,"viewing_time":1719.4000000953674},{"page_index":1,"viewing_time":8980.699999928474},{"page_index":2,"viewing_time":8904.700000047684},{"page_index":3,"viewing_time":9605.600000023842},{"page_index":4,"viewing_time":3884.1999999284744},{"page_index":5,"viewing_time":3168},{"page_index":6,"viewing_time":4197.600000023842},{"page_index":7,"viewing_time":3452.7999999523163},{"page_index":8,"viewing_time":2229.7000000476837},{"page_index":9,"viewing_time":1221.8999999761581},{"page_index":10,"viewing_time":1299.3999999761581},{"page_index":11,"viewing_time":4538.800000071526},{"page_index":12,"viewing_time":4129.199999928474},{"page_index":13,"viewing_time":952.8000000715256},{"page_index":14,"viewing_time":1088}],"rt":59373.40000009537,"trial_type":"instructions","trial_index":3,"time_elapsed":66569,"internal_node_id":"0.0-3.0-0.0","subject_id":"5f9261c7e1a8d117eadb3ba9","study_id":"60edd13110225f80f9f3709b","session_id":"6196c708b633ae8b44261b90","condition":"contingent","relevant_dimensions":["pattern","legs"],"bee_group":{"antennae":"X","wings":"X","pattern":"D","legs":"M"},"bonus":1.3600000000000012},{"rt":8754.899999976158,"response":{"Q0":["Two or six legs","Stripes or spots on body","Single or double wings","Antennae or no antennae"]},"question_order":[0],"trial_type":"survey-multi-select","trial_index":4,"time_elapsed":75332,"internal_node_id":"0.0-3.0-1.0","subject_id":"5f9261c7e1a8d117eadb3ba9","study_id":"60edd13110225f80f9f3709b","session_id":"6196c708b633ae8b44261b90","condition":"contingent","relevant_dimensions":["pattern","legs"],"bee_group":{"antennae":"X","wings":"X","pattern":"D","legs":"M"},"correct":true,"bonus":1.3600000000000012},{"rt":13767.800000071526,"response":{"Q1":"No.","Q2":"Based on the four features of the bee.","Q3":"You do not learn if it was friendly or dangerous, and do not alter your bonus."},"question_order":[0,1,2],"trial_type":"survey-multi-choice","trial_index":5,"time_elapsed":89105,"internal_node_id":"0.0-3.0-2.0","subject_id":"5f9261c7e1a8d117eadb3ba9","study_id":"60edd13110225f80f9f3709b","session_id":"6196c708b633ae8b44261b90","condition":"contingent","relevant_dimensions":["pattern","legs"],"bee_group":{"antennae":"X","wings":"X","pattern":"D","legs":"M"},"correct":true,"bonus":1.3600000000000012},{"rt":1364.8000000715256,"stimulus":"<p>Congrats, you got everything right<br>When you're ready, click the button below to continue to the experiment.</p>","response":0,"trial_type":"html-button-response","trial_index":6,"time_elapsed":90475,"internal_node_id":"0.0-3.0-3.0","subject_id":"5f9261c7e1a8d117eadb3ba9","study_id":"60edd13110225f80f9f3709b","session_id":"6196c708b633ae8b44261b90","condition":"contingent","relevant_dimensions":["pattern","legs"],"bee_group":{"antennae":"X","wings":"X","pattern":"D","legs":"M"},"bonus":1.3600000000000012},{"rt":3652.5,"stimulus":"bees-with-color/bee-B2DM.svg","response":1,"trial_type":"image-button-response","trial_index":7,"time_elapsed":94131,"internal_node_id":"0.0-4.0-0.0","subject_id":"5f9261c7e1a8d117eadb3ba9","study_id":"60edd13110225f80f9f3709b","session_id":"6196c708b633ae8b44261b90","condition":"contingent","relevant_dimensions":["pattern","legs"],"bee_group":{"antennae":"X","wings":"X","pattern":"D","legs":"M"},"action":"avoid","summary":"good-avoid","bonus":1.3600000000000012},{"rt":4291.800000071526,"stimulus":"\n                    <p><b>Action: <em>avoid</em></b></p>\n                    <p>This is the bee that you just saw.</p>\n                    <img src=\"bees-with-color/bee-B2DM.svg\" width=\"200\">\n                    <p><br>Your bonus pay is unchanged, and remains at $0.54.</p>\n            ","response":0,"trial_type":"html-button-response","trial_index":8,"time_elapsed":98426,"internal_node_id":"0.0-4.0-1.0","subject_id":"5f9261c7e1a8d117eadb3ba9","study_id":"60edd13110225f80f9f3709b","session_id":"6196c708b633ae8b44261b90","condition":"contingent","relevant_dimensions":["pattern","legs"],"bee_group":{"antennae":"X","wings":"X","pattern":"D","legs":"M"},"bonus":1.3600000000000012},{"rt":926.7000000476837,"stimulus":"bees-with-color/bee-A2SM.svg","response":0,"trial_type":"image-button-response","trial_index":9,"time_elapsed":99355,"internal_node_id":"0.0-4.0-0.1","subject_id":"5f9261c7e1a8d117eadb3ba9","study_id":"60edd13110225f80f9f3709b","session_id":"6196c708b633ae8b44261b90","condition":"contingent","relevant_dimensions":["pattern","legs"],"bee_group":{"antennae":"X","wings":"X","pattern":"D","legs":"M"},"action":"harvest","summary":"good-harvest","bonus":1.3600000000000012},{"rt":18862.899999976158,"stimulus":"\n                    <p><b>Action: <em>harvest</em></b></p>\n                    <p>This is the bee that you just saw.</p>\n                    <img src=\"bees-with-color/bee-A2SM.svg\" width=\"200\">\n                    <p><span class=\"greenText\"><b>Successful harvest!</b></span><br>Your pay has increased by $0.02. Your bonus pay is now $0.56.</p>\n            ","response":0,"trial_type":"html-button-response","trial_index":10,"time_elapsed":118220,"internal_node_id":"0.0-4.0-1.1","subject_id":"5f9261c7e1a8d117eadb3ba9","study_id":"60edd13110225f80f9f3709b","session_id":"6196c708b633ae8b44261b90","condition":"contingent","relevant_dimensions":["pattern","legs"],"bee_group":{"antennae":"X","wings":"X","pattern":"D","legs":"M"},"bonus":1.3600000000000012},{"rt":5820,"stimulus":"bees-with-color/bee-A2DM.svg","response":0,"trial_type":"image-button-response","trial_index":11,"time_elapsed":124043,"internal_node_id":"0.0-4.0-0.2","subject_id":"5f9261c7e1a8d117eadb3ba9","study_id":"60edd13110225f80f9f3709b","session_id":"6196c708b633ae8b44261b90","condition":"contingent","relevant_dimensions":["pattern","legs"],"bee_group":{"antennae":"X","wings":"X","pattern":"D","legs":"M"},"action":"harvest","summary":"bad-harvest","bonus":1.3600000000000012},{"rt":6113.200000047684,"stimulus":"\n                    <p><b>Action: <em>harvest</em></b></p>\n                    <p>This is the bee that you just saw.</p>\n                    <img src=\"bees-with-color/bee-A2DM.svg\" width=\"200\">\n                    <p><span class=\"redText\">Bad choice, the bee was angry.</span><br><b>You have been stung!</b><br>Your pay has been decreased by $0.10. Your bonus pay is now $0.46.</p>\n            ","response":0,"trial_type":"html-button-response","trial_index":12,"time_elapsed":130158,"internal_node_id":"0.0-4.0-1.2","subject_id":"5f9261c7e1a8d117eadb3ba9","study_id":"60edd13110225f80f9f3709b","session_id":"6196c708b633ae8b44261b90","condition":"contingent","relevant_dimensions":["pattern","legs"],"bee_group":{"antennae":"X","wings":"X","pattern":"D","legs":"M"},"bonus":1.3600000000000012},{"rt":5031.700000047684,"stimulus":"bees-with-color/bee-A1DF.svg","response":1,"trial_type":"image-button-response","trial_index":13,"time_elapsed":135192,"internal_node_id":"0.0-4.0-0.3","subject_id":"5f9261c7e1a8d117eadb3ba9","study_id":"60edd13110225f80f9f3709b","session_id":"6196c708b633ae8b44261b90","condition":"contingent","relevant_dimensions":["pattern","legs"],"bee_group":{"antennae":"X","wings":"X","pattern":"D","legs":"M"},"action":"avoid","summary":"bad-avoid","bonus":1.3600000000000012},{"rt":1077.6999999284744,"stimulus":"\n                    <p><b>Action: <em>avoid</em></b></p>\n                    <p>This is the bee that you just saw.</p>\n                    <img src=\"bees-with-color/bee-A1DF.svg\" width=\"200\">\n                    <p><br>Your bonus pay is unchanged, and remains at $0.46.</p>\n            ","response":0,"trial_type":"html-button-response","trial_index":14,"time_elapsed":136272,"internal_node_id":"0.0-4.0-1.3","subject_id":"5f9261c7e1a8d117eadb3ba9","study_id":"60edd13110225f80f9f3709b","session_id":"6196c708b633ae8b44261b90","condition":"contingent","relevant_dimensions":["pattern","legs"],"bee_group":{"antennae":"X","wings":"X","pattern":"D","legs":"M"},"bonus":1.3600000000000012},{"rt":957.1000000238419,"stimulus":"bees-with-color/bee-B1DF.svg","response":0,"trial_type":"image-button-response","trial_index":15,"time_elapsed":137232,"internal_node_id":"0.0-4.0-0.4","subject_id":"5f9261c7e1a8d117eadb3ba9","study_id":"60edd13110225f80f9f3709b","session_id":"6196c708b633ae8b44261b90","condition":"contingent","relevant_dimensions":["pattern","legs"],"bee_group":{"antennae":"X","wings":"X","pattern":"D","legs":"M"},"action":"harvest","summary":"good-harvest","bonus":1.3600000000000012},{"rt":20017.299999952316,"stimulus":"\n                    <p><b>Action: <em>harvest</em></b></p>\n                    <p>This is the bee that you just saw.</p>\n                    <img src=\"bees-with-color/bee-B1DF.svg\" width=\"200\">\n                    <p><span class=\"greenText\"><b>Successful harvest!</b></span><br>Your pay has increased by $0.02. Your bonus pay is now $0.48.</p>\n            ","response":0,"trial_type":"html-button-response","trial_index":16,"time_elapsed":157252,"internal_node_id":"0.0-4.0-1.4","subject_id":"5f9261c7e1a8d117eadb3ba9","study_id":"60edd13110225f80f9f3709b","session_id":"6196c708b633ae8b44261b90","condition":"contingent","relevant_dimensions":["pattern","legs"],"bee_group":{"antennae":"X","wings":"X","pattern":"D","legs":"M"},"bonus":1.3600000000000012},{"rt":4433.300000071526,"stimulus":"bees-with-color/bee-A2DF.svg","response":0,"trial_type":"image-button-response","trial_index":17,"time_elapsed":161688,"internal_node_id":"0.0-4.0-0.5","subject_id":"5f9261c7e1a8d117eadb3ba9","study_id":"60edd13110225f80f9f3709b","session_id":"6196c708b633ae8b44261b90","condition":"contingent","relevant_dimensions":["pattern","legs"],"bee_group":{"antennae":"X","wings":"X","pattern":"D","legs":"M"},"action":"harvest","summary":"good-harvest","bonus":1.3600000000000012},{"rt":11848.800000071526,"stimulus":"\n                    <p><b>Action: <em>harvest</em></b></p>\n                    <p>This is the bee that you just saw.</p>\n                    <img src=\"bees-with-color/bee-A2DF.svg\" width=\"200\">\n                    <p><span class=\"greenText\"><b>Successful harvest!</b></span><br>Your pay has increased by $0.02. Your bonus pay is now $0.50.</p>\n            ","response":0,"trial_type":"html-button-response","trial_index":18,"time_elapsed":173538,"internal_node_id":"0.0-4.0-1.5","subject_id":"5f9261c7e1a8d117eadb3ba9","study_id":"60edd13110225f80f9f3709b","session_id":"6196c708b633ae8b44261b90","condition":"contingent","relevant_dimensions":["pattern","legs"],"bee_group":{"antennae":"X","wings":"X","pattern":"D","legs":"M"},"bonus":1.3600000000000012},{"rt":3022.7000000476837,"stimulus":"bees-with-color/bee-A1SM.svg","response":0,"trial_type":"image-button-response","trial_index":19,"time_elapsed":176565,"internal_node_id":"0.0-4.0-0.6","subject_id":"5f9261c7e1a8d117eadb3ba9","study_id":"60edd13110225f80f9f3709b","session_id":"6196c708b633ae8b44261b90","condition":"contingent","relevant_dimensions":["pattern","legs"],"bee_group":{"antennae":"X","wings":"X","pattern":"D","legs":"M"},"action":"harvest","summary":"good-harvest","bonus":1.3600000000000012},{"rt":10681.899999976158,"stimulus":"\n                    <p><b>Action: <em>harvest</em></b></p>\n                    <p>This is the bee that you just saw.</p>\n                    <img src=\"bees-with-color/bee-A1SM.svg\" width=\"200\">\n                    <p><span class=\"greenText\"><b>Successful harvest!</b></span><br>Your pay has increased by $0.02. Your bonus pay is now $0.52.</p>\n            ","response":0,"trial_type":"html-button-response","trial_index":20,"time_elapsed":187248,"internal_node_id":"0.0-4.0-1.6","subject_id":"5f9261c7e1a8d117eadb3ba9","study_id":"60edd13110225f80f9f3709b","session_id":"6196c708b633ae8b44261b90","condition":"contingent","relevant_dimensions":["pattern","legs"],"bee_group":{"antennae":"X","wings":"X","pattern":"D","legs":"M"},"bonus":1.3600000000000012},{"rt":1305.2999999523163,"stimulus":"bees-with-color/bee-B2DF.svg","response":0,"trial_type":"image-button-response","trial_index":21,"time_elapsed":188556,"internal_node_id":"0.0-4.0-0.7","subject_id":"5f9261c7e1a8d117eadb3ba9","study_id":"60edd13110225f80f9f3709b","session_id":"6196c708b633ae8b44261b90","condition":"contingent","relevant_dimensions":["pattern","legs"],"bee_group":{"antennae":"X","wings":"X","pattern":"D","legs":"M"},"action":"harvest","summary":"good-harvest","bonus":1.3600000000000012},{"rt":17609.200000047684,"stimulus":"\n                    <p><b>Action: <em>harvest</em></b></p>\n                    <p>This is the bee that you just saw.</p>\n                    <img src=\"bees-with-color/bee-B2DF.svg\" width=\"200\">\n                    <p><span class=\"greenText\"><b>Successful harvest!</b></span><br>Your pay has increased by $0.02. Your bonus pay is now $0.54.</p>\n            ","response":0,"trial_type":"html-button-response","trial_index":22,"time_elapsed":206167,"internal_node_id":"0.0-4.0-1.7","subject_id":"5f9261c7e1a8d117eadb3ba9","study_id":"60edd13110225f80f9f3709b","session_id":"6196c708b633ae8b44261b90","condition":"contingent","relevant_dimensions":["pattern","legs"],"bee_group":{"antennae":"X","wings":"X","pattern":"D","legs":"M"},"bonus":1.3600000000000012},{"rt":2778.899999976158,"stimulus":"bees-with-color/bee-B1SM.svg","response":0,"trial_type":"image-button-response","trial_index":23,"time_elapsed":208949,"internal_node_id":"0.0-4.0-0.8","subject_id":"5f9261c7e1a8d117eadb3ba9","study_id":"60edd13110225f80f9f3709b","session_id":"6196c708b633ae8b44261b90","condition":"contingent","relevant_dimensions":["pattern","legs"],"bee_group":{"antennae":"X","wings":"X","pattern":"D","legs":"M"},"action":"harvest","summary":"good-harvest","bonus":1.3600000000000012},{"rt":28143.100000023842,"stimulus":"\n                    <p><b>Action: <em>harvest</em></b></p>\n                    <p>This is the bee that you just saw.</p>\n                    <img src=\"bees-with-color/bee-B1SM.svg\" width=\"200\">\n                    <p><span class=\"greenText\"><b>Successful harvest!</b></span><br>Your pay has increased by $0.02. Your bonus pay is now $0.56.</p>\n            ","response":0,"trial_type":"html-button-response","trial_index":24,"time_elapsed":237093,"internal_node_id":"0.0-4.0-1.8","subject_id":"5f9261c7e1a8d117eadb3ba9","study_id":"60edd13110225f80f9f3709b","session_id":"6196c708b633ae8b44261b90","condition":"contingent","relevant_dimensions":["pattern","legs"],"bee_group":{"antennae":"X","wings":"X","pattern":"D","legs":"M"},"bonus":1.3600000000000012},{"rt":4644.700000047684,"stimulus":"bees-with-color/bee-B2SM.svg","response":0,"trial_type":"image-button-response","trial_index":25,"time_elapsed":241740,"internal_node_id":"0.0-4.0-0.9","subject_id":"5f9261c7e1a8d117eadb3ba9","study_id":"60edd13110225f80f9f3709b","session_id":"6196c708b633ae8b44261b90","condition":"contingent","relevant_dimensions":["pattern","legs"],"bee_group":{"antennae":"X","wings":"X","pattern":"D","legs":"M"},"action":"harvest","summary":"good-harvest","bonus":1.3600000000000012},{"rt":19318.5,"stimulus":"\n                    <p><b>Action: <em>harvest</em></b></p>\n                    <p>This is the bee that you just saw.</p>\n                    <img src=\"bees-with-color/bee-B2SM.svg\" width=\"200\">\n                    <p><span class=\"greenText\"><b>Successful harvest!</b></span><br>Your pay has increased by $0.02. Your bonus pay is now $0.58.</p>\n            ","response":0,"trial_type":"html-button-response","trial_index":26,"time_elapsed":261061,"internal_node_id":"0.0-4.0-1.9","subject_id":"5f9261c7e1a8d117eadb3ba9","study_id":"60edd13110225f80f9f3709b","session_id":"6196c708b633ae8b44261b90","condition":"contingent","relevant_dimensions":["pattern","legs"],"bee_group":{"antennae":"X","wings":"X","pattern":"D","legs":"M"},"bonus":1.3600000000000012},{"rt":6254.300000071526,"stimulus":"bees-with-color/bee-A1DM.svg","response":0,"trial_type":"image-button-response","trial_index":27,"time_elapsed":267317,"internal_node_id":"0.0-4.0-0.10","subject_id":"5f9261c7e1a8d117eadb3ba9","study_id":"60edd13110225f80f9f3709b","session_id":"6196c708b633ae8b44261b90","condition":"contingent","relevant_dimensions":["pattern","legs"],"bee_group":{"antennae":"X","wings":"X","pattern":"D","legs":"M"},"action":"harvest","summary":"bad-harvest","bonus":1.3600000000000012},{"rt":13199.699999928474,"stimulus":"\n                    <p><b>Action: <em>harvest</em></b></p>\n                    <p>This is the bee that you just saw.</p>\n                    <img src=\"bees-with-color/bee-A1DM.svg\" width=\"200\">\n                    <p><span class=\"redText\">Bad choice, the bee was angry.</span><br><b>You have been stung!</b><br>Your pay has been decreased by $0.10. Your bonus pay is now $0.48.</p>\n            ","response":0,"trial_type":"html-button-response","trial_index":28,"time_elapsed":280519,"internal_node_id":"0.0-4.0-1.10","subject_id":"5f9261c7e1a8d117eadb3ba9","study_id":"60edd13110225f80f9f3709b","session_id":"6196c708b633ae8b44261b90","condition":"contingent","relevant_dimensions":["pattern","legs"],"bee_group":{"antennae":"X","wings":"X","pattern":"D","legs":"M"},"bonus":1.3600000000000012},{"rt":7390.299999952316,"stimulus":"bees-with-color/bee-B2SF.svg","response":0,"trial_type":"image-button-response","trial_index":29,"time_elapsed":287912,"internal_node_id":"0.0-4.0-0.11","subject_id":"5f9261c7e1a8d117eadb3ba9","study_id":"60edd13110225f80f9f3709b","session_id":"6196c708b633ae8b44261b90","condition":"contingent","relevant_dimensions":["pattern","legs"],"bee_group":{"antennae":"X","wings":"X","pattern":"D","legs":"M"},"action":"harvest","summary":"good-harvest","bonus":1.3600000000000012},{"rt":18131,"stimulus":"\n                    <p><b>Action: <em>harvest</em></b></p>\n                    <p>This is the bee that you just saw.</p>\n                    <img src=\"bees-with-color/bee-B2SF.svg\" width=\"200\">\n                    <p><span class=\"greenText\"><b>Successful harvest!</b></span><br>Your pay has increased by $0.02. Your bonus pay is now $0.50.</p>\n            ","response":0,"trial_type":"html-button-response","trial_index":30,"time_elapsed":306045,"internal_node_id":"0.0-4.0-1.11","subject_id":"5f9261c7e1a8d117eadb3ba9","study_id":"60edd13110225f80f9f3709b","session_id":"6196c708b633ae8b44261b90","condition":"contingent","relevant_dimensions":["pattern","legs"],"bee_group":{"antennae":"X","wings":"X","pattern":"D","legs":"M"},"bonus":1.3600000000000012},{"rt":14861.5,"stimulus":"bees-with-color/bee-A1SF.svg","response":0,"trial_type":"image-button-response","trial_index":31,"time_elapsed":320909,"internal_node_id":"0.0-4.0-0.12","subject_id":"5f9261c7e1a8d117eadb3ba9","study_id":"60edd13110225f80f9f3709b","session_id":"6196c708b633ae8b44261b90","condition":"contingent","relevant_dimensions":["pattern","legs"],"bee_group":{"antennae":"X","wings":"X","pattern":"D","legs":"M"},"action":"harvest","summary":"good-harvest","bonus":1.3600000000000012},{"rt":1753.3999999761581,"stimulus":"\n                    <p><b>Action: <em>harvest</em></b></p>\n                    <p>This is the bee that you just saw.</p>\n                    <img src=\"bees-with-color/bee-A1SF.svg\" width=\"200\">\n                    <p><span class=\"greenText\"><b>Successful harvest!</b></span><br>Your pay has increased by $0.02. Your bonus pay is now $0.52.</p>\n            ","response":0,"trial_type":"html-button-response","trial_index":32,"time_elapsed":322665,"internal_node_id":"0.0-4.0-1.12","subject_id":"5f9261c7e1a8d117eadb3ba9","study_id":"60edd13110225f80f9f3709b","session_id":"6196c708b633ae8b44261b90","condition":"contingent","relevant_dimensions":["pattern","legs"],"bee_group":{"antennae":"X","wings":"X","pattern":"D","legs":"M"},"bonus":1.3600000000000012},{"rt":4497.800000071526,"stimulus":"bees-with-color/bee-B1SF.svg","response":0,"trial_type":"image-button-response","trial_index":33,"time_elapsed":327165,"internal_node_id":"0.0-4.0-0.13","subject_id":"5f9261c7e1a8d117eadb3ba9","study_id":"60edd13110225f80f9f3709b","session_id":"6196c708b633ae8b44261b90","condition":"contingent","relevant_dimensions":["pattern","legs"],"bee_group":{"antennae":"X","wings":"X","pattern":"D","legs":"M"},"action":"harvest","summary":"good-harvest","bonus":1.3600000000000012},{"rt":957.8000000715256,"stimulus":"\n                    <p><b>Action: <em>harvest</em></b></p>\n                    <p>This is the bee that you just saw.</p>\n                    <img src=\"bees-with-color/bee-B1SF.svg\" width=\"200\">\n                    <p><span class=\"greenText\"><b>Successful harvest!</b></span><br>Your pay has increased by $0.02. Your bonus pay is now $0.54.</p>\n            ","response":0,"trial_type":"html-button-response","trial_index":34,"time_elapsed":328125,"internal_node_id":"0.0-4.0-1.13","subject_id":"5f9261c7e1a8d117eadb3ba9","study_id":"60edd13110225f80f9f3709b","session_id":"6196c708b633ae8b44261b90","condition":"contingent","relevant_dimensions":["pattern","legs"],"bee_group":{"antennae":"X","wings":"X","pattern":"D","legs":"M"},"bonus":1.3600000000000012},{"rt":5661.799999952316,"stimulus":"bees-with-color/bee-A2SF.svg","response":0,"trial_type":"image-button-response","trial_index":35,"time_elapsed":333789,"internal_node_id":"0.0-4.0-0.14","subject_id":"5f9261c7e1a8d117eadb3ba9","study_id":"60edd13110225f80f9f3709b","session_id":"6196c708b633ae8b44261b90","condition":"contingent","relevant_dimensions":["pattern","legs"],"bee_group":{"antennae":"X","wings":"X","pattern":"D","legs":"M"},"action":"harvest","summary":"good-harvest","bonus":1.3600000000000012},{"rt":731.7000000476837,"stimulus":"\n                    <p><b>Action: <em>harvest</em></b></p>\n                    <p>This is the bee that you just saw.</p>\n                    <img src=\"bees-with-color/bee-A2SF.svg\" width=\"200\">\n                    <p><span class=\"greenText\"><b>Successful harvest!</b></span><br>Your pay has increased by $0.02. Your bonus pay is now $0.56.</p>\n            ","response":0,"trial_type":"html-button-response","trial_index":36,"time_elapsed":334523,"internal_node_id":"0.0-4.0-1.14","subject_id":"5f9261c7e1a8d117eadb3ba9","study_id":"60edd13110225f80f9f3709b","session_id":"6196c708b633ae8b44261b90","condition":"contingent","relevant_dimensions":["pattern","legs"],"bee_group":{"antennae":"X","wings":"X","pattern":"D","legs":"M"},"bonus":1.3600000000000012},{"rt":5504.699999928474,"stimulus":"bees-with-color/bee-B1DM.svg","response":1,"trial_type":"image-button-response","trial_index":37,"time_elapsed":340030,"internal_node_id":"0.0-4.0-0.15","subject_id":"5f9261c7e1a8d117eadb3ba9","study_id":"60edd13110225f80f9f3709b","session_id":"6196c708b633ae8b44261b90","condition":"contingent","relevant_dimensions":["pattern","legs"],"bee_group":{"antennae":"X","wings":"X","pattern":"D","legs":"M"},"action":"avoid","summary":"good-avoid","bonus":1.3600000000000012},{"rt":879.3000000715256,"stimulus":"\n                    <p><b>Action: <em>avoid</em></b></p>\n                    <p>This is the bee that you just saw.</p>\n                    <img src=\"bees-with-color/bee-B1DM.svg\" width=\"200\">\n                    <p><br>Your bonus pay is unchanged, and remains at $0.56.</p>\n            ","response":0,"trial_type":"html-button-response","trial_index":38,"time_elapsed":340911,"internal_node_id":"0.0-4.0-1.15","subject_id":"5f9261c7e1a8d117eadb3ba9","study_id":"60edd13110225f80f9f3709b","session_id":"6196c708b633ae8b44261b90","condition":"contingent","relevant_dimensions":["pattern","legs"],"bee_group":{"antennae":"X","wings":"X","pattern":"D","legs":"M"},"bonus":1.3600000000000012},{"rt":1739.6000000238419,"stimulus":"bees-with-color/bee-B2DF.svg","response":0,"trial_type":"image-button-response","trial_index":39,"time_elapsed":342653,"internal_node_id":"0.0-4.0-0.16","subject_id":"5f9261c7e1a8d117eadb3ba9","study_id":"60edd13110225f80f9f3709b","session_id":"6196c708b633ae8b44261b90","condition":"contingent","relevant_dimensions":["pattern","legs"],"bee_group":{"antennae":"X","wings":"X","pattern":"D","legs":"M"},"action":"harvest","summary":"good-harvest","bonus":1.3600000000000012},{"rt":818,"stimulus":"\n                    <p><b>Action: <em>harvest</em></b></p>\n                    <p>This is the bee that you just saw.</p>\n                    <img src=\"bees-with-color/bee-B2DF.svg\" width=\"200\">\n                    <p><span class=\"greenText\"><b>Successful harvest!</b></span><br>Your pay has increased by $0.02. Your bonus pay is now $0.58.</p>\n            ","response":0,"trial_type":"html-button-response","trial_index":40,"time_elapsed":343473,"internal_node_id":"0.0-4.0-1.16","subject_id":"5f9261c7e1a8d117eadb3ba9","study_id":"60edd13110225f80f9f3709b","session_id":"6196c708b633ae8b44261b90","condition":"contingent","relevant_dimensions":["pattern","legs"],"bee_group":{"antennae":"X","wings":"X","pattern":"D","legs":"M"},"bonus":1.3600000000000012},{"rt":3228.4000000953674,"stimulus":"bees-with-color/bee-B1DF.svg","response":0,"trial_type":"image-button-response","trial_index":41,"time_elapsed":346703,"internal_node_id":"0.0-4.0-0.17","subject_id":"5f9261c7e1a8d117eadb3ba9","study_id":"60edd13110225f80f9f3709b","session_id":"6196c708b633ae8b44261b90","condition":"contingent","relevant_dimensions":["pattern","legs"],"bee_group":{"antennae":"X","wings":"X","pattern":"D","legs":"M"},"action":"harvest","summary":"good-harvest","bonus":1.3600000000000012},{"rt":1369,"stimulus":"\n                    <p><b>Action: <em>harvest</em></b></p>\n                    <p>This is the bee that you just saw.</p>\n                    <img src=\"bees-with-color/bee-B1DF.svg\" width=\"200\">\n                    <p><span class=\"greenText\"><b>Successful harvest!</b></span><br>Your pay has increased by $0.02. Your bonus pay is now $0.60.</p>\n            ","response":0,"trial_type":"html-button-response","trial_index":42,"time_elapsed":348073,"internal_node_id":"0.0-4.0-1.17","subject_id":"5f9261c7e1a8d117eadb3ba9","study_id":"60edd13110225f80f9f3709b","session_id":"6196c708b633ae8b44261b90","condition":"contingent","relevant_dimensions":["pattern","legs"],"bee_group":{"antennae":"X","wings":"X","pattern":"D","legs":"M"},"bonus":1.3600000000000012},{"rt":7159.100000023842,"stimulus":"bees-with-color/bee-B1SM.svg","response":0,"trial_type":"image-button-response","trial_index":43,"time_elapsed":355234,"internal_node_id":"0.0-4.0-0.18","subject_id":"5f9261c7e1a8d117eadb3ba9","study_id":"60edd13110225f80f9f3709b","session_id":"6196c708b633ae8b44261b90","condition":"contingent","relevant_dimensions":["pattern","legs"],"bee_group":{"antennae":"X","wings":"X","pattern":"D","legs":"M"},"action":"harvest","summary":"good-harvest","bonus":1.3600000000000012},{"rt":645.5,"stimulus":"\n                    <p><b>Action: <em>harvest</em></b></p>\n                    <p>This is the bee that you just saw.</p>\n                    <img src=\"bees-with-color/bee-B1SM.svg\" width=\"200\">\n                    <p><span class=\"greenText\"><b>Successful harvest!</b></span><br>Your pay has increased by $0.02. Your bonus pay is now $0.62.</p>\n            ","response":0,"trial_type":"html-button-response","trial_index":44,"time_elapsed":355882,"internal_node_id":"0.0-4.0-1.18","subject_id":"5f9261c7e1a8d117eadb3ba9","study_id":"60edd13110225f80f9f3709b","session_id":"6196c708b633ae8b44261b90","condition":"contingent","relevant_dimensions":["pattern","legs"],"bee_group":{"antennae":"X","wings":"X","pattern":"D","legs":"M"},"bonus":1.3600000000000012},{"rt":6102.799999952316,"stimulus":"bees-with-color/bee-B1DM.svg","response":0,"trial_type":"image-button-response","trial_index":45,"time_elapsed":361986,"internal_node_id":"0.0-4.0-0.19","subject_id":"5f9261c7e1a8d117eadb3ba9","study_id":"60edd13110225f80f9f3709b","session_id":"6196c708b633ae8b44261b90","condition":"contingent","relevant_dimensions":["pattern","legs"],"bee_group":{"antennae":"X","wings":"X","pattern":"D","legs":"M"},"action":"harvest","summary":"bad-harvest","bonus":1.3600000000000012},{"rt":17498,"stimulus":"\n                    <p><b>Action: <em>harvest</em></b></p>\n                    <p>This is the bee that you just saw.</p>\n                    <img src=\"bees-with-color/bee-B1DM.svg\" width=\"200\">\n                    <p><span class=\"redText\">Bad choice, the bee was angry.</span><br><b>You have been stung!</b><br>Your pay has been decreased by $0.10. Your bonus pay is now $0.52.</p>\n            ","response":0,"trial_type":"html-button-response","trial_index":46,"time_elapsed":379486,"internal_node_id":"0.0-4.0-1.19","subject_id":"5f9261c7e1a8d117eadb3ba9","study_id":"60edd13110225f80f9f3709b","session_id":"6196c708b633ae8b44261b90","condition":"contingent","relevant_dimensions":["pattern","legs"],"bee_group":{"antennae":"X","wings":"X","pattern":"D","legs":"M"},"bonus":1.3600000000000012},{"rt":16479.599999904633,"stimulus":"bees-with-color/bee-B2DM.svg","response":0,"trial_type":"image-button-response","trial_index":47,"time_elapsed":395968,"internal_node_id":"0.0-4.0-0.20","subject_id":"5f9261c7e1a8d117eadb3ba9","study_id":"60edd13110225f80f9f3709b","session_id":"6196c708b633ae8b44261b90","condition":"contingent","relevant_dimensions":["pattern","legs"],"bee_group":{"antennae":"X","wings":"X","pattern":"D","legs":"M"},"action":"harvest","summary":"bad-harvest","bonus":1.3600000000000012},{"rt":12840.400000095367,"stimulus":"\n                    <p><b>Action: <em>harvest</em></b></p>\n                    <p>This is the bee that you just saw.</p>\n                    <img src=\"bees-with-color/bee-B2DM.svg\" width=\"200\">\n                    <p><span class=\"redText\">Bad choice, the bee was angry.</span><br><b>You have been stung!</b><br>Your pay has been decreased by $0.10. Your bonus pay is now $0.42.</p>\n            ","response":0,"trial_type":"html-button-response","trial_index":48,"time_elapsed":408811,"internal_node_id":"0.0-4.0-1.20","subject_id":"5f9261c7e1a8d117eadb3ba9","study_id":"60edd13110225f80f9f3709b","session_id":"6196c708b633ae8b44261b90","condition":"contingent","relevant_dimensions":["pattern","legs"],"bee_group":{"antennae":"X","wings":"X","pattern":"D","legs":"M"},"bonus":1.3600000000000012},{"rt":1216.7000000476837,"stimulus":"bees-with-color/bee-B2SF.svg","response":0,"trial_type":"image-button-response","trial_index":49,"time_elapsed":410030,"internal_node_id":"0.0-4.0-0.21","subject_id":"5f9261c7e1a8d117eadb3ba9","study_id":"60edd13110225f80f9f3709b","session_id":"6196c708b633ae8b44261b90","condition":"contingent","relevant_dimensions":["pattern","legs"],"bee_group":{"antennae":"X","wings":"X","pattern":"D","legs":"M"},"action":"harvest","summary":"good-harvest","bonus":1.3600000000000012},{"rt":518.6000000238419,"stimulus":"\n                    <p><b>Action: <em>harvest</em></b></p>\n                    <p>This is the bee that you just saw.</p>\n                    <img src=\"bees-with-color/bee-B2SF.svg\" width=\"200\">\n                    <p><span class=\"greenText\"><b>Successful harvest!</b></span><br>Your pay has increased by $0.02. Your bonus pay is now $0.44.</p>\n            ","response":0,"trial_type":"html-button-response","trial_index":50,"time_elapsed":410550,"internal_node_id":"0.0-4.0-1.21","subject_id":"5f9261c7e1a8d117eadb3ba9","study_id":"60edd13110225f80f9f3709b","session_id":"6196c708b633ae8b44261b90","condition":"contingent","relevant_dimensions":["pattern","legs"],"bee_group":{"antennae":"X","wings":"X","pattern":"D","legs":"M"},"bonus":1.3600000000000012},{"rt":4126.100000023842,"stimulus":"bees-with-color/bee-A1DF.svg","response":0,"trial_type":"image-button-response","trial_index":51,"time_elapsed":414678,"internal_node_id":"0.0-4.0-0.22","subject_id":"5f9261c7e1a8d117eadb3ba9","study_id":"60edd13110225f80f9f3709b","session_id":"6196c708b633ae8b44261b90","condition":"contingent","relevant_dimensions":["pattern","legs"],"bee_group":{"antennae":"X","wings":"X","pattern":"D","legs":"M"},"action":"harvest","summary":"good-harvest","bonus":1.3600000000000012},{"rt":12401.300000071526,"stimulus":"\n                    <p><b>Action: <em>harvest</em></b></p>\n                    <p>This is the bee that you just saw.</p>\n                    <img src=\"bees-with-color/bee-A1DF.svg\" width=\"200\">\n                    <p><span class=\"greenText\"><b>Successful harvest!</b></span><br>Your pay has increased by $0.02. Your bonus pay is now $0.46.</p>\n            ","response":0,"trial_type":"html-button-response","trial_index":52,"time_elapsed":427081,"internal_node_id":"0.0-4.0-1.22","subject_id":"5f9261c7e1a8d117eadb3ba9","study_id":"60edd13110225f80f9f3709b","session_id":"6196c708b633ae8b44261b90","condition":"contingent","relevant_dimensions":["pattern","legs"],"bee_group":{"antennae":"X","wings":"X","pattern":"D","legs":"M"},"bonus":1.3600000000000012},{"rt":13631.100000023842,"stimulus":"bees-with-color/bee-A2DF.svg","response":0,"trial_type":"image-button-response","trial_index":53,"time_elapsed":440715,"internal_node_id":"0.0-4.0-0.23","subject_id":"5f9261c7e1a8d117eadb3ba9","study_id":"60edd13110225f80f9f3709b","session_id":"6196c708b633ae8b44261b90","condition":"contingent","relevant_dimensions":["pattern","legs"],"bee_group":{"antennae":"X","wings":"X","pattern":"D","legs":"M"},"action":"harvest","summary":"good-harvest","bonus":1.3600000000000012},{"rt":590.2999999523163,"stimulus":"\n                    <p><b>Action: <em>harvest</em></b></p>\n                    <p>This is the bee that you just saw.</p>\n                    <img src=\"bees-with-color/bee-A2DF.svg\" width=\"200\">\n                    <p><span class=\"greenText\"><b>Successful harvest!</b></span><br>Your pay has increased by $0.02. Your bonus pay is now $0.48.</p>\n            ","response":0,"trial_type":"html-button-response","trial_index":54,"time_elapsed":441307,"internal_node_id":"0.0-4.0-1.23","subject_id":"5f9261c7e1a8d117eadb3ba9","study_id":"60edd13110225f80f9f3709b","session_id":"6196c708b633ae8b44261b90","condition":"contingent","relevant_dimensions":["pattern","legs"],"bee_group":{"antennae":"X","wings":"X","pattern":"D","legs":"M"},"bonus":1.3600000000000012},{"rt":1099.7999999523163,"stimulus":"bees-with-color/bee-A2SF.svg","response":0,"trial_type":"image-button-response","trial_index":55,"time_elapsed":442409,"internal_node_id":"0.0-4.0-0.24","subject_id":"5f9261c7e1a8d117eadb3ba9","study_id":"60edd13110225f80f9f3709b","session_id":"6196c708b633ae8b44261b90","condition":"contingent","relevant_dimensions":["pattern","legs"],"bee_group":{"antennae":"X","wings":"X","pattern":"D","legs":"M"},"action":"harvest","summary":"good-harvest","bonus":1.3600000000000012},{"rt":461.2000000476837,"stimulus":"\n                    <p><b>Action: <em>harvest</em></b></p>\n                    <p>This is the bee that you just saw.</p>\n                    <img src=\"bees-with-color/bee-A2SF.svg\" width=\"200\">\n                    <p><span class=\"greenText\"><b>Successful harvest!</b></span><br>Your pay has increased by $0.02. Your bonus pay is now $0.50.</p>\n            ","response":0,"trial_type":"html-button-response","trial_index":56,"time_elapsed":442872,"internal_node_id":"0.0-4.0-1.24","subject_id":"5f9261c7e1a8d117eadb3ba9","study_id":"60edd13110225f80f9f3709b","session_id":"6196c708b633ae8b44261b90","condition":"contingent","relevant_dimensions":["pattern","legs"],"bee_group":{"antennae":"X","wings":"X","pattern":"D","legs":"M"},"bonus":1.3600000000000012},{"rt":874.5999999046326,"stimulus":"bees-with-color/bee-A1SM.svg","response":0,"trial_type":"image-button-response","trial_index":57,"time_elapsed":443749,"internal_node_id":"0.0-4.0-0.25","subject_id":"5f9261c7e1a8d117eadb3ba9","study_id":"60edd13110225f80f9f3709b","session_id":"6196c708b633ae8b44261b90","condition":"contingent","relevant_dimensions":["pattern","legs"],"bee_group":{"antennae":"X","wings":"X","pattern":"D","legs":"M"},"action":"harvest","summary":"good-harvest","bonus":1.3600000000000012},{"rt":413.59999990463257,"stimulus":"\n                    <p><b>Action: <em>harvest</em></b></p>\n                    <p>This is the bee that you just saw.</p>\n                    <img src=\"bees-with-color/bee-A1SM.svg\" width=\"200\">\n                    <p><span class=\"greenText\"><b>Successful harvest!</b></span><br>Your pay has increased by $0.02. Your bonus pay is now $0.52.</p>\n            ","response":0,"trial_type":"html-button-response","trial_index":58,"time_elapsed":444165,"internal_node_id":"0.0-4.0-1.25","subject_id":"5f9261c7e1a8d117eadb3ba9","study_id":"60edd13110225f80f9f3709b","session_id":"6196c708b633ae8b44261b90","condition":"contingent","relevant_dimensions":["pattern","legs"],"bee_group":{"antennae":"X","wings":"X","pattern":"D","legs":"M"},"bonus":1.3600000000000012},{"rt":432.60000002384186,"stimulus":"bees-with-color/bee-B1SF.svg","response":0,"trial_type":"image-button-response","trial_index":59,"time_elapsed":444599,"internal_node_id":"0.0-4.0-0.26","subject_id":"5f9261c7e1a8d117eadb3ba9","study_id":"60edd13110225f80f9f3709b","session_id":"6196c708b633ae8b44261b90","condition":"contingent","relevant_dimensions":["pattern","legs"],"bee_group":{"antennae":"X","wings":"X","pattern":"D","legs":"M"},"action":"harvest","summary":"good-harvest","bonus":1.3600000000000012},{"rt":697.7999999523163,"stimulus":"\n                    <p><b>Action: <em>harvest</em></b></p>\n                    <p>This is the bee that you just saw.</p>\n                    <img src=\"bees-with-color/bee-B1SF.svg\" width=\"200\">\n                    <p><span class=\"greenText\"><b>Successful harvest!</b></span><br>Your pay has increased by $0.02. Your bonus pay is now $0.54.</p>\n            ","response":0,"trial_type":"html-button-response","trial_index":60,"time_elapsed":445299,"internal_node_id":"0.0-4.0-1.26","subject_id":"5f9261c7e1a8d117eadb3ba9","study_id":"60edd13110225f80f9f3709b","session_id":"6196c708b633ae8b44261b90","condition":"contingent","relevant_dimensions":["pattern","legs"],"bee_group":{"antennae":"X","wings":"X","pattern":"D","legs":"M"},"bonus":1.3600000000000012},{"rt":391.60000002384186,"stimulus":"bees-with-color/bee-A1SF.svg","response":0,"trial_type":"image-button-response","trial_index":61,"time_elapsed":445693,"internal_node_id":"0.0-4.0-0.27","subject_id":"5f9261c7e1a8d117eadb3ba9","study_id":"60edd13110225f80f9f3709b","session_id":"6196c708b633ae8b44261b90","condition":"contingent","relevant_dimensions":["pattern","legs"],"bee_group":{"antennae":"X","wings":"X","pattern":"D","legs":"M"},"action":"harvest","summary":"good-harvest","bonus":1.3600000000000012},{"rt":360,"stimulus":"\n                    <p><b>Action: <em>harvest</em></b></p>\n                    <p>This is the bee that you just saw.</p>\n                    <img src=\"bees-with-color/bee-A1SF.svg\" width=\"200\">\n                    <p><span class=\"greenText\"><b>Successful harvest!</b></span><br>Your pay has increased by $0.02. Your bonus pay is now $0.56.</p>\n            ","response":0,"trial_type":"html-button-response","trial_index":62,"time_elapsed":446055,"internal_node_id":"0.0-4.0-1.27","subject_id":"5f9261c7e1a8d117eadb3ba9","study_id":"60edd13110225f80f9f3709b","session_id":"6196c708b633ae8b44261b90","condition":"contingent","relevant_dimensions":["pattern","legs"],"bee_group":{"antennae":"X","wings":"X","pattern":"D","legs":"M"},"bonus":1.3600000000000012},{"rt":393,"stimulus":"bees-with-color/bee-A1DM.svg","response":0,"trial_type":"image-button-response","trial_index":63,"time_elapsed":446450,"internal_node_id":"0.0-4.0-0.28","subject_id":"5f9261c7e1a8d117eadb3ba9","study_id":"60edd13110225f80f9f3709b","session_id":"6196c708b633ae8b44261b90","condition":"contingent","relevant_dimensions":["pattern","legs"],"bee_group":{"antennae":"X","wings":"X","pattern":"D","legs":"M"},"action":"harvest","summary":"bad-harvest","bonus":1.3600000000000012},{"rt":650.8999999761581,"stimulus":"\n                    <p><b>Action: <em>harvest</em></b></p>\n                    <p>This is the bee that you just saw.</p>\n                    <img src=\"bees-with-color/bee-A1DM.svg\" width=\"200\">\n                    <p><span class=\"redText\">Bad choice, the bee was angry.</span><br><b>You have been stung!</b><br>Your pay has been decreased by $0.10. Your bonus pay is now $0.46.</p>\n            ","response":0,"trial_type":"html-button-response","trial_index":64,"time_elapsed":447102,"internal_node_id":"0.0-4.0-1.28","subject_id":"5f9261c7e1a8d117eadb3ba9","study_id":"60edd13110225f80f9f3709b","session_id":"6196c708b633ae8b44261b90","condition":"contingent","relevant_dimensions":["pattern","legs"],"bee_group":{"antennae":"X","wings":"X","pattern":"D","legs":"M"},"bonus":1.3600000000000012},{"rt":558.8000000715256,"stimulus":"bees-with-color/bee-B2SM.svg","response":0,"trial_type":"image-button-response","trial_index":65,"time_elapsed":447663,"internal_node_id":"0.0-4.0-0.29","subject_id":"5f9261c7e1a8d117eadb3ba9","study_id":"60edd13110225f80f9f3709b","session_id":"6196c708b633ae8b44261b90","condition":"contingent","relevant_dimensions":["pattern","legs"],"bee_group":{"antennae":"X","wings":"X","pattern":"D","legs":"M"},"action":"harvest","summary":"good-harvest","bonus":1.3600000000000012},{"rt":343.8000000715256,"stimulus":"\n                    <p><b>Action: <em>harvest</em></b></p>\n                    <p>This is the bee that you just saw.</p>\n                    <img src=\"bees-with-color/bee-B2SM.svg\" width=\"200\">\n                    <p><span class=\"greenText\"><b>Successful harvest!</b></span><br>Your pay has increased by $0.02. Your bonus pay is now $0.48.</p>\n            ","response":0,"trial_type":"html-button-response","trial_index":66,"time_elapsed":448009,"internal_node_id":"0.0-4.0-1.29","subject_id":"5f9261c7e1a8d117eadb3ba9","study_id":"60edd13110225f80f9f3709b","session_id":"6196c708b633ae8b44261b90","condition":"contingent","relevant_dimensions":["pattern","legs"],"bee_group":{"antennae":"X","wings":"X","pattern":"D","legs":"M"},"bonus":1.3600000000000012},{"rt":3645.899999976158,"stimulus":"bees-with-color/bee-A2DM.svg","response":1,"trial_type":"image-button-response","trial_index":67,"time_elapsed":451657,"internal_node_id":"0.0-4.0-0.30","subject_id":"5f9261c7e1a8d117eadb3ba9","study_id":"60edd13110225f80f9f3709b","session_id":"6196c708b633ae8b44261b90","condition":"contingent","relevant_dimensions":["pattern","legs"],"bee_group":{"antennae":"X","wings":"X","pattern":"D","legs":"M"},"action":"avoid","summary":"good-avoid","bonus":1.3600000000000012},{"rt":1375.6000000238419,"stimulus":"\n                    <p><b>Action: <em>avoid</em></b></p>\n                    <p>This is the bee that you just saw.</p>\n                    <img src=\"bees-with-color/bee-A2DM.svg\" width=\"200\">\n                    <p><br>Your bonus pay is unchanged, and remains at $0.48.</p>\n            ","response":0,"trial_type":"html-button-response","trial_index":68,"time_elapsed":453035,"internal_node_id":"0.0-4.0-1.30","subject_id":"5f9261c7e1a8d117eadb3ba9","study_id":"60edd13110225f80f9f3709b","session_id":"6196c708b633ae8b44261b90","condition":"contingent","relevant_dimensions":["pattern","legs"],"bee_group":{"antennae":"X","wings":"X","pattern":"D","legs":"M"},"bonus":1.3600000000000012},{"rt":1322.1000000238419,"stimulus":"bees-with-color/bee-A2SM.svg","response":0,"trial_type":"image-button-response","trial_index":69,"time_elapsed":454359,"internal_node_id":"0.0-4.0-0.31","subject_id":"5f9261c7e1a8d117eadb3ba9","study_id":"60edd13110225f80f9f3709b","session_id":"6196c708b633ae8b44261b90","condition":"contingent","relevant_dimensions":["pattern","legs"],"bee_group":{"antennae":"X","wings":"X","pattern":"D","legs":"M"},"action":"harvest","summary":"good-harvest","bonus":1.3600000000000012},{"rt":539.2999999523163,"stimulus":"\n                    <p><b>Action: <em>harvest</em></b></p>\n                    <p>This is the bee that you just saw.</p>\n                    <img src=\"bees-with-color/bee-A2SM.svg\" width=\"200\">\n                    <p><span class=\"greenText\"><b>Successful harvest!</b></span><br>Your pay has increased by $0.02. Your bonus pay is now $0.50.</p>\n            ","response":0,"trial_type":"html-button-response","trial_index":70,"time_elapsed":454900,"internal_node_id":"0.0-4.0-1.31","subject_id":"5f9261c7e1a8d117eadb3ba9","study_id":"60edd13110225f80f9f3709b","session_id":"6196c708b633ae8b44261b90","condition":"contingent","relevant_dimensions":["pattern","legs"],"bee_group":{"antennae":"X","wings":"X","pattern":"D","legs":"M"},"bonus":1.3600000000000012},{"rt":510.2000000476837,"stimulus":"bees-with-color/bee-B2SM.svg","response":0,"trial_type":"image-button-response","trial_index":71,"time_elapsed":455412,"internal_node_id":"0.0-4.0-0.32","subject_id":"5f9261c7e1a8d117eadb3ba9","study_id":"60edd13110225f80f9f3709b","session_id":"6196c708b633ae8b44261b90","condition":"contingent","relevant_dimensions":["pattern","legs"],"bee_group":{"antennae":"X","wings":"X","pattern":"D","legs":"M"},"action":"harvest","summary":"good-harvest","bonus":1.3600000000000012},{"rt":354.5,"stimulus":"\n                    <p><b>Action: <em>harvest</em></b></p>\n                    <p>This is the bee that you just saw.</p>\n                    <img src=\"bees-with-color/bee-B2SM.svg\" width=\"200\">\n                    <p><span class=\"greenText\"><b>Successful harvest!</b></span><br>Your pay has increased by $0.02. Your bonus pay is now $0.52.</p>\n            ","response":0,"trial_type":"html-button-response","trial_index":72,"time_elapsed":455768,"internal_node_id":"0.0-4.0-1.32","subject_id":"5f9261c7e1a8d117eadb3ba9","study_id":"60edd13110225f80f9f3709b","session_id":"6196c708b633ae8b44261b90","condition":"contingent","relevant_dimensions":["pattern","legs"],"bee_group":{"antennae":"X","wings":"X","pattern":"D","legs":"M"},"bonus":1.3600000000000012},{"rt":5131.600000023842,"stimulus":"bees-with-color/bee-A2DM.svg","response":1,"trial_type":"image-button-response","trial_index":73,"time_elapsed":460902,"internal_node_id":"0.0-4.0-0.33","subject_id":"5f9261c7e1a8d117eadb3ba9","study_id":"60edd13110225f80f9f3709b","session_id":"6196c708b633ae8b44261b90","condition":"contingent","relevant_dimensions":["pattern","legs"],"bee_group":{"antennae":"X","wings":"X","pattern":"D","legs":"M"},"action":"avoid","summary":"good-avoid","bonus":1.3600000000000012},{"rt":448.7000000476837,"stimulus":"\n                    <p><b>Action: <em>avoid</em></b></p>\n                    <p>This is the bee that you just saw.</p>\n                    <img src=\"bees-with-color/bee-A2DM.svg\" width=\"200\">\n                    <p><br>Your bonus pay is unchanged, and remains at $0.52.</p>\n            ","response":0,"trial_type":"html-button-response","trial_index":74,"time_elapsed":461352,"internal_node_id":"0.0-4.0-1.33","subject_id":"5f9261c7e1a8d117eadb3ba9","study_id":"60edd13110225f80f9f3709b","session_id":"6196c708b633ae8b44261b90","condition":"contingent","relevant_dimensions":["pattern","legs"],"bee_group":{"antennae":"X","wings":"X","pattern":"D","legs":"M"},"bonus":1.3600000000000012},{"rt":6245.400000095367,"stimulus":"bees-with-color/bee-A1DF.svg","response":0,"trial_type":"image-button-response","trial_index":75,"time_elapsed":467599,"internal_node_id":"0.0-4.0-0.34","subject_id":"5f9261c7e1a8d117eadb3ba9","study_id":"60edd13110225f80f9f3709b","session_id":"6196c708b633ae8b44261b90","condition":"contingent","relevant_dimensions":["pattern","legs"],"bee_group":{"antennae":"X","wings":"X","pattern":"D","legs":"M"},"action":"harvest","summary":"good-harvest","bonus":1.3600000000000012},{"rt":612.2000000476837,"stimulus":"\n                    <p><b>Action: <em>harvest</em></b></p>\n                    <p>This is the bee that you just saw.</p>\n                    <img src=\"bees-with-color/bee-A1DF.svg\" width=\"200\">\n                    <p><span class=\"greenText\"><b>Successful harvest!</b></span><br>Your pay has increased by $0.02. Your bonus pay is now $0.54.</p>\n            ","response":0,"trial_type":"html-button-response","trial_index":76,"time_elapsed":468213,"internal_node_id":"0.0-4.0-1.34","subject_id":"5f9261c7e1a8d117eadb3ba9","study_id":"60edd13110225f80f9f3709b","session_id":"6196c708b633ae8b44261b90","condition":"contingent","relevant_dimensions":["pattern","legs"],"bee_group":{"antennae":"X","wings":"X","pattern":"D","legs":"M"},"bonus":1.3600000000000012},{"rt":4959.200000047684,"stimulus":"bees-with-color/bee-B1DM.svg","response":1,"trial_type":"image-button-response","trial_index":77,"time_elapsed":473175,"internal_node_id":"0.0-4.0-0.35","subject_id":"5f9261c7e1a8d117eadb3ba9","study_id":"60edd13110225f80f9f3709b","session_id":"6196c708b633ae8b44261b90","condition":"contingent","relevant_dimensions":["pattern","legs"],"bee_group":{"antennae":"X","wings":"X","pattern":"D","legs":"M"},"action":"avoid","summary":"good-avoid","bonus":1.3600000000000012},{"rt":432.5,"stimulus":"\n                    <p><b>Action: <em>avoid</em></b></p>\n                    <p>This is the bee that you just saw.</p>\n                    <img src=\"bees-with-color/bee-B1DM.svg\" width=\"200\">\n                    <p><br>Your bonus pay is unchanged, and remains at $0.54.</p>\n            ","response":0,"trial_type":"html-button-response","trial_index":78,"time_elapsed":473609,"internal_node_id":"0.0-4.0-1.35","subject_id":"5f9261c7e1a8d117eadb3ba9","study_id":"60edd13110225f80f9f3709b","session_id":"6196c708b633ae8b44261b90","condition":"contingent","relevant_dimensions":["pattern","legs"],"bee_group":{"antennae":"X","wings":"X","pattern":"D","legs":"M"},"bonus":1.3600000000000012},{"rt":6653.5,"stimulus":"bees-with-color/bee-B2DF.svg","response":0,"trial_type":"image-button-response","trial_index":79,"time_elapsed":480265,"internal_node_id":"0.0-4.0-0.36","subject_id":"5f9261c7e1a8d117eadb3ba9","study_id":"60edd13110225f80f9f3709b","session_id":"6196c708b633ae8b44261b90","condition":"contingent","relevant_dimensions":["pattern","legs"],"bee_group":{"antennae":"X","wings":"X","pattern":"D","legs":"M"},"action":"harvest","summary":"good-harvest","bonus":1.3600000000000012},{"rt":681.8999999761581,"stimulus":"\n                    <p><b>Action: <em>harvest</em></b></p>\n                    <p>This is the bee that you just saw.</p>\n                    <img src=\"bees-with-color/bee-B2DF.svg\" width=\"200\">\n                    <p><span class=\"greenText\"><b>Successful harvest!</b></span><br>Your pay has increased by $0.02. Your bonus pay is now $0.56.</p>\n            ","response":0,"trial_type":"html-button-response","trial_index":80,"time_elapsed":480949,"internal_node_id":"0.0-4.0-1.36","subject_id":"5f9261c7e1a8d117eadb3ba9","study_id":"60edd13110225f80f9f3709b","session_id":"6196c708b633ae8b44261b90","condition":"contingent","relevant_dimensions":["pattern","legs"],"bee_group":{"antennae":"X","wings":"X","pattern":"D","legs":"M"},"bonus":1.3600000000000012},{"rt":1046.1000000238419,"stimulus":"bees-with-color/bee-A1SM.svg","response":0,"trial_type":"image-button-response","trial_index":81,"time_elapsed":481997,"internal_node_id":"0.0-4.0-0.37","subject_id":"5f9261c7e1a8d117eadb3ba9","study_id":"60edd13110225f80f9f3709b","session_id":"6196c708b633ae8b44261b90","condition":"contingent","relevant_dimensions":["pattern","legs"],"bee_group":{"antennae":"X","wings":"X","pattern":"D","legs":"M"},"action":"harvest","summary":"good-harvest","bonus":1.3600000000000012},{"rt":447.6999999284744,"stimulus":"\n                    <p><b>Action: <em>harvest</em></b></p>\n                    <p>This is the bee that you just saw.</p>\n                    <img src=\"bees-with-color/bee-A1SM.svg\" width=\"200\">\n                    <p><span class=\"greenText\"><b>Successful harvest!</b></span><br>Your pay has increased by $0.02. Your bonus pay is now $0.58.</p>\n            ","response":0,"trial_type":"html-button-response","trial_index":82,"time_elapsed":482447,"internal_node_id":"0.0-4.0-1.37","subject_id":"5f9261c7e1a8d117eadb3ba9","study_id":"60edd13110225f80f9f3709b","session_id":"6196c708b633ae8b44261b90","condition":"contingent","relevant_dimensions":["pattern","legs"],"bee_group":{"antennae":"X","wings":"X","pattern":"D","legs":"M"},"bonus":1.3600000000000012},{"rt":596.4000000953674,"stimulus":"bees-with-color/bee-A2SM.svg","response":0,"trial_type":"image-button-response","trial_index":83,"time_elapsed":483045,"internal_node_id":"0.0-4.0-0.38","subject_id":"5f9261c7e1a8d117eadb3ba9","study_id":"60edd13110225f80f9f3709b","session_id":"6196c708b633ae8b44261b90","condition":"contingent","relevant_dimensions":["pattern","legs"],"bee_group":{"antennae":"X","wings":"X","pattern":"D","legs":"M"},"action":"harvest","summary":"good-harvest","bonus":1.3600000000000012},{"rt":384.1999999284744,"stimulus":"\n                    <p><b>Action: <em>harvest</em></b></p>\n                    <p>This is the bee that you just saw.</p>\n                    <img src=\"bees-with-color/bee-A2SM.svg\" width=\"200\">\n                    <p><span class=\"greenText\"><b>Successful harvest!</b></span><br>Your pay has increased by $0.02. Your bonus pay is now $0.60.</p>\n            ","response":0,"trial_type":"html-button-response","trial_index":84,"time_elapsed":483431,"internal_node_id":"0.0-4.0-1.38","subject_id":"5f9261c7e1a8d117eadb3ba9","study_id":"60edd13110225f80f9f3709b","session_id":"6196c708b633ae8b44261b90","condition":"contingent","relevant_dimensions":["pattern","legs"],"bee_group":{"antennae":"X","wings":"X","pattern":"D","legs":"M"},"bonus":1.3600000000000012},{"rt":588.3999999761581,"stimulus":"bees-with-color/bee-A1SF.svg","response":0,"trial_type":"image-button-response","trial_index":85,"time_elapsed":484021,"internal_node_id":"0.0-4.0-0.39","subject_id":"5f9261c7e1a8d117eadb3ba9","study_id":"60edd13110225f80f9f3709b","session_id":"6196c708b633ae8b44261b90","condition":"contingent","relevant_dimensions":["pattern","legs"],"bee_group":{"antennae":"X","wings":"X","pattern":"D","legs":"M"},"action":"harvest","summary":"good-harvest","bonus":1.3600000000000012},{"rt":525.6999999284744,"stimulus":"\n                    <p><b>Action: <em>harvest</em></b></p>\n                    <p>This is the bee that you just saw.</p>\n                    <img src=\"bees-with-color/bee-A1SF.svg\" width=\"200\">\n                    <p><span class=\"greenText\"><b>Successful harvest!</b></span><br>Your pay has increased by $0.02. Your bonus pay is now $0.62.</p>\n            ","response":0,"trial_type":"html-button-response","trial_index":86,"time_elapsed":484549,"internal_node_id":"0.0-4.0-1.39","subject_id":"5f9261c7e1a8d117eadb3ba9","study_id":"60edd13110225f80f9f3709b","session_id":"6196c708b633ae8b44261b90","condition":"contingent","relevant_dimensions":["pattern","legs"],"bee_group":{"antennae":"X","wings":"X","pattern":"D","legs":"M"},"bonus":1.3600000000000012},{"rt":3826.899999976158,"stimulus":"bees-with-color/bee-B1DF.svg","response":0,"trial_type":"image-button-response","trial_index":87,"time_elapsed":488378,"internal_node_id":"0.0-4.0-0.40","subject_id":"5f9261c7e1a8d117eadb3ba9","study_id":"60edd13110225f80f9f3709b","session_id":"6196c708b633ae8b44261b90","condition":"contingent","relevant_dimensions":["pattern","legs"],"bee_group":{"antennae":"X","wings":"X","pattern":"D","legs":"M"},"action":"harvest","summary":"good-harvest","bonus":1.3600000000000012},{"rt":879.5,"stimulus":"\n                    <p><b>Action: <em>harvest</em></b></p>\n                    <p>This is the bee that you just saw.</p>\n                    <img src=\"bees-with-color/bee-B1DF.svg\" width=\"200\">\n                    <p><span class=\"greenText\"><b>Successful harvest!</b></span><br>Your pay has increased by $0.02. Your bonus pay is now $0.64.</p>\n            ","response":0,"trial_type":"html-button-response","trial_index":88,"time_elapsed":489259,"internal_node_id":"0.0-4.0-1.40","subject_id":"5f9261c7e1a8d117eadb3ba9","study_id":"60edd13110225f80f9f3709b","session_id":"6196c708b633ae8b44261b90","condition":"contingent","relevant_dimensions":["pattern","legs"],"bee_group":{"antennae":"X","wings":"X","pattern":"D","legs":"M"},"bonus":1.3600000000000012},{"rt":6511.899999976158,"stimulus":"bees-with-color/bee-A2DF.svg","response":0,"trial_type":"image-button-response","trial_index":89,"time_elapsed":495773,"internal_node_id":"0.0-4.0-0.41","subject_id":"5f9261c7e1a8d117eadb3ba9","study_id":"60edd13110225f80f9f3709b","session_id":"6196c708b633ae8b44261b90","condition":"contingent","relevant_dimensions":["pattern","legs"],"bee_group":{"antennae":"X","wings":"X","pattern":"D","legs":"M"},"action":"harvest","summary":"good-harvest","bonus":1.3600000000000012},{"rt":840.2000000476837,"stimulus":"\n                    <p><b>Action: <em>harvest</em></b></p>\n                    <p>This is the bee that you just saw.</p>\n                    <img src=\"bees-with-color/bee-A2DF.svg\" width=\"200\">\n                    <p><span class=\"greenText\"><b>Successful harvest!</b></span><br>Your pay has increased by $0.02. Your bonus pay is now $0.66.</p>\n            ","response":0,"trial_type":"html-button-response","trial_index":90,"time_elapsed":496615,"internal_node_id":"0.0-4.0-1.41","subject_id":"5f9261c7e1a8d117eadb3ba9","study_id":"60edd13110225f80f9f3709b","session_id":"6196c708b633ae8b44261b90","condition":"contingent","relevant_dimensions":["pattern","legs"],"bee_group":{"antennae":"X","wings":"X","pattern":"D","legs":"M"},"bonus":1.3600000000000012},{"rt":801.3999999761581,"stimulus":"bees-with-color/bee-B2SF.svg","response":0,"trial_type":"image-button-response","trial_index":91,"time_elapsed":497419,"internal_node_id":"0.0-4.0-0.42","subject_id":"5f9261c7e1a8d117eadb3ba9","study_id":"60edd13110225f80f9f3709b","session_id":"6196c708b633ae8b44261b90","condition":"contingent","relevant_dimensions":["pattern","legs"],"bee_group":{"antennae":"X","wings":"X","pattern":"D","legs":"M"},"action":"harvest","summary":"good-harvest","bonus":1.3600000000000012},{"rt":384,"stimulus":"\n                    <p><b>Action: <em>harvest</em></b></p>\n                    <p>This is the bee that you just saw.</p>\n                    <img src=\"bees-with-color/bee-B2SF.svg\" width=\"200\">\n                    <p><span class=\"greenText\"><b>Successful harvest!</b></span><br>Your pay has increased by $0.02. Your bonus pay is now $0.68.</p>\n            ","response":0,"trial_type":"html-button-response","trial_index":92,"time_elapsed":497805,"internal_node_id":"0.0-4.0-1.42","subject_id":"5f9261c7e1a8d117eadb3ba9","study_id":"60edd13110225f80f9f3709b","session_id":"6196c708b633ae8b44261b90","condition":"contingent","relevant_dimensions":["pattern","legs"],"bee_group":{"antennae":"X","wings":"X","pattern":"D","legs":"M"},"bonus":1.3600000000000012},{"rt":580.6999999284744,"stimulus":"bees-with-color/bee-A2SF.svg","response":0,"trial_type":"image-button-response","trial_index":93,"time_elapsed":498387,"internal_node_id":"0.0-4.0-0.43","subject_id":"5f9261c7e1a8d117eadb3ba9","study_id":"60edd13110225f80f9f3709b","session_id":"6196c708b633ae8b44261b90","condition":"contingent","relevant_dimensions":["pattern","legs"],"bee_group":{"antennae":"X","wings":"X","pattern":"D","legs":"M"},"action":"harvest","summary":"good-harvest","bonus":1.3600000000000012},{"rt":383.7999999523163,"stimulus":"\n                    <p><b>Action: <em>harvest</em></b></p>\n                    <p>This is the bee that you just saw.</p>\n                    <img src=\"bees-with-color/bee-A2SF.svg\" width=\"200\">\n                    <p><span class=\"greenText\"><b>Successful harvest!</b></span><br>Your pay has increased by $0.02. Your bonus pay is now $0.70.</p>\n            ","response":0,"trial_type":"html-button-response","trial_index":94,"time_elapsed":498773,"internal_node_id":"0.0-4.0-1.43","subject_id":"5f9261c7e1a8d117eadb3ba9","study_id":"60edd13110225f80f9f3709b","session_id":"6196c708b633ae8b44261b90","condition":"contingent","relevant_dimensions":["pattern","legs"],"bee_group":{"antennae":"X","wings":"X","pattern":"D","legs":"M"},"bonus":1.3600000000000012},{"rt":628.3999999761581,"stimulus":"bees-with-color/bee-B1SF.svg","response":0,"trial_type":"image-button-response","trial_index":95,"time_elapsed":499403,"internal_node_id":"0.0-4.0-0.44","subject_id":"5f9261c7e1a8d117eadb3ba9","study_id":"60edd13110225f80f9f3709b","session_id":"6196c708b633ae8b44261b90","condition":"contingent","relevant_dimensions":["pattern","legs"],"bee_group":{"antennae":"X","wings":"X","pattern":"D","legs":"M"},"action":"harvest","summary":"good-harvest","bonus":1.3600000000000012},{"rt":502.10000002384186,"stimulus":"\n                    <p><b>Action: <em>harvest</em></b></p>\n                    <p>This is the bee that you just saw.</p>\n                    <img src=\"bees-with-color/bee-B1SF.svg\" width=\"200\">\n                    <p><span class=\"greenText\"><b>Successful harvest!</b></span><br>Your pay has increased by $0.02. Your bonus pay is now $0.72.</p>\n            ","response":0,"trial_type":"html-button-response","trial_index":96,"time_elapsed":499907,"internal_node_id":"0.0-4.0-1.44","subject_id":"5f9261c7e1a8d117eadb3ba9","study_id":"60edd13110225f80f9f3709b","session_id":"6196c708b633ae8b44261b90","condition":"contingent","relevant_dimensions":["pattern","legs"],"bee_group":{"antennae":"X","wings":"X","pattern":"D","legs":"M"},"bonus":1.3600000000000012},{"rt":871.6000000238419,"stimulus":"bees-with-color/bee-B1SM.svg","response":0,"trial_type":"image-button-response","trial_index":97,"time_elapsed":500781,"internal_node_id":"0.0-4.0-0.45","subject_id":"5f9261c7e1a8d117eadb3ba9","study_id":"60edd13110225f80f9f3709b","session_id":"6196c708b633ae8b44261b90","condition":"contingent","relevant_dimensions":["pattern","legs"],"bee_group":{"antennae":"X","wings":"X","pattern":"D","legs":"M"},"action":"harvest","summary":"good-harvest","bonus":1.3600000000000012},{"rt":456.2000000476837,"stimulus":"\n                    <p><b>Action: <em>harvest</em></b></p>\n                    <p>This is the bee that you just saw.</p>\n                    <img src=\"bees-with-color/bee-B1SM.svg\" width=\"200\">\n                    <p><span class=\"greenText\"><b>Successful harvest!</b></span><br>Your pay has increased by $0.02. Your bonus pay is now $0.74.</p>\n            ","response":0,"trial_type":"html-button-response","trial_index":98,"time_elapsed":501239,"internal_node_id":"0.0-4.0-1.45","subject_id":"5f9261c7e1a8d117eadb3ba9","study_id":"60edd13110225f80f9f3709b","session_id":"6196c708b633ae8b44261b90","condition":"contingent","relevant_dimensions":["pattern","legs"],"bee_group":{"antennae":"X","wings":"X","pattern":"D","legs":"M"},"bonus":1.3600000000000012},{"rt":4762.199999928474,"stimulus":"bees-with-color/bee-A1DM.svg","response":1,"trial_type":"image-button-response","trial_index":99,"time_elapsed":506003,"internal_node_id":"0.0-4.0-0.46","subject_id":"5f9261c7e1a8d117eadb3ba9","study_id":"60edd13110225f80f9f3709b","session_id":"6196c708b633ae8b44261b90","condition":"contingent","relevant_dimensions":["pattern","legs"],"bee_group":{"antennae":"X","wings":"X","pattern":"D","legs":"M"},"action":"avoid","summary":"good-avoid","bonus":1.3600000000000012},{"rt":431.5,"stimulus":"\n                    <p><b>Action: <em>avoid</em></b></p>\n                    <p>This is the bee that you just saw.</p>\n                    <img src=\"bees-with-color/bee-A1DM.svg\" width=\"200\">\n                    <p><br>Your bonus pay is unchanged, and remains at $0.74.</p>\n            ","response":0,"trial_type":"html-button-response","trial_index":100,"time_elapsed":506437,"internal_node_id":"0.0-4.0-1.46","subject_id":"5f9261c7e1a8d117eadb3ba9","study_id":"60edd13110225f80f9f3709b","session_id":"6196c708b633ae8b44261b90","condition":"contingent","relevant_dimensions":["pattern","legs"],"bee_group":{"antennae":"X","wings":"X","pattern":"D","legs":"M"},"bonus":1.3600000000000012},{"rt":6590.100000023842,"stimulus":"bees-with-color/bee-B2DM.svg","response":1,"trial_type":"image-button-response","trial_index":101,"time_elapsed":513029,"internal_node_id":"0.0-4.0-0.47","subject_id":"5f9261c7e1a8d117eadb3ba9","study_id":"60edd13110225f80f9f3709b","session_id":"6196c708b633ae8b44261b90","condition":"contingent","relevant_dimensions":["pattern","legs"],"bee_group":{"antennae":"X","wings":"X","pattern":"D","legs":"M"},"action":"avoid","summary":"good-avoid","bonus":1.3600000000000012},{"rt":692,"stimulus":"\n                    <p><b>Action: <em>avoid</em></b></p>\n                    <p>This is the bee that you just saw.</p>\n                    <img src=\"bees-with-color/bee-B2DM.svg\" width=\"200\">\n                    <p><br>Your bonus pay is unchanged, and remains at $0.74.</p>\n            ","response":0,"trial_type":"html-button-response","trial_index":102,"time_elapsed":513723,"internal_node_id":"0.0-4.0-1.47","subject_id":"5f9261c7e1a8d117eadb3ba9","study_id":"60edd13110225f80f9f3709b","session_id":"6196c708b633ae8b44261b90","condition":"contingent","relevant_dimensions":["pattern","legs"],"bee_group":{"antennae":"X","wings":"X","pattern":"D","legs":"M"},"bonus":1.3600000000000012},{"rt":5029.200000047684,"stimulus":"bees-with-color/bee-A2DF.svg","response":0,"trial_type":"image-button-response","trial_index":103,"time_elapsed":518754,"internal_node_id":"0.0-4.0-0.48","subject_id":"5f9261c7e1a8d117eadb3ba9","study_id":"60edd13110225f80f9f3709b","session_id":"6196c708b633ae8b44261b90","condition":"contingent","relevant_dimensions":["pattern","legs"],"bee_group":{"antennae":"X","wings":"X","pattern":"D","legs":"M"},"action":"harvest","summary":"good-harvest","bonus":1.3600000000000012},{"rt":928.6999999284744,"stimulus":"\n                    <p><b>Action: <em>harvest</em></b></p>\n                    <p>This is the bee that you just saw.</p>\n                    <img src=\"bees-with-color/bee-A2DF.svg\" width=\"200\">\n                    <p><span class=\"greenText\"><b>Successful harvest!</b></span><br>Your pay has increased by $0.02. Your bonus pay is now $0.76.</p>\n            ","response":0,"trial_type":"html-button-response","trial_index":104,"time_elapsed":519685,"internal_node_id":"0.0-4.0-1.48","subject_id":"5f9261c7e1a8d117eadb3ba9","study_id":"60edd13110225f80f9f3709b","session_id":"6196c708b633ae8b44261b90","condition":"contingent","relevant_dimensions":["pattern","legs"],"bee_group":{"antennae":"X","wings":"X","pattern":"D","legs":"M"},"bonus":1.3600000000000012},{"rt":706.4000000953674,"stimulus":"bees-with-color/bee-A2SF.svg","response":0,"trial_type":"image-button-response","trial_index":105,"time_elapsed":520393,"internal_node_id":"0.0-4.0-0.49","subject_id":"5f9261c7e1a8d117eadb3ba9","study_id":"60edd13110225f80f9f3709b","session_id":"6196c708b633ae8b44261b90","condition":"contingent","relevant_dimensions":["pattern","legs"],"bee_group":{"antennae":"X","wings":"X","pattern":"D","legs":"M"},"action":"harvest","summary":"good-harvest","bonus":1.3600000000000012},{"rt":509.3000000715256,"stimulus":"\n                    <p><b>Action: <em>harvest</em></b></p>\n                    <p>This is the bee that you just saw.</p>\n                    <img src=\"bees-with-color/bee-A2SF.svg\" width=\"200\">\n                    <p><span class=\"greenText\"><b>Successful harvest!</b></span><br>Your pay has increased by $0.02. Your bonus pay is now $0.78.</p>\n            ","response":0,"trial_type":"html-button-response","trial_index":106,"time_elapsed":520904,"internal_node_id":"0.0-4.0-1.49","subject_id":"5f9261c7e1a8d117eadb3ba9","study_id":"60edd13110225f80f9f3709b","session_id":"6196c708b633ae8b44261b90","condition":"contingent","relevant_dimensions":["pattern","legs"],"bee_group":{"antennae":"X","wings":"X","pattern":"D","legs":"M"},"bonus":1.3600000000000012},{"rt":636.6999999284744,"stimulus":"bees-with-color/bee-A1SM.svg","response":0,"trial_type":"image-button-response","trial_index":107,"time_elapsed":521542,"internal_node_id":"0.0-4.0-0.50","subject_id":"5f9261c7e1a8d117eadb3ba9","study_id":"60edd13110225f80f9f3709b","session_id":"6196c708b633ae8b44261b90","condition":"contingent","relevant_dimensions":["pattern","legs"],"bee_group":{"antennae":"X","wings":"X","pattern":"D","legs":"M"},"action":"harvest","summary":"good-harvest","bonus":1.3600000000000012},{"rt":558.1000000238419,"stimulus":"\n                    <p><b>Action: <em>harvest</em></b></p>\n                    <p>This is the bee that you just saw.</p>\n                    <img src=\"bees-with-color/bee-A1SM.svg\" width=\"200\">\n                    <p><span class=\"greenText\"><b>Successful harvest!</b></span><br>Your pay has increased by $0.02. Your bonus pay is now $0.80.</p>\n            ","response":0,"trial_type":"html-button-response","trial_index":108,"time_elapsed":522103,"internal_node_id":"0.0-4.0-1.50","subject_id":"5f9261c7e1a8d117eadb3ba9","study_id":"60edd13110225f80f9f3709b","session_id":"6196c708b633ae8b44261b90","condition":"contingent","relevant_dimensions":["pattern","legs"],"bee_group":{"antennae":"X","wings":"X","pattern":"D","legs":"M"},"bonus":1.3600000000000012},{"rt":479,"stimulus":"bees-with-color/bee-B1SM.svg","response":0,"trial_type":"image-button-response","trial_index":109,"time_elapsed":522583,"internal_node_id":"0.0-4.0-0.51","subject_id":"5f9261c7e1a8d117eadb3ba9","study_id":"60edd13110225f80f9f3709b","session_id":"6196c708b633ae8b44261b90","condition":"contingent","relevant_dimensions":["pattern","legs"],"bee_group":{"antennae":"X","wings":"X","pattern":"D","legs":"M"},"action":"harvest","summary":"good-harvest","bonus":1.3600000000000012},{"rt":368.5,"stimulus":"\n                    <p><b>Action: <em>harvest</em></b></p>\n                    <p>This is the bee that you just saw.</p>\n                    <img src=\"bees-with-color/bee-B1SM.svg\" width=\"200\">\n                    <p><span class=\"greenText\"><b>Successful harvest!</b></span><br>Your pay has increased by $0.02. Your bonus pay is now $0.82.</p>\n            ","response":0,"trial_type":"html-button-response","trial_index":110,"time_elapsed":522953,"internal_node_id":"0.0-4.0-1.51","subject_id":"5f9261c7e1a8d117eadb3ba9","study_id":"60edd13110225f80f9f3709b","session_id":"6196c708b633ae8b44261b90","condition":"contingent","relevant_dimensions":["pattern","legs"],"bee_group":{"antennae":"X","wings":"X","pattern":"D","legs":"M"},"bonus":1.3600000000000012},{"rt":9472.100000023842,"stimulus":"bees-with-color/bee-A2DM.svg","response":1,"trial_type":"image-button-response","trial_index":111,"time_elapsed":532427,"internal_node_id":"0.0-4.0-0.52","subject_id":"5f9261c7e1a8d117eadb3ba9","study_id":"60edd13110225f80f9f3709b","session_id":"6196c708b633ae8b44261b90","condition":"contingent","relevant_dimensions":["pattern","legs"],"bee_group":{"antennae":"X","wings":"X","pattern":"D","legs":"M"},"action":"avoid","summary":"good-avoid","bonus":1.3600000000000012},{"rt":485.7999999523163,"stimulus":"\n                    <p><b>Action: <em>avoid</em></b></p>\n                    <p>This is the bee that you just saw.</p>\n                    <img src=\"bees-with-color/bee-A2DM.svg\" width=\"200\">\n                    <p><br>Your bonus pay is unchanged, and remains at $0.82.</p>\n            ","response":0,"trial_type":"html-button-response","trial_index":112,"time_elapsed":532915,"internal_node_id":"0.0-4.0-1.52","subject_id":"5f9261c7e1a8d117eadb3ba9","study_id":"60edd13110225f80f9f3709b","session_id":"6196c708b633ae8b44261b90","condition":"contingent","relevant_dimensions":["pattern","legs"],"bee_group":{"antennae":"X","wings":"X","pattern":"D","legs":"M"},"bonus":1.3600000000000012},{"rt":3683.7000000476837,"stimulus":"bees-with-color/bee-B2DF.svg","response":0,"trial_type":"image-button-response","trial_index":113,"time_elapsed":536600,"internal_node_id":"0.0-4.0-0.53","subject_id":"5f9261c7e1a8d117eadb3ba9","study_id":"60edd13110225f80f9f3709b","session_id":"6196c708b633ae8b44261b90","condition":"contingent","relevant_dimensions":["pattern","legs"],"bee_group":{"antennae":"X","wings":"X","pattern":"D","legs":"M"},"action":"harvest","summary":"good-harvest","bonus":1.3600000000000012},{"rt":1031.1000000238419,"stimulus":"\n                    <p><b>Action: <em>harvest</em></b></p>\n                    <p>This is the bee that you just saw.</p>\n                    <img src=\"bees-with-color/bee-B2DF.svg\" width=\"200\">\n                    <p><span class=\"greenText\"><b>Successful harvest!</b></span><br>Your pay has increased by $0.02. Your bonus pay is now $0.84.</p>\n            ","response":0,"trial_type":"html-button-response","trial_index":114,"time_elapsed":537633,"internal_node_id":"0.0-4.0-1.53","subject_id":"5f9261c7e1a8d117eadb3ba9","study_id":"60edd13110225f80f9f3709b","session_id":"6196c708b633ae8b44261b90","condition":"contingent","relevant_dimensions":["pattern","legs"],"bee_group":{"antennae":"X","wings":"X","pattern":"D","legs":"M"},"bonus":1.3600000000000012},{"rt":3700.1999999284744,"stimulus":"bees-with-color/bee-B2DM.svg","response":1,"trial_type":"image-button-response","trial_index":115,"time_elapsed":541335,"internal_node_id":"0.0-4.0-0.54","subject_id":"5f9261c7e1a8d117eadb3ba9","study_id":"60edd13110225f80f9f3709b","session_id":"6196c708b633ae8b44261b90","condition":"contingent","relevant_dimensions":["pattern","legs"],"bee_group":{"antennae":"X","wings":"X","pattern":"D","legs":"M"},"action":"avoid","summary":"good-avoid","bonus":1.3600000000000012},{"rt":973.4000000953674,"stimulus":"\n                    <p><b>Action: <em>avoid</em></b></p>\n                    <p>This is the bee that you just saw.</p>\n                    <img src=\"bees-with-color/bee-B2DM.svg\" width=\"200\">\n                    <p><br>Your bonus pay is unchanged, and remains at $0.84.</p>\n            ","response":0,"trial_type":"html-button-response","trial_index":116,"time_elapsed":542310,"internal_node_id":"0.0-4.0-1.54","subject_id":"5f9261c7e1a8d117eadb3ba9","study_id":"60edd13110225f80f9f3709b","session_id":"6196c708b633ae8b44261b90","condition":"contingent","relevant_dimensions":["pattern","legs"],"bee_group":{"antennae":"X","wings":"X","pattern":"D","legs":"M"},"bonus":1.3600000000000012},{"rt":943.1000000238419,"stimulus":"bees-with-color/bee-B2SF.svg","response":0,"trial_type":"image-button-response","trial_index":117,"time_elapsed":543255,"internal_node_id":"0.0-4.0-0.55","subject_id":"5f9261c7e1a8d117eadb3ba9","study_id":"60edd13110225f80f9f3709b","session_id":"6196c708b633ae8b44261b90","condition":"contingent","relevant_dimensions":["pattern","legs"],"bee_group":{"antennae":"X","wings":"X","pattern":"D","legs":"M"},"action":"harvest","summary":"good-harvest","bonus":1.3600000000000012},{"rt":455.90000009536743,"stimulus":"\n                    <p><b>Action: <em>harvest</em></b></p>\n                    <p>This is the bee that you just saw.</p>\n                    <img src=\"bees-with-color/bee-B2SF.svg\" width=\"200\">\n                    <p><span class=\"greenText\"><b>Successful harvest!</b></span><br>Your pay has increased by $0.02. Your bonus pay is now $0.86.</p>\n            ","response":0,"trial_type":"html-button-response","trial_index":118,"time_elapsed":543713,"internal_node_id":"0.0-4.0-1.55","subject_id":"5f9261c7e1a8d117eadb3ba9","study_id":"60edd13110225f80f9f3709b","session_id":"6196c708b633ae8b44261b90","condition":"contingent","relevant_dimensions":["pattern","legs"],"bee_group":{"antennae":"X","wings":"X","pattern":"D","legs":"M"},"bonus":1.3600000000000012},{"rt":942.7999999523163,"stimulus":"bees-with-color/bee-A1SF.svg","response":0,"trial_type":"image-button-response","trial_index":119,"time_elapsed":544657,"internal_node_id":"0.0-4.0-0.56","subject_id":"5f9261c7e1a8d117eadb3ba9","study_id":"60edd13110225f80f9f3709b","session_id":"6196c708b633ae8b44261b90","condition":"contingent","relevant_dimensions":["pattern","legs"],"bee_group":{"antennae":"X","wings":"X","pattern":"D","legs":"M"},"action":"harvest","summary":"good-harvest","bonus":1.3600000000000012},{"rt":502.3000000715256,"stimulus":"\n                    <p><b>Action: <em>harvest</em></b></p>\n                    <p>This is the bee that you just saw.</p>\n                    <img src=\"bees-with-color/bee-A1SF.svg\" width=\"200\">\n                    <p><span class=\"greenText\"><b>Successful harvest!</b></span><br>Your pay has increased by $0.02. Your bonus pay is now $0.88.</p>\n            ","response":0,"trial_type":"html-button-response","trial_index":120,"time_elapsed":545161,"internal_node_id":"0.0-4.0-1.56","subject_id":"5f9261c7e1a8d117eadb3ba9","study_id":"60edd13110225f80f9f3709b","session_id":"6196c708b633ae8b44261b90","condition":"contingent","relevant_dimensions":["pattern","legs"],"bee_group":{"antennae":"X","wings":"X","pattern":"D","legs":"M"},"bonus":1.3600000000000012},{"rt":4960.299999952316,"stimulus":"bees-with-color/bee-B1DF.svg","response":0,"trial_type":"image-button-response","trial_index":121,"time_elapsed":550123,"internal_node_id":"0.0-4.0-0.57","subject_id":"5f9261c7e1a8d117eadb3ba9","study_id":"60edd13110225f80f9f3709b","session_id":"6196c708b633ae8b44261b90","condition":"contingent","relevant_dimensions":["pattern","legs"],"bee_group":{"antennae":"X","wings":"X","pattern":"D","legs":"M"},"action":"harvest","summary":"good-harvest","bonus":1.3600000000000012},{"rt":439.89999997615814,"stimulus":"\n                    <p><b>Action: <em>harvest</em></b></p>\n                    <p>This is the bee that you just saw.</p>\n                    <img src=\"bees-with-color/bee-B1DF.svg\" width=\"200\">\n                    <p><span class=\"greenText\"><b>Successful harvest!</b></span><br>Your pay has increased by $0.02. Your bonus pay is now $0.90.</p>\n            ","response":0,"trial_type":"html-button-response","trial_index":122,"time_elapsed":550565,"internal_node_id":"0.0-4.0-1.57","subject_id":"5f9261c7e1a8d117eadb3ba9","study_id":"60edd13110225f80f9f3709b","session_id":"6196c708b633ae8b44261b90","condition":"contingent","relevant_dimensions":["pattern","legs"],"bee_group":{"antennae":"X","wings":"X","pattern":"D","legs":"M"},"bonus":1.3600000000000012},{"rt":8292,"stimulus":"bees-with-color/bee-A1DF.svg","response":0,"trial_type":"image-button-response","trial_index":123,"time_elapsed":558859,"internal_node_id":"0.0-4.0-0.58","subject_id":"5f9261c7e1a8d117eadb3ba9","study_id":"60edd13110225f80f9f3709b","session_id":"6196c708b633ae8b44261b90","condition":"contingent","relevant_dimensions":["pattern","legs"],"bee_group":{"antennae":"X","wings":"X","pattern":"D","legs":"M"},"action":"harvest","summary":"good-harvest","bonus":1.3600000000000012},{"rt":453.2000000476837,"stimulus":"\n                    <p><b>Action: <em>harvest</em></b></p>\n                    <p>This is the bee that you just saw.</p>\n                    <img src=\"bees-with-color/bee-A1DF.svg\" width=\"200\">\n                    <p><span class=\"greenText\"><b>Successful harvest!</b></span><br>Your pay has increased by $0.02. Your bonus pay is now $0.92.</p>\n            ","response":0,"trial_type":"html-button-response","trial_index":124,"time_elapsed":559314,"internal_node_id":"0.0-4.0-1.58","subject_id":"5f9261c7e1a8d117eadb3ba9","study_id":"60edd13110225f80f9f3709b","session_id":"6196c708b633ae8b44261b90","condition":"contingent","relevant_dimensions":["pattern","legs"],"bee_group":{"antennae":"X","wings":"X","pattern":"D","legs":"M"},"bonus":1.3600000000000012},{"rt":643.9000000953674,"stimulus":"bees-with-color/bee-B2SM.svg","response":0,"trial_type":"image-button-response","trial_index":125,"time_elapsed":559960,"internal_node_id":"0.0-4.0-0.59","subject_id":"5f9261c7e1a8d117eadb3ba9","study_id":"60edd13110225f80f9f3709b","session_id":"6196c708b633ae8b44261b90","condition":"contingent","relevant_dimensions":["pattern","legs"],"bee_group":{"antennae":"X","wings":"X","pattern":"D","legs":"M"},"action":"harvest","summary":"good-harvest","bonus":1.3600000000000012},{"rt":424,"stimulus":"\n                    <p><b>Action: <em>harvest</em></b></p>\n                    <p>This is the bee that you just saw.</p>\n                    <img src=\"bees-with-color/bee-B2SM.svg\" width=\"200\">\n                    <p><span class=\"greenText\"><b>Successful harvest!</b></span><br>Your pay has increased by $0.02. Your bonus pay is now $0.94.</p>\n            ","response":0,"trial_type":"html-button-response","trial_index":126,"time_elapsed":560387,"internal_node_id":"0.0-4.0-1.59","subject_id":"5f9261c7e1a8d117eadb3ba9","study_id":"60edd13110225f80f9f3709b","session_id":"6196c708b633ae8b44261b90","condition":"contingent","relevant_dimensions":["pattern","legs"],"bee_group":{"antennae":"X","wings":"X","pattern":"D","legs":"M"},"bonus":1.3600000000000012},{"rt":7298.299999952316,"stimulus":"bees-with-color/bee-A1DM.svg","response":1,"trial_type":"image-button-response","trial_index":127,"time_elapsed":567687,"internal_node_id":"0.0-4.0-0.60","subject_id":"5f9261c7e1a8d117eadb3ba9","study_id":"60edd13110225f80f9f3709b","session_id":"6196c708b633ae8b44261b90","condition":"contingent","relevant_dimensions":["pattern","legs"],"bee_group":{"antennae":"X","wings":"X","pattern":"D","legs":"M"},"action":"avoid","summary":"good-avoid","bonus":1.3600000000000012},{"rt":1006.0999999046326,"stimulus":"\n                    <p><b>Action: <em>avoid</em></b></p>\n                    <p>This is the bee that you just saw.</p>\n                    <img src=\"bees-with-color/bee-A1DM.svg\" width=\"200\">\n                    <p><br>Your bonus pay is unchanged, and remains at $0.94.</p>\n            ","response":0,"trial_type":"html-button-response","trial_index":128,"time_elapsed":568694,"internal_node_id":"0.0-4.0-1.60","subject_id":"5f9261c7e1a8d117eadb3ba9","study_id":"60edd13110225f80f9f3709b","session_id":"6196c708b633ae8b44261b90","condition":"contingent","relevant_dimensions":["pattern","legs"],"bee_group":{"antennae":"X","wings":"X","pattern":"D","legs":"M"},"bonus":1.3600000000000012},{"rt":746.1000000238419,"stimulus":"bees-with-color/bee-B1SF.svg","response":0,"trial_type":"image-button-response","trial_index":129,"time_elapsed":569443,"internal_node_id":"0.0-4.0-0.61","subject_id":"5f9261c7e1a8d117eadb3ba9","study_id":"60edd13110225f80f9f3709b","session_id":"6196c708b633ae8b44261b90","condition":"contingent","relevant_dimensions":["pattern","legs"],"bee_group":{"antennae":"X","wings":"X","pattern":"D","legs":"M"},"action":"harvest","summary":"good-harvest","bonus":1.3600000000000012},{"rt":335.40000009536743,"stimulus":"\n                    <p><b>Action: <em>harvest</em></b></p>\n                    <p>This is the bee that you just saw.</p>\n                    <img src=\"bees-with-color/bee-B1SF.svg\" width=\"200\">\n                    <p><span class=\"greenText\"><b>Successful harvest!</b></span><br>Your pay has increased by $0.02. Your bonus pay is now $0.96.</p>\n            ","response":0,"trial_type":"html-button-response","trial_index":130,"time_elapsed":569780,"internal_node_id":"0.0-4.0-1.61","subject_id":"5f9261c7e1a8d117eadb3ba9","study_id":"60edd13110225f80f9f3709b","session_id":"6196c708b633ae8b44261b90","condition":"contingent","relevant_dimensions":["pattern","legs"],"bee_group":{"antennae":"X","wings":"X","pattern":"D","legs":"M"},"bonus":1.3600000000000012},{"rt":3891.2000000476837,"stimulus":"bees-with-color/bee-B1DM.svg","response":1,"trial_type":"image-button-response","trial_index":131,"time_elapsed":573673,"internal_node_id":"0.0-4.0-0.62","subject_id":"5f9261c7e1a8d117eadb3ba9","study_id":"60edd13110225f80f9f3709b","session_id":"6196c708b633ae8b44261b90","condition":"contingent","relevant_dimensions":["pattern","legs"],"bee_group":{"antennae":"X","wings":"X","pattern":"D","legs":"M"},"action":"avoid","summary":"good-avoid","bonus":1.3600000000000012},{"rt":824,"stimulus":"\n                    <p><b>Action: <em>avoid</em></b></p>\n                    <p>This is the bee that you just saw.</p>\n                    <img src=\"bees-with-color/bee-B1DM.svg\" width=\"200\">\n                    <p><br>Your bonus pay is unchanged, and remains at $0.96.</p>\n            ","response":0,"trial_type":"html-button-response","trial_index":132,"time_elapsed":574499,"internal_node_id":"0.0-4.0-1.62","subject_id":"5f9261c7e1a8d117eadb3ba9","study_id":"60edd13110225f80f9f3709b","session_id":"6196c708b633ae8b44261b90","condition":"contingent","relevant_dimensions":["pattern","legs"],"bee_group":{"antennae":"X","wings":"X","pattern":"D","legs":"M"},"bonus":1.3600000000000012},{"rt":651.5,"stimulus":"bees-with-color/bee-A2SM.svg","response":0,"trial_type":"image-button-response","trial_index":133,"time_elapsed":575152,"internal_node_id":"0.0-4.0-0.63","subject_id":"5f9261c7e1a8d117eadb3ba9","study_id":"60edd13110225f80f9f3709b","session_id":"6196c708b633ae8b44261b90","condition":"contingent","relevant_dimensions":["pattern","legs"],"bee_group":{"antennae":"X","wings":"X","pattern":"D","legs":"M"},"action":"harvest","summary":"good-harvest","bonus":1.3600000000000012},{"rt":510,"stimulus":"\n                    <p><b>Action: <em>harvest</em></b></p>\n                    <p>This is the bee that you just saw.</p>\n                    <img src=\"bees-with-color/bee-A2SM.svg\" width=\"200\">\n                    <p><span class=\"greenText\"><b>Successful harvest!</b></span><br>Your pay has increased by $0.02. Your bonus pay is now $0.98.</p>\n            ","response":0,"trial_type":"html-button-response","trial_index":134,"time_elapsed":575665,"internal_node_id":"0.0-4.0-1.63","subject_id":"5f9261c7e1a8d117eadb3ba9","study_id":"60edd13110225f80f9f3709b","session_id":"6196c708b633ae8b44261b90","condition":"contingent","relevant_dimensions":["pattern","legs"],"bee_group":{"antennae":"X","wings":"X","pattern":"D","legs":"M"},"bonus":1.3600000000000012},{"rt":5343.799999952316,"stimulus":"You have completed the first part of this experiment.<br><br>You will now begin a shorter second part, in which you will receive no feedback.<br>The same rules regarding bonus pay apply.<br><br>Press any key to begin.","response":" ","trial_type":"html-keyboard-response","trial_index":135,"time_elapsed":581011,"internal_node_id":"0.0-5.0","subject_id":"5f9261c7e1a8d117eadb3ba9","study_id":"60edd13110225f80f9f3709b","session_id":"6196c708b633ae8b44261b90","condition":"contingent","relevant_dimensions":["pattern","legs"],"bee_group":{"antennae":"X","wings":"X","pattern":"D","legs":"M"},"bonus":1.3600000000000012},{"rt":5127.799999952316,"stimulus":"bees-with-color/bee-B1DF.svg","response":0,"trial_type":"image-button-response","trial_index":136,"time_elapsed":586155,"internal_node_id":"0.0-6.0-0.0","subject_id":"5f9261c7e1a8d117eadb3ba9","study_id":"60edd13110225f80f9f3709b","session_id":"6196c708b633ae8b44261b90","condition":"contingent","relevant_dimensions":["pattern","legs"],"bee_group":{"antennae":"X","wings":"X","pattern":"D","legs":"M"},"bonus":1.3600000000000012},{"rt":16518,"stimulus":"bees-with-color/bee-B1DM.svg","response":0,"trial_type":"image-button-response","trial_index":137,"time_elapsed":602676,"internal_node_id":"0.0-6.0-0.1","subject_id":"5f9261c7e1a8d117eadb3ba9","study_id":"60edd13110225f80f9f3709b","session_id":"6196c708b633ae8b44261b90","condition":"contingent","relevant_dimensions":["pattern","legs"],"bee_group":{"antennae":"X","wings":"X","pattern":"D","legs":"M"},"bonus":1.3600000000000012},{"rt":643.1000000238419,"stimulus":"bees-with-color/bee-B1SF.svg","response":0,"trial_type":"image-button-response","trial_index":138,"time_elapsed":603322,"internal_node_id":"0.0-6.0-0.2","subject_id":"5f9261c7e1a8d117eadb3ba9","study_id":"60edd13110225f80f9f3709b","session_id":"6196c708b633ae8b44261b90","condition":"contingent","relevant_dimensions":["pattern","legs"],"bee_group":{"antennae":"X","wings":"X","pattern":"D","legs":"M"},"bonus":1.3600000000000012},{"rt":463.60000002384186,"stimulus":"bees-with-color/bee-A2SF.svg","response":0,"trial_type":"image-button-response","trial_index":139,"time_elapsed":603789,"internal_node_id":"0.0-6.0-0.3","subject_id":"5f9261c7e1a8d117eadb3ba9","study_id":"60edd13110225f80f9f3709b","session_id":"6196c708b633ae8b44261b90","condition":"contingent","relevant_dimensions":["pattern","legs"],"bee_group":{"antennae":"X","wings":"X","pattern":"D","legs":"M"},"bonus":1.3600000000000012},{"rt":4067.1999999284744,"stimulus":"bees-with-color/bee-A1DF.svg","response":0,"trial_type":"image-button-response","trial_index":140,"time_elapsed":607859,"internal_node_id":"0.0-6.0-0.4","subject_id":"5f9261c7e1a8d117eadb3ba9","study_id":"60edd13110225f80f9f3709b","session_id":"6196c708b633ae8b44261b90","condition":"contingent","relevant_dimensions":["pattern","legs"],"bee_group":{"antennae":"X","wings":"X","pattern":"D","legs":"M"},"bonus":1.3600000000000012},{"rt":722.9000000953674,"stimulus":"bees-with-color/bee-A1SM.svg","response":0,"trial_type":"image-button-response","trial_index":141,"time_elapsed":608585,"internal_node_id":"0.0-6.0-0.5","subject_id":"5f9261c7e1a8d117eadb3ba9","study_id":"60edd13110225f80f9f3709b","session_id":"6196c708b633ae8b44261b90","condition":"contingent","relevant_dimensions":["pattern","legs"],"bee_group":{"antennae":"X","wings":"X","pattern":"D","legs":"M"},"bonus":1.3600000000000012},{"rt":6145.899999976158,"stimulus":"bees-with-color/bee-A2DM.svg","response":1,"trial_type":"image-button-response","trial_index":142,"time_elapsed":614734,"internal_node_id":"0.0-6.0-0.6","subject_id":"5f9261c7e1a8d117eadb3ba9","study_id":"60edd13110225f80f9f3709b","session_id":"6196c708b633ae8b44261b90","condition":"contingent","relevant_dimensions":["pattern","legs"],"bee_group":{"antennae":"X","wings":"X","pattern":"D","legs":"M"},"bonus":1.3600000000000012},{"rt":634.7999999523163,"stimulus":"bees-with-color/bee-A1SF.svg","response":0,"trial_type":"image-button-response","trial_index":143,"time_elapsed":615372,"internal_node_id":"0.0-6.0-0.7","subject_id":"5f9261c7e1a8d117eadb3ba9","study_id":"60edd13110225f80f9f3709b","session_id":"6196c708b633ae8b44261b90","condition":"contingent","relevant_dimensions":["pattern","legs"],"bee_group":{"antennae":"X","wings":"X","pattern":"D","legs":"M"},"bonus":1.3600000000000012},{"rt":1728.6000000238419,"stimulus":"bees-with-color/bee-A2DF.svg","response":0,"trial_type":"image-button-response","trial_index":144,"time_elapsed":617104,"internal_node_id":"0.0-6.0-0.8","subject_id":"5f9261c7e1a8d117eadb3ba9","study_id":"60edd13110225f80f9f3709b","session_id":"6196c708b633ae8b44261b90","condition":"contingent","relevant_dimensions":["pattern","legs"],"bee_group":{"antennae":"X","wings":"X","pattern":"D","legs":"M"},"bonus":1.3600000000000012},{"rt":5747.5,"stimulus":"bees-with-color/bee-A1DM.svg","response":1,"trial_type":"image-button-response","trial_index":145,"time_elapsed":622854,"internal_node_id":"0.0-6.0-0.9","subject_id":"5f9261c7e1a8d117eadb3ba9","study_id":"60edd13110225f80f9f3709b","session_id":"6196c708b633ae8b44261b90","condition":"contingent","relevant_dimensions":["pattern","legs"],"bee_group":{"antennae":"X","wings":"X","pattern":"D","legs":"M"},"bonus":1.3600000000000012},{"rt":1241.5,"stimulus":"bees-with-color/bee-B2DF.svg","response":0,"trial_type":"image-button-response","trial_index":146,"time_elapsed":624099,"internal_node_id":"0.0-6.0-0.10","subject_id":"5f9261c7e1a8d117eadb3ba9","study_id":"60edd13110225f80f9f3709b","session_id":"6196c708b633ae8b44261b90","condition":"contingent","relevant_dimensions":["pattern","legs"],"bee_group":{"antennae":"X","wings":"X","pattern":"D","legs":"M"},"bonus":1.3600000000000012},{"rt":509.2000000476837,"stimulus":"bees-with-color/bee-B2SF.svg","response":0,"trial_type":"image-button-response","trial_index":147,"time_elapsed":624610,"internal_node_id":"0.0-6.0-0.11","subject_id":"5f9261c7e1a8d117eadb3ba9","study_id":"60edd13110225f80f9f3709b","session_id":"6196c708b633ae8b44261b90","condition":"contingent","relevant_dimensions":["pattern","legs"],"bee_group":{"antennae":"X","wings":"X","pattern":"D","legs":"M"},"bonus":1.3600000000000012},{"rt":5809,"stimulus":"bees-with-color/bee-B2DM.svg","response":1,"trial_type":"image-button-response","trial_index":148,"time_elapsed":630422,"internal_node_id":"0.0-6.0-0.12","subject_id":"5f9261c7e1a8d117eadb3ba9","study_id":"60edd13110225f80f9f3709b","session_id":"6196c708b633ae8b44261b90","condition":"contingent","relevant_dimensions":["pattern","legs"],"bee_group":{"antennae":"X","wings":"X","pattern":"D","legs":"M"},"bonus":1.3600000000000012},{"rt":834.2999999523163,"stimulus":"bees-with-color/bee-B1SM.svg","response":0,"trial_type":"image-button-response","trial_index":149,"time_elapsed":631259,"internal_node_id":"0.0-6.0-0.13","subject_id":"5f9261c7e1a8d117eadb3ba9","study_id":"60edd13110225f80f9f3709b","session_id":"6196c708b633ae8b44261b90","condition":"contingent","relevant_dimensions":["pattern","legs"],"bee_group":{"antennae":"X","wings":"X","pattern":"D","legs":"M"},"bonus":1.3600000000000012},{"rt":522.7000000476837,"stimulus":"bees-with-color/bee-A2SM.svg","response":0,"trial_type":"image-button-response","trial_index":150,"time_elapsed":631784,"internal_node_id":"0.0-6.0-0.14","subject_id":"5f9261c7e1a8d117eadb3ba9","study_id":"60edd13110225f80f9f3709b","session_id":"6196c708b633ae8b44261b90","condition":"contingent","relevant_dimensions":["pattern","legs"],"bee_group":{"antennae":"X","wings":"X","pattern":"D","legs":"M"},"bonus":1.3600000000000012},{"rt":1265.8999999761581,"stimulus":"bees-with-color/bee-B2SM.svg","response":0,"trial_type":"image-button-response","trial_index":151,"time_elapsed":633052,"internal_node_id":"0.0-6.0-0.15","subject_id":"5f9261c7e1a8d117eadb3ba9","study_id":"60edd13110225f80f9f3709b","session_id":"6196c708b633ae8b44261b90","condition":"contingent","relevant_dimensions":["pattern","legs"],"bee_group":{"antennae":"X","wings":"X","pattern":"D","legs":"M"},"bonus":1.3600000000000012},{"rt":1330.1000000238419,"stimulus":"bees-with-color/bee-B2SM.svg","response":0,"trial_type":"image-button-response","trial_index":152,"time_elapsed":634385,"internal_node_id":"0.0-6.0-0.16","subject_id":"5f9261c7e1a8d117eadb3ba9","study_id":"60edd13110225f80f9f3709b","session_id":"6196c708b633ae8b44261b90","condition":"contingent","relevant_dimensions":["pattern","legs"],"bee_group":{"antennae":"X","wings":"X","pattern":"D","legs":"M"},"bonus":1.3600000000000012},{"rt":2424.2999999523163,"stimulus":"bees-with-color/bee-A2DF.svg","response":0,"trial_type":"image-button-response","trial_index":153,"time_elapsed":636811,"internal_node_id":"0.0-6.0-0.17","subject_id":"5f9261c7e1a8d117eadb3ba9","study_id":"60edd13110225f80f9f3709b","session_id":"6196c708b633ae8b44261b90","condition":"contingent","relevant_dimensions":["pattern","legs"],"bee_group":{"antennae":"X","wings":"X","pattern":"D","legs":"M"},"bonus":1.3600000000000012},{"rt":619.2000000476837,"stimulus":"bees-with-color/bee-B2SF.svg","response":0,"trial_type":"image-button-response","trial_index":154,"time_elapsed":637432,"internal_node_id":"0.0-6.0-0.18","subject_id":"5f9261c7e1a8d117eadb3ba9","study_id":"60edd13110225f80f9f3709b","session_id":"6196c708b633ae8b44261b90","condition":"contingent","relevant_dimensions":["pattern","legs"],"bee_group":{"antennae":"X","wings":"X","pattern":"D","legs":"M"},"bonus":1.3600000000000012},{"rt":540.1999999284744,"stimulus":"bees-with-color/bee-A1SM.svg","response":0,"trial_type":"image-button-response","trial_index":155,"time_elapsed":637975,"internal_node_id":"0.0-6.0-0.19","subject_id":"5f9261c7e1a8d117eadb3ba9","study_id":"60edd13110225f80f9f3709b","session_id":"6196c708b633ae8b44261b90","condition":"contingent","relevant_dimensions":["pattern","legs"],"bee_group":{"antennae":"X","wings":"X","pattern":"D","legs":"M"},"bonus":1.3600000000000012},{"rt":6056.5,"stimulus":"bees-with-color/bee-B1DM.svg","response":1,"trial_type":"image-button-response","trial_index":156,"time_elapsed":644033,"internal_node_id":"0.0-6.0-0.20","subject_id":"5f9261c7e1a8d117eadb3ba9","study_id":"60edd13110225f80f9f3709b","session_id":"6196c708b633ae8b44261b90","condition":"contingent","relevant_dimensions":["pattern","legs"],"bee_group":{"antennae":"X","wings":"X","pattern":"D","legs":"M"},"bonus":1.3600000000000012},{"rt":6825.100000023842,"stimulus":"bees-with-color/bee-A1DM.svg","response":1,"trial_type":"image-button-response","trial_index":157,"time_elapsed":650861,"internal_node_id":"0.0-6.0-0.21","subject_id":"5f9261c7e1a8d117eadb3ba9","study_id":"60edd13110225f80f9f3709b","session_id":"6196c708b633ae8b44261b90","condition":"contingent","relevant_dimensions":["pattern","legs"],"bee_group":{"antennae":"X","wings":"X","pattern":"D","legs":"M"},"bonus":1.3600000000000012},{"rt":1500.7000000476837,"stimulus":"bees-with-color/bee-B2DF.svg","response":0,"trial_type":"image-button-response","trial_index":158,"time_elapsed":652364,"internal_node_id":"0.0-6.0-0.22","subject_id":"5f9261c7e1a8d117eadb3ba9","study_id":"60edd13110225f80f9f3709b","session_id":"6196c708b633ae8b44261b90","condition":"contingent","relevant_dimensions":["pattern","legs"],"bee_group":{"antennae":"X","wings":"X","pattern":"D","legs":"M"},"bonus":1.3600000000000012},{"rt":598.3999999761581,"stimulus":"bees-with-color/bee-B1SF.svg","response":0,"trial_type":"image-button-response","trial_index":159,"time_elapsed":652965,"internal_node_id":"0.0-6.0-0.23","subject_id":"5f9261c7e1a8d117eadb3ba9","study_id":"60edd13110225f80f9f3709b","session_id":"6196c708b633ae8b44261b90","condition":"contingent","relevant_dimensions":["pattern","legs"],"bee_group":{"antennae":"X","wings":"X","pattern":"D","legs":"M"},"bonus":1.3600000000000012},{"rt":7581,"stimulus":"bees-with-color/bee-A1DF.svg","response":0,"trial_type":"image-button-response","trial_index":160,"time_elapsed":660548,"internal_node_id":"0.0-6.0-0.24","subject_id":"5f9261c7e1a8d117eadb3ba9","study_id":"60edd13110225f80f9f3709b","session_id":"6196c708b633ae8b44261b90","condition":"contingent","relevant_dimensions":["pattern","legs"],"bee_group":{"antennae":"X","wings":"X","pattern":"D","legs":"M"},"bonus":1.3600000000000012},{"rt":4164,"stimulus":"bees-with-color/bee-B2DM.svg","response":1,"trial_type":"image-button-response","trial_index":161,"time_elapsed":664715,"internal_node_id":"0.0-6.0-0.25","subject_id":"5f9261c7e1a8d117eadb3ba9","study_id":"60edd13110225f80f9f3709b","session_id"