[{"success":true,"trial_type":"fullscreen","trial_index":0,"time_elapsed":45221,"internal_node_id":"0.0-0.0","subject_id":"5d4200b0f1006e00196a9322","study_id":"60edd13110225f80f9f3709b","session_id":"6196c4a5ad65d48462dec351","condition":"contingent","relevant_dimensions":["antennae","wings"],"bee_group":{"antennae":"B","wings":"2","pattern":"X","legs":"X"},"bonus":0.9400000000000005},{"success":true,"timeout":false,"failed_images":[],"failed_audio":[],"failed_video":[],"trial_type":"preload","trial_index":1,"time_elapsed":46700,"internal_node_id":"0.0-1.0","subject_id":"5d4200b0f1006e00196a9322","study_id":"60edd13110225f80f9f3709b","session_id":"6196c4a5ad65d48462dec351","condition":"contingent","relevant_dimensions":["antennae","wings"],"bee_group":{"antennae":"B","wings":"2","pattern":"X","legs":"X"},"bonus":0.9400000000000005},{"rt":3853,"stimulus":"Welcome! Press any key to begin.","response":"'","trial_type":"html-keyboard-response","trial_index":2,"time_elapsed":50554,"internal_node_id":"0.0-2.0","subject_id":"5d4200b0f1006e00196a9322","study_id":"60edd13110225f80f9f3709b","session_id":"6196c4a5ad65d48462dec351","condition":"contingent","relevant_dimensions":["antennae","wings"],"bee_group":{"antennae":"B","wings":"2","pattern":"X","legs":"X"},"bonus":0.9400000000000005},{"view_history":[{"page_index":0,"viewing_time":4332},{"page_index":1,"viewing_time":11231},{"page_index":2,"viewing_time":14881},{"page_index":3,"viewing_time":18631},{"page_index":4,"viewing_time":4785},{"page_index":5,"viewing_time":8815},{"page_index":6,"viewing_time":12777},{"page_index":7,"viewing_time":7552},{"page_index":6,"viewing_time":2807},{"page_index":7,"viewing_time":1496},{"page_index":6,"viewing_time":1960},{"page_index":7,"viewing_time":2505},{"page_index":8,"viewing_time":2487},{"page_index":9,"viewing_time":2833},{"page_index":10,"viewing_time":2095},{"page_index":11,"viewing_time":16168},{"page_index":12,"viewing_time":15440},{"page_index":13,"viewing_time":1440},{"page_index":14,"viewing_time":2192}],"rt":134427,"trial_type":"instructions","trial_index":3,"time_elapsed":184982,"internal_node_id":"0.0-3.0-0.0","subject_id":"5d4200b0f1006e00196a9322","study_id":"60edd13110225f80f9f3709b","session_id":"6196c4a5ad65d48462dec351","condition":"contingent","relevant_dimensions":["antennae","wings"],"bee_group":{"antennae":"B","wings":"2","pattern":"X","legs":"X"},"bonus":0.9400000000000005},{"rt":12645,"response":{"Q0":["Two or six legs","Stripes or spots on body","Single or double wings","Antennae or no antennae"]},"question_order":[0],"trial_type":"survey-multi-select","trial_index":4,"time_elapsed":197631,"internal_node_id":"0.0-3.0-1.0","subject_id":"5d4200b0f1006e00196a9322","study_id":"60edd13110225f80f9f3709b","session_id":"6196c4a5ad65d48462dec351","condition":"contingent","relevant_dimensions":["antennae","wings"],"bee_group":{"antennae":"B","wings":"2","pattern":"X","legs":"X"},"correct":true,"bonus":0.9400000000000005},{"rt":16478,"response":{"Q1":"No.","Q2":"Based on the four features of the bee.","Q3":"You do not learn if it was friendly or dangerous, and do not alter your bonus."},"question_order":[0,1,2],"trial_type":"survey-multi-choice","trial_index":5,"time_elapsed":214112,"internal_node_id":"0.0-3.0-2.0","subject_id":"5d4200b0f1006e00196a9322","study_id":"60edd13110225f80f9f3709b","session_id":"6196c4a5ad65d48462dec351","condition":"contingent","relevant_dimensions":["antennae","wings"],"bee_group":{"antennae":"B","wings":"2","pattern":"X","legs":"X"},"correct":true,"bonus":0.9400000000000005},{"rt":3269,"stimulus":"<p>Congrats, you got everything right<br>When you're ready, click the button below to continue to the experiment.</p>","response":0,"trial_type":"html-button-response","trial_index":6,"time_elapsed":217382,"internal_node_id":"0.0-3.0-3.0","subject_id":"5d4200b0f1006e00196a9322","study_id":"60edd13110225f80f9f3709b","session_id":"6196c4a5ad65d48462dec351","condition":"contingent","relevant_dimensions":["antennae","wings"],"bee_group":{"antennae":"B","wings":"2","pattern":"X","legs":"X"},"bonus":0.9400000000000005},{"rt":18655,"stimulus":"bees-with-color/bee-B1DF.svg","response":1,"trial_type":"image-button-response","trial_index":7,"time_elapsed":236038,"internal_node_id":"0.0-4.0-0.0","subject_id":"5d4200b0f1006e00196a9322","study_id":"60edd13110225f80f9f3709b","session_id":"6196c4a5ad65d48462dec351","condition":"contingent","relevant_dimensions":["antennae","wings"],"bee_group":{"antennae":"B","wings":"2","pattern":"X","legs":"X"},"action":"avoid","summary":"bad-avoid","bonus":0.9400000000000005},{"rt":4107,"stimulus":"\n                    <p><b>Action: <em>avoid</em></b></p>\n                    <p>This is the bee that you just saw.</p>\n                    <img src=\"bees-with-color/bee-B1DF.svg\" width=\"200\">\n                    <p><br>Your bonus pay is unchanged, and remains at $0.54.</p>\n            ","response":0,"trial_type":"html-button-response","trial_index":8,"time_elapsed":240158,"internal_node_id":"0.0-4.0-1.0","subject_id":"5d4200b0f1006e00196a9322","study_id":"60edd13110225f80f9f3709b","session_id":"6196c4a5ad65d48462dec351","condition":"contingent","relevant_dimensions":["antennae","wings"],"bee_group":{"antennae":"B","wings":"2","pattern":"X","legs":"X"},"bonus":0.9400000000000005},{"rt":910,"stimulus":"bees-with-color/bee-A1SF.svg","response":1,"trial_type":"image-button-response","trial_index":9,"time_elapsed":241071,"internal_node_id":"0.0-4.0-0.1","subject_id":"5d4200b0f1006e00196a9322","study_id":"60edd13110225f80f9f3709b","session_id":"6196c4a5ad65d48462dec351","condition":"contingent","relevant_dimensions":["antennae","wings"],"bee_group":{"antennae":"B","wings":"2","pattern":"X","legs":"X"},"action":"avoid","summary":"bad-avoid","bonus":0.9400000000000005},{"rt":1208,"stimulus":"\n                    <p><b>Action: <em>avoid</em></b></p>\n                    <p>This is the bee that you just saw.</p>\n                    <img src=\"bees-with-color/bee-A1SF.svg\" width=\"200\">\n                    <p><br>Your bonus pay is unchanged, and remains at $0.54.</p>\n            ","response":0,"trial_type":"html-button-response","trial_index":10,"time_elapsed":242279,"internal_node_id":"0.0-4.0-1.1","subject_id":"5d4200b0f1006e00196a9322","study_id":"60edd13110225f80f9f3709b","session_id":"6196c4a5ad65d48462dec351","condition":"contingent","relevant_dimensions":["antennae","wings"],"bee_group":{"antennae":"B","wings":"2","pattern":"X","legs":"X"},"bonus":0.9400000000000005},{"rt":759,"stimulus":"bees-with-color/bee-B2SF.svg","response":1,"trial_type":"image-button-response","trial_index":11,"time_elapsed":243038,"internal_node_id":"0.0-4.0-0.2","subject_id":"5d4200b0f1006e00196a9322","study_id":"60edd13110225f80f9f3709b","session_id":"6196c4a5ad65d48462dec351","condition":"contingent","relevant_dimensions":["antennae","wings"],"bee_group":{"antennae":"B","wings":"2","pattern":"X","legs":"X"},"action":"avoid","summary":"good-avoid","bonus":0.9400000000000005},{"rt":894,"stimulus":"\n                    <p><b>Action: <em>avoid</em></b></p>\n                    <p>This is the bee that you just saw.</p>\n                    <img src=\"bees-with-color/bee-B2SF.svg\" width=\"200\">\n                    <p><br>Your bonus pay is unchanged, and remains at $0.54.</p>\n            ","response":0,"trial_type":"html-button-response","trial_index":12,"time_elapsed":243933,"internal_node_id":"0.0-4.0-1.2","subject_id":"5d4200b0f1006e00196a9322","study_id":"60edd13110225f80f9f3709b","session_id":"6196c4a5ad65d48462dec351","condition":"contingent","relevant_dimensions":["antennae","wings"],"bee_group":{"antennae":"B","wings":"2","pattern":"X","legs":"X"},"bonus":0.9400000000000005},{"rt":807,"stimulus":"bees-with-color/bee-B2DF.svg","response":1,"trial_type":"image-button-response","trial_index":13,"time_elapsed":244742,"internal_node_id":"0.0-4.0-0.3","subject_id":"5d4200b0f1006e00196a9322","study_id":"60edd13110225f80f9f3709b","session_id":"6196c4a5ad65d48462dec351","condition":"contingent","relevant_dimensions":["antennae","wings"],"bee_group":{"antennae":"B","wings":"2","pattern":"X","legs":"X"},"action":"avoid","summary":"good-avoid","bonus":0.9400000000000005},{"rt":927,"stimulus":"\n                    <p><b>Action: <em>avoid</em></b></p>\n                    <p>This is the bee that you just saw.</p>\n                    <img src=\"bees-with-color/bee-B2DF.svg\" width=\"200\">\n                    <p><br>Your bonus pay is unchanged, and remains at $0.54.</p>\n            ","response":0,"trial_type":"html-button-response","trial_index":14,"time_elapsed":245670,"internal_node_id":"0.0-4.0-1.3","subject_id":"5d4200b0f1006e00196a9322","study_id":"60edd13110225f80f9f3709b","session_id":"6196c4a5ad65d48462dec351","condition":"contingent","relevant_dimensions":["antennae","wings"],"bee_group":{"antennae":"B","wings":"2","pattern":"X","legs":"X"},"bonus":0.9400000000000005},{"rt":847,"stimulus":"bees-with-color/bee-A2SM.svg","response":1,"trial_type":"image-button-response","trial_index":15,"time_elapsed":246518,"internal_node_id":"0.0-4.0-0.4","subject_id":"5d4200b0f1006e00196a9322","study_id":"60edd13110225f80f9f3709b","session_id":"6196c4a5ad65d48462dec351","condition":"contingent","relevant_dimensions":["antennae","wings"],"bee_group":{"antennae":"B","wings":"2","pattern":"X","legs":"X"},"action":"avoid","summary":"bad-avoid","bonus":0.9400000000000005},{"rt":2431,"stimulus":"\n                    <p><b>Action: <em>avoid</em></b></p>\n                    <p>This is the bee that you just saw.</p>\n                    <img src=\"bees-with-color/bee-A2SM.svg\" width=\"200\">\n                    <p><br>Your bonus pay is unchanged, and remains at $0.54.</p>\n            ","response":0,"trial_type":"html-button-response","trial_index":16,"time_elapsed":248950,"internal_node_id":"0.0-4.0-1.4","subject_id":"5d4200b0f1006e00196a9322","study_id":"60edd13110225f80f9f3709b","session_id":"6196c4a5ad65d48462dec351","condition":"contingent","relevant_dimensions":["antennae","wings"],"bee_group":{"antennae":"B","wings":"2","pattern":"X","legs":"X"},"bonus":0.9400000000000005},{"rt":1023,"stimulus":"bees-with-color/bee-A1DF.svg","response":1,"trial_type":"image-button-response","trial_index":17,"time_elapsed":249974,"internal_node_id":"0.0-4.0-0.5","subject_id":"5d4200b0f1006e00196a9322","study_id":"60edd13110225f80f9f3709b","session_id":"6196c4a5ad65d48462dec351","condition":"contingent","relevant_dimensions":["antennae","wings"],"bee_group":{"antennae":"B","wings":"2","pattern":"X","legs":"X"},"action":"avoid","summary":"bad-avoid","bonus":0.9400000000000005},{"rt":1263,"stimulus":"\n                    <p><b>Action: <em>avoid</em></b></p>\n                    <p>This is the bee that you just saw.</p>\n                    <img src=\"bees-with-color/bee-A1DF.svg\" width=\"200\">\n                    <p><br>Your bonus pay is unchanged, and remains at $0.54.</p>\n            ","response":0,"trial_type":"html-button-response","trial_index":18,"time_elapsed":251238,"internal_node_id":"0.0-4.0-1.5","subject_id":"5d4200b0f1006e00196a9322","study_id":"60edd13110225f80f9f3709b","session_id":"6196c4a5ad65d48462dec351","condition":"contingent","relevant_dimensions":["antennae","wings"],"bee_group":{"antennae":"B","wings":"2","pattern":"X","legs":"X"},"bonus":0.9400000000000005},{"rt":1047,"stimulus":"bees-with-color/bee-A1DM.svg","response":1,"trial_type":"image-button-response","trial_index":19,"time_elapsed":252287,"internal_node_id":"0.0-4.0-0.6","subject_id":"5d4200b0f1006e00196a9322","study_id":"60edd13110225f80f9f3709b","session_id":"6196c4a5ad65d48462dec351","condition":"contingent","relevant_dimensions":["antennae","wings"],"bee_group":{"antennae":"B","wings":"2","pattern":"X","legs":"X"},"action":"avoid","summary":"bad-avoid","bonus":0.9400000000000005},{"rt":975,"stimulus":"\n                    <p><b>Action: <em>avoid</em></b></p>\n                    <p>This is the bee that you just saw.</p>\n                    <img src=\"bees-with-color/bee-A1DM.svg\" width=\"200\">\n                    <p><br>Your bonus pay is unchanged, and remains at $0.54.</p>\n            ","response":0,"trial_type":"html-button-response","trial_index":20,"time_elapsed":253261,"internal_node_id":"0.0-4.0-1.6","subject_id":"5d4200b0f1006e00196a9322","study_id":"60edd13110225f80f9f3709b","session_id":"6196c4a5ad65d48462dec351","condition":"contingent","relevant_dimensions":["antennae","wings"],"bee_group":{"antennae":"B","wings":"2","pattern":"X","legs":"X"},"bonus":0.9400000000000005},{"rt":879,"stimulus":"bees-with-color/bee-A1SM.svg","response":1,"trial_type":"image-button-response","trial_index":21,"time_elapsed":254142,"internal_node_id":"0.0-4.0-0.7","subject_id":"5d4200b0f1006e00196a9322","study_id":"60edd13110225f80f9f3709b","session_id":"6196c4a5ad65d48462dec351","condition":"contingent","relevant_dimensions":["antennae","wings"],"bee_group":{"antennae":"B","wings":"2","pattern":"X","legs":"X"},"action":"avoid","summary":"bad-avoid","bonus":0.9400000000000005},{"rt":960,"stimulus":"\n                    <p><b>Action: <em>avoid</em></b></p>\n                    <p>This is the bee that you just saw.</p>\n                    <img src=\"bees-with-color/bee-A1SM.svg\" width=\"200\">\n                    <p><br>Your bonus pay is unchanged, and remains at $0.54.</p>\n            ","response":0,"trial_type":"html-button-response","trial_index":22,"time_elapsed":255102,"internal_node_id":"0.0-4.0-1.7","subject_id":"5d4200b0f1006e00196a9322","study_id":"60edd13110225f80f9f3709b","session_id":"6196c4a5ad65d48462dec351","condition":"contingent","relevant_dimensions":["antennae","wings"],"bee_group":{"antennae":"B","wings":"2","pattern":"X","legs":"X"},"bonus":0.9400000000000005},{"rt":966,"stimulus":"bees-with-color/bee-B1DM.svg","response":1,"trial_type":"image-button-response","trial_index":23,"time_elapsed":256070,"internal_node_id":"0.0-4.0-0.8","subject_id":"5d4200b0f1006e00196a9322","study_id":"60edd13110225f80f9f3709b","session_id":"6196c4a5ad65d48462dec351","condition":"contingent","relevant_dimensions":["antennae","wings"],"bee_group":{"antennae":"B","wings":"2","pattern":"X","legs":"X"},"action":"avoid","summary":"bad-avoid","bonus":0.9400000000000005},{"rt":911,"stimulus":"\n                    <p><b>Action: <em>avoid</em></b></p>\n                    <p>This is the bee that you just saw.</p>\n                    <img src=\"bees-with-color/bee-B1DM.svg\" width=\"200\">\n                    <p><br>Your bonus pay is unchanged, and remains at $0.54.</p>\n            ","response":0,"trial_type":"html-button-response","trial_index":24,"time_elapsed":256982,"internal_node_id":"0.0-4.0-1.8","subject_id":"5d4200b0f1006e00196a9322","study_id":"60edd13110225f80f9f3709b","session_id":"6196c4a5ad65d48462dec351","condition":"contingent","relevant_dimensions":["antennae","wings"],"bee_group":{"antennae":"B","wings":"2","pattern":"X","legs":"X"},"bonus":0.9400000000000005},{"rt":1878,"stimulus":"bees-with-color/bee-B2DM.svg","response":0,"trial_type":"image-button-response","trial_index":25,"time_elapsed":258862,"internal_node_id":"0.0-4.0-0.9","subject_id":"5d4200b0f1006e00196a9322","study_id":"60edd13110225f80f9f3709b","session_id":"6196c4a5ad65d48462dec351","condition":"contingent","relevant_dimensions":["antennae","wings"],"bee_group":{"antennae":"B","wings":"2","pattern":"X","legs":"X"},"action":"harvest","summary":"bad-harvest","bonus":0.9400000000000005},{"rt":6168,"stimulus":"\n                    <p><b>Action: <em>harvest</em></b></p>\n                    <p>This is the bee that you just saw.</p>\n                    <img src=\"bees-with-color/bee-B2DM.svg\" width=\"200\">\n                    <p><span class=\"redText\">Bad choice, the bee was angry.</span><br><b>You have been stung!</b><br>Your pay has been decreased by $0.10. Your bonus pay is now $0.44.</p>\n            ","response":0,"trial_type":"html-button-response","trial_index":26,"time_elapsed":265031,"internal_node_id":"0.0-4.0-1.9","subject_id":"5d4200b0f1006e00196a9322","study_id":"60edd13110225f80f9f3709b","session_id":"6196c4a5ad65d48462dec351","condition":"contingent","relevant_dimensions":["antennae","wings"],"bee_group":{"antennae":"B","wings":"2","pattern":"X","legs":"X"},"bonus":0.9400000000000005},{"rt":1263,"stimulus":"bees-with-color/bee-B1SM.svg","response":0,"trial_type":"image-button-response","trial_index":27,"time_elapsed":266295,"internal_node_id":"0.0-4.0-0.10","subject_id":"5d4200b0f1006e00196a9322","study_id":"60edd13110225f80f9f3709b","session_id":"6196c4a5ad65d48462dec351","condition":"contingent","relevant_dimensions":["antennae","wings"],"bee_group":{"antennae":"B","wings":"2","pattern":"X","legs":"X"},"action":"harvest","summary":"good-harvest","bonus":0.9400000000000005},{"rt":3190,"stimulus":"\n                    <p><b>Action: <em>harvest</em></b></p>\n                    <p>This is the bee that you just saw.</p>\n                    <img src=\"bees-with-color/bee-B1SM.svg\" width=\"200\">\n                    <p><span class=\"greenText\"><b>Successful harvest!</b></span><br>Your pay has increased by $0.02. Your bonus pay is now $0.46.</p>\n            ","response":0,"trial_type":"html-button-response","trial_index":28,"time_elapsed":269485,"internal_node_id":"0.0-4.0-1.10","subject_id":"5d4200b0f1006e00196a9322","study_id":"60edd13110225f80f9f3709b","session_id":"6196c4a5ad65d48462dec351","condition":"contingent","relevant_dimensions":["antennae","wings"],"bee_group":{"antennae":"B","wings":"2","pattern":"X","legs":"X"},"bonus":0.9400000000000005},{"rt":1312,"stimulus":"bees-with-color/bee-B2SM.svg","response":1,"trial_type":"image-button-response","trial_index":29,"time_elapsed":270798,"internal_node_id":"0.0-4.0-0.11","subject_id":"5d4200b0f1006e00196a9322","study_id":"60edd13110225f80f9f3709b","session_id":"6196c4a5ad65d48462dec351","condition":"contingent","relevant_dimensions":["antennae","wings"],"bee_group":{"antennae":"B","wings":"2","pattern":"X","legs":"X"},"action":"avoid","summary":"good-avoid","bonus":0.9400000000000005},{"rt":1304,"stimulus":"\n                    <p><b>Action: <em>avoid</em></b></p>\n                    <p>This is the bee that you just saw.</p>\n                    <img src=\"bees-with-color/bee-B2SM.svg\" width=\"200\">\n                    <p><br>Your bonus pay is unchanged, and remains at $0.46.</p>\n            ","response":0,"trial_type":"html-button-response","trial_index":30,"time_elapsed":272102,"internal_node_id":"0.0-4.0-1.11","subject_id":"5d4200b0f1006e00196a9322","study_id":"60edd13110225f80f9f3709b","session_id":"6196c4a5ad65d48462dec351","condition":"contingent","relevant_dimensions":["antennae","wings"],"bee_group":{"antennae":"B","wings":"2","pattern":"X","legs":"X"},"bonus":0.9400000000000005},{"rt":998,"stimulus":"bees-with-color/bee-A2DF.svg","response":1,"trial_type":"image-button-response","trial_index":31,"time_elapsed":273101,"internal_node_id":"0.0-4.0-0.12","subject_id":"5d4200b0f1006e00196a9322","study_id":"60edd13110225f80f9f3709b","session_id":"6196c4a5ad65d48462dec351","condition":"contingent","relevant_dimensions":["antennae","wings"],"bee_group":{"antennae":"B","wings":"2","pattern":"X","legs":"X"},"action":"avoid","summary":"bad-avoid","bonus":0.9400000000000005},{"rt":937,"stimulus":"\n                    <p><b>Action: <em>avoid</em></b></p>\n                    <p>This is the bee that you just saw.</p>\n                    <img src=\"bees-with-color/bee-A2DF.svg\" width=\"200\">\n                    <p><br>Your bonus pay is unchanged, and remains at $0.46.</p>\n            ","response":0,"trial_type":"html-button-response","trial_index":32,"time_elapsed":274038,"internal_node_id":"0.0-4.0-1.12","subject_id":"5d4200b0f1006e00196a9322","study_id":"60edd13110225f80f9f3709b","session_id":"6196c4a5ad65d48462dec351","condition":"contingent","relevant_dimensions":["antennae","wings"],"bee_group":{"antennae":"B","wings":"2","pattern":"X","legs":"X"},"bonus":0.9400000000000005},{"rt":934,"stimulus":"bees-with-color/bee-A2DM.svg","response":1,"trial_type":"image-button-response","trial_index":33,"time_elapsed":274974,"internal_node_id":"0.0-4.0-0.13","subject_id":"5d4200b0f1006e00196a9322","study_id":"60edd13110225f80f9f3709b","session_id":"6196c4a5ad65d48462dec351","condition":"contingent","relevant_dimensions":["antennae","wings"],"bee_group":{"antennae":"B","wings":"2","pattern":"X","legs":"X"},"action":"avoid","summary":"bad-avoid","bonus":0.9400000000000005},{"rt":871,"stimulus":"\n                    <p><b>Action: <em>avoid</em></b></p>\n                    <p>This is the bee that you just saw.</p>\n                    <img src=\"bees-with-color/bee-A2DM.svg\" width=\"200\">\n                    <p><br>Your bonus pay is unchanged, and remains at $0.46.</p>\n            ","response":0,"trial_type":"html-button-response","trial_index":34,"time_elapsed":275846,"internal_node_id":"0.0-4.0-1.13","subject_id":"5d4200b0f1006e00196a9322","study_id":"60edd13110225f80f9f3709b","session_id":"6196c4a5ad65d48462dec351","condition":"contingent","relevant_dimensions":["antennae","wings"],"bee_group":{"antennae":"B","wings":"2","pattern":"X","legs":"X"},"bonus":0.9400000000000005},{"rt":1343,"stimulus":"bees-with-color/bee-B1SF.svg","response":0,"trial_type":"image-button-response","trial_index":35,"time_elapsed":277190,"internal_node_id":"0.0-4.0-0.14","subject_id":"5d4200b0f1006e00196a9322","study_id":"60edd13110225f80f9f3709b","session_id":"6196c4a5ad65d48462dec351","condition":"contingent","relevant_dimensions":["antennae","wings"],"bee_group":{"antennae":"B","wings":"2","pattern":"X","legs":"X"},"action":"harvest","summary":"good-harvest","bonus":0.9400000000000005},{"rt":2871,"stimulus":"\n                    <p><b>Action: <em>harvest</em></b></p>\n                    <p>This is the bee that you just saw.</p>\n                    <img src=\"bees-with-color/bee-B1SF.svg\" width=\"200\">\n                    <p><span class=\"greenText\"><b>Successful harvest!</b></span><br>Your pay has increased by $0.02. Your bonus pay is now $0.48.</p>\n            ","response":0,"trial_type":"html-button-response","trial_index":36,"time_elapsed":280062,"internal_node_id":"0.0-4.0-1.14","subject_id":"5d4200b0f1006e00196a9322","study_id":"60edd13110225f80f9f3709b","session_id":"6196c4a5ad65d48462dec351","condition":"contingent","relevant_dimensions":["antennae","wings"],"bee_group":{"antennae":"B","wings":"2","pattern":"X","legs":"X"},"bonus":0.9400000000000005},{"rt":4334,"stimulus":"bees-with-color/bee-A2SF.svg","response":1,"trial_type":"image-button-response","trial_index":37,"time_elapsed":284398,"internal_node_id":"0.0-4.0-0.15","subject_id":"5d4200b0f1006e00196a9322","study_id":"60edd13110225f80f9f3709b","session_id":"6196c4a5ad65d48462dec351","condition":"contingent","relevant_dimensions":["antennae","wings"],"bee_group":{"antennae":"B","wings":"2","pattern":"X","legs":"X"},"action":"avoid","summary":"bad-avoid","bonus":0.9400000000000005},{"rt":3439,"stimulus":"\n                    <p><b>Action: <em>avoid</em></b></p>\n                    <p>This is the bee that you just saw.</p>\n                    <img src=\"bees-with-color/bee-A2SF.svg\" width=\"200\">\n                    <p><br>Your bonus pay is unchanged, and remains at $0.48.</p>\n            ","response":0,"trial_type":"html-button-response","trial_index":38,"time_elapsed":287837,"internal_node_id":"0.0-4.0-1.15","subject_id":"5d4200b0f1006e00196a9322","study_id":"60edd13110225f80f9f3709b","session_id":"6196c4a5ad65d48462dec351","condition":"contingent","relevant_dimensions":["antennae","wings"],"bee_group":{"antennae":"B","wings":"2","pattern":"X","legs":"X"},"bonus":0.9400000000000005},{"rt":1288,"stimulus":"bees-with-color/bee-A1DF.svg","response":0,"trial_type":"image-button-response","trial_index":39,"time_elapsed":289126,"internal_node_id":"0.0-4.0-0.16","subject_id":"5d4200b0f1006e00196a9322","study_id":"60edd13110225f80f9f3709b","session_id":"6196c4a5ad65d48462dec351","condition":"contingent","relevant_dimensions":["antennae","wings"],"bee_group":{"antennae":"B","wings":"2","pattern":"X","legs":"X"},"action":"harvest","summary":"good-harvest","bonus":0.9400000000000005},{"rt":4943,"stimulus":"\n                    <p><b>Action: <em>harvest</em></b></p>\n                    <p>This is the bee that you just saw.</p>\n                    <img src=\"bees-with-color/bee-A1DF.svg\" width=\"200\">\n                    <p><span class=\"greenText\"><b>Successful harvest!</b></span><br>Your pay has increased by $0.02. Your bonus pay is now $0.50.</p>\n            ","response":0,"trial_type":"html-button-response","trial_index":40,"time_elapsed":294069,"internal_node_id":"0.0-4.0-1.16","subject_id":"5d4200b0f1006e00196a9322","study_id":"60edd13110225f80f9f3709b","session_id":"6196c4a5ad65d48462dec351","condition":"contingent","relevant_dimensions":["antennae","wings"],"bee_group":{"antennae":"B","wings":"2","pattern":"X","legs":"X"},"bonus":0.9400000000000005},{"rt":2126,"stimulus":"bees-with-color/bee-B1SF.svg","response":0,"trial_type":"image-button-response","trial_index":41,"time_elapsed":296197,"internal_node_id":"0.0-4.0-0.17","subject_id":"5d4200b0f1006e00196a9322","study_id":"60edd13110225f80f9f3709b","session_id":"6196c4a5ad65d48462dec351","condition":"contingent","relevant_dimensions":["antennae","wings"],"bee_group":{"antennae":"B","wings":"2","pattern":"X","legs":"X"},"action":"harvest","summary":"good-harvest","bonus":0.9400000000000005},{"rt":1616,"stimulus":"\n                    <p><b>Action: <em>harvest</em></b></p>\n                    <p>This is the bee that you just saw.</p>\n                    <img src=\"bees-with-color/bee-B1SF.svg\" width=\"200\">\n                    <p><span class=\"greenText\"><b>Successful harvest!</b></span><br>Your pay has increased by $0.02. Your bonus pay is now $0.52.</p>\n            ","response":0,"trial_type":"html-button-response","trial_index":42,"time_elapsed":297814,"internal_node_id":"0.0-4.0-1.17","subject_id":"5d4200b0f1006e00196a9322","study_id":"60edd13110225f80f9f3709b","session_id":"6196c4a5ad65d48462dec351","condition":"contingent","relevant_dimensions":["antennae","wings"],"bee_group":{"antennae":"B","wings":"2","pattern":"X","legs":"X"},"bonus":0.9400000000000005},{"rt":1063,"stimulus":"bees-with-color/bee-A2DM.svg","response":1,"trial_type":"image-button-response","trial_index":43,"time_elapsed":298878,"internal_node_id":"0.0-4.0-0.18","subject_id":"5d4200b0f1006e00196a9322","study_id":"60edd13110225f80f9f3709b","session_id":"6196c4a5ad65d48462dec351","condition":"contingent","relevant_dimensions":["antennae","wings"],"bee_group":{"antennae":"B","wings":"2","pattern":"X","legs":"X"},"action":"avoid","summary":"bad-avoid","bonus":0.9400000000000005},{"rt":959,"stimulus":"\n                    <p><b>Action: <em>avoid</em></b></p>\n                    <p>This is the bee that you just saw.</p>\n                    <img src=\"bees-with-color/bee-A2DM.svg\" width=\"200\">\n                    <p><br>Your bonus pay is unchanged, and remains at $0.52.</p>\n            ","response":0,"trial_type":"html-button-response","trial_index":44,"time_elapsed":299837,"internal_node_id":"0.0-4.0-1.18","subject_id":"5d4200b0f1006e00196a9322","study_id":"60edd13110225f80f9f3709b","session_id":"6196c4a5ad65d48462dec351","condition":"contingent","relevant_dimensions":["antennae","wings"],"bee_group":{"antennae":"B","wings":"2","pattern":"X","legs":"X"},"bonus":0.9400000000000005},{"rt":774,"stimulus":"bees-with-color/bee-B2SM.svg","response":1,"trial_type":"image-button-response","trial_index":45,"time_elapsed":300613,"internal_node_id":"0.0-4.0-0.19","subject_id":"5d4200b0f1006e00196a9322","study_id":"60edd13110225f80f9f3709b","session_id":"6196c4a5ad65d48462dec351","condition":"contingent","relevant_dimensions":["antennae","wings"],"bee_group":{"antennae":"B","wings":"2","pattern":"X","legs":"X"},"action":"avoid","summary":"good-avoid","bonus":0.9400000000000005},{"rt":792,"stimulus":"\n                    <p><b>Action: <em>avoid</em></b></p>\n                    <p>This is the bee that you just saw.</p>\n                    <img src=\"bees-with-color/bee-B2SM.svg\" width=\"200\">\n                    <p><br>Your bonus pay is unchanged, and remains at $0.52.</p>\n            ","response":0,"trial_type":"html-button-response","trial_index":46,"time_elapsed":301406,"internal_node_id":"0.0-4.0-1.19","subject_id":"5d4200b0f1006e00196a9322","study_id":"60edd13110225f80f9f3709b","session_id":"6196c4a5ad65d48462dec351","condition":"contingent","relevant_dimensions":["antennae","wings"],"bee_group":{"antennae":"B","wings":"2","pattern":"X","legs":"X"},"bonus":0.9400000000000005},{"rt":799,"stimulus":"bees-with-color/bee-B2DM.svg","response":1,"trial_type":"image-button-response","trial_index":47,"time_elapsed":302205,"internal_node_id":"0.0-4.0-0.20","subject_id":"5d4200b0f1006e00196a9322","study_id":"60edd13110225f80f9f3709b","session_id":"6196c4a5ad65d48462dec351","condition":"contingent","relevant_dimensions":["antennae","wings"],"bee_group":{"antennae":"B","wings":"2","pattern":"X","legs":"X"},"action":"avoid","summary":"good-avoid","bonus":0.9400000000000005},{"rt":863,"stimulus":"\n                    <p><b>Action: <em>avoid</em></b></p>\n                    <p>This is the bee that you just saw.</p>\n                    <img src=\"bees-with-color/bee-B2DM.svg\" width=\"200\">\n                    <p><br>Your bonus pay is unchanged, and remains at $0.52.</p>\n            ","response":0,"trial_type":"html-button-response","trial_index":48,"time_elapsed":303069,"internal_node_id":"0.0-4.0-1.20","subject_id":"5d4200b0f1006e00196a9322","study_id":"60edd13110225f80f9f3709b","session_id":"6196c4a5ad65d48462dec351","condition":"contingent","relevant_dimensions":["antennae","wings"],"bee_group":{"antennae":"B","wings":"2","pattern":"X","legs":"X"},"bonus":0.9400000000000005},{"rt":1271,"stimulus":"bees-with-color/bee-B1SM.svg","response":0,"trial_type":"image-button-response","trial_index":49,"time_elapsed":304342,"internal_node_id":"0.0-4.0-0.21","subject_id":"5d4200b0f1006e00196a9322","study_id":"60edd13110225f80f9f3709b","session_id":"6196c4a5ad65d48462dec351","condition":"contingent","relevant_dimensions":["antennae","wings"],"bee_group":{"antennae":"B","wings":"2","pattern":"X","legs":"X"},"action":"harvest","summary":"good-harvest","bonus":0.9400000000000005},{"rt":3936,"stimulus":"\n                    <p><b>Action: <em>harvest</em></b></p>\n                    <p>This is the bee that you just saw.</p>\n                    <img src=\"bees-with-color/bee-B1SM.svg\" width=\"200\">\n                    <p><span class=\"greenText\"><b>Successful harvest!</b></span><br>Your pay has increased by $0.02. Your bonus pay is now $0.54.</p>\n            ","response":0,"trial_type":"html-button-response","trial_index":50,"time_elapsed":308278,"internal_node_id":"0.0-4.0-1.21","subject_id":"5d4200b0f1006e00196a9322","study_id":"60edd13110225f80f9f3709b","session_id":"6196c4a5ad65d48462dec351","condition":"contingent","relevant_dimensions":["antennae","wings"],"bee_group":{"antennae":"B","wings":"2","pattern":"X","legs":"X"},"bonus":0.9400000000000005},{"rt":1374,"stimulus":"bees-with-color/bee-A2DF.svg","response":1,"trial_type":"image-button-response","trial_index":51,"time_elapsed":309654,"internal_node_id":"0.0-4.0-0.22","subject_id":"5d4200b0f1006e00196a9322","study_id":"60edd13110225f80f9f3709b","session_id":"6196c4a5ad65d48462dec351","condition":"contingent","relevant_dimensions":["antennae","wings"],"bee_group":{"antennae":"B","wings":"2","pattern":"X","legs":"X"},"action":"avoid","summary":"bad-avoid","bonus":0.9400000000000005},{"rt":1055,"stimulus":"\n                    <p><b>Action: <em>avoid</em></b></p>\n                    <p>This is the bee that you just saw.</p>\n                    <img src=\"bees-with-color/bee-A2DF.svg\" width=\"200\">\n                    <p><br>Your bonus pay is unchanged, and remains at $0.54.</p>\n            ","response":0,"trial_type":"html-button-response","trial_index":52,"time_elapsed":310710,"internal_node_id":"0.0-4.0-1.22","subject_id":"5d4200b0f1006e00196a9322","study_id":"60edd13110225f80f9f3709b","session_id":"6196c4a5ad65d48462dec351","condition":"contingent","relevant_dimensions":["antennae","wings"],"bee_group":{"antennae":"B","wings":"2","pattern":"X","legs":"X"},"bonus":0.9400000000000005},{"rt":598,"stimulus":"bees-with-color/bee-A1SF.svg","response":1,"trial_type":"image-button-response","trial_index":53,"time_elapsed":311309,"internal_node_id":"0.0-4.0-0.23","subject_id":"5d4200b0f1006e00196a9322","study_id":"60edd13110225f80f9f3709b","session_id":"6196c4a5ad65d48462dec351","condition":"contingent","relevant_dimensions":["antennae","wings"],"bee_group":{"antennae":"B","wings":"2","pattern":"X","legs":"X"},"action":"avoid","summary":"bad-avoid","bonus":0.9400000000000005},{"rt":3151,"stimulus":"\n                    <p><b>Action: <em>avoid</em></b></p>\n                    <p>This is the bee that you just saw.</p>\n                    <img src=\"bees-with-color/bee-A1SF.svg\" width=\"200\">\n                    <p><br>Your bonus pay is unchanged, and remains at $0.54.</p>\n            ","response":0,"trial_type":"html-button-response","trial_index":54,"time_elapsed":314461,"internal_node_id":"0.0-4.0-1.23","subject_id":"5d4200b0f1006e00196a9322","study_id":"60edd13110225f80f9f3709b","session_id":"6196c4a5ad65d48462dec351","condition":"contingent","relevant_dimensions":["antennae","wings"],"bee_group":{"antennae":"B","wings":"2","pattern":"X","legs":"X"},"bonus":0.9400000000000005},{"rt":1000,"stimulus":"bees-with-color/bee-B1DF.svg","response":0,"trial_type":"image-button-response","trial_index":55,"time_elapsed":315463,"internal_node_id":"0.0-4.0-0.24","subject_id":"5d4200b0f1006e00196a9322","study_id":"60edd13110225f80f9f3709b","session_id":"6196c4a5ad65d48462dec351","condition":"contingent","relevant_dimensions":["antennae","wings"],"bee_group":{"antennae":"B","wings":"2","pattern":"X","legs":"X"},"action":"harvest","summary":"good-harvest","bonus":0.9400000000000005},{"rt":1392,"stimulus":"\n                    <p><b>Action: <em>harvest</em></b></p>\n                    <p>This is the bee that you just saw.</p>\n                    <img src=\"bees-with-color/bee-B1DF.svg\" width=\"200\">\n                    <p><span class=\"greenText\"><b>Successful harvest!</b></span><br>Your pay has increased by $0.02. Your bonus pay is now $0.56.</p>\n            ","response":0,"trial_type":"html-button-response","trial_index":56,"time_elapsed":316855,"internal_node_id":"0.0-4.0-1.24","subject_id":"5d4200b0f1006e00196a9322","study_id":"60edd13110225f80f9f3709b","session_id":"6196c4a5ad65d48462dec351","condition":"contingent","relevant_dimensions":["antennae","wings"],"bee_group":{"antennae":"B","wings":"2","pattern":"X","legs":"X"},"bonus":0.9400000000000005},{"rt":1646,"stimulus":"bees-with-color/bee-A1DM.svg","response":0,"trial_type":"image-button-response","trial_index":57,"time_elapsed":318502,"internal_node_id":"0.0-4.0-0.25","subject_id":"5d4200b0f1006e00196a9322","study_id":"60edd13110225f80f9f3709b","session_id":"6196c4a5ad65d48462dec351","condition":"contingent","relevant_dimensions":["antennae","wings"],"bee_group":{"antennae":"B","wings":"2","pattern":"X","legs":"X"},"action":"harvest","summary":"good-harvest","bonus":0.9400000000000005},{"rt":3991,"stimulus":"\n                    <p><b>Action: <em>harvest</em></b></p>\n                    <p>This is the bee that you just saw.</p>\n                    <img src=\"bees-with-color/bee-A1DM.svg\" width=\"200\">\n                    <p><span class=\"greenText\"><b>Successful harvest!</b></span><br>Your pay has increased by $0.02. Your bonus pay is now $0.58.</p>\n            ","response":0,"trial_type":"html-button-response","trial_index":58,"time_elapsed":322494,"internal_node_id":"0.0-4.0-1.25","subject_id":"5d4200b0f1006e00196a9322","study_id":"60edd13110225f80f9f3709b","session_id":"6196c4a5ad65d48462dec351","condition":"contingent","relevant_dimensions":["antennae","wings"],"bee_group":{"antennae":"B","wings":"2","pattern":"X","legs":"X"},"bonus":0.9400000000000005},{"rt":983,"stimulus":"bees-with-color/bee-B2DF.svg","response":1,"trial_type":"image-button-response","trial_index":59,"time_elapsed":323479,"internal_node_id":"0.0-4.0-0.26","subject_id":"5d4200b0f1006e00196a9322","study_id":"60edd13110225f80f9f3709b","session_id":"6196c4a5ad65d48462dec351","condition":"contingent","relevant_dimensions":["antennae","wings"],"bee_group":{"antennae":"B","wings":"2","pattern":"X","legs":"X"},"action":"avoid","summary":"good-avoid","bonus":0.9400000000000005},{"rt":1215,"stimulus":"\n                    <p><b>Action: <em>avoid</em></b></p>\n                    <p>This is the bee that you just saw.</p>\n                    <img src=\"bees-with-color/bee-B2DF.svg\" width=\"200\">\n                    <p><br>Your bonus pay is unchanged, and remains at $0.58.</p>\n            ","response":0,"trial_type":"html-button-response","trial_index":60,"time_elapsed":324694,"internal_node_id":"0.0-4.0-1.26","subject_id":"5d4200b0f1006e00196a9322","study_id":"60edd13110225f80f9f3709b","session_id":"6196c4a5ad65d48462dec351","condition":"contingent","relevant_dimensions":["antennae","wings"],"bee_group":{"antennae":"B","wings":"2","pattern":"X","legs":"X"},"bonus":0.9400000000000005},{"rt":1031,"stimulus":"bees-with-color/bee-B1DM.svg","response":0,"trial_type":"image-button-response","trial_index":61,"time_elapsed":325726,"internal_node_id":"0.0-4.0-0.27","subject_id":"5d4200b0f1006e00196a9322","study_id":"60edd13110225f80f9f3709b","session_id":"6196c4a5ad65d48462dec351","condition":"contingent","relevant_dimensions":["antennae","wings"],"bee_group":{"antennae":"B","wings":"2","pattern":"X","legs":"X"},"action":"harvest","summary":"good-harvest","bonus":0.9400000000000005},{"rt":1799,"stimulus":"\n                    <p><b>Action: <em>harvest</em></b></p>\n                    <p>This is the bee that you just saw.</p>\n                    <img src=\"bees-with-color/bee-B1DM.svg\" width=\"200\">\n                    <p><span class=\"greenText\"><b>Successful harvest!</b></span><br>Your pay has increased by $0.02. Your bonus pay is now $0.60.</p>\n            ","response":0,"trial_type":"html-button-response","trial_index":62,"time_elapsed":327526,"internal_node_id":"0.0-4.0-1.27","subject_id":"5d4200b0f1006e00196a9322","study_id":"60edd13110225f80f9f3709b","session_id":"6196c4a5ad65d48462dec351","condition":"contingent","relevant_dimensions":["antennae","wings"],"bee_group":{"antennae":"B","wings":"2","pattern":"X","legs":"X"},"bonus":0.9400000000000005},{"rt":840,"stimulus":"bees-with-color/bee-B2SF.svg","response":1,"trial_type":"image-button-response","trial_index":63,"time_elapsed":328365,"internal_node_id":"0.0-4.0-0.28","subject_id":"5d4200b0f1006e00196a9322","study_id":"60edd13110225f80f9f3709b","session_id":"6196c4a5ad65d48462dec351","condition":"contingent","relevant_dimensions":["antennae","wings"],"bee_group":{"antennae":"B","wings":"2","pattern":"X","legs":"X"},"action":"avoid","summary":"good-avoid","bonus":0.9400000000000005},{"rt":1199,"stimulus":"\n                    <p><b>Action: <em>avoid</em></b></p>\n                    <p>This is the bee that you just saw.</p>\n                    <img src=\"bees-with-color/bee-B2SF.svg\" width=\"200\">\n                    <p><br>Your bonus pay is unchanged, and remains at $0.60.</p>\n            ","response":0,"trial_type":"html-button-response","trial_index":64,"time_elapsed":329566,"internal_node_id":"0.0-4.0-1.28","subject_id":"5d4200b0f1006e00196a9322","study_id":"60edd13110225f80f9f3709b","session_id":"6196c4a5ad65d48462dec351","condition":"contingent","relevant_dimensions":["antennae","wings"],"bee_group":{"antennae":"B","wings":"2","pattern":"X","legs":"X"},"bonus":0.9400000000000005},{"rt":815,"stimulus":"bees-with-color/bee-A2SM.svg","response":1,"trial_type":"image-button-response","trial_index":65,"time_elapsed":330382,"internal_node_id":"0.0-4.0-0.29","subject_id":"5d4200b0f1006e00196a9322","study_id":"60edd13110225f80f9f3709b","session_id":"6196c4a5ad65d48462dec351","condition":"contingent","relevant_dimensions":["antennae","wings"],"bee_group":{"antennae":"B","wings":"2","pattern":"X","legs":"X"},"action":"avoid","summary":"bad-avoid","bonus":0.9400000000000005},{"rt":759,"stimulus":"\n                    <p><b>Action: <em>avoid</em></b></p>\n                    <p>This is the bee that you just saw.</p>\n                    <img src=\"bees-with-color/bee-A2SM.svg\" width=\"200\">\n                    <p><br>Your bonus pay is unchanged, and remains at $0.60.</p>\n            ","response":0,"trial_type":"html-button-response","trial_index":66,"time_elapsed":331142,"internal_node_id":"0.0-4.0-1.29","subject_id":"5d4200b0f1006e00196a9322","study_id":"60edd13110225f80f9f3709b","session_id":"6196c4a5ad65d48462dec351","condition":"contingent","relevant_dimensions":["antennae","wings"],"bee_group":{"antennae":"B","wings":"2","pattern":"X","legs":"X"},"bonus":0.9400000000000005},{"rt":1079,"stimulus":"bees-with-color/bee-A1SM.svg","response":0,"trial_type":"image-button-response","trial_index":67,"time_elapsed":332221,"internal_node_id":"0.0-4.0-0.30","subject_id":"5d4200b0f1006e00196a9322","study_id":"60edd13110225f80f9f3709b","session_id":"6196c4a5ad65d48462dec351","condition":"contingent","relevant_dimensions":["antennae","wings"],"bee_group":{"antennae":"B","wings":"2","pattern":"X","legs":"X"},"action":"harvest","summary":"good-harvest","bonus":0.9400000000000005},{"rt":1631,"stimulus":"\n                    <p><b>Action: <em>harvest</em></b></p>\n                    <p>This is the bee that you just saw.</p>\n                    <img src=\"bees-with-color/bee-A1SM.svg\" width=\"200\">\n                    <p><span class=\"greenText\"><b>Successful harvest!</b></span><br>Your pay has increased by $0.02. Your bonus pay is now $0.62.</p>\n            ","response":0,"trial_type":"html-button-response","trial_index":68,"time_elapsed":333854,"internal_node_id":"0.0-4.0-1.30","subject_id":"5d4200b0f1006e00196a9322","study_id":"60edd13110225f80f9f3709b","session_id":"6196c4a5ad65d48462dec351","condition":"contingent","relevant_dimensions":["antennae","wings"],"bee_group":{"antennae":"B","wings":"2","pattern":"X","legs":"X"},"bonus":0.9400000000000005},{"rt":839,"stimulus":"bees-with-color/bee-A2SF.svg","response":1,"trial_type":"image-button-response","trial_index":69,"time_elapsed":334694,"internal_node_id":"0.0-4.0-0.31","subject_id":"5d4200b0f1006e00196a9322","study_id":"60edd13110225f80f9f3709b","session_id":"6196c4a5ad65d48462dec351","condition":"contingent","relevant_dimensions":["antennae","wings"],"bee_group":{"antennae":"B","wings":"2","pattern":"X","legs":"X"},"action":"avoid","summary":"bad-avoid","bonus":0.9400000000000005},{"rt":1079,"stimulus":"\n                    <p><b>Action: <em>avoid</em></b></p>\n                    <p>This is the bee that you just saw.</p>\n                    <img src=\"bees-with-color/bee-A2SF.svg\" width=\"200\">\n                    <p><br>Your bonus pay is unchanged, and remains at $0.62.</p>\n            ","response":0,"trial_type":"html-button-response","trial_index":70,"time_elapsed":335774,"internal_node_id":"0.0-4.0-1.31","subject_id":"5d4200b0f1006e00196a9322","study_id":"60edd13110225f80f9f3709b","session_id":"6196c4a5ad65d48462dec351","condition":"contingent","relevant_dimensions":["antennae","wings"],"bee_group":{"antennae":"B","wings":"2","pattern":"X","legs":"X"},"bonus":0.9400000000000005},{"rt":1007,"stimulus":"bees-with-color/bee-A1DM.svg","response":0,"trial_type":"image-button-response","trial_index":71,"time_elapsed":336781,"internal_node_id":"0.0-4.0-0.32","subject_id":"5d4200b0f1006e00196a9322","study_id":"60edd13110225f80f9f3709b","session_id":"6196c4a5ad65d48462dec351","condition":"contingent","relevant_dimensions":["antennae","wings"],"bee_group":{"antennae":"B","wings":"2","pattern":"X","legs":"X"},"action":"harvest","summary":"good-harvest","bonus":0.9400000000000005},{"rt":1472,"stimulus":"\n                    <p><b>Action: <em>harvest</em></b></p>\n                    <p>This is the bee that you just saw.</p>\n                    <img src=\"bees-with-color/bee-A1DM.svg\" width=\"200\">\n                    <p><span class=\"greenText\"><b>Successful harvest!</b></span><br>Your pay has increased by $0.02. Your bonus pay is now $0.64.</p>\n            ","response":0,"trial_type":"html-button-response","trial_index":72,"time_elapsed":338253,"internal_node_id":"0.0-4.0-1.32","subject_id":"5d4200b0f1006e00196a9322","study_id":"60edd13110225f80f9f3709b","session_id":"6196c4a5ad65d48462dec351","condition":"contingent","relevant_dimensions":["antennae","wings"],"bee_group":{"antennae":"B","wings":"2","pattern":"X","legs":"X"},"bonus":0.9400000000000005},{"rt":1335,"stimulus":"bees-with-color/bee-A1DF.svg","response":0,"trial_type":"image-button-response","trial_index":73,"time_elapsed":339590,"internal_node_id":"0.0-4.0-0.33","subject_id":"5d4200b0f1006e00196a9322","study_id":"60edd13110225f80f9f3709b","session_id":"6196c4a5ad65d48462dec351","condition":"contingent","relevant_dimensions":["antennae","wings"],"bee_group":{"antennae":"B","wings":"2","pattern":"X","legs":"X"},"action":"harvest","summary":"good-harvest","bonus":0.9400000000000005},{"rt":1302,"stimulus":"\n                    <p><b>Action: <em>harvest</em></b></p>\n                    <p>This is the bee that you just saw.</p>\n                    <img src=\"bees-with-color/bee-A1DF.svg\" width=\"200\">\n                    <p><span class=\"greenText\"><b>Successful harvest!</b></span><br>Your pay has increased by $0.02. Your bonus pay is now $0.66.</p>\n            ","response":0,"trial_type":"html-button-response","trial_index":74,"time_elapsed":340894,"internal_node_id":"0.0-4.0-1.33","subject_id":"5d4200b0f1006e00196a9322","study_id":"60edd13110225f80f9f3709b","session_id":"6196c4a5ad65d48462dec351","condition":"contingent","relevant_dimensions":["antennae","wings"],"bee_group":{"antennae":"B","wings":"2","pattern":"X","legs":"X"},"bonus":0.9400000000000005},{"rt":1423,"stimulus":"bees-with-color/bee-B2DM.svg","response":1,"trial_type":"image-button-response","trial_index":75,"time_elapsed":342317,"internal_node_id":"0.0-4.0-0.34","subject_id":"5d4200b0f1006e00196a9322","study_id":"60edd13110225f80f9f3709b","session_id":"6196c4a5ad65d48462dec351","condition":"contingent","relevant_dimensions":["antennae","wings"],"bee_group":{"antennae":"B","wings":"2","pattern":"X","legs":"X"},"action":"avoid","summary":"good-avoid","bonus":0.9400000000000005},{"rt":1424,"stimulus":"\n                    <p><b>Action: <em>avoid</em></b></p>\n                    <p>This is the bee that you just saw.</p>\n                    <img src=\"bees-with-color/bee-B2DM.svg\" width=\"200\">\n                    <p><br>Your bonus pay is unchanged, and remains at $0.66.</p>\n            ","response":0,"trial_type":"html-button-response","trial_index":76,"time_elapsed":343742,"internal_node_id":"0.0-4.0-1.34","subject_id":"5d4200b0f1006e00196a9322","study_id":"60edd13110225f80f9f3709b","session_id":"6196c4a5ad65d48462dec351","condition":"contingent","relevant_dimensions":["antennae","wings"],"bee_group":{"antennae":"B","wings":"2","pattern":"X","legs":"X"},"bonus":0.9400000000000005},{"rt":759,"stimulus":"bees-with-color/bee-A2DF.svg","response":1,"trial_type":"image-button-response","trial_index":77,"time_elapsed":344502,"internal_node_id":"0.0-4.0-0.35","subject_id":"5d4200b0f1006e00196a9322","study_id":"60edd13110225f80f9f3709b","session_id":"6196c4a5ad65d48462dec351","condition":"contingent","relevant_dimensions":["antennae","wings"],"bee_group":{"antennae":"B","wings":"2","pattern":"X","legs":"X"},"action":"avoid","summary":"bad-avoid","bonus":0.9400000000000005},{"rt":775,"stimulus":"\n                    <p><b>Action: <em>avoid</em></b></p>\n                    <p>This is the bee that you just saw.</p>\n                    <img src=\"bees-with-color/bee-A2DF.svg\" width=\"200\">\n                    <p><br>Your bonus pay is unchanged, and remains at $0.66.</p>\n            ","response":0,"trial_type":"html-button-response","trial_index":78,"time_elapsed":345278,"internal_node_id":"0.0-4.0-1.35","subject_id":"5d4200b0f1006e00196a9322","study_id":"60edd13110225f80f9f3709b","session_id":"6196c4a5ad65d48462dec351","condition":"contingent","relevant_dimensions":["antennae","wings"],"bee_group":{"antennae":"B","wings":"2","pattern":"X","legs":"X"},"bonus":0.9400000000000005},{"rt":847,"stimulus":"bees-with-color/bee-B1SF.svg","response":0,"trial_type":"image-button-response","trial_index":79,"time_elapsed":346125,"internal_node_id":"0.0-4.0-0.36","subject_id":"5d4200b0f1006e00196a9322","study_id":"60edd13110225f80f9f3709b","session_id":"6196c4a5ad65d48462dec351","condition":"contingent","relevant_dimensions":["antennae","wings"],"bee_group":{"antennae":"B","wings":"2","pattern":"X","legs":"X"},"action":"harvest","summary":"good-harvest","bonus":0.9400000000000005},{"rt":998,"stimulus":"\n                    <p><b>Action: <em>harvest</em></b></p>\n                    <p>This is the bee that you just saw.</p>\n                    <img src=\"bees-with-color/bee-B1SF.svg\" width=\"200\">\n                    <p><span class=\"greenText\"><b>Successful harvest!</b></span><br>Your pay has increased by $0.02. Your bonus pay is now $0.68.</p>\n            ","response":0,"trial_type":"html-button-response","trial_index":80,"time_elapsed":347126,"internal_node_id":"0.0-4.0-1.36","subject_id":"5d4200b0f1006e00196a9322","study_id":"60edd13110225f80f9f3709b","session_id":"6196c4a5ad65d48462dec351","condition":"contingent","relevant_dimensions":["antennae","wings"],"bee_group":{"antennae":"B","wings":"2","pattern":"X","legs":"X"},"bonus":0.9400000000000005},{"rt":1544,"stimulus":"bees-with-color/bee-A1SM.svg","response":0,"trial_type":"image-button-response","trial_index":81,"time_elapsed":348670,"internal_node_id":"0.0-4.0-0.37","subject_id":"5d4200b0f1006e00196a9322","study_id":"60edd13110225f80f9f3709b","session_id":"6196c4a5ad65d48462dec351","condition":"contingent","relevant_dimensions":["antennae","wings"],"bee_group":{"antennae":"B","wings":"2","pattern":"X","legs":"X"},"action":"harvest","summary":"good-harvest","bonus":0.9400000000000005},{"rt":968,"stimulus":"\n                    <p><b>Action: <em>harvest</em></b></p>\n                    <p>This is the bee that you just saw.</p>\n                    <img src=\"bees-with-color/bee-A1SM.svg\" width=\"200\">\n                    <p><span class=\"greenText\"><b>Successful harvest!</b></span><br>Your pay has increased by $0.02. Your bonus pay is now $0.70.</p>\n            ","response":0,"trial_type":"html-button-response","trial_index":82,"time_elapsed":349638,"internal_node_id":"0.0-4.0-1.37","subject_id":"5d4200b0f1006e00196a9322","study_id":"60edd13110225f80f9f3709b","session_id":"6196c4a5ad65d48462dec351","condition":"contingent","relevant_dimensions":["antennae","wings"],"bee_group":{"antennae":"B","wings":"2","pattern":"X","legs":"X"},"bonus":0.9400000000000005},{"rt":950,"stimulus":"bees-with-color/bee-A2SF.svg","response":1,"trial_type":"image-button-response","trial_index":83,"time_elapsed":350589,"internal_node_id":"0.0-4.0-0.38","subject_id":"5d4200b0f1006e00196a9322","study_id":"60edd13110225f80f9f3709b","session_id":"6196c4a5ad65d48462dec351","condition":"contingent","relevant_dimensions":["antennae","wings"],"bee_group":{"antennae":"B","wings":"2","pattern":"X","legs":"X"},"action":"avoid","summary":"bad-avoid","bonus":0.9400000000000005},{"rt":823,"stimulus":"\n                    <p><b>Action: <em>avoid</em></b></p>\n                    <p>This is the bee that you just saw.</p>\n                    <img src=\"bees-with-color/bee-A2SF.svg\" width=\"200\">\n                    <p><br>Your bonus pay is unchanged, and remains at $0.70.</p>\n            ","response":0,"trial_type":"html-button-response","trial_index":84,"time_elapsed":351413,"internal_node_id":"0.0-4.0-1.38","subject_id":"5d4200b0f1006e00196a9322","study_id":"60edd13110225f80f9f3709b","session_id":"6196c4a5ad65d48462dec351","condition":"contingent","relevant_dimensions":["antennae","wings"],"bee_group":{"antennae":"B","wings":"2","pattern":"X","legs":"X"},"bonus":0.9400000000000005},{"rt":927,"stimulus":"bees-with-color/bee-B2SM.svg","response":1,"trial_type":"image-button-response","trial_index":85,"time_elapsed":352342,"internal_node_id":"0.0-4.0-0.39","subject_id":"5d4200b0f1006e00196a9322","study_id":"60edd13110225f80f9f3709b","session_id":"6196c4a5ad65d48462dec351","condition":"contingent","relevant_dimensions":["antennae","wings"],"bee_group":{"antennae":"B","wings":"2","pattern":"X","legs":"X"},"action":"avoid","summary":"good-avoid","bonus":0.9400000000000005},{"rt":759,"stimulus":"\n                    <p><b>Action: <em>avoid</em></b></p>\n                    <p>This is the bee that you just saw.</p>\n                    <img src=\"bees-with-color/bee-B2SM.svg\" width=\"200\">\n                    <p><br>Your bonus pay is unchanged, and remains at $0.70.</p>\n            ","response":0,"trial_type":"html-button-response","trial_index":86,"time_elapsed":353101,"internal_node_id":"0.0-4.0-1.39","subject_id":"5d4200b0f1006e00196a9322","study_id":"60edd13110225f80f9f3709b","session_id":"6196c4a5ad65d48462dec351","condition":"contingent","relevant_dimensions":["antennae","wings"],"bee_group":{"antennae":"B","wings":"2","pattern":"X","legs":"X"},"bonus":0.9400000000000005},{"rt":927,"stimulus":"bees-with-color/bee-A1SF.svg","response":0,"trial_type":"image-button-response","trial_index":87,"time_elapsed":354030,"internal_node_id":"0.0-4.0-0.40","subject_id":"5d4200b0f1006e00196a9322","study_id":"60edd13110225f80f9f3709b","session_id":"6196c4a5ad65d48462dec351","condition":"contingent","relevant_dimensions":["antennae","wings"],"bee_group":{"antennae":"B","wings":"2","pattern":"X","legs":"X"},"action":"harvest","summary":"good-harvest","bonus":0.9400000000000005},{"rt":928,"stimulus":"\n                    <p><b>Action: <em>harvest</em></b></p>\n                    <p>This is the bee that you just saw.</p>\n                    <img src=\"bees-with-color/bee-A1SF.svg\" width=\"200\">\n                    <p><span class=\"greenText\"><b>Successful harvest!</b></span><br>Your pay has increased by $0.02. Your bonus pay is now $0.72.</p>\n            ","response":0,"trial_type":"html-button-response","trial_index":88,"time_elapsed":354957,"internal_node_id":"0.0-4.0-1.40","subject_id":"5d4200b0f1006e00196a9322","study_id":"60edd13110225f80f9f3709b","session_id":"6196c4a5ad65d48462dec351","condition":"contingent","relevant_dimensions":["antennae","wings"],"bee_group":{"antennae":"B","wings":"2","pattern":"X","legs":"X"},"bonus":0.9400000000000005},{"rt":1000,"stimulus":"bees-with-color/bee-B1DM.svg","response":0,"trial_type":"image-button-response","trial_index":89,"time_elapsed":355957,"internal_node_id":"0.0-4.0-0.41","subject_id":"5d4200b0f1006e00196a9322","study_id":"60edd13110225f80f9f3709b","session_id":"6196c4a5ad65d48462dec351","condition":"contingent","relevant_dimensions":["antennae","wings"],"bee_group":{"antennae":"B","wings":"2","pattern":"X","legs":"X"},"action":"harvest","summary":"good-harvest","bonus":0.9400000000000005},{"rt":911,"stimulus":"\n                    <p><b>Action: <em>harvest</em></b></p>\n                    <p>This is the bee that you just saw.</p>\n                    <img src=\"bees-with-color/bee-B1DM.svg\" width=\"200\">\n                    <p><span class=\"greenText\"><b>Successful harvest!</b></span><br>Your pay has increased by $0.02. Your bonus pay is now $0.74.</p>\n            ","response":0,"trial_type":"html-button-response","trial_index":90,"time_elapsed":356870,"internal_node_id":"0.0-4.0-1.41","subject_id":"5d4200b0f1006e00196a9322","study_id":"60edd13110225f80f9f3709b","session_id":"6196c4a5ad65d48462dec351","condition":"contingent","relevant_dimensions":["antennae","wings"],"bee_group":{"antennae":"B","wings":"2","pattern":"X","legs":"X"},"bonus":0.9400000000000005},{"rt":959,"stimulus":"bees-with-color/bee-A2DM.svg","response":1,"trial_type":"image-button-response","trial_index":91,"time_elapsed":357829,"internal_node_id":"0.0-4.0-0.42","subject_id":"5d4200b0f1006e00196a9322","study_id":"60edd13110225f80f9f3709b","session_id":"6196c4a5ad65d48462dec351","condition":"contingent","relevant_dimensions":["antennae","wings"],"bee_group":{"antennae":"B","wings":"2","pattern":"X","legs":"X"},"action":"avoid","summary":"bad-avoid","bonus":0.9400000000000005},{"rt":736,"stimulus":"\n                    <p><b>Action: <em>avoid</em></b></p>\n                    <p>This is the bee that you just saw.</p>\n                    <img src=\"bees-with-color/bee-A2DM.svg\" width=\"200\">\n                    <p><br>Your bonus pay is unchanged, and remains at $0.74.</p>\n            ","response":0,"trial_type":"html-button-response","trial_index":92,"time_elapsed":358565,"internal_node_id":"0.0-4.0-1.42","subject_id":"5d4200b0f1006e00196a9322","study_id":"60edd13110225f80f9f3709b","session_id":"6196c4a5ad65d48462dec351","condition":"contingent","relevant_dimensions":["antennae","wings"],"bee_group":{"antennae":"B","wings":"2","pattern":"X","legs":"X"},"bonus":0.9400000000000005},{"rt":966,"stimulus":"bees-with-color/bee-B1SM.svg","response":0,"trial_type":"image-button-response","trial_index":93,"time_elapsed":359533,"internal_node_id":"0.0-4.0-0.43","subject_id":"5d4200b0f1006e00196a9322","study_id":"60edd13110225f80f9f3709b","session_id":"6196c4a5ad65d48462dec351","condition":"contingent","relevant_dimensions":["antennae","wings"],"bee_group":{"antennae":"B","wings":"2","pattern":"X","legs":"X"},"action":"harvest","summary":"good-harvest","bonus":0.9400000000000005},{"rt":847,"stimulus":"\n                    <p><b>Action: <em>harvest</em></b></p>\n                    <p>This is the bee that you just saw.</p>\n                    <img src=\"bees-with-color/bee-B1SM.svg\" width=\"200\">\n                    <p><span class=\"greenText\"><b>Successful harvest!</b></span><br>Your pay has increased by $0.02. Your bonus pay is now $0.76.</p>\n            ","response":0,"trial_type":"html-button-response","trial_index":94,"time_elapsed":360382,"internal_node_id":"0.0-4.0-1.43","subject_id":"5d4200b0f1006e00196a9322","study_id":"60edd13110225f80f9f3709b","session_id":"6196c4a5ad65d48462dec351","condition":"contingent","relevant_dimensions":["antennae","wings"],"bee_group":{"antennae":"B","wings":"2","pattern":"X","legs":"X"},"bonus":0.9400000000000005},{"rt":879,"stimulus":"bees-with-color/bee-B2DF.svg","response":1,"trial_type":"image-button-response","trial_index":95,"time_elapsed":361262,"internal_node_id":"0.0-4.0-0.44","subject_id":"5d4200b0f1006e00196a9322","study_id":"60edd13110225f80f9f3709b","session_id":"6196c4a5ad65d48462dec351","condition":"contingent","relevant_dimensions":["antennae","wings"],"bee_group":{"antennae":"B","wings":"2","pattern":"X","legs":"X"},"action":"avoid","summary":"good-avoid","bonus":0.9400000000000005},{"rt":797,"stimulus":"\n                    <p><b>Action: <em>avoid</em></b></p>\n                    <p>This is the bee that you just saw.</p>\n                    <img src=\"bees-with-color/bee-B2DF.svg\" width=\"200\">\n                    <p><br>Your bonus pay is unchanged, and remains at $0.76.</p>\n            ","response":0,"trial_type":"html-button-response","trial_index":96,"time_elapsed":362061,"internal_node_id":"0.0-4.0-1.44","subject_id":"5d4200b0f1006e00196a9322","study_id":"60edd13110225f80f9f3709b","session_id":"6196c4a5ad65d48462dec351","condition":"contingent","relevant_dimensions":["antennae","wings"],"bee_group":{"antennae":"B","wings":"2","pattern":"X","legs":"X"},"bonus":0.9400000000000005},{"rt":976,"stimulus":"bees-with-color/bee-B2SF.svg","response":1,"trial_type":"image-button-response","trial_index":97,"time_elapsed":363038,"internal_node_id":"0.0-4.0-0.45","subject_id":"5d4200b0f1006e00196a9322","study_id":"60edd13110225f80f9f3709b","session_id":"6196c4a5ad65d48462dec351","condition":"contingent","relevant_dimensions":["antennae","wings"],"bee_group":{"antennae":"B","wings":"2","pattern":"X","legs":"X"},"action":"avoid","summary":"good-avoid","bonus":0.9400000000000005},{"rt":767,"stimulus":"\n                    <p><b>Action: <em>avoid</em></b></p>\n                    <p>This is the bee that you just saw.</p>\n                    <img src=\"bees-with-color/bee-B2SF.svg\" width=\"200\">\n                    <p><br>Your bonus pay is unchanged, and remains at $0.76.</p>\n            ","response":0,"trial_type":"html-button-response","trial_index":98,"time_elapsed":363806,"internal_node_id":"0.0-4.0-1.45","subject_id":"5d4200b0f1006e00196a9322","study_id":"60edd13110225f80f9f3709b","session_id":"6196c4a5ad65d48462dec351","condition":"contingent","relevant_dimensions":["antennae","wings"],"bee_group":{"antennae":"B","wings":"2","pattern":"X","legs":"X"},"bonus":0.9400000000000005},{"rt":910,"stimulus":"bees-with-color/bee-A2SM.svg","response":1,"trial_type":"image-button-response","trial_index":99,"time_elapsed":364717,"internal_node_id":"0.0-4.0-0.46","subject_id":"5d4200b0f1006e00196a9322","study_id":"60edd13110225f80f9f3709b","session_id":"6196c4a5ad65d48462dec351","condition":"contingent","relevant_dimensions":["antennae","wings"],"bee_group":{"antennae":"B","wings":"2","pattern":"X","legs":"X"},"action":"avoid","summary":"bad-avoid","bonus":0.9400000000000005},{"rt":639,"stimulus":"\n                    <p><b>Action: <em>avoid</em></b></p>\n                    <p>This is the bee that you just saw.</p>\n                    <img src=\"bees-with-color/bee-A2SM.svg\" width=\"200\">\n                    <p><br>Your bonus pay is unchanged, and remains at $0.76.</p>\n            ","response":0,"trial_type":"html-button-response","trial_index":100,"time_elapsed":365357,"internal_node_id":"0.0-4.0-1.46","subject_id":"5d4200b0f1006e00196a9322","study_id":"60edd13110225f80f9f3709b","session_id":"6196c4a5ad65d48462dec351","condition":"contingent","relevant_dimensions":["antennae","wings"],"bee_group":{"antennae":"B","wings":"2","pattern":"X","legs":"X"},"bonus":0.9400000000000005},{"rt":871,"stimulus":"bees-with-color/bee-B1DF.svg","response":0,"trial_type":"image-button-response","trial_index":101,"time_elapsed":366230,"internal_node_id":"0.0-4.0-0.47","subject_id":"5d4200b0f1006e00196a9322","study_id":"60edd13110225f80f9f3709b","session_id":"6196c4a5ad65d48462dec351","condition":"contingent","relevant_dimensions":["antennae","wings"],"bee_group":{"antennae":"B","wings":"2","pattern":"X","legs":"X"},"action":"harvest","summary":"good-harvest","bonus":0.9400000000000005},{"rt":881,"stimulus":"\n                    <p><b>Action: <em>harvest</em></b></p>\n                    <p>This is the bee that you just saw.</p>\n                    <img src=\"bees-with-color/bee-B1DF.svg\" width=\"200\">\n                    <p><span class=\"greenText\"><b>Successful harvest!</b></span><br>Your pay has increased by $0.02. Your bonus pay is now $0.78.</p>\n            ","response":0,"trial_type":"html-button-response","trial_index":102,"time_elapsed":367110,"internal_node_id":"0.0-4.0-1.47","subject_id":"5d4200b0f1006e00196a9322","study_id":"60edd13110225f80f9f3709b","session_id":"6196c4a5ad65d48462dec351","condition":"contingent","relevant_dimensions":["antennae","wings"],"bee_group":{"antennae":"B","wings":"2","pattern":"X","legs":"X"},"bonus":0.9400000000000005},{"rt":1039,"stimulus":"bees-with-color/bee-A1DM.svg","response":0,"trial_type":"image-button-response","trial_index":103,"time_elapsed":368149,"internal_node_id":"0.0-4.0-0.48","subject_id":"5d4200b0f1006e00196a9322","study_id":"60edd13110225f80f9f3709b","session_id":"6196c4a5ad65d48462dec351","condition":"contingent","relevant_dimensions":["antennae","wings"],"bee_group":{"antennae":"B","wings":"2","pattern":"X","legs":"X"},"action":"harvest","summary":"good-harvest","bonus":0.9400000000000005},{"rt":790,"stimulus":"\n                    <p><b>Action: <em>harvest</em></b></p>\n                    <p>This is the bee that you just saw.</p>\n                    <img src=\"bees-with-color/bee-A1DM.svg\" width=\"200\">\n                    <p><span class=\"greenText\"><b>Successful harvest!</b></span><br>Your pay has increased by $0.02. Your bonus pay is now $0.80.</p>\n            ","response":0,"trial_type":"html-button-response","trial_index":104,"time_elapsed":368941,"internal_node_id":"0.0-4.0-1.48","subject_id":"5d4200b0f1006e00196a9322","study_id":"60edd13110225f80f9f3709b","session_id":"6196c4a5ad65d48462dec351","condition":"contingent","relevant_dimensions":["antennae","wings"],"bee_group":{"antennae":"B","wings":"2","pattern":"X","legs":"X"},"bonus":0.9400000000000005},{"rt":839,"stimulus":"bees-with-color/bee-A2SM.svg","response":1,"trial_type":"image-button-response","trial_index":105,"time_elapsed":369781,"internal_node_id":"0.0-4.0-0.49","subject_id":"5d4200b0f1006e00196a9322","study_id":"60edd13110225f80f9f3709b","session_id":"6196c4a5ad65d48462dec351","condition":"contingent","relevant_dimensions":["antennae","wings"],"bee_group":{"antennae":"B","wings":"2","pattern":"X","legs":"X"},"action":"avoid","summary":"bad-avoid","bonus":0.9400000000000005},{"rt":687,"stimulus":"\n                    <p><b>Action: <em>avoid</em></b></p>\n                    <p>This is the bee that you just saw.</p>\n                    <img src=\"bees-with-color/bee-A2SM.svg\" width=\"200\">\n                    <p><br>Your bonus pay is unchanged, and remains at $0.80.</p>\n            ","response":0,"trial_type":"html-button-response","trial_index":106,"time_elapsed":370470,"internal_node_id":"0.0-4.0-1.49","subject_id":"5d4200b0f1006e00196a9322","study_id":"60edd13110225f80f9f3709b","session_id":"6196c4a5ad65d48462dec351","condition":"contingent","relevant_dimensions":["antennae","wings"],"bee_group":{"antennae":"B","wings":"2","pattern":"X","legs":"X"},"bonus":0.9400000000000005},{"rt":966,"stimulus":"bees-with-color/bee-A1SF.svg","response":0,"trial_type":"image-button-response","trial_index":107,"time_elapsed":371437,"internal_node_id":"0.0-4.0-0.50","subject_id":"5d4200b0f1006e00196a9322","study_id":"60edd13110225f80f9f3709b","session_id":"6196c4a5ad65d48462dec351","condition":"contingent","relevant_dimensions":["antennae","wings"],"bee_group":{"antennae":"B","wings":"2","pattern":"X","legs":"X"},"action":"harvest","summary":"good-harvest","bonus":0.9400000000000005},{"rt":1721,"stimulus":"\n                    <p><b>Action: <em>harvest</em></b></p>\n                    <p>This is the bee that you just saw.</p>\n                    <img src=\"bees-with-color/bee-A1SF.svg\" width=\"200\">\n                    <p><span class=\"greenText\"><b>Successful harvest!</b></span><br>Your pay has increased by $0.02. Your bonus pay is now $0.82.</p>\n            ","response":0,"trial_type":"html-button-response","trial_index":108,"time_elapsed":373159,"internal_node_id":"0.0-4.0-1.50","subject_id":"5d4200b0f1006e00196a9322","study_id":"60edd13110225f80f9f3709b","session_id":"6196c4a5ad65d48462dec351","condition":"contingent","relevant_dimensions":["antennae","wings"],"bee_group":{"antennae":"B","wings":"2","pattern":"X","legs":"X"},"bonus":0.9400000000000005},{"rt":2159,"stimulus":"bees-with-color/bee-B1DM.svg","response":0,"trial_type":"image-button-response","trial_index":109,"time_elapsed":375318,"internal_node_id":"0.0-4.0-0.51","subject_id":"5d4200b0f1006e00196a9322","study_id":"60edd13110225f80f9f3709b","session_id":"6196c4a5ad65d48462dec351","condition":"contingent","relevant_dimensions":["antennae","wings"],"bee_group":{"antennae":"B","wings":"2","pattern":"X","legs":"X"},"action":"harvest","summary":"good-harvest","bonus":0.9400000000000005},{"rt":1039,"stimulus":"\n                    <p><b>Action: <em>harvest</em></b></p>\n                    <p>This is the bee that you just saw.</p>\n                    <img src=\"bees-with-color/bee-B1DM.svg\" width=\"200\">\n                    <p><span class=\"greenText\"><b>Successful harvest!</b></span><br>Your pay has increased by $0.02. Your bonus pay is now $0.84.</p>\n            ","response":0,"trial_type":"html-button-response","trial_index":110,"time_elapsed":376358,"internal_node_id":"0.0-4.0-1.51","subject_id":"5d4200b0f1006e00196a9322","study_id":"60edd13110225f80f9f3709b","session_id":"6196c4a5ad65d48462dec351","condition":"contingent","relevant_dimensions":["antennae","wings"],"bee_group":{"antennae":"B","wings":"2","pattern":"X","legs":"X"},"bonus":0.9400000000000005},{"rt":1663,"stimulus":"bees-with-color/bee-A1DF.svg","response":0,"trial_type":"image-button-response","trial_index":111,"time_elapsed":378022,"internal_node_id":"0.0-4.0-0.52","subject_id":"5d4200b0f1006e00196a9322","study_id":"60edd13110225f80f9f3709b","session_id":"6196c4a5ad65d48462dec351","condition":"contingent","relevant_dimensions":["antennae","wings"],"bee_group":{"antennae":"B","wings":"2","pattern":"X","legs":"X"},"action":"harvest","summary":"good-harvest","bonus":0.9400000000000005},{"rt":839,"stimulus":"\n                    <p><b>Action: <em>harvest</em></b></p>\n                    <p>This is the bee that you just saw.</p>\n                    <img src=\"bees-with-color/bee-A1DF.svg\" width=\"200\">\n                    <p><span class=\"greenText\"><b>Successful harvest!</b></span><br>Your pay has increased by $0.02. Your bonus pay is now $0.86.</p>\n            ","response":0,"trial_type":"html-button-response","trial_index":112,"time_elapsed":378862,"internal_node_id":"0.0-4.0-1.52","subject_id":"5d4200b0f1006e00196a9322","study_id":"60edd13110225f80f9f3709b","session_id":"6196c4a5ad65d48462dec351","condition":"contingent","relevant_dimensions":["antennae","wings"],"bee_group":{"antennae":"B","wings":"2","pattern":"X","legs":"X"},"bonus":0.9400000000000005},{"rt":928,"stimulus":"bees-with-color/bee-A2DM.svg","response":1,"trial_type":"image-button-response","trial_index":113,"time_elapsed":379789,"internal_node_id":"0.0-4.0-0.53","subject_id":"5d4200b0f1006e00196a9322","study_id":"60edd13110225f80f9f3709b","session_id":"6196c4a5ad65d48462dec351","condition":"contingent","relevant_dimensions":["antennae","wings"],"bee_group":{"antennae":"B","wings":"2","pattern":"X","legs":"X"},"action":"avoid","summary":"bad-avoid","bonus":0.9400000000000005},{"rt":759,"stimulus":"\n                    <p><b>Action: <em>avoid</em></b></p>\n                    <p>This is the bee that you just saw.</p>\n                    <img src=\"bees-with-color/bee-A2DM.svg\" width=\"200\">\n                    <p><br>Your bonus pay is unchanged, and remains at $0.86.</p>\n            ","response":0,"trial_type":"html-button-response","trial_index":114,"time_elapsed":380549,"internal_node_id":"0.0-4.0-1.53","subject_id":"5d4200b0f1006e00196a9322","study_id":"60edd13110225f80f9f3709b","session_id":"6196c4a5ad65d48462dec351","condition":"contingent","relevant_dimensions":["antennae","wings"],"bee_group":{"antennae":"B","wings":"2","pattern":"X","legs":"X"},"bonus":0.9400000000000005},{"rt":871,"stimulus":"bees-with-color/bee-B2DM.svg","response":1,"trial_type":"image-button-response","trial_index":115,"time_elapsed":381421,"internal_node_id":"0.0-4.0-0.54","subject_id":"5d4200b0f1006e00196a9322","study_id":"60edd13110225f80f9f3709b","session_id":"6196c4a5ad65d48462dec351","condition":"contingent","relevant_dimensions":["antennae","wings"],"bee_group":{"antennae":"B","wings":"2","pattern":"X","legs":"X"},"action":"avoid","summary":"good-avoid","bonus":0.9400000000000005},{"rt":744,"stimulus":"\n                    <p><b>Action: <em>avoid</em></b></p>\n                    <p>This is the bee that you just saw.</p>\n                    <img src=\"bees-with-color/bee-B2DM.svg\" width=\"200\">\n                    <p><br>Your bonus pay is unchanged, and remains at $0.86.</p>\n            ","response":0,"trial_type":"html-button-response","trial_index":116,"time_elapsed":382166,"internal_node_id":"0.0-4.0-1.54","subject_id":"5d4200b0f1006e00196a9322","study_id":"60edd13110225f80f9f3709b","session_id":"6196c4a5ad65d48462dec351","condition":"contingent","relevant_dimensions":["antennae","wings"],"bee_group":{"antennae":"B","wings":"2","pattern":"X","legs":"X"},"bonus":0.9400000000000005},{"rt":791,"stimulus":"bees-with-color/bee-B2SM.svg","response":1,"trial_type":"image-button-response","trial_index":117,"time_elapsed":382957,"internal_node_id":"0.0-4.0-0.55","subject_id":"5d4200b0f1006e00196a9322","study_id":"60edd13110225f80f9f3709b","session_id":"6196c4a5ad65d48462dec351","condition":"contingent","relevant_dimensions":["antennae","wings"],"bee_group":{"antennae":"B","wings":"2","pattern":"X","legs":"X"},"action":"avoid","summary":"good-avoid","bonus":0.9400000000000005},{"rt":696,"stimulus":"\n                    <p><b>Action: <em>avoid</em></b></p>\n                    <p>This is the bee that you just saw.</p>\n                    <img src=\"bees-with-color/bee-B2SM.svg\" width=\"200\">\n                    <p><br>Your bonus pay is unchanged, and remains at $0.86.</p>\n            ","response":0,"trial_type":"html-button-response","trial_index":118,"time_elapsed":383654,"internal_node_id":"0.0-4.0-1.55","subject_id":"5d4200b0f1006e00196a9322","study_id":"60edd13110225f80f9f3709b","session_id":"6196c4a5ad65d48462dec351","condition":"contingent","relevant_dimensions":["antennae","wings"],"bee_group":{"antennae":"B","wings":"2","pattern":"X","legs":"X"},"bonus":0.9400000000000005},{"rt":983,"stimulus":"bees-with-color/bee-B1SF.svg","response":0,"trial_type":"image-button-response","trial_index":119,"time_elapsed":384637,"internal_node_id":"0.0-4.0-0.56","subject_id":"5d4200b0f1006e00196a9322","study_id":"60edd13110225f80f9f3709b","session_id":"6196c4a5ad65d48462dec351","condition":"contingent","relevant_dimensions":["antennae","wings"],"bee_group":{"antennae":"B","wings":"2","pattern":"X","legs":"X"},"action":"harvest","summary":"good-harvest","bonus":0.9400000000000005},{"rt":751,"stimulus":"\n                    <p><b>Action: <em>harvest</em></b></p>\n                    <p>This is the bee that you just saw.</p>\n                    <img src=\"bees-with-color/bee-B1SF.svg\" width=\"200\">\n                    <p><span class=\"greenText\"><b>Successful harvest!</b></span><br>Your pay has increased by $0.02. Your bonus pay is now $0.88.</p>\n            ","response":0,"trial_type":"html-button-response","trial_index":120,"time_elapsed":385389,"internal_node_id":"0.0-4.0-1.56","subject_id":"5d4200b0f1006e00196a9322","study_id":"60edd13110225f80f9f3709b","session_id":"6196c4a5ad65d48462dec351","condition":"contingent","relevant_dimensions":["antennae","wings"],"bee_group":{"antennae":"B","wings":"2","pattern":"X","legs":"X"},"bonus":0.9400000000000005},{"rt":1406,"stimulus":"bees-with-color/bee-B2DF.svg","response":1,"trial_type":"image-button-response","trial_index":121,"time_elapsed":386797,"internal_node_id":"0.0-4.0-0.57","subject_id":"5d4200b0f1006e00196a9322","study_id":"60edd13110225f80f9f3709b","session_id":"6196c4a5ad65d48462dec351","condition":"contingent","relevant_dimensions":["antennae","wings"],"bee_group":{"antennae":"B","wings":"2","pattern":"X","legs":"X"},"action":"avoid","summary":"good-avoid","bonus":0.9400000000000005},{"rt":951,"stimulus":"\n                    <p><b>Action: <em>avoid</em></b></p>\n                    <p>This is the bee that you just saw.</p>\n                    <img src=\"bees-with-color/bee-B2DF.svg\" width=\"200\">\n                    <p><br>Your bonus pay is unchanged, and remains at $0.88.</p>\n            ","response":0,"trial_type":"html-button-response","trial_index":122,"time_elapsed":387750,"internal_node_id":"0.0-4.0-1.57","subject_id":"5d4200b0f1006e00196a9322","study_id":"60edd13110225f80f9f3709b","session_id":"6196c4a5ad65d48462dec351","condition":"contingent","relevant_dimensions":["antennae","wings"],"bee_group":{"antennae":"B","wings":"2","pattern":"X","legs":"X"},"bonus":0.9400000000000005},{"rt":2846,"stimulus":"bees-with-color/bee-B1DF.svg","response":0,"trial_type":"image-button-response","trial_index":123,"time_elapsed":390597,"internal_node_id":"0.0-4.0-0.58","subject_id":"5d4200b0f1006e00196a9322","study_id":"60edd13110225f80f9f3709b","session_id":"6196c4a5ad65d48462dec351","condition":"contingent","relevant_dimensions":["antennae","wings"],"bee_group":{"antennae":"B","wings":"2","pattern":"X","legs":"X"},"action":"harvest","summary":"good-harvest","bonus":0.9400000000000005},{"rt":792,"stimulus":"\n                    <p><b>Action: <em>harvest</em></b></p>\n                    <p>This is the bee that you just saw.</p>\n                    <img src=\"bees-with-color/bee-B1DF.svg\" width=\"200\">\n                    <p><span class=\"greenText\"><b>Successful harvest!</b></span><br>Your pay has increased by $0.02. Your bonus pay is now $0.90.</p>\n            ","response":0,"trial_type":"html-button-response","trial_index":124,"time_elapsed":391390,"internal_node_id":"0.0-4.0-1.58","subject_id":"5d4200b0f1006e00196a9322","study_id":"60edd13110225f80f9f3709b","session_id":"6196c4a5ad65d48462dec351","condition":"contingent","relevant_dimensions":["antennae","wings"],"bee_group":{"antennae":"B","wings":"2","pattern":"X","legs":"X"},"bonus":0.9400000000000005},{"rt":918,"stimulus":"bees-with-color/bee-A2DF.svg","response":1,"trial_type":"image-button-response","trial_index":125,"time_elapsed":392310,"internal_node_id":"0.0-4.0-0.59","subject_id":"5d4200b0f1006e00196a9322","study_id":"60edd13110225f80f9f3709b","session_id":"6196c4a5ad65d48462dec351","condition":"contingent","relevant_dimensions":["antennae","wings"],"bee_group":{"antennae":"B","wings":"2","pattern":"X","legs":"X"},"action":"avoid","summary":"bad-avoid","bonus":0.9400000000000005},{"rt":728,"stimulus":"\n                    <p><b>Action: <em>avoid</em></b></p>\n                    <p>This is the bee that you just saw.</p>\n                    <img src=\"bees-with-color/bee-A2DF.svg\" width=\"200\">\n                    <p><br>Your bonus pay is unchanged, and remains at $0.90.</p>\n            ","response":0,"trial_type":"html-button-response","trial_index":126,"time_elapsed":393037,"internal_node_id":"0.0-4.0-1.59","subject_id":"5d4200b0f1006e00196a9322","study_id":"60edd13110225f80f9f3709b","session_id":"6196c4a5ad65d48462dec351","condition":"contingent","relevant_dimensions":["antennae","wings"],"bee_group":{"antennae":"B","wings":"2","pattern":"X","legs":"X"},"bonus":0.9400000000000005},{"rt":759,"stimulus":"bees-with-color/bee-A2SF.svg","response":1,"trial_type":"image-button-response","trial_index":127,"time_elapsed":393798,"internal_node_id":"0.0-4.0-0.60","subject_id":"5d4200b0f1006e00196a9322","study_id":"60edd13110225f80f9f3709b","session_id":"6196c4a5ad65d48462dec351","condition":"contingent","relevant_dimensions":["antennae","wings"],"bee_group":{"antennae":"B","wings":"2","pattern":"X","legs":"X"},"action":"avoid","summary":"bad-avoid","bonus":0.9400000000000005},{"rt":775,"stimulus":"\n                    <p><b>Action: <em>avoid</em></b></p>\n                    <p>This is the bee that you just saw.</p>\n                    <img src=\"bees-with-color/bee-A2SF.svg\" width=\"200\">\n                    <p><br>Your bonus pay is unchanged, and remains at $0.90.</p>\n            ","response":0,"trial_type":"html-button-response","trial_index":128,"time_elapsed":394573,"internal_node_id":"0.0-4.0-1.60","subject_id":"5d4200b0f1006e00196a9322","study_id":"60edd13110225f80f9f3709b","session_id":"6196c4a5ad65d48462dec351","condition":"contingent","relevant_dimensions":["antennae","wings"],"bee_group":{"antennae":"B","wings":"2","pattern":"X","legs":"X"},"bonus":0.9400000000000005},{"rt":744,"stimulus":"bees-with-color/bee-B2SF.svg","response":1,"trial_type":"image-button-response","trial_index":129,"time_elapsed":395318,"internal_node_id":"0.0-4.0-0.61","subject_id":"5d4200b0f1006e00196a9322","study_id":"60edd13110225f80f9f3709b","session_id":"6196c4a5ad65d48462dec351","condition":"contingent","relevant_dimensions":["antennae","wings"],"bee_group":{"antennae":"B","wings":"2","pattern":"X","legs":"X"},"action":"avoid","summary":"good-avoid","bonus":0.9400000000000005},{"rt":751,"stimulus":"\n                    <p><b>Action: <em>avoid</em></b></p>\n                    <p>This is the bee that you just saw.</p>\n                    <img src=\"bees-with-color/bee-B2SF.svg\" width=\"200\">\n                    <p><br>Your bonus pay is unchanged, and remains at $0.90.</p>\n            ","response":0,"trial_type":"html-button-response","trial_index":130,"time_elapsed":396071,"internal_node_id":"0.0-4.0-1.61","subject_id":"5d4200b0f1006e00196a9322","study_id":"60edd13110225f80f9f3709b","session_id":"6196c4a5ad65d48462dec351","condition":"contingent","relevant_dimensions":["antennae","wings"],"bee_group":{"antennae":"B","wings":"2","pattern":"X","legs":"X"},"bonus":0.9400000000000005},{"rt":951,"stimulus":"bees-with-color/bee-B1SM.svg","response":0,"trial_type":"image-button-response","trial_index":131,"time_elapsed":397022,"internal_node_id":"0.0-4.0-0.62","subject_id":"5d4200b0f1006e00196a9322","study_id":"60edd13110225f80f9f3709b","session_id":"6196c4a5ad65d48462dec351","condition":"contingent","relevant_dimensions":["antennae","wings"],"bee_group":{"antennae":"B","wings":"2","pattern":"X","legs":"X"},"action":"harvest","summary":"good-harvest","bonus":0.9400000000000005},{"rt":735,"stimulus":"\n                    <p><b>Action: <em>harvest</em></b></p>\n                    <p>This is the bee that you just saw.</p>\n                    <img src=\"bees-with-color/bee-B1SM.svg\" width=\"200\">\n                    <p><span class=\"greenText\"><b>Successful harvest!</b></span><br>Your pay has increased by $0.02. Your bonus pay is now $0.92.</p>\n            ","response":0,"trial_type":"html-button-response","trial_index":132,"time_elapsed":397757,"internal_node_id":"0.0-4.0-1.62","subject_id":"5d4200b0f1006e00196a9322","study_id":"60edd13110225f80f9f3709b","session_id":"6196c4a5ad65d48462dec351","condition":"contingent","relevant_dimensions":["antennae","wings"],"bee_group":{"antennae":"B","wings":"2","pattern":"X","legs":"X"},"bonus":0.9400000000000005},{"rt":856,"stimulus":"bees-with-color/bee-A1SM.svg","response":0,"trial_type":"image-button-response","trial_index":133,"time_elapsed":398613,"internal_node_id":"0.0-4.0-0.63","subject_id":"5d4200b0f1006e00196a9322","study_id":"60edd13110225f80f9f3709b","session_id":"6196c4a5ad65d48462dec351","condition":"contingent","relevant_dimensions":["antennae","wings"],"bee_group":{"antennae":"B","wings":"2","pattern":"X","legs":"X"},"action":"harvest","summary":"good-harvest","bonus":0.9400000000000005},{"rt":816,"stimulus":"\n                    <p><b>Action: <em>harvest</em></b></p>\n                    <p>This is the bee that you just saw.</p>\n                    <img src=\"bees-with-color/bee-A1SM.svg\" width=\"200\">\n                    <p><span class=\"greenText\"><b>Successful harvest!</b></span><br>Your pay has increased by $0.02. Your bonus pay is now $0.94.</p>\n            ","response":0,"trial_type":"html-button-response","trial_index":134,"time_elapsed":399429,"internal_node_id":"0.0-4.0-1.63","subject_id":"5d4200b0f1006e00196a9322","study_id":"60edd13110225f80f9f3709b","session_id":"6196c4a5ad65d48462dec351","condition":"contingent","relevant_dimensions":["antennae","wings"],"bee_group":{"antennae":"B","wings":"2","pattern":"X","legs":"X"},"bonus":0.9400000000000005},{"rt":9525,"stimulus":"You have completed the first part of this experiment.<br><br>You will now begin a shorter second part, in which you will receive no feedback.<br>The same rules regarding bonus pay apply.<br><br>Press any key to begin.","response":" ","trial_type":"html-keyboard-response","trial_index":135,"time_elapsed":408956,"internal_node_id":"0.0-5.0","subject_id":"5d4200b0f1006e00196a9322","study_id":"60edd13110225f80f9f3709b","session_id":"6196c4a5ad65d48462dec351","condition":"contingent","relevant_dimensions":["antennae","wings"],"bee_group":{"antennae":"B","wings":"2","pattern":"X","legs":"X"},"bonus":0.9400000000000005},{"rt":7105,"stimulus":"bees-with-color/bee-A1SM.svg","response":1,"trial_type":"image-button-response","trial_index":136,"time_elapsed":416062,"internal_node_id":"0.0-6.0-0.0","subject_id":"5d4200b0f1006e00196a9322","study_id":"60edd13110225f80f9f3709b","session_id":"6196c4a5ad65d48462dec351","condition":"contingent","relevant_dimensions":["antennae","wings"],"bee_group":{"antennae":"B","wings":"2","pattern":"X","legs":"X"},"bonus":0.9400000000000005},{"rt":695,"stimulus":"bees-with-color/bee-A2SM.svg","response":1,"trial_type":"image-button-response","trial_index":137,"time_elapsed":416758,"internal_node_id":"0.0-6.0-0.1","subject_id":"5d4200b0f1006e00196a9322","study_id":"60edd13110225f80f9f3709b","session_id":"6196c4a5ad65d48462dec351","condition":"contingent","relevant_dimensions":["antennae","wings"],"bee_group":{"antennae":"B","wings":"2","pattern":"X","legs":"X"},"bonus":0.9400000000000005},{"rt":670,"stimulus":"bees-with-color/bee-B1SF.svg","response":1,"trial_type":"image-button-response","trial_index":138,"time_elapsed":417429,"internal_node_id":"0.0-6.0-0.2","subject_id":"5d4200b0f1006e00196a9322","study_id":"60edd13110225f80f9f3709b","session_id":"6196c4a5ad65d48462dec351","condition":"contingent","relevant_dimensions":["antennae","wings"],"bee_group":{"antennae":"B","wings":"2","pattern":"X","legs":"X"},"bonus":0.9400000000000005},{"rt":609,"stimulus":"bees-with-color/bee-B2DM.svg","response":1,"trial_type":"image-button-response","trial_index":139,"time_elapsed":418038,"internal_node_id":"0.0-6.0-0.3","subject_id":"5d4200b0f1006e00196a9322","study_id":"60edd13110225f80f9f3709b","session_id":"6196c4a5ad65d48462dec351","condition":"contingent","relevant_dimensions":["antennae","wings"],"bee_group":{"antennae":"B","wings":"2","pattern":"X","legs":"X"},"bonus":0.9400000000000005},{"rt":582,"stimulus":"bees-with-color/bee-A2SF.svg","response":1,"trial_type":"image-button-response","trial_index":140,"time_elapsed":418622,"internal_node_id":"0.0-6.0-0.4","subject_id":"5d4200b0f1006e00196a9322","study_id":"60edd13110225f80f9f3709b","session_id":"6196c4a5ad65d48462dec351","condition":"contingent","relevant_dimensions":["antennae","wings"],"bee_group":{"antennae":"B","wings":"2","pattern":"X","legs":"X"},"bonus":0.9400000000000005},{"rt":943,"stimulus":"bees-with-color/bee-A2DF.svg","response":1,"trial_type":"image-button-response","trial_index":141,"time_elapsed":419565,"internal_node_id":"0.0-6.0-0.5","subject_id":"5d4200b0f1006e00196a9322","study_id":"60edd13110225f80f9f3709b","session_id":"6196c4a5ad65d48462dec351","condition":"contingent","relevant_dimensions":["antennae","wings"],"bee_group":{"antennae":"B","wings":"2","pattern":"X","legs":"X"},"bonus":0.9400000000000005},{"rt":639,"stimulus":"bees-with-color/bee-B2SF.svg","response":1,"trial_type":"image-button-response","trial_index":142,"time_elapsed":420206,"internal_node_id":"0.0-6.0-0.6","subject_id":"5d4200b0f1006e00196a9322","study_id":"60edd13110225f80f9f3709b","session_id":"6196c4a5ad65d48462dec351","condition":"contingent","relevant_dimensions":["antennae","wings"],"bee_group":{"antennae":"B","wings":"2","pattern":"X","legs":"X"},"bonus":0.9400000000000005},{"rt":647,"stimulus":"bees-with-color/bee-B1DF.svg","response":1,"trial_type":"image-button-response","trial_index":143,"time_elapsed":420853,"internal_node_id":"0.0-6.0-0.7","subject_id":"5d4200b0f1006e00196a9322","study_id":"60edd13110225f80f9f3709b","session_id":"6196c4a5ad65d48462dec351","condition":"contingent","relevant_dimensions":["antennae","wings"],"bee_group":{"antennae":"B","wings":"2","pattern":"X","legs":"X"},"bonus":0.9400000000000005},{"rt":550,"stimulus":"bees-with-color/bee-B2SM.svg","response":1,"trial_type":"image-button-response","trial_index":144,"time_elapsed":421406,"internal_node_id":"0.0-6.0-0.8","subject_id":"5d4200b0f1006e00196a9322","study_id":"60edd13110225f80f9f3709b","session_id":"6196c4a5ad65d48462dec351","condition":"contingent","relevant_dimensions":["antennae","wings"],"bee_group":{"antennae":"B","wings":"2","pattern":"X","legs":"X"},"bonus":0.9400000000000005},{"rt":374,"stimulus":"bees-with-color/bee-B1DM.svg","response":1,"trial_type":"image-button-response","trial_index":145,"time_elapsed":421781,"internal_node_id":"0.0-6.0-0.9","subject_id":"5d4200b0f1006e00196a9322","study_id":"60edd13110225f80f9f3709b","session_id":"6196c4a5ad65d48462dec351","condition":"contingent","relevant_dimensions":["antennae","wings"],"bee_group":{"antennae":"B","wings":"2","pattern":"X","legs":"X"},"bonus":0.9400000000000005},{"rt":336,"stimulus":"bees-with-color/bee-B1SM.svg","response":1,"trial_type":"image-button-response","trial_index":146,"time_elapsed":422118,"internal_node_id":"0.0-6.0-0.10","subject_id":"5d4200b0f1006e00196a9322","study_id":"60edd13110225f80f9f3709b","session_id":"6196c4a5ad65d48462dec351","condition":"contingent","relevant_dimensions":["antennae","wings"],"bee_group":{"antennae":"B","wings":"2","pattern":"X","legs":"X"},"bonus":0.9400000000000005},{"rt":375,"stimulus":"bees-with-color/bee-A1DM.svg","response":1,"trial_type":"image-button-response","trial_index":147,"time_elapsed":422494,"internal_node_id":"0.0-6.0-0.11","subject_id":"5d4200b0f1006e00196a9322","study_id":"60edd13110225f80f9f3709b","session_id":"6196c4a5ad65d48462dec351","condition":"contingent","relevant_dimensions":["antennae","wings"],"bee_group":{"antennae":"B","wings":"2","pattern":"X","legs":"X"},"bonus":0.9400000000000005},{"rt":318,"stimulus":"bees-with-color/bee-A1DF.svg","response":1,"trial_type":"image-button-response","trial_index":148,"time_elapsed":422813,"internal_node_id":"0.0-6.0-0.12","subject_id":"5d4200b0f1006e00196a9322","study_id":"60edd13110225f80f9f3709b","session_id":"6196c4a5ad65d48462dec351","condition":"contingent","relevant_dimensions":["antennae","wings"],"bee_group":{"antennae":"B","wings":"2","pattern":"X","legs":"X"},"bonus":0.9400000000000005},{"rt":367,"stimulus":"bees-with-color/bee-B2DF.svg","response":1,"trial_type":"image-button-response","trial_index":149,"time_elapsed":423181,"internal_node_id":"0.0-6.0-0.13","subject_id":"5d4200b0f1006e00196a9322","study_id":"60edd13110225f80f9f3709b","session_id":"6196c4a5ad65d48462dec351","condition":"contingent","relevant_dimensions":["antennae","wings"],"bee_group":{"antennae":"B","wings":"2","pattern":"X","legs":"X"},"bonus":0.9400000000000005},{"rt":343,"stimulus":"bees-with-color/bee-A1SF.svg","response":1,"trial_type":"image-button-response","trial_index":150,"time_elapsed":423526,"internal_node_id":"0.0-6.0-0.14","subject_id":"5d4200b0f1006e00196a9322","study_id":"60edd13110225f80f9f3709b","session_id":"6196c4a5ad65d48462dec351","condition":"contingent","relevant_dimensions":["antennae","wings"],"bee_group":{"antennae":"B","wings":"2","pattern":"X","legs":"X"},"bonus":0.9400000000000005},{"rt":334,"stimulus":"bees-with-color/bee-A2DM.svg","response":1,"trial_type":"image-button-response","trial_index":151,"time_elapsed":423861,"internal_node_id":"0.0-6.0-0.15","subject_id":"5d4200b0f1006e00196a9322","study_id":"60edd13110225f80f9f3709b","session_id":"6196c4a5ad65d48462dec351","condition":"contingent","relevant_dimensions":["antennae","wings"],"bee_group":{"antennae":"B","wings":"2","pattern":"X","legs":"X"},"bonus":0.9400000000000005},{"rt":311,"stimulus":"bees-with-color/bee-A2SM.svg","response":1,"trial_type":"image-button-response","trial_index":152,"time_elapsed":424173,"internal_node_id":"0.0-6.0-0.16","subject_id":"5d4200b0f1006e00196a9322","study_id":"60edd13110225f80f9f3709b","session_id":"6196c4a5ad65d48462dec351","condition":"contingent","relevant_dimensions":["antennae","wings"],"bee_group":{"antennae":"B","wings":"2","pattern":"X","legs":"X"},"bonus":0.9400000000000005},{"rt":351,"stimulus":"bees-with-color/bee-A1DM.svg","response":1,"trial_type":"image-button-response","trial_index":153,"time_elapsed":424524,"internal_node_id":"0.0-6.0-0.17","subject_id":"5d4200b0f1006e00196a9322","study_id":"60edd13110225f80f9f3709b","session_id":"6196c4a5ad65d48462dec351","condition":"contingent","relevant_dimensions":["antennae","wings"],"bee_group":{"antennae":"B","wings":"2","pattern":"X","legs":"X"},"bonus":0.9400000000000005},{"rt":336,"stimulus":"bees-with-color/bee-B2DM.svg","response":1,"trial_type":"image-button-response","trial_index":154,"time_elapsed":424862,"internal_node_id":"0.0-6.0-0.18","subject_id":"5d4200b0f1006e00196a9322","study_id":"60edd13110225f80f9f3709b","session_id":"6196c4a5ad65d48462dec351","condition":"contingent","relevant_dimensions":["antennae","wings"],"bee_group":{"antennae":"B","wings":"2","pattern":"X","legs":"X"},"bonus":0.9400000000000005},{"rt":303,"stimulus":"bees-with-color/bee-A1DF.svg","response":1,"trial_type":"image-button-response","trial_index":155,"time_elapsed":425165,"internal_node_id":"0.0-6.0-0.19","subject_id":"5d4200b0f1006e00196a9322","study_id":"60edd13110225f80f9f3709b","session_id":"6196c4a5ad65d48462dec351","condition":"contingent","relevant_dimensions":["antennae","wings"],"bee_group":{"antennae":"B","wings":"2","pattern":"X","legs":"X"},"bonus":0.9400000000000005},{"rt":351,"stimulus":"bees-with-color/bee-B1DM.svg","response":1,"trial_type":"image-button-response","trial_index":156,"time_elapsed":425517,"internal_node_id":"0.0-6.0-0.20","subject_id":"5d4200b0f1006e00196a9322","study_id":"60edd13110225f80f9f3709b","session_id":"6196c4a5ad65d48462dec351","condition":"contingent","relevant_dimensions":["antennae","wings"],"bee_group":{"antennae":"B","wings":"2","pattern":"X","legs":"X"},"bonus":0.9400000000000005},{"rt":368,"stimulus":"bees-with-color/bee-B1SM.svg","response":1,"trial_type":"image-button-response","trial_index":157,"time_elapsed":425886,"internal_node_id":"0.0-6.0-0.21","subject_id":"5d4200b0f1006e00196a9322","study_id":"60edd13110225f80f9f3709b","session_id":"6196c4a5ad65d48462dec351","condition":"contingent","relevant_dimensions":["antennae","wings"],"bee_group":{"antennae":"B","wings":"2","pattern":"X","legs":"X"},"bonus":0.9400000000000005},{"rt":718,"stimulus":"bees-with-color/bee-B1SF.svg","response":1,"trial_type":"image-button-response","trial_index":158,"time_elapsed":426605,"internal_node_id":"0.0-6.0-0.22","subject_id":"5d4200b0f1006e00196a9322","study_id":"60edd13110225f80f9f3709b","session_id":"6196c4a5ad65d48462dec351","condition":"contingent","relevant_dimensions":["antennae","wings"],"bee_group":{"antennae":"B","wings":"2","pattern":"X","legs":"X"},"bonus":0.9400000000000005},{"rt":399,"stimulus":"bees-with-color/bee-B2SF.svg","response":1,"trial_type":"image-button-response","trial_index":159,"time_elapsed":427005,"internal_node_id":"0.0-6.0-0.23","subject_id":"5d4200b0f1006e00196a9322","study_id":"60edd13110225f80f9f3709b","session_id":"6196c4a5ad65d48462dec351","condition":"contingent","relevant_dimensions":["antennae","wings"],"bee_group":{"antennae":"B","wings":"2","pattern":"X","legs":"X"},"bonus":0.9400000000000005},{"rt":615,"stimulus":"bees-with-color/bee-B2DF.svg","response":1,"trial_type":"image-button-response","trial_index":160,"time_elapsed":427621,"internal_node_id":"0.0-6.0-0.24","subject_id":"5d4200b0f1006e00196a9322","study_id":"60edd13110225f80f9f3709b","session_id":"6196c4a5ad65d48462dec351","condition":"contingent","relevant_dimensions":["antennae","wings"],"bee_group":{"antennae":"B","wings":"2","pattern":"X","legs":"X"},"bonus":0.9400000000000005},{"rt":342,"stimulus":"bees-with-color/bee-A1SM.svg","response":1,"trial_type":"image-button-response","trial_index":161,"time_elapsed":427965,"internal_node_id":"0.0-6.0-0.25","subject_id":"5d4200b0f1006e00196a9322","study_id":"60edd13110225f80f9f3709b","session_id":"6196c4a5ad65d48462dec351","condition":"contingent","relevant_dimensions":["antennae","wings"],"bee_group":{"antennae":"B","wings":"2","pattern":"X","legs":"X"},"bonus":0.9400000000000005},{"rt":327,"stimulus":"bees-with-color/bee-A1SF.svg","response":1,"trial_type":"image-button-response","trial_index":162,"time_elapsed":428294,"internal_node_id":"0.0-6.0-0.26","subject_id":"5d4200b0f1006e00196a9322","study_id":"60edd13110225f80f9f3709b","session_id":"6196c4a5ad65d48462dec351","condition":"contingent","relevant_dimensions":["antennae","wings"],"bee_group":{"antennae":"B","wings":"2","pattern":"X","legs":"X"},"bonus":0.9400000000000005},{"rt":311,"stimulus":"bees-with-color/bee-A2SF.svg","response":1,"trial_type":"image-button-response","trial_index":163,"time_elapsed":428606,"internal_node_id":"0.0-6.0-0.27","subject_id":"5d4200b0f1006e00196a9322","study_id":"60edd13110225f80f9f3709b","session_id":"6196c4a5ad65d48462dec351","condition":"contingent","relevant_dimensions":["antennae","wings"],"bee_group":{"antennae":"B","wings":"2","pattern":"X","legs":"X"},"bonus":0.9400000000000005},{"rt":366,"stimulus":"bees-with-color/bee-B1DF.svg","response":1,"trial_type":"image-button-response","trial_index":164,"time_elapsed":428974,"internal_node_id":"0.0-6.0-0.28","subject_id":"5d4200b0f1006e00196a9322","study_id":"60edd13110225f80f9f3709b","session_id":"6196c4a5ad65d48462dec351","condition":"contingent","relevant_dimensions":["antennae","wings"],"bee_group":{"antennae":"B","wings":"2","pattern":"X","legs":"X"},"bonus":0.9400000000000005},{"rt":656,"stimulus":"bees-with-color/bee-B2SM.svg","response":1,"trial_type":"image-button-response","trial_index":165,"time_elapsed":429629,"internal_node_id":"0.0-6.0-0.29","subject_id":"5d4200b0f1006e00196a9322","study_id":"60edd13110225f80f9f3709b","session_id":"6196c4a5ad65d48462dec351","condition":"contingent","relevant_dimensions":["antennae","wings"],"bee_group":{"antennae":"B","wings":"2","pattern":"X","legs":"X"},"bonus":0.9400000000000005},{"rt":654,"stimulus":"bees-with-color/bee-A2DF.svg","response":1,"trial_type":"image-button-response","trial_index":166,"time_elapsed":430285,"internal_node_id":"0.0-6.0-0.30","subject_id":"5d4200b0f1006e00196a9322","study_id":"60edd13110225f80f9f3709b","session_id":"6196c4a5ad65d48462dec351","condition":"contingent","relevant_dimensions":["antennae","wings"],"bee_group":{"antennae":"B","wings":"2","pattern":"X","legs":"X"},"bonus":0.9400000000000005},{"rt":3536,"stimulus":"bees-with-color/bee-A2DM.svg","response":1,"trial_type":"image-button-response","trial_index":167,"time_elapsed":433822,"internal_node_id":"0.0-6.0-0.31","subject_id":"5d4200b0f1006e00196a9322","study_id":"60edd13110225f80f9f3709b","session_id":"6196c4a5ad65d48462dec351","condition":"contingent","relevant_dimensions":["antennae","wings"],"bee_group":{"antennae":"B","wings":"2","pattern":"X","legs":"X"},"bonus":0.9400000000000005},{"rt":5752,"stimulus":"You started with $2.50 of base pay.<br><br>\n            You made $0.94 in bonus pay,\n            for a total of <b>$3.44</b>.","response":0,"trial_type":"html-button-response","trial_index":168,"time_elapsed":439573,"internal_node_id":"0.0-7.0-0.0","subject_id":"5d4200b0f1006e00196a9322","study_id":"60edd13110225f80f9f3709b","session_id":"6196c4a5ad65d48462dec351","condition":"contingent","relevant_dimensions":["antennae","wings"],"bee_group":{"antennae":"B","wings":"2","pattern":"X","legs":"X"},"bonus":0.9400000000000005},{"rt":7230,"response":{"percent-dangerous-bees":"50"},"trial_type":"survey-text","trial_index":169,"time_elapsed":446807,"internal_node_id":"0.0-7.0-1.0","subject_i