[{"success":true,"trial_type":"fullscreen","trial_index":0,"time_elapsed":190925,"internal_node_id":"0.0-0.0","subject_id":"6116875aaf3dfaa62184910a","study_id":"6197b3f67c2b5cd3b6d9596a","session_id":"6197b9e9ef31578b19b6cc4f","condition":"full-information","relevant_dimensions":["antennae","wings"],"bee_group":{"antennae":"A","wings":"1","pattern":"X","legs":"X"},"bonus":0.6800000000000008},{"success":true,"timeout":false,"failed_images":[],"failed_audio":[],"failed_video":[],"trial_type":"preload","trial_index":1,"time_elapsed":192379,"internal_node_id":"0.0-1.0","subject_id":"6116875aaf3dfaa62184910a","study_id":"6197b3f67c2b5cd3b6d9596a","session_id":"6197b9e9ef31578b19b6cc4f","condition":"full-information","relevant_dimensions":["antennae","wings"],"bee_group":{"antennae":"A","wings":"1","pattern":"X","legs":"X"},"bonus":0.6800000000000008},{"rt":19213.90000000596,"stimulus":"Welcome! Press any key to begin.","response":"f","trial_type":"html-keyboard-response","trial_index":2,"time_elapsed":211596,"internal_node_id":"0.0-2.0","subject_id":"6116875aaf3dfaa62184910a","study_id":"6197b3f67c2b5cd3b6d9596a","session_id":"6197b9e9ef31578b19b6cc4f","condition":"full-information","relevant_dimensions":["antennae","wings"],"bee_group":{"antennae":"A","wings":"1","pattern":"X","legs":"X"},"bonus":0.6800000000000008},{"view_history":[{"page_index":0,"viewing_time":43948.09999999404},{"page_index":1,"viewing_time":174655.90000000596},{"page_index":2,"viewing_time":16980.59999999404},{"page_index":3,"viewing_time":34823.30000001192},{"page_index":4,"viewing_time":10455.699999988079},{"page_index":5,"viewing_time":10367.90000000596},{"page_index":6,"viewing_time":9308.700000017881},{"page_index":7,"viewing_time":8732},{"page_index":8,"viewing_time":6827.799999982119},{"page_index":9,"viewing_time":4689.300000011921},{"page_index":10,"viewing_time":2629.4000000059605},{"page_index":11,"viewing_time":10216.799999982119},{"page_index":12,"viewing_time":18500.20000001788},{"page_index":13,"viewing_time":1576.699999988079},{"page_index":14,"viewing_time":3573.800000011921}],"rt":357287,"trial_type":"instructions","trial_index":3,"time_elapsed":568906,"internal_node_id":"0.0-3.0-0.0","subject_id":"6116875aaf3dfaa62184910a","study_id":"6197b3f67c2b5cd3b6d9596a","session_id":"6197b9e9ef31578b19b6cc4f","condition":"full-information","relevant_dimensions":["antennae","wings"],"bee_group":{"antennae":"A","wings":"1","pattern":"X","legs":"X"},"bonus":0.6800000000000008},{"rt":13384.699999988079,"response":{"Q0":["Two or six legs","Stripes or spots on body","Single or double wings","Antennae or no antennae"]},"question_order":[0],"trial_type":"survey-multi-select","trial_index":4,"time_elapsed":582305,"internal_node_id":"0.0-3.0-1.0","subject_id":"6116875aaf3dfaa62184910a","study_id":"6197b3f67c2b5cd3b6d9596a","session_id":"6197b9e9ef31578b19b6cc4f","condition":"full-information","relevant_dimensions":["antennae","wings"],"bee_group":{"antennae":"A","wings":"1","pattern":"X","legs":"X"},"correct":true,"bonus":0.6800000000000008},{"rt":21180.09999999404,"response":{"Q1":"Yes.","Q2":"Based on the four features of the bee.","Q3":"You learn if it was friendly or dangerous, but do not alter your bonus."},"question_order":[0,1,2],"trial_type":"survey-multi-choice","trial_index":5,"time_elapsed":603495,"internal_node_id":"0.0-3.0-2.0","subject_id":"6116875aaf3dfaa62184910a","study_id":"6197b3f67c2b5cd3b6d9596a","session_id":"6197b9e9ef31578b19b6cc4f","condition":"full-information","relevant_dimensions":["antennae","wings"],"bee_group":{"antennae":"A","wings":"1","pattern":"X","legs":"X"},"correct":false,"bonus":0.6800000000000008},{"rt":6643.5,"stimulus":"<p>You did not answer all comprehension questions correctly.<br>Press <b>continue</b> to review the instructions again.</p>","response":0,"trial_type":"html-button-response","trial_index":6,"time_elapsed":610147,"internal_node_id":"0.0-3.0-3.0","subject_id":"6116875aaf3dfaa62184910a","study_id":"6197b3f67c2b5cd3b6d9596a","session_id":"6197b9e9ef31578b19b6cc4f","condition":"full-information","relevant_dimensions":["antennae","wings"],"bee_group":{"antennae":"A","wings":"1","pattern":"X","legs":"X"},"bonus":0.6800000000000008},{"view_history":[{"page_index":0,"viewing_time":1973.800000011921},{"page_index":1,"viewing_time":4438.0999999940395},{"page_index":2,"viewing_time":1581.2000000178814},{"page_index":3,"viewing_time":3665.0999999940395},{"page_index":4,"viewing_time":7552},{"page_index":5,"viewing_time":1145.2999999821186},{"page_index":6,"viewing_time":1224.300000011921},{"page_index":7,"viewing_time":2645.5},{"page_index":8,"viewing_time":1568.5},{"page_index":9,"viewing_time":4513.800000011921},{"page_index":10,"viewing_time":1657.2999999821186},{"page_index":11,"viewing_time":11476.300000011921},{"page_index":12,"viewing_time":5355.699999988079},{"page_index":13,"viewing_time":1313},{"page_index":14,"viewing_time":2453.5}],"rt":52563.80000001192,"trial_type":"instructions","trial_index":7,"time_elapsed":662714,"internal_node_id":"0.0-3.0-4.0-0.0","subject_id":"6116875aaf3dfaa62184910a","study_id":"6197b3f67c2b5cd3b6d9596a","session_id":"6197b9e9ef31578b19b6cc4f","condition":"full-information","relevant_dimensions":["antennae","wings"],"bee_group":{"antennae":"A","wings":"1","pattern":"X","legs":"X"},"bonus":0.6800000000000008},{"rt":13739.5,"response":{"Q0":["Two or six legs","Stripes or spots on body","Single or double wings","Antennae or no antennae"]},"question_order":[0],"trial_type":"survey-multi-select","trial_index":8,"time_elapsed":676462,"internal_node_id":"0.0-3.0-4.0-1.0","subject_id":"6116875aaf3dfaa62184910a","study_id":"6197b3f67c2b5cd3b6d9596a","session_id":"6197b9e9ef31578b19b6cc4f","condition":"full-information","relevant_dimensions":["antennae","wings"],"bee_group":{"antennae":"A","wings":"1","pattern":"X","legs":"X"},"correct":true,"bonus":0.6800000000000008},{"rt":27966.30000001192,"response":{"Q1":"No.","Q2":"Based on the four features of the bee.","Q3":"You learn if it was friendly or dangerous, but do not alter your bonus."},"question_order":[0,1,2],"trial_type":"survey-multi-choice","trial_index":9,"time_elapsed":704437,"internal_node_id":"0.0-3.0-4.0-2.0","subject_id":"6116875aaf3dfaa62184910a","study_id":"6197b3f67c2b5cd3b6d9596a","session_id":"6197b9e9ef31578b19b6cc4f","condition":"full-information","relevant_dimensions":["antennae","wings"],"bee_group":{"antennae":"A","wings":"1","pattern":"X","legs":"X"},"correct":true,"bonus":0.6800000000000008},{"rt":4404.5999999940395,"stimulus":"<p>Congrats, you got everything right<br>When you're ready, click the button below to continue to the experiment.</p>","response":0,"trial_type":"html-button-response","trial_index":10,"time_elapsed":708849,"internal_node_id":"0.0-3.0-4.0-3.0","subject_id":"6116875aaf3dfaa62184910a","study_id":"6197b3f67c2b5cd3b6d9596a","session_id":"6197b9e9ef31578b19b6cc4f","condition":"full-information","relevant_dimensions":["antennae","wings"],"bee_group":{"antennae":"A","wings":"1","pattern":"X","legs":"X"},"bonus":0.6800000000000008},{"rt":42792.40000000596,"stimulus":"bees-with-color/bee-A1DM.svg","response":0,"trial_type":"image-button-response","trial_index":11,"time_elapsed":751648,"internal_node_id":"0.0-4.0-0.0","subject_id":"6116875aaf3dfaa62184910a","study_id":"6197b3f67c2b5cd3b6d9596a","session_id":"6197b9e9ef31578b19b6cc4f","condition":"full-information","relevant_dimensions":["antennae","wings"],"bee_group":{"antennae":"A","wings":"1","pattern":"X","legs":"X"},"action":"harvest","summary":"bad-harvest","bonus":0.6800000000000008},{"rt":8809.100000023842,"stimulus":"\n                    <p><b>Action: <em>harvest</em></b></p>\n                    <p>This is the bee that you just saw.</p>\n                    <img src=\"bees-with-color/bee-A1DM.svg\" width=\"200\">\n                    <p><span class=\"redText\">Bad choice, the bee was angry.</span><br><b>You have been stung!</b><br>Your pay has been decreased by $0.10. Your bonus pay is now $0.44.</p>\n            ","response":0,"trial_type":"html-button-response","trial_index":12,"time_elapsed":760466,"internal_node_id":"0.0-4.0-1.0","subject_id":"6116875aaf3dfaa62184910a","study_id":"6197b3f67c2b5cd3b6d9596a","session_id":"6197b9e9ef31578b19b6cc4f","condition":"full-information","relevant_dimensions":["antennae","wings"],"bee_group":{"antennae":"A","wings":"1","pattern":"X","legs":"X"},"bonus":0.6800000000000008},{"rt":17574.5,"stimulus":"bees-with-color/bee-B2SF.svg","response":0,"trial_type":"image-button-response","trial_index":13,"time_elapsed":778045,"internal_node_id":"0.0-4.0-0.1","subject_id":"6116875aaf3dfaa62184910a","study_id":"6197b3f67c2b5cd3b6d9596a","session_id":"6197b9e9ef31578b19b6cc4f","condition":"full-information","relevant_dimensions":["antennae","wings"],"bee_group":{"antennae":"A","wings":"1","pattern":"X","legs":"X"},"action":"harvest","summary":"good-harvest","bonus":0.6800000000000008},{"rt":5793.9000000059605,"stimulus":"\n                    <p><b>Action: <em>harvest</em></b></p>\n                    <p>This is the bee that you just saw.</p>\n                    <img src=\"bees-with-color/bee-B2SF.svg\" width=\"200\">\n                    <p><span class=\"greenText\"><b>Successful harvest!</b></span><br>Your pay has increased by $0.02. Your bonus pay is now $0.46.</p>\n            ","response":0,"trial_type":"html-button-response","trial_index":14,"time_elapsed":783842,"internal_node_id":"0.0-4.0-1.1","subject_id":"6116875aaf3dfaa62184910a","study_id":"6197b3f67c2b5cd3b6d9596a","session_id":"6197b9e9ef31578b19b6cc4f","condition":"full-information","relevant_dimensions":["antennae","wings"],"bee_group":{"antennae":"A","wings":"1","pattern":"X","legs":"X"},"bonus":0.6800000000000008},{"rt":10148.199999988079,"stimulus":"bees-with-color/bee-A2SF.svg","response":0,"trial_type":"image-button-response","trial_index":15,"time_elapsed":793994,"internal_node_id":"0.0-4.0-0.2","subject_id":"6116875aaf3dfaa62184910a","study_id":"6197b3f67c2b5cd3b6d9596a","session_id":"6197b9e9ef31578b19b6cc4f","condition":"full-information","relevant_dimensions":["antennae","wings"],"bee_group":{"antennae":"A","wings":"1","pattern":"X","legs":"X"},"action":"harvest","summary":"good-harvest","bonus":0.6800000000000008},{"rt":16261,"stimulus":"\n                    <p><b>Action: <em>harvest</em></b></p>\n                    <p>This is the bee that you just saw.</p>\n                    <img src=\"bees-with-color/bee-A2SF.svg\" width=\"200\">\n                    <p><span class=\"greenText\"><b>Successful harvest!</b></span><br>Your pay has increased by $0.02. Your bonus pay is now $0.48.</p>\n            ","response":0,"trial_type":"html-button-response","trial_index":16,"time_elapsed":810258,"internal_node_id":"0.0-4.0-1.2","subject_id":"6116875aaf3dfaa62184910a","study_id":"6197b3f67c2b5cd3b6d9596a","session_id":"6197b9e9ef31578b19b6cc4f","condition":"full-information","relevant_dimensions":["antennae","wings"],"bee_group":{"antennae":"A","wings":"1","pattern":"X","legs":"X"},"bonus":0.6800000000000008},{"rt":7850.299999982119,"stimulus":"bees-with-color/bee-A2DM.svg","response":1,"trial_type":"image-button-response","trial_index":17,"time_elapsed":818111,"internal_node_id":"0.0-4.0-0.3","subject_id":"6116875aaf3dfaa62184910a","study_id":"6197b3f67c2b5cd3b6d9596a","session_id":"6197b9e9ef31578b19b6cc4f","condition":"full-information","relevant_dimensions":["antennae","wings"],"bee_group":{"antennae":"A","wings":"1","pattern":"X","legs":"X"},"action":"avoid","summary":"bad-avoid","bonus":0.6800000000000008},{"rt":21046.09999999404,"stimulus":"\n                    <p><b>Action: <em>avoid</em></b></p>\n                    <p>This is the bee that you just saw.</p>\n                    <img src=\"bees-with-color/bee-A2DM.svg\" width=\"200\">\n                    <p><span class=\"redText\">Bad choice,</span> the bee was friendly.<br>Your bonus pay is unchanged, and remains at $0.48.</p>\n            ","response":0,"trial_type":"html-button-response","trial_index":18,"time_elapsed":839160,"internal_node_id":"0.0-4.0-1.3","subject_id":"6116875aaf3dfaa62184910a","study_id":"6197b3f67c2b5cd3b6d9596a","session_id":"6197b9e9ef31578b19b6cc4f","condition":"full-information","relevant_dimensions":["antennae","wings"],"bee_group":{"antennae":"A","wings":"1","pattern":"X","legs":"X"},"bonus":0.6800000000000008},{"rt":24152.69999998808,"stimulus":"bees-with-color/bee-A1SF.svg","response":0,"trial_type":"image-button-response","trial_index":19,"time_elapsed":863316,"internal_node_id":"0.0-4.0-0.4","subject_id":"6116875aaf3dfaa62184910a","study_id":"6197b3f67c2b5cd3b6d9596a","session_id":"6197b9e9ef31578b19b6cc4f","condition":"full-information","relevant_dimensions":["antennae","wings"],"bee_group":{"antennae":"A","wings":"1","pattern":"X","legs":"X"},"action":"harvest","summary":"bad-harvest","bonus":0.6800000000000008},{"rt":7377.799999982119,"stimulus":"\n                    <p><b>Action: <em>harvest</em></b></p>\n                    <p>This is the bee that you just saw.</p>\n                    <img src=\"bees-with-color/bee-A1SF.svg\" width=\"200\">\n                    <p><span class=\"redText\">Bad choice, the bee was angry.</span><br><b>You have been stung!</b><br>Your pay has been decreased by $0.10. Your bonus pay is now $0.38.</p>\n            ","response":0,"trial_type":"html-button-response","trial_index":20,"time_elapsed":870697,"internal_node_id":"0.0-4.0-1.4","subject_id":"6116875aaf3dfaa62184910a","study_id":"6197b3f67c2b5cd3b6d9596a","session_id":"6197b9e9ef31578b19b6cc4f","condition":"full-information","relevant_dimensions":["antennae","wings"],"bee_group":{"antennae":"A","wings":"1","pattern":"X","legs":"X"},"bonus":0.6800000000000008},{"rt":22259.30000001192,"stimulus":"bees-with-color/bee-B2DF.svg","response":0,"trial_type":"image-button-response","trial_index":21,"time_elapsed":892960,"internal_node_id":"0.0-4.0-0.5","subject_id":"6116875aaf3dfaa62184910a","study_id":"6197b3f67c2b5cd3b6d9596a","session_id":"6197b9e9ef31578b19b6cc4f","condition":"full-information","relevant_dimensions":["antennae","wings"],"bee_group":{"antennae":"A","wings":"1","pattern":"X","legs":"X"},"action":"harvest","summary":"good-harvest","bonus":0.6800000000000008},{"rt":5433.199999988079,"stimulus":"\n                    <p><b>Action: <em>harvest</em></b></p>\n                    <p>This is the bee that you just saw.</p>\n                    <img src=\"bees-with-color/bee-B2DF.svg\" width=\"200\">\n                    <p><span class=\"greenText\"><b>Successful harvest!</b></span><br>Your pay has increased by $0.02. Your bonus pay is now $0.40.</p>\n            ","response":0,"trial_type":"html-button-response","trial_index":22,"time_elapsed":898396,"internal_node_id":"0.0-4.0-1.5","subject_id":"6116875aaf3dfaa62184910a","study_id":"6197b3f67c2b5cd3b6d9596a","session_id":"6197b9e9ef31578b19b6cc4f","condition":"full-information","relevant_dimensions":["antennae","wings"],"bee_group":{"antennae":"A","wings":"1","pattern":"X","legs":"X"},"bonus":0.6800000000000008},{"rt":13035.59999999404,"stimulus":"bees-with-color/bee-B2DM.svg","response":0,"trial_type":"image-button-response","trial_index":23,"time_elapsed":911435,"internal_node_id":"0.0-4.0-0.6","subject_id":"6116875aaf3dfaa62184910a","study_id":"6197b3f67c2b5cd3b6d9596a","session_id":"6197b9e9ef31578b19b6cc4f","condition":"full-information","relevant_dimensions":["antennae","wings"],"bee_group":{"antennae":"A","wings":"1","pattern":"X","legs":"X"},"action":"harvest","summary":"good-harvest","bonus":0.6800000000000008},{"rt":3851.9000000059605,"stimulus":"\n                    <p><b>Action: <em>harvest</em></b></p>\n                    <p>This is the bee that you just saw.</p>\n                    <img src=\"bees-with-color/bee-B2DM.svg\" width=\"200\">\n                    <p><span class=\"greenText\"><b>Successful harvest!</b></span><br>Your pay has increased by $0.02. Your bonus pay is now $0.42.</p>\n            ","response":0,"trial_type":"html-button-response","trial_index":24,"time_elapsed":915290,"internal_node_id":"0.0-4.0-1.6","subject_id":"6116875aaf3dfaa62184910a","study_id":"6197b3f67c2b5cd3b6d9596a","session_id":"6197b9e9ef31578b19b6cc4f","condition":"full-information","relevant_dimensions":["antennae","wings"],"bee_group":{"antennae":"A","wings":"1","pattern":"X","legs":"X"},"bonus":0.6800000000000008},{"rt":22668.20000001788,"stimulus":"bees-with-color/bee-A2SM.svg","response":0,"trial_type":"image-button-response","trial_index":25,"time_elapsed":937962,"internal_node_id":"0.0-4.0-0.7","subject_id":"6116875aaf3dfaa62184910a","study_id":"6197b3f67c2b5cd3b6d9596a","session_id":"6197b9e9ef31578b19b6cc4f","condition":"full-information","relevant_dimensions":["antennae","wings"],"bee_group":{"antennae":"A","wings":"1","pattern":"X","legs":"X"},"action":"harvest","summary":"good-harvest","bonus":0.6800000000000008},{"rt":4315.5,"stimulus":"\n                    <p><b>Action: <em>harvest</em></b></p>\n                    <p>This is the bee that you just saw.</p>\n                    <img src=\"bees-with-color/bee-A2SM.svg\" width=\"200\">\n                    <p><span class=\"greenText\"><b>Successful harvest!</b></span><br>Your pay has increased by $0.02. Your bonus pay is now $0.44.</p>\n            ","response":0,"trial_type":"html-button-response","trial_index":26,"time_elapsed":942280,"internal_node_id":"0.0-4.0-1.7","subject_id":"6116875aaf3dfaa62184910a","study_id":"6197b3f67c2b5cd3b6d9596a","session_id":"6197b9e9ef31578b19b6cc4f","condition":"full-information","relevant_dimensions":["antennae","wings"],"bee_group":{"antennae":"A","wings":"1","pattern":"X","legs":"X"},"bonus":0.6800000000000008},{"rt":38438.09999999404,"stimulus":"bees-with-color/bee-B1SF.svg","response":0,"trial_type":"image-button-response","trial_index":27,"time_elapsed":980722,"internal_node_id":"0.0-4.0-0.8","subject_id":"6116875aaf3dfaa62184910a","study_id":"6197b3f67c2b5cd3b6d9596a","session_id":"6197b9e9ef31578b19b6cc4f","condition":"full-information","relevant_dimensions":["antennae","wings"],"bee_group":{"antennae":"A","wings":"1","pattern":"X","legs":"X"},"action":"harvest","summary":"good-harvest","bonus":0.6800000000000008},{"rt":12420.699999988079,"stimulus":"\n                    <p><b>Action: <em>harvest</em></b></p>\n                    <p>This is the bee that you just saw.</p>\n                    <img src=\"bees-with-color/bee-B1SF.svg\" width=\"200\">\n                    <p><span class=\"greenText\"><b>Successful harvest!</b></span><br>Your pay has increased by $0.02. Your bonus pay is now $0.46.</p>\n            ","response":0,"trial_type":"html-button-response","trial_index":28,"time_elapsed":993146,"internal_node_id":"0.0-4.0-1.8","subject_id":"6116875aaf3dfaa62184910a","study_id":"6197b3f67c2b5cd3b6d9596a","session_id":"6197b9e9ef31578b19b6cc4f","condition":"full-information","relevant_dimensions":["antennae","wings"],"bee_group":{"antennae":"A","wings":"1","pattern":"X","legs":"X"},"bonus":0.6800000000000008},{"rt":12729.5,"stimulus":"bees-with-color/bee-A2DF.svg","response":1,"trial_type":"image-button-response","trial_index":29,"time_elapsed":1005879,"internal_node_id":"0.0-4.0-0.9","subject_id":"6116875aaf3dfaa62184910a","study_id":"6197b3f67c2b5cd3b6d9596a","session_id":"6197b9e9ef31578b19b6cc4f","condition":"full-information","relevant_dimensions":["antennae","wings"],"bee_group":{"antennae":"A","wings":"1","pattern":"X","legs":"X"},"action":"avoid","summary":"bad-avoid","bonus":0.6800000000000008},{"rt":8074,"stimulus":"\n                    <p><b>Action: <em>avoid</em></b></p>\n                    <p>This is the bee that you just saw.</p>\n                    <img src=\"bees-with-color/bee-A2DF.svg\" width=\"200\">\n                    <p><span class=\"redText\">Bad choice,</span> the bee was friendly.<br>Your bonus pay is unchanged, and remains at $0.46.</p>\n            ","response":0,"trial_type":"html-button-response","trial_index":30,"time_elapsed":1013957,"internal_node_id":"0.0-4.0-1.9","subject_id":"6116875aaf3dfaa62184910a","study_id":"6197b3f67c2b5cd3b6d9596a","session_id":"6197b9e9ef31578b19b6cc4f","condition":"full-information","relevant_dimensions":["antennae","wings"],"bee_group":{"antennae":"A","wings":"1","pattern":"X","legs":"X"},"bonus":0.6800000000000008},{"rt":15701.40000000596,"stimulus":"bees-with-color/bee-B2SM.svg","response":0,"trial_type":"image-button-response","trial_index":31,"time_elapsed":1029662,"internal_node_id":"0.0-4.0-0.10","subject_id":"6116875aaf3dfaa62184910a","study_id":"6197b3f67c2b5cd3b6d9596a","session_id":"6197b9e9ef31578b19b6cc4f","condition":"full-information","relevant_dimensions":["antennae","wings"],"bee_group":{"antennae":"A","wings":"1","pattern":"X","legs":"X"},"action":"harvest","summary":"good-harvest","bonus":0.6800000000000008},{"rt":5825,"stimulus":"\n                    <p><b>Action: <em>harvest</em></b></p>\n                    <p>This is the bee that you just saw.</p>\n                    <img src=\"bees-with-color/bee-B2SM.svg\" width=\"200\">\n                    <p><span class=\"greenText\"><b>Successful harvest!</b></span><br>Your pay has increased by $0.02. Your bonus pay is now $0.48.</p>\n            ","response":0,"trial_type":"html-button-response","trial_index":32,"time_elapsed":1035490,"internal_node_id":"0.0-4.0-1.10","subject_id":"6116875aaf3dfaa62184910a","study_id":"6197b3f67c2b5cd3b6d9596a","session_id":"6197b9e9ef31578b19b6cc4f","condition":"full-information","relevant_dimensions":["antennae","wings"],"bee_group":{"antennae":"A","wings":"1","pattern":"X","legs":"X"},"bonus":0.6800000000000008},{"rt":11101,"stimulus":"bees-with-color/bee-B1SM.svg","response":1,"trial_type":"image-button-response","trial_index":33,"time_elapsed":1046594,"internal_node_id":"0.0-4.0-0.11","subject_id":"6116875aaf3dfaa62184910a","study_id":"6197b3f67c2b5cd3b6d9596a","session_id":"6197b9e9ef31578b19b6cc4f","condition":"full-information","relevant_dimensions":["antennae","wings"],"bee_group":{"antennae":"A","wings":"1","pattern":"X","legs":"X"},"action":"avoid","summary":"bad-avoid","bonus":0.6800000000000008},{"rt":1562.699999988079,"stimulus":"\n                    <p><b>Action: <em>avoid</em></b></p>\n                    <p>This is the bee that you just saw.</p>\n                    <img src=\"bees-with-color/bee-B1SM.svg\" width=\"200\">\n                    <p><span class=\"redText\">Bad choice,</span> the bee was friendly.<br>Your bonus pay is unchanged, and remains at $0.48.</p>\n            ","response":0,"trial_type":"html-button-response","trial_index":34,"time_elapsed":1048160,"internal_node_id":"0.0-4.0-1.11","subject_id":"6116875aaf3dfaa62184910a","study_id":"6197b3f67c2b5cd3b6d9596a","session_id":"6197b9e9ef31578b19b6cc4f","condition":"full-information","relevant_dimensions":["antennae","wings"],"bee_group":{"antennae":"A","wings":"1","pattern":"X","legs":"X"},"bonus":0.6800000000000008},{"rt":7773.200000017881,"stimulus":"bees-with-color/bee-A1SM.svg","response":0,"trial_type":"image-button-response","trial_index":35,"time_elapsed":1055936,"internal_node_id":"0.0-4.0-0.12","subject_id":"6116875aaf3dfaa62184910a","study_id":"6197b3f67c2b5cd3b6d9596a","session_id":"6197b9e9ef31578b19b6cc4f","condition":"full-information","relevant_dimensions":["antennae","wings"],"bee_group":{"antennae":"A","wings":"1","pattern":"X","legs":"X"},"action":"harvest","summary":"bad-harvest","bonus":0.6800000000000008},{"rt":1973.9000000059605,"stimulus":"\n                    <p><b>Action: <em>harvest</em></b></p>\n                    <p>This is the bee that you just saw.</p>\n                    <img src=\"bees-with-color/bee-A1SM.svg\" width=\"200\">\n                    <p><span class=\"redText\">Bad choice, the bee was angry.</span><br><b>You have been stung!</b><br>Your pay has been decreased by $0.10. Your bonus pay is now $0.38.</p>\n            ","response":0,"trial_type":"html-button-response","trial_index":36,"time_elapsed":1057913,"internal_node_id":"0.0-4.0-1.12","subject_id":"6116875aaf3dfaa62184910a","study_id":"6197b3f67c2b5cd3b6d9596a","session_id":"6197b9e9ef31578b19b6cc4f","condition":"full-information","relevant_dimensions":["antennae","wings"],"bee_group":{"antennae":"A","wings":"1","pattern":"X","legs":"X"},"bonus":0.6800000000000008},{"rt":1797.2999999821186,"stimulus":"bees-with-color/bee-B1DM.svg","response":0,"trial_type":"image-button-response","trial_index":37,"time_elapsed":1059714,"internal_node_id":"0.0-4.0-0.13","subject_id":"6116875aaf3dfaa62184910a","study_id":"6197b3f67c2b5cd3b6d9596a","session_id":"6197b9e9ef31578b19b6cc4f","condition":"full-information","relevant_dimensions":["antennae","wings"],"bee_group":{"antennae":"A","wings":"1","pattern":"X","legs":"X"},"action":"harvest","summary":"good-harvest","bonus":0.6800000000000008},{"rt":1193.3999999761581,"stimulus":"\n                    <p><b>Action: <em>harvest</em></b></p>\n                    <p>This is the bee that you just saw.</p>\n                    <img src=\"bees-with-color/bee-B1DM.svg\" width=\"200\">\n                    <p><span class=\"greenText\"><b>Successful harvest!</b></span><br>Your pay has increased by $0.02. Your bonus pay is now $0.40.</p>\n            ","response":0,"trial_type":"html-button-response","trial_index":38,"time_elapsed":1060910,"internal_node_id":"0.0-4.0-1.13","subject_id":"6116875aaf3dfaa62184910a","study_id":"6197b3f67c2b5cd3b6d9596a","session_id":"6197b9e9ef31578b19b6cc4f","condition":"full-information","relevant_dimensions":["antennae","wings"],"bee_group":{"antennae":"A","wings":"1","pattern":"X","legs":"X"},"bonus":0.6800000000000008},{"rt":1519.0999999940395,"stimulus":"bees-with-color/bee-B1DF.svg","response":1,"trial_type":"image-button-response","trial_index":39,"time_elapsed":1062432,"internal_node_id":"0.0-4.0-0.14","subject_id":"6116875aaf3dfaa62184910a","study_id":"6197b3f67c2b5cd3b6d9596a","session_id":"6197b9e9ef31578b19b6cc4f","condition":"full-information","relevant_dimensions":["antennae","wings"],"bee_group":{"antennae":"A","wings":"1","pattern":"X","legs":"X"},"action":"avoid","summary":"bad-avoid","bonus":0.6800000000000008},{"rt":1213.5,"stimulus":"\n                    <p><b>Action: <em>avoid</em></b></p>\n                    <p>This is the bee that you just saw.</p>\n                    <img src=\"bees-with-color/bee-B1DF.svg\" width=\"200\">\n                    <p><span class=\"redText\">Bad choice,</span> the bee was friendly.<br>Your bonus pay is unchanged, and remains at $0.40.</p>\n            ","response":0,"trial_type":"html-button-response","trial_index":40,"time_elapsed":1063648,"internal_node_id":"0.0-4.0-1.14","subject_id":"6116875aaf3dfaa62184910a","study_id":"6197b3f67c2b5cd3b6d9596a","session_id":"6197b9e9ef31578b19b6cc4f","condition":"full-information","relevant_dimensions":["antennae","wings"],"bee_group":{"antennae":"A","wings":"1","pattern":"X","legs":"X"},"bonus":0.6800000000000008},{"rt":784.6999999880791,"stimulus":"bees-with-color/bee-A1DF.svg","response":0,"trial_type":"image-button-response","trial_index":41,"time_elapsed":1064436,"internal_node_id":"0.0-4.0-0.15","subject_id":"6116875aaf3dfaa62184910a","study_id":"6197b3f67c2b5cd3b6d9596a","session_id":"6197b9e9ef31578b19b6cc4f","condition":"full-information","relevant_dimensions":["antennae","wings"],"bee_group":{"antennae":"A","wings":"1","pattern":"X","legs":"X"},"action":"harvest","summary":"bad-harvest","bonus":0.6800000000000008},{"rt":1317.5,"stimulus":"\n                    <p><b>Action: <em>harvest</em></b></p>\n                    <p>This is the bee that you just saw.</p>\n                    <img src=\"bees-with-color/bee-A1DF.svg\" width=\"200\">\n                    <p><span class=\"redText\">Bad choice, the bee was angry.</span><br><b>You have been stung!</b><br>Your pay has been decreased by $0.10. Your bonus pay is now $0.30.</p>\n            ","response":0,"trial_type":"html-button-response","trial_index":42,"time_elapsed":1065757,"internal_node_id":"0.0-4.0-1.15","subject_id":"6116875aaf3dfaa62184910a","study_id":"6197b3f67c2b5cd3b6d9596a","session_id":"6197b9e9ef31578b19b6cc4f","condition":"full-information","relevant_dimensions":["antennae","wings"],"bee_group":{"antennae":"A","wings":"1","pattern":"X","legs":"X"},"bonus":0.6800000000000008},{"rt":1247.2999999821186,"stimulus":"bees-with-color/bee-A2DF.svg","response":0,"trial_type":"image-button-response","trial_index":43,"time_elapsed":1067006,"internal_node_id":"0.0-4.0-0.16","subject_id":"6116875aaf3dfaa62184910a","study_id":"6197b3f67c2b5cd3b6d9596a","session_id":"6197b9e9ef31578b19b6cc4f","condition":"full-information","relevant_dimensions":["antennae","wings"],"bee_group":{"antennae":"A","wings":"1","pattern":"X","legs":"X"},"action":"harvest","summary":"good-harvest","bonus":0.6800000000000008},{"rt":1316.6000000238419,"stimulus":"\n                    <p><b>Action: <em>harvest</em></b></p>\n                    <p>This is the bee that you just saw.</p>\n                    <img src=\"bees-with-color/bee-A2DF.svg\" width=\"200\">\n                    <p><span class=\"greenText\"><b>Successful harvest!</b></span><br>Your pay has increased by $0.02. Your bonus pay is now $0.32.</p>\n            ","response":0,"trial_type":"html-button-response","trial_index":44,"time_elapsed":1068326,"internal_node_id":"0.0-4.0-1.16","subject_id":"6116875aaf3dfaa62184910a","study_id":"6197b3f67c2b5cd3b6d9596a","session_id":"6197b9e9ef31578b19b6cc4f","condition":"full-information","relevant_dimensions":["antennae","wings"],"bee_group":{"antennae":"A","wings":"1","pattern":"X","legs":"X"},"bonus":0.6800000000000008},{"rt":14741.699999988079,"stimulus":"bees-with-color/bee-B2DM.svg","response":1,"trial_type":"image-button-response","trial_index":45,"time_elapsed":1083071,"internal_node_id":"0.0-4.0-0.17","subject_id":"6116875aaf3dfaa62184910a","study_id":"6197b3f67c2b5cd3b6d9596a","session_id":"6197b9e9ef31578b19b6cc4f","condition":"full-information","relevant_dimensions":["antennae","wings"],"bee_group":{"antennae":"A","wings":"1","pattern":"X","legs":"X"},"action":"avoid","summary":"bad-avoid","bonus":0.6800000000000008},{"rt":1452.800000011921,"stimulus":"\n                    <p><b>Action: <em>avoid</em></b></p>\n                    <p>This is the bee that you just saw.</p>\n                    <img src=\"bees-with-color/bee-B2DM.svg\" width=\"200\">\n                    <p><span class=\"redText\">Bad choice,</span> the bee was friendly.<br>Your bonus pay is unchanged, and remains at $0.32.</p>\n            ","response":0,"trial_type":"html-button-response","trial_index":46,"time_elapsed":1084527,"internal_node_id":"0.0-4.0-1.17","subject_id":"6116875aaf3dfaa62184910a","study_id":"6197b3f67c2b5cd3b6d9596a","session_id":"6197b9e9ef31578b19b6cc4f","condition":"full-information","relevant_dimensions":["antennae","wings"],"bee_group":{"antennae":"A","wings":"1","pattern":"X","legs":"X"},"bonus":0.6800000000000008},{"rt":26259.80000001192,"stimulus":"bees-with-color/bee-B1SM.svg","response":0,"trial_type":"image-button-response","trial_index":47,"time_elapsed":1110791,"internal_node_id":"0.0-4.0-0.18","subject_id":"6116875aaf3dfaa62184910a","study_id":"6197b3f67c2b5cd3b6d9596a","session_id":"6197b9e9ef31578b19b6cc4f","condition":"full-information","relevant_dimensions":["antennae","wings"],"bee_group":{"antennae":"A","wings":"1","pattern":"X","legs":"X"},"action":"harvest","summary":"good-harvest","bonus":0.6800000000000008},{"rt":5240.5999999940395,"stimulus":"\n                    <p><b>Action: <em>harvest</em></b></p>\n                    <p>This is the bee that you just saw.</p>\n                    <img src=\"bees-with-color/bee-B1SM.svg\" width=\"200\">\n                    <p><span class=\"greenText\"><b>Successful harvest!</b></span><br>Your pay has increased by $0.02. Your bonus pay is now $0.34.</p>\n            ","response":0,"trial_type":"html-button-response","trial_index":48,"time_elapsed":1116034,"internal_node_id":"0.0-4.0-1.18","subject_id":"6116875aaf3dfaa62184910a","study_id":"6197b3f67c2b5cd3b6d9596a","session_id":"6197b9e9ef31578b19b6cc4f","condition":"full-information","relevant_dimensions":["antennae","wings"],"bee_group":{"antennae":"A","wings":"1","pattern":"X","legs":"X"},"bonus":0.6800000000000008},{"rt":18152,"stimulus":"bees-with-color/bee-A1SM.svg","response":0,"trial_type":"image-button-response","trial_index":49,"time_elapsed":1134189,"internal_node_id":"0.0-4.0-0.19","subject_id":"6116875aaf3dfaa62184910a","study_id":"6197b3f67c2b5cd3b6d9596a","session_id":"6197b9e9ef31578b19b6cc4f","condition":"full-information","relevant_dimensions":["antennae","wings"],"bee_group":{"antennae":"A","wings":"1","pattern":"X","legs":"X"},"action":"harvest","summary":"bad-harvest","bonus":0.6800000000000008},{"rt":4319.4000000059605,"stimulus":"\n                    <p><b>Action: <em>harvest</em></b></p>\n                    <p>This is the bee that you just saw.</p>\n                    <img src=\"bees-with-color/bee-A1SM.svg\" width=\"200\">\n                    <p><span class=\"redText\">Bad choice, the bee was angry.</span><br><b>You have been stung!</b><br>Your pay has been decreased by $0.10. Your bonus pay is now $0.24.</p>\n            ","response":0,"trial_type":"html-button-response","trial_index":50,"time_elapsed":1138511,"internal_node_id":"0.0-4.0-1.19","subject_id":"6116875aaf3dfaa62184910a","study_id":"6197b3f67c2b5cd3b6d9596a","session_id":"6197b9e9ef31578b19b6cc4f","condition":"full-information","relevant_dimensions":["antennae","wings"],"bee_group":{"antennae":"A","wings":"1","pattern":"X","legs":"X"},"bonus":0.6800000000000008},{"rt":7203.200000017881,"stimulus":"bees-with-color/bee-A2DM.svg","response":0,"trial_type":"image-button-response","trial_index":51,"time_elapsed":1145718,"internal_node_id":"0.0-4.0-0.20","subject_id":"6116875aaf3dfaa62184910a","study_id":"6197b3f67c2b5cd3b6d9596a","session_id":"6197b9e9ef31578b19b6cc4f","condition":"full-information","relevant_dimensions":["antennae","wings"],"bee_group":{"antennae":"A","wings":"1","pattern":"X","legs":"X"},"action":"harvest","summary":"good-harvest","bonus":0.6800000000000008},{"rt":1543,"stimulus":"\n                    <p><b>Action: <em>harvest</em></b></p>\n                    <p>This is the bee that you just saw.</p>\n                    <img src=\"bees-with-color/bee-A2DM.svg\" width=\"200\">\n                    <p><span class=\"greenText\"><b>Successful harvest!</b></span><br>Your pay has increased by $0.02. Your bonus pay is now $0.26.</p>\n            ","response":0,"trial_type":"html-button-response","trial_index":52,"time_elapsed":1147263,"internal_node_id":"0.0-4.0-1.20","subject_id":"6116875aaf3dfaa62184910a","study_id":"6197b3f67c2b5cd3b6d9596a","session_id":"6197b9e9ef31578b19b6cc4f","condition":"full-information","relevant_dimensions":["antennae","wings"],"bee_group":{"antennae":"A","wings":"1","pattern":"X","legs":"X"},"bonus":0.6800000000000008},{"rt":9208.200000017881,"stimulus":"bees-with-color/bee-B2SM.svg","response":0,"trial_type":"image-button-response","trial_index":53,"time_elapsed":1156475,"internal_node_id":"0.0-4.0-0.21","subject_id":"6116875aaf3dfaa62184910a","study_id":"6197b3f67c2b5cd3b6d9596a","session_id":"6197b9e9ef31578b19b6cc4f","condition":"full-information","relevant_dimensions":["antennae","wings"],"bee_group":{"antennae":"A","wings":"1","pattern":"X","legs":"X"},"action":"harvest","summary":"good-harvest","bonus":0.6800000000000008},{"rt":1262.9000000059605,"stimulus":"\n                    <p><b>Action: <em>harvest</em></b></p>\n                    <p>This is the bee that you just saw.</p>\n                    <img src=\"bees-with-color/bee-B2SM.svg\" width=\"200\">\n                    <p><span class=\"greenText\"><b>Successful harvest!</b></span><br>Your pay has increased by $0.02. Your bonus pay is now $0.28.</p>\n            ","response":0,"trial_type":"html-button-response","trial_index":54,"time_elapsed":1157740,"internal_node_id":"0.0-4.0-1.21","subject_id":"6116875aaf3dfaa62184910a","study_id":"6197b3f67c2b5cd3b6d9596a","session_id":"6197b9e9ef31578b19b6cc4f","condition":"full-information","relevant_dimensions":["antennae","wings"],"bee_group":{"antennae":"A","wings":"1","pattern":"X","legs":"X"},"bonus":0.6800000000000008},{"rt":7240.100000023842,"stimulus":"bees-with-color/bee-A2SF.svg","response":0,"trial_type":"image-button-response","trial_index":55,"time_elapsed":1164983,"internal_node_id":"0.0-4.0-0.22","subject_id":"6116875aaf3dfaa62184910a","study_id":"6197b3f67c2b5cd3b6d9596a","session_id":"6197b9e9ef31578b19b6cc4f","condition":"full-information","relevant_dimensions":["antennae","wings"],"bee_group":{"antennae":"A","wings":"1","pattern":"X","legs":"X"},"action":"harvest","summary":"good-harvest","bonus":0.6800000000000008},{"rt":1187.2000000178814,"stimulus":"\n                    <p><b>Action: <em>harvest</em></b></p>\n                    <p>This is the bee that you just saw.</p>\n                    <img src=\"bees-with-color/bee-A2SF.svg\" width=\"200\">\n                    <p><span class=\"greenText\"><b>Successful harvest!</b></span><br>Your pay has increased by $0.02. Your bonus pay is now $0.30.</p>\n            ","response":0,"trial_type":"html-button-response","trial_index":56,"time_elapsed":1166172,"internal_node_id":"0.0-4.0-1.22","subject_id":"6116875aaf3dfaa62184910a","study_id":"6197b3f67c2b5cd3b6d9596a","session_id":"6197b9e9ef31578b19b6cc4f","condition":"full-information","relevant_dimensions":["antennae","wings"],"bee_group":{"antennae":"A","wings":"1","pattern":"X","legs":"X"},"bonus":0.6800000000000008},{"rt":12756.200000017881,"stimulus":"bees-with-color/bee-A1DF.svg","response":0,"trial_type":"image-button-response","trial_index":57,"time_elapsed":1178932,"internal_node_id":"0.0-4.0-0.23","subject_id":"6116875aaf3dfaa62184910a","study_id":"6197b3f67c2b5cd3b6d9596a","session_id":"6197b9e9ef31578b19b6cc4f","condition":"full-information","relevant_dimensions":["antennae","wings"],"bee_group":{"antennae":"A","wings":"1","pattern":"X","legs":"X"},"action":"harvest","summary":"bad-harvest","bonus":0.6800000000000008},{"rt":1546.4000000059605,"stimulus":"\n                    <p><b>Action: <em>harvest</em></b></p>\n                    <p>This is the bee that you just saw.</p>\n                    <img src=\"bees-with-color/bee-A1DF.svg\" width=\"200\">\n                    <p><span class=\"redText\">Bad choice, the bee was angry.</span><br><b>You have been stung!</b><br>Your pay has been decreased by $0.10. Your bonus pay is now $0.20.</p>\n            ","response":0,"trial_type":"html-button-response","trial_index":58,"time_elapsed":1180484,"internal_node_id":"0.0-4.0-1.23","subject_id":"6116875aaf3dfaa62184910a","study_id":"6197b3f67c2b5cd3b6d9596a","session_id":"6197b9e9ef31578b19b6cc4f","condition":"full-information","relevant_dimensions":["antennae","wings"],"bee_group":{"antennae":"A","wings":"1","pattern":"X","legs":"X"},"bonus":0.6800000000000008},{"rt":19343.90000000596,"stimulus":"bees-with-color/bee-B1DM.svg","response":0,"trial_type":"image-button-response","trial_index":59,"time_elapsed":1199832,"internal_node_id":"0.0-4.0-0.24","subject_id":"6116875aaf3dfaa62184910a","study_id":"6197b3f67c2b5cd3b6d9596a","session_id":"6197b9e9ef31578b19b6cc4f","condition":"full-information","relevant_dimensions":["antennae","wings"],"bee_group":{"antennae":"A","wings":"1","pattern":"X","legs":"X"},"action":"harvest","summary":"good-harvest","bonus":0.6800000000000008},{"rt":8053.0999999940395,"stimulus":"\n                    <p><b>Action: <em>harvest</em></b></p>\n                    <p>This is the bee that you just saw.</p>\n                    <img src=\"bees-with-color/bee-B1DM.svg\" width=\"200\">\n                    <p><span class=\"greenText\"><b>Successful harvest!</b></span><br>Your pay has increased by $0.02. Your bonus pay is now $0.22.</p>\n            ","response":0,"trial_type":"html-button-response","trial_index":60,"time_elapsed":1207888,"internal_node_id":"0.0-4.0-1.24","subject_id":"6116875aaf3dfaa62184910a","study_id":"6197b3f67c2b5cd3b6d9596a","session_id":"6197b9e9ef31578b19b6cc4f","condition":"full-information","relevant_dimensions":["antennae","wings"],"bee_group":{"antennae":"A","wings":"1","pattern":"X","legs":"X"},"bonus":0.6800000000000008},{"rt":15235.5,"stimulus":"bees-with-color/bee-A1SF.svg","response":1,"trial_type":"image-button-response","trial_index":61,"time_elapsed":1223127,"internal_node_id":"0.0-4.0-0.25","subject_id":"6116875aaf3dfaa62184910a","study_id":"6197b3f67c2b5cd3b6d9596a","session_id":"6197b9e9ef31578b19b6cc4f","condition":"full-information","relevant_dimensions":["antennae","wings"],"bee_group":{"antennae":"A","wings":"1","pattern":"X","legs":"X"},"action":"avoid","summary":"good-avoid","bonus":0.6800000000000008},{"rt":2349.7999999821186,"stimulus":"\n                    <p><b>Action: <em>avoid</em></b></p>\n                    <p>This is the bee that you just saw.</p>\n                    <img src=\"bees-with-color/bee-A1SF.svg\" width=\"200\">\n                    <p><span class=\"greenText\">Good choice!</span>  This bee would have stung you.<br>Your bonus pay is unchanged, and remains at $0.22.</p>\n            ","response":0,"trial_type":"html-button-response","trial_index":62,"time_elapsed":1225479,"internal_node_id":"0.0-4.0-1.25","subject_id":"6116875aaf3dfaa62184910a","study_id":"6197b3f67c2b5cd3b6d9596a","session_id":"6197b9e9ef31578b19b6cc4f","condition":"full-information","relevant_dimensions":["antennae","wings"],"bee_group":{"antennae":"A","wings":"1","pattern":"X","legs":"X"},"bonus":0.6800000000000008},{"rt":9198.699999988079,"stimulus":"bees-with-color/bee-B2DF.svg","response":0,"trial_type":"image-button-response","trial_index":63,"time_elapsed":1234682,"internal_node_id":"0.0-4.0-0.26","subject_id":"6116875aaf3dfaa62184910a","study_id":"6197b3f67c2b5cd3b6d9596a","session_id":"6197b9e9ef31578b19b6cc4f","condition":"full-information","relevant_dimensions":["antennae","wings"],"bee_group":{"antennae":"A","wings":"1","pattern":"X","legs":"X"},"action":"harvest","summary":"good-harvest","bonus":0.6800000000000008},{"rt":2021.6000000238419,"stimulus":"\n                    <p><b>Action: <em>harvest</em></b></p>\n                    <p>This is the bee that you just saw.</p>\n                    <img src=\"bees-with-color/bee-B2DF.svg\" width=\"200\">\n                    <p><span class=\"greenText\"><b>Successful harvest!</b></span><br>Your pay has increased by $0.02. Your bonus pay is now $0.24.</p>\n            ","response":0,"trial_type":"html-button-response","trial_index":64,"time_elapsed":1236707,"internal_node_id":"0.0-4.0-1.26","subject_id":"6116875aaf3dfaa62184910a","study_id":"6197b3f67c2b5cd3b6d9596a","session_id":"6197b9e9ef31578b19b6cc4f","condition":"full-information","relevant_dimensions":["antennae","wings"],"bee_group":{"antennae":"A","wings":"1","pattern":"X","legs":"X"},"bonus":0.6800000000000008},{"rt":23262.40000000596,"stimulus":"bees-with-color/bee-B1DF.svg","response":0,"trial_type":"image-button-response","trial_index":65,"time_elapsed":1259973,"internal_node_id":"0.0-4.0-0.27","subject_id":"6116875aaf3dfaa62184910a","study_id":"6197b3f67c2b5cd3b6d9596a","session_id":"6197b9e9ef31578b19b6cc4f","condition":"full-information","relevant_dimensions":["antennae","wings"],"bee_group":{"antennae":"A","wings":"1","pattern":"X","legs":"X"},"action":"harvest","summary":"good-harvest","bonus":0.6800000000000008},{"rt":1286,"stimulus":"\n                    <p><b>Action: <em>harvest</em></b></p>\n                    <p>This is the bee that you just saw.</p>\n                    <img src=\"bees-with-color/bee-B1DF.svg\" width=\"200\">\n                    <p><span class=\"greenText\"><b>Successful harvest!</b></span><br>Your pay has increased by $0.02. Your bonus pay is now $0.26.</p>\n            ","response":0,"trial_type":"html-button-response","trial_index":66,"time_elapsed":1261262,"internal_node_id":"0.0-4.0-1.27","subject_id":"6116875aaf3dfaa62184910a","study_id":"6197b3f67c2b5cd3b6d9596a","session_id":"6197b9e9ef31578b19b6cc4f","condition":"full-information","relevant_dimensions":["antennae","wings"],"bee_group":{"antennae":"A","wings":"1","pattern":"X","legs":"X"},"bonus":0.6800000000000008},{"rt":8504.5,"stimulus":"bees-with-color/bee-B2SF.svg","response":0,"trial_type":"image-button-response","trial_index":67,"time_elapsed":1269770,"internal_node_id":"0.0-4.0-0.28","subject_id":"6116875aaf3dfaa62184910a","study_id":"6197b3f67c2b5cd3b6d9596a","session_id":"6197b9e9ef31578b19b6cc4f","condition":"full-information","relevant_dimensions":["antennae","wings"],"bee_group":{"antennae":"A","wings":"1","pattern":"X","legs":"X"},"action":"harvest","summary":"good-harvest","bonus":0.6800000000000008},{"rt":1358,"stimulus":"\n                    <p><b>Action: <em>harvest</em></b></p>\n                    <p>This is the bee that you just saw.</p>\n                    <img src=\"bees-with-color/bee-B2SF.svg\" width=\"200\">\n                    <p><span class=\"greenText\"><b>Successful harvest!</b></span><br>Your pay has increased by $0.02. Your bonus pay is now $0.28.</p>\n            ","response":0,"trial_type":"html-button-response","trial_index":68,"time_elapsed":1271131,"internal_node_id":"0.0-4.0-1.28","subject_id":"6116875aaf3dfaa62184910a","study_id":"6197b3f67c2b5cd3b6d9596a","session_id":"6197b9e9ef31578b19b6cc4f","condition":"full-information","relevant_dimensions":["antennae","wings"],"bee_group":{"antennae":"A","wings":"1","pattern":"X","legs":"X"},"bonus":0.6800000000000008},{"rt":10434.5,"stimulus":"bees-with-color/bee-A2SM.svg","response":0,"trial_type":"image-button-response","trial_index":69,"time_elapsed":1281569,"internal_node_id":"0.0-4.0-0.29","subject_id":"6116875aaf3dfaa62184910a","study_id":"6197b3f67c2b5cd3b6d9596a","session_id":"6197b9e9ef31578b19b6cc4f","condition":"full-information","relevant_dimensions":["antennae","wings"],"bee_group":{"antennae":"A","wings":"1","pattern":"X","legs":"X"},"action":"harvest","summary":"good-harvest","bonus":0.6800000000000008},{"rt":1190.199999988079,"stimulus":"\n                    <p><b>Action: <em>harvest</em></b></p>\n                    <p>This is the bee that you just saw.</p>\n                    <img src=\"bees-with-color/bee-A2SM.svg\" width=\"200\">\n                    <p><span class=\"greenText\"><b>Successful harvest!</b></span><br>Your pay has increased by $0.02. Your bonus pay is now $0.30.</p>\n            ","response":0,"trial_type":"html-button-response","trial_index":70,"time_elapsed":1282762,"internal_node_id":"0.0-4.0-1.29","subject_id":"6116875aaf3dfaa62184910a","study_id":"6197b3f67c2b5cd3b6d9596a","session_id":"6197b9e9ef31578b19b6cc4f","condition":"full-information","relevant_dimensions":["antennae","wings"],"bee_group":{"antennae":"A","wings":"1","pattern":"X","legs":"X"},"bonus":0.6800000000000008},{"rt":11120.799999982119,"stimulus":"bees-with-color/bee-A1DM.svg","response":1,"trial_type":"image-button-response","trial_index":71,"time_elapsed":1293886,"internal_node_id":"0.0-4.0-0.30","subject_id":"6116875aaf3dfaa62184910a","study_id":"6197b3f67c2b5cd3b6d9596a","session_id":"6197b9e9ef31578b19b6cc4f","condition":"full-information","relevant_dimensions":["antennae","wings"],"bee_group":{"antennae":"A","wings":"1","pattern":"X","legs":"X"},"action":"avoid","summary":"good-avoid","bonus":0.6800000000000008},{"rt":1037.199999988079,"stimulus":"\n                    <p><b>Action: <em>avoid</em></b></p>\n                    <p>This is the bee that you just saw.</p>\n                    <img src=\"bees-with-color/bee-A1DM.svg\" width=\"200\">\n                    <p><span class=\"greenText\">Good choice!</span>  This bee would have stung you.<br>Your bonus pay is unchanged, and remains at $0.30.</p>\n            ","response":0,"trial_type":"html-button-response","trial_index":72,"time_elapsed":1294926,"internal_node_id":"0.0-4.0-1.30","subject_id":"6116875aaf3dfaa62184910a","study_id":"6197b3f67c2b5cd3b6d9596a","session_id":"6197b9e9ef31578b19b6cc4f","condition":"full-information","relevant_dimensions":["antennae","wings"],"bee_group":{"antennae":"A","wings":"1","pattern":"X","legs":"X"},"bonus":0.6800000000000008},{"rt":14609.40000000596,"stimulus":"bees-with-color/bee-B1SF.svg","response":0,"trial_type":"image-button-response","trial_index":73,"time_elapsed":1309539,"internal_node_id":"0.0-4.0-0.31","subject_id":"6116875aaf3dfaa62184910a","study_id":"6197b3f67c2b5cd3b6d9596a","session_id":"6197b9e9ef31578b19b6cc4f","condition":"full-information","relevant_dimensions":["antennae","wings"],"bee_group":{"antennae":"A","wings":"1","pattern":"X","legs":"X"},"action":"harvest","summary":"good-harvest","bonus":0.6800000000000008},{"rt":1101.5999999940395,"stimulus":"\n                    <p><b>Action: <em>harvest</em></b></p>\n                    <p>This is the bee that you just saw.</p>\n                    <img src=\"bees-with-color/bee-B1SF.svg\" width=\"200\">\n                    <p><span class=\"greenText\"><b>Successful harvest!</b></span><br>Your pay has increased by $0.02. Your bonus pay is now $0.32.</p>\n            ","response":0,"trial_type":"html-button-response","trial_index":74,"time_elapsed":1310643,"internal_node_id":"0.0-4.0-1.31","subject_id":"6116875aaf3dfaa62184910a","study_id":"6197b3f67c2b5cd3b6d9596a","session_id":"6197b9e9ef31578b19b6cc4f","condition":"full-information","relevant_dimensions":["antennae","wings"],"bee_group":{"antennae":"A","wings":"1","pattern":"X","legs":"X"},"bonus":0.6800000000000008},{"rt":17363.80000001192,"stimulus":"bees-with-color/bee-A1SM.svg","response":1,"trial_type":"image-button-response","trial_index":75,"time_elapsed":1328011,"internal_node_id":"0.0-4.0-0.32","subject_id":"6116875aaf3dfaa62184910a","study_id":"6197b3f67c2b5cd3b6d9596a","session_id":"6197b9e9ef31578b19b6cc4f","condition":"full-information","relevant_dimensions":["antennae","wings"],"bee_group":{"antennae":"A","wings":"1","pattern":"X","legs":"X"},"action":"avoid","summary":"good-avoid","bonus":0.6800000000000008},{"rt":1124,"stimulus":"\n                    <p><b>Action: <em>avoid</em></b></p>\n                    <p>This is the bee that you just saw.</p>\n                    <img src=\"bees-with-color/bee-A1SM.svg\" width=\"200\">\n                    <p><span class=\"greenText\">Good choice!</span>  This bee would have stung you.<br>Your bonus pay is unchanged, and remains at $0.32.</p>\n            ","response":0,"trial_type":"html-button-response","trial_index":76,"time_elapsed":1329138,"internal_node_id":"0.0-4.0-1.32","subject_id":"6116875aaf3dfaa62184910a","study_id":"6197b3f67c2b5cd3b6d9596a","session_id":"6197b9e9ef31578b19b6cc4f","condition":"full-information","relevant_dimensions":["antennae","wings"],"bee_group":{"antennae":"A","wings":"1","pattern":"X","legs":"X"},"bonus":0.6800000000000008},{"rt":8298,"stimulus":"bees-with-color/bee-B1DM.svg","response":1,"trial_type":"image-button-response","trial_index":77,"time_elapsed":1337439,"internal_node_id":"0.0-4.0-0.33","subject_id":"6116875aaf3dfaa62184910a","study_id":"6197b3f67c2b5cd3b6d9596a","session_id":"6197b9e9ef31578b19b6cc4f","condition":"full-information","relevant_dimensions":["antennae","wings"],"bee_group":{"antennae":"A","wings":"1","pattern":"X","legs":"X"},"action":"avoid","summary":"bad-avoid","bonus":0.6800000000000008},{"rt":1394.5,"stimulus":"\n                    <p><b>Action: <em>avoid</em></b></p>\n                    <p>This is the bee that you just saw.</p>\n                    <img src=\"bees-with-color/bee-B1DM.svg\" width=\"200\">\n                    <p><span class=\"redText\">Bad choice,</span> the bee was friendly.<br>Your bonus pay is unchanged, and remains at $0.32.</p>\n            ","response":0,"trial_type":"html-button-response","trial_index":78,"time_elapsed":1338836,"internal_node_id":"0.0-4.0-1.33","subject_id":"6116875aaf3dfaa62184910a","study_id":"6197b3f67c2b5cd3b6d9596a","session_id":"6197b9e9ef31578b19b6cc4f","condition":"full-information","relevant_dimensions":["antennae","wings"],"bee_group":{"antennae":"A","wings":"1","pattern":"X","legs":"X"},"bonus":0.6800000000000008},{"rt":11021.5,"stimulus":"bees-with-color/bee-A2DM.svg","response":0,"trial_type":"image-button-response","trial_index":79,"time_elapsed":1349862,"internal_node_id":"0.0-4.0-0.34","subject_id":"6116875aaf3dfaa62184910a","study_id":"6197b3f67c2b5cd3b6d9596a","session_id":"6197b9e9ef31578b19b6cc4f","condition":"full-information","relevant_dimensions":["antennae","wings"],"bee_group":{"antennae":"A","wings":"1","pattern":"X","legs":"X"},"action":"harvest","summary":"good-harvest","bonus":0.6800000000000008},{"rt":1041.3999999761581,"stimulus":"\n                    <p><b>Action: <em>harvest</em></b></p>\n                    <p>This is the bee that you just saw.</p>\n                    <img src=\"bees-with-color/bee-A2DM.svg\" width=\"200\">\n                    <p><span class=\"greenText\"><b>Successful harvest!</b></span><br>Your pay has increased by $0.02. Your bonus pay is now $0.34.</p>\n            ","response":0,"trial_type":"html-button-response","trial_index":80,"time_elapsed":1350907,"internal_node_id":"0.0-4.0-1.34","subject_id":"6116875aaf3dfaa62184910a","study_id":"6197b3f67c2b5cd3b6d9596a","session_id":"6197b9e9ef31578b19b6cc4f","condition":"full-information","relevant_dimensions":["antennae","wings"],"bee_group":{"antennae":"A","wings":"1","pattern":"X","legs":"X"},"bonus":0.6800000000000008},{"rt":10408.59999999404,"stimulus":"bees-with-color/bee-A1SF.svg","response":1,"trial_type":"image-button-response","trial_index":81,"time_elapsed":1361323,"internal_node_id":"0.0-4.0-0.35","subject_id":"6116875aaf3dfaa62184910a","study_id":"6197b3f67c2b5cd3b6d9596a","session_id":"6197b9e9ef31578b19b6cc4f","condition":"full-information","relevant_dimensions":["antennae","wings"],"bee_group":{"antennae":"A","wings":"1","pattern":"X","legs":"X"},"action":"avoid","summary":"good-avoid","bonus":0.6800000000000008},{"rt":997.1999999880791,"stimulus":"\n                    <p><b>Action: <em>avoid</em></b></p>\n                    <p>This is the bee that you just saw.</p>\n                    <img src=\"bees-with-color/bee-A1SF.svg\" width=\"200\">\n                    <p><span class=\"greenText\">Good choice!</span>  This bee would have stung you.<br>Your bonus pay is unchanged, and remains at $0.34.</p>\n            ","response":0,"trial_type":"html-button-response","trial_index":82,"time_elapsed":1362322,"internal_node_id":"0.0-4.0-1.35","subject_id":"6116875aaf3dfaa62184910a","study_id":"6197b3f67c2b5cd3b6d9596a","session_id":"6197b9e9ef31578b19b6cc4f","condition":"full-information","relevant_dimensions":["antennae","wings"],"bee_group":{"antennae":"A","wings":"1","pattern":"X","legs":"X"},"bonus":0.6800000000000008},{"rt":7943.4000000059605,"stimulus":"bees-with-color/bee-B2DM.svg","response":0,"trial_type":"image-button-response","trial_index":83,"time_elapsed":1370268,"internal_node_id":"0.0-4.0-0.36","subject_id":"6116875aaf3dfaa62184910a","study_id":"6197b3f67c2b5cd3b6d9596a","session_id":"6197b9e9ef31578b19b6cc4f","condition":"full-information","relevant_dimensions":["antennae","wings"],"bee_group":{"antennae":"A","wings":"1","pattern":"X","legs":"X"},"action":"harvest","summary":"good-harvest","bonus":0.6800000000000008},{"rt":1026.300000011921,"stimulus":"\n                    <p><b>Action: <em>harvest</em></b></p>\n                    <p>This is the bee that you just saw.</p>\n                    <img src=\"bees-with-color/bee-B2DM.svg\" width=\"200\">\n                    <p><span class=\"greenText\"><b>Successful harvest!</b></span><br>Your pay has increased by $0.02. Your bonus pay is now $0.36.</p>\n            ","response":0,"trial_type":"html-button-response","trial_index":84,"time_elapsed":1371297,"internal_node_id":"0.0-4.0-1.36","subject_id":"6116875aaf3dfaa62184910a","study_id":"6197b3f67c2b5cd3b6d9596a","session_id":"6197b9e9ef31578b19b6cc4f","condition":"full-information","relevant_dimensions":["antennae","wings"],"bee_group":{"antennae":"A","wings":"1","pattern":"X","legs":"X"},"bonus":0.6800000000000008},{"rt":11305.40000000596,"stimulus":"bees-with-color/bee-A2DF.svg","response":0,"trial_type":"image-button-response","trial_index":85,"time_elapsed":1382606,"internal_node_id":"0.0-4.0-0.37","subject_id":"6116875aaf3dfaa62184910a","study_id":"6197b3f67c2b5cd3b6d9596a","session_id":"6197b9e9ef31578b19b6cc4f","condition":"full-information","relevant_dimensions":["antennae","wings"],"bee_group":{"antennae":"A","wings":"1","pattern":"X","legs":"X"},"action":"harvest","summary":"good-harvest","bonus":0.6800000000000008},{"rt":973.1999999880791,"stimulus":"\n                    <p><b>Action: <em>harvest</em></b></p>\n                    <p>This is the bee that you just saw.</p>\n                    <img src=\"bees-with-color/bee-A2DF.svg\" width=\"200\">\n                    <p><span class=\"greenText\"><b>Successful harvest!</b></span><br>Your pay has increased by $0.02. Your bonus pay is now $0.38.</p>\n            ","response":0,"trial_type":"html-button-response","trial_index":86,"time_elapsed":1383581,"internal_node_id":"0.0-4.0-1.37","subject_id":"6116875aaf3dfaa62184910a","study_id":"6197b3f67c2b5cd3b6d9596a","session_id":"6197b9e9ef31578b19b6cc4f","condition":"full-information","relevant_dimensions":["antennae","wings"],"bee_group":{"antennae":"A","wings":"1","pattern":"X","legs":"X"},"bonus":0.6800000000000008},{"rt":1764.2000000178814,"stimulus":"bees-with-color/bee-B2SF.svg","response":0,"trial_type":"image-button-response","trial_index":87,"time_elapsed":1385348,"internal_node_id":"0.0-4.0-0.38","subject_id":"6116875aaf3dfaa62184910a","study_id":"6197b3f67c2b5cd3b6d9596a","session_id":"6197b9e9ef31578b19b6cc4f","condition":"full-information","relevant_dimensions":["antennae","wings"],"bee_group":{"antennae":"A","wings":"1","pattern":"X","legs":"X"},"action":"harvest","summary":"good-harvest","bonus":0.6800000000000008},{"rt":925.7999999821186,"stimulus":"\n                    <p><b>Action: <em>harvest</em></b></p>\n                    <p>This is the bee that you just saw.</p>\n                    <img src=\"bees-with-color/bee-B2SF.svg\" width=\"200\">\n                    <p><span class=\"greenText\"><b>Successful harvest!</b></span><br>Your pay has increased by $0.02. Your bonus pay is now $0.40.</p>\n            ","response":0,"trial_type":"html-button-response","trial_index":88,"time_elapsed":1386277,"internal_node_id":"0.0-4.0-1.38","subject_id":"6116875aaf3dfaa62184910a","study_id":"6197b3f67c2b5cd3b6d9596a","session_id":"6197b9e9ef31578b19b6cc4f","condition":"full-information","relevant_dimensions":["antennae","wings"],"bee_group":{"antennae":"A","wings":"1","pattern":"X","legs":"X"},"bonus":0.6800000000000008},{"rt":1687,"stimulus":"bees-with-color/bee-A2SM.svg","response":0,"trial_type":"image-button-response","trial_index":89,"time_elapsed":1387966,"internal_node_id":"0.0-4.0-0.39","subject_id":"6116875aaf3dfaa62184910a","study_id":"6197b3f67c2b5cd3b6d9596a","session_id":"6197b9e9ef31578b19b6cc4f","condition":"full-information","relevant_dimensions":["antennae","wings"],"bee_group":{"antennae":"A","wings":"1","pattern":"X","legs":"X"},"action":"harvest","summary":"good-harvest","bonus":0.6800000000000008},{"rt":994.1000000238419,"stimulus":"\n                    <p><b>Action: <em>harvest</em></b></p>\n                    <p>This is the bee that you just saw.</p>\n                    <img src=\"bees-with-color/bee-A2SM.svg\" width=\"200\">\n                    <p><span class=\"greenText\"><b>Successful harvest!</b></span><br>Your pay has increased by $0.02. Your bonus pay is now $0.42.</p>\n            ","response":0,"trial_type":"html-button-response","trial_index":90,"time_elapsed":1388962,"internal_node_id":"0.0-4.0-1.39","subject_id":"6116875aaf3dfaa62184910a","study_id":"6197b3f67c2b5cd3b6d9596a","session_id":"6197b9e9ef31578b19b6cc4f","condition":"full-information","relevant_dimensions":["antennae","wings"],"bee_group":{"antennae":"A","wings":"1","pattern":"X","legs":"X"},"bonus":0.6800000000000008},{"rt":1414.199999988079,"stimulus":"bees-with-color/bee-B1DF.svg","response":1,"trial_type":"image-button-response","trial_index":91,"time_elapsed":1390378,"internal_node_id":"0.0-4.0-0.40","subject_id":"6116875aaf3dfaa62184910a","study_id":"6197b3f67c2b5cd3b6d9596a","session_id":"6197b9e9ef31578b19b6cc4f","condition":"full-information","relevant_dimensions":["antennae","wings"],"bee_group":{"antennae":"A","wings":"1","pattern":"X","legs":"X"},"action":"avoid","summary":"bad-avoid","bonus":0.6800000000000008},{"rt":887.5,"stimulus":"\n                    <p><b>Action: <em>avoid</em></b></p>\n                    <p>This is the bee that you just saw.</p>\n                    <img src=\"bees-with-color/bee-B1DF.svg\" width=\"200\">\n                    <p><span class=\"redText\">Bad choice,</span> the bee was friendly.<br>Your bonus pay is unchanged, and remains at $0.42.</p>\n            ","response":0,"trial_type":"html-button-response","trial_index":92,"time_elapsed":1391268,"internal_node_id":"0.0-4.0-1.40","subject_id":"6116875aaf3dfaa62184910a","study_id":"6197b3f67c2b5cd3b6d9596a","session_id":"6197b9e9ef31578b19b6cc4f","condition":"full-information","relevant_dimensions":["antennae","wings"],"bee_group":{"antennae":"A","wings":"1","pattern":"X","legs":"X"},"bonus":0.6800000000000008},{"rt":1141.6000000238419,"stimulus":"bees-with-color/bee-B2DF.svg","response":0,"trial_type":"image-button-response","trial_index":93,"time_elapsed":1392412,"internal_node_id":"0.0-4.0-0.41","subject_id":"6116875aaf3dfaa62184910a","study_id":"6197b3f67c2b5cd3b6d9596a","session_id":"6197b9e9ef31578b19b6cc4f","condition":"full-information","relevant_dimensions":["antennae","wings"],"bee_group":{"antennae":"A","wings":"1","pattern":"X","legs":"X"},"action":"harvest","summary":"good-harvest","bonus":0.6800000000000008},{"rt":986.8999999761581,"stimulus":"\n                    <p><b>Action: <em>harvest</em></b></p>\n                    <p>This is the bee that you just saw.</p>\n                    <img src=\"bees-with-color/bee-B2DF.svg\" width=\"200\">\n                    <p><span class=\"greenText\"><b>Successful harvest!</b></span><br>Your pay has increased by $0.02. Your bonus pay is now $0.44.</p>\n            ","response":0,"trial_type":"html-button-response","trial_index":94,"time_elapsed":1393401,"internal_node_id":"0.0-4.0-1.41","subject_id":"6116875aaf3dfaa62184910a","study_id":"6197b3f67c2b5cd3b6d9596a","session_id":"6197b9e9ef31578b19b6cc4f","condition":"full-information","relevant_dimensions":["antennae","wings"],"bee_group":{"antennae":"A","wings":"1","pattern":"X","legs":"X"},"bonus":0.6800000000000008},{"rt":1318.800000011921,"stimulus":"bees-with-color/bee-B2SM.svg","response":1,"trial_type":"image-button-response","trial_index":95,"time_elapsed":1394722,"internal_node_id":"0.0-4.0-0.42","subject_id":"6116875aaf3dfaa62184910a","study_id":"6197b3f67c2b5cd3b6d9596a","session_id":"6197b9e9ef31578b19b6cc4f","condition":"full-information","relevant_dimensions":["antennae","wings"],"bee_group":{"antennae":"A","wings":"1","pattern":"X","legs":"X"},"action":"avoid","summary":"bad-avoid","bonus":0.6800000000000008},{"rt":1389.800000011921,"stimulus":"\n                    <p><b>Action: <em>avoid</em></b></p>\n                    <p>This is the bee that you just saw.</p>\n                    <img src=\"bees-with-color/bee-B2SM.svg\" width=\"200\">\n                    <p><span class=\"redText\">Bad choice,</span> the bee was friendly.<br>Your bonus pay is unchanged, and remains at $0.44.</p>\n            ","response":0,"trial_type":"html-button-response","trial_index":96,"time_elapsed":1396114,"internal_node_id":"0.0-4.0-1.42","subject_id":"6116875aaf3dfaa62184910a","study_id":"6197b3f67c2b5cd3b6d9596a","session_id":"6197b9e9ef31578b19b6cc4f","condition":"full-information","relevant_dimensions":["antennae","wings"],"bee_group":{"antennae":"A","wings":"1","pattern":"X","legs":"X"},"bonus":0.6800000000000008},{"rt":638,"stimulus":"bees-with-color/bee-A2SF.svg","response":0,"trial_type":"image-button-response","trial_index":97,"time_elapsed":1396756,"internal_node_id":"0.0-4.0-0.43","subject_id":"6116875aaf3dfaa62184910a","study_id":"6197b3f67c2b5cd3b6d9596a","session_id":"6197b9e9ef31578b19b6cc4f","condition":"full-information","relevant_dimensions":["antennae","wings"],"bee_group":{"antennae":"A","wings":"1","pattern":"X","legs":"X"},"action":"harvest","summary":"good-harvest","bonus":0.6800000000000008},{"rt":993.8000000119209,"stimulus":"\n                    <p><b>Action: <em>harvest</em></b></p>\n                    <p>This is the bee that you just saw.</p>\n                    <img src=\"bees-with-color/bee-A2SF.svg\" width=\"200\">\n                    <p><span class=\"greenText\"><b>Successful harvest!</b></span><br>Your pay has increased by $0.02. Your bonus pay is now $0.46.</p>\n            ","response":0,"trial_type":"html-button-response","trial_index":98,"time_elapsed":1397752,"internal_node_id":"0.0-4.0-1.43","subject_id":"6116875aaf3dfaa62184910a","study_id":"6197b3f67c2b5cd3b6d9596a","session_id":"6197b9e9ef31578b19b6cc4f","condition":"full-information","relevant_dimensions":["antennae","wings"],"bee_group":{"antennae":"A","wings":"1","pattern":"X","legs":"X"},"bonus":0.6800000000000008},{"rt":11680.699999988079,"stimulus":"bees-with-color/bee-A1DF.svg","response":1,"trial_type":"image-button-response","trial_index":99,"time_elapsed":1409436,"internal_node_id":"0.0-4.0-0.44","subject_id":"6116875aaf3dfaa62184910a","study_id":"6197b3f67c2b5cd3b6d9596a","session_id":"6197b9e9ef31578b19b6cc4f","condition":"full-information","relevant_dimensions":["antennae","wings"],"bee_group":{"antennae":"A","wings":"1","pattern":"X","legs":"X"},"action":"avoid","summary":"good-avoid","bonus":0.6800000000000008},{"rt":1225.6000000238419,"stimulus":"\n                    <p><b>Action: <em>avoid</em></b></p>\n                    <p>This is the bee that you just saw.</p>\n                    <img src=\"bees-with-color/bee-A1DF.svg\" width=\"200\">\n                    <p><span class=\"greenText\">Good choice!</span>  This bee would have stung you.<br>Your bonus pay is unchanged, and remains at $0.46.</p>\n            ","response":0,"trial_type":"html-button-response","trial_index":100,"time_elapsed":1410664,"internal_node_id":"0.0-4.0-1.44","subject_id":"6116875aaf3dfaa62184910a","study_id":"6197b3f67c2b5cd3b6d9596a","session_id":"6197b9e9ef31578b19b6cc4f","condition":"full-information","relevant_dimensions":["antennae","wings"],"bee_group":{"antennae":"A","wings":"1","pattern":"X","legs":"X"},"bonus":0.6800000000000008},{"rt":12209.90000000596,"stimulus":"bees-with-color/bee-B1SM.svg","response":0,"trial_type":"image-button-response","trial_index":101,"time_elapsed":1422878,"internal_node_id":"0.0-4.0-0.45","subject_id":"6116875aaf3dfaa62184910a","study_id":"6197b3f67c2b5cd3b6d9596a","session_id":"6197b9e9ef31578b19b6cc4f","condition":"full-information","relevant_dimensions":["antennae","wings"],"bee_group":{"antennae":"A","wings":"1","pattern":"X","legs":"X"},"action":"harvest","summary":"good-harvest","bonus":0.6800000000000008},{"rt":845.6999999880791,"stimulus":"\n                    <p><b>Action: <em>harvest</em></b></p>\n                    <p>This is the bee that you just saw.</p>\n                    <img src=\"bees-with-color/bee-B1SM.svg\" width=\"200\">\n                    <p><span class=\"greenText\"><b>Successful harvest!</b></span><br>Your pay has increased by $0.02. Your bonus pay is now $0.48.</p>\n            ","response":0,"trial_type":"html-button-response","trial_index":102,"time_elapsed":1423727,"internal_node_id":"0.0-4.0-1.45","subject_id":"6116875aaf3dfaa62184910a","study_id":"6197b3f67c2b5cd3b6d9596a","session_id":"6197b9e9ef31578b19b6cc4f","condition":"full-information","relevant_dimensions":["antennae","wings"],"bee_group":{"antennae":"A","wings":"1","pattern":"X","legs":"X"},"bonus":0.6800000000000008},{"rt":8942.09999999404,"stimulus":"bees-with-color/bee-B1SF.svg","response":0,"trial_type":"image-button-response","trial_index":103,"time_elapsed":1432672,"internal_node_id":"0.0-4.0-0.46","subject_id":"6116875aaf3dfaa62184910a","study_id":"6197b3f67c2b5cd3b6d9596a","session_id":"6197b9e9ef31578b19b6cc4f","condition":"full-information","relevant_dimensions":["antennae","wings"],"bee_group":{"antennae":"A","wings":"1","pattern":"X","legs":"X"},"action":"harvest","summary":"good-harvest","bonus":0.6800000000000008},{"rt":1166.5,"stimulus":"\n                    <p><b>Action: <em>harvest</em></b></p>\n                    <p>This is the bee that you just saw.</p>\n                    <img src=\"bees-with-color/bee-B1SF.svg\" width=\"200\">\n                    <p><span class=\"greenText\"><b>Successful harvest!</b></span><br>Your pay has increased by $0.02. Your bonus pay is now $0.50.</p>\n            ","response":0,"trial_type":"html-button-response","trial_index":104,"time_elapsed":1433842,"internal_node_id":"0.0-4.0-1.46","subject_id":"6116875aaf3dfaa62184910a","study_id":"6197b3f67c2b5cd3b6d9596a","session_id":"6197b9e9ef31578b19b6cc4f","condition":"full-information","relevant_dimensions":["antennae","wings"],"bee_group":{"antennae":"A","wings":"1","pattern":"X","legs":"X"},"bonus":0.6800000000000008},{"rt":9320,"stimulus":"bees-with-color/bee-A1DM.svg","response":1,"trial_type":"image-button-response","trial_index":105,"time_elapsed":1443165,"internal_node_id":"0.0-4.0-0.47","subject_id":"6116875aaf3dfaa62184910a","study_id":"6197b3f67c2b5cd3b6d9596a","session_id":"6197b9e9ef31578b19b6cc4f","condition":"full-information","relevant_dimensions":["antennae","wings"],"bee_group":{"antennae":"A","wings":"1","pattern":"X","legs":"X"},"action":"avoid","summary":"good-avoid","bonus":0.6800000000000008},{"rt":1153.4000000059605,"stimulus":"\n                    <p><b>Action: <em>avoid</em></b></p>\n                    <p>This is the bee that you just saw.</p>\n                    <img src=\"bees-with-color/bee-A1DM.svg\" width=\"200\">\n                    <p><span class=\"greenText\">Good choice!</span>  This bee would have stung you.<br>Your bonus pay is unchanged, and remains at $0.50.</p>\n            ","response":0,"trial_type":"html-button-response","trial_index":106,"time_elapsed":1444322,"internal_node_id":"0.0-4.0-1.47","subject_id":"6116875aaf3dfaa62184910a","study_id":"6197b3f67c2b5cd3b6d9596a","session_id":"6197b9e9ef31578b19b6cc4f","condition":"full-information","relevant_dimensions":["antennae","wings"],"bee_group":{"antennae":"A","wings":"1","pattern":"X","legs":"X"},"bonus":0.6800000000000008},{"rt":51950.60000002384,"stimulus":"bees-with-color/bee-A1SF.svg","response":1,"trial_type":"image-button-response","trial_index":107,"time_elapsed":1496283,"internal_node_id":"0.0-4.0-0.48","subject_id":"6116875aaf3dfaa62184910a","study_id":"6197b3f67c2b5cd3b6d9596a","session_id":"6197b9e9ef31578b19b6cc4f","condition":"full-information","relevant_dimensions":["antennae","wings"],"bee_group":{"antennae":"A","wings":"1","pattern":"X","legs":"X"},"action":"avoid","summary":"good-avoid","bonus":0.6800000000000008},{"rt":961.5999999940395,"stimulus":"\n                    <p><b>Action: <em>avoid</em></b></p>\n                    <p>This is the bee that you just saw.</p>\n                    <img src=\"bees-with-color/bee-A1SF.svg\" width=\"200\">\n                    <p><span class=\"greenText\">Good choice!</span>  This bee would have stung you.<br>Your bonus pay is unchanged, and remains at $0.50.</p>\n            ","response":0,"trial_type":"html-button-response","trial_index":108,"time_elapsed":1497249,"internal_node_id":"0.0-4.0-1.48","subject_id":"6116875aaf3dfaa62184910a","study_id":"6197b3f67c2b5cd3b6d9596a","session_id":"6197b9e9ef31578b19b6cc4f","condition":"full-information","relevant_dimensions":["antennae","wings"],"bee_group":{"antennae":"A","wings":"1","pattern":"X","legs":"X"},"bonus":0.6800000000000008},{"rt":12554.300000011921,"stimulus":"bees-with-color/bee-B1SF.svg","response":0,"trial_type":"image-button-response","trial_index":109,"time_elapsed":1509823,"internal_node_id":"0.0-4.0-0.49","subject_id":"6116875aaf3dfaa62184910a","study_id":"6197b3f67c2b5cd3b6d9596a","session_id":"6197b9e9ef31578b19b6cc4f","condition":"full-information","relevant_dimensions":["antennae","wings"],"bee_group":{"antennae":"A","wings":"1","pattern":"X","legs":"X"},"action":"harvest","summary":"good-harvest","bonus":0.6800000000000008},{"rt":1341.7000000178814,"stimulus":"\n                    <p><b>Action: <em>harvest</em></b></p>\n                    <p>This is the bee that you just saw.</p>\n                    <img src=\"bees-with-color/bee-B1SF.svg\" width=\"200\">\n                    <p><span class=\"greenText\"><b>Successful harvest!</b></span><br>Your pay has increased by $0.02. Your bonus pay is now $0.52.</p>\n            ","response":0,"trial_type":"html-button-response","trial_index":110,"time_elapsed":1511169,"internal_node_id":"0.0-4.0-1.49","subject_id":"6116875aaf3dfaa62184910a","study_id":"6197b3f67c2b5cd3b6d9596a","session_id":"6197b9e9ef31578b19b6cc4f","condition":"full-information","relevant_dimensions":["antennae","wings"],"bee_group":{"antennae":"A","wings":"1","pattern":"X","legs":"X"},"bonus":0.6800000000000008},{"rt":14791.800000011921,"stimulus":"bees-with-color/bee-A1DF.svg","response":1,"trial_type":"image-button-response","trial_index":111,"time_elapsed":1525971,"internal_node_id":"0.0-4.0-0.50","subject_id":"6116875aaf3dfaa62184910a","study_id":"6197b3f67c2b5cd3b6d9596a","session_id":"6197b9e9ef31578b19b6cc4f","condition":"full-information","relevant_dimensions":["antennae","wings"],"bee_group":{"antennae":"A","wings":"1","pattern":"X","legs":"X"},"action":"avoid","summary":"good-avoid","bonus":0.6800000000000008},{"rt":1258.8999999761581,"stimulus":"\n                    <p><b>Action: <em>avoid</em></b></p>\n                    <p>This is the bee that you just saw.</p>\n                    <img src=\"bees-with-color/bee-A1DF.svg\" width=\"200\">\n                    <p><span class=\"greenText\">Good choice!</span>  This bee would have stung you.<br>Your bonus pay is unchanged, and remains at $0.52.</p>\n            ","response":0,"trial_type":"html-button-response","trial_index":112,"time_elapsed":1527233,"internal_node_id":"0.0-4.0-1.50","subject_id":"6116875aaf3dfaa62184910a","study_id":"6197b3f67c2b5cd3b6d9596a","session_id":"6197b9e9ef31578b19b6cc4f","condition":"full-information","relevant_dimensions":["antennae","wings"],"bee_group":{"antennae":"A","wings":"1","pattern":"X","legs":"X"},"bonus":0.6800000000000008},{"rt":7569.399999976158,"stimulus":"bees-with-color/bee-B2SF.svg","response":0,"trial_type":"image-button-response","trial_index":113,"time_elapsed":1534807,"internal_node_id":"0.0-4.0-0.51","subject_id":"6116875aaf3dfaa62184910a","study_id":"6197b3f67c2b5cd3b6d9596a","session_id":"6197b9e9ef31578b19b6cc4f","condition":"full-information","relevant_dimensions":["antennae","wings"],"bee_group":{"antennae":"A","wings":"1","pattern":"X","legs":"X"},"action":"harvest","summary":"good-harvest","bonus":0.6800000000000008},{"rt":1133.9000000059605,"stimulus":"\n                    <p><b>Action: <em>harvest</em></b></p>\n                    <p>This is the bee that you just saw.</p>\n                    <img src=\"bees-with-color/bee-B2SF.svg\" width=\"200\">\n                    <p><span class=\"greenText\"><b>Successful harvest!</b></span><br>Your pay has increased by $0.02. Your bonus pay is now $0.54.</p>\n            ","response":0,"trial_type":"html-button-response","trial_index":114,"time_elapsed":1535943,"internal_node_id":"0.0-4.0-1.51","subject_id":"6116875aaf3dfaa62184910a","study_id":"6197b3f67c2b5cd3b6d9596a","session_id":"6197b9e9ef31578b19b6cc4f","condition":"full-information","relevant_dimensions":["antennae","wings"],"bee_group":{"antennae":"A","wings":"1","pattern":"X","legs":"X"},"bonus":0.6800000000000008},{"rt":6325,"stimulus":"bees-with-color/bee-B2SM.svg","response":0,"trial_type":"image-button-response","trial_index":115,"time_elapsed":1542271,"internal_node_id":"0.0-4.0-0.52","subject_id":"6116875aaf3dfaa62184910a","study_id":"6197b3f67c2b5cd3b6d9596a","session_id":"6197b9e9ef31578b19b6cc4f","condition":"full-information","relevant_dimensions":["antennae","wings"],"bee_group":{"antennae":"A","wings":"1","pattern":"X","legs":"X"},"action":"harvest","summary":"good-harvest","bonus":0.6800000000000008},{"rt":1139.4000000059605,"stimulus":"\n                    <p><b>Action: <em>harvest</em></b></p>\n                    <p>This is the bee that you just saw.</p>\n                    <img src=\"bees-with-color/bee-B2SM.svg\" width=\"200\">\n                    <p><span class=\"greenText\"><b>Successful harvest!</b></span><br>Your pay has increased by $0.02. Your bonus pay is now $0.56.</p>\n            ","response":0,"trial_type":"html-button-response","trial_index":116,"time_elapsed":1543412,"internal_node_id":"0.0-4.0-1.52","subject_id":"6116875aaf3dfaa62184910a","study_id":"6197b3f67c2b5cd3b6d9596a","session_id":"6197b9e9ef31578b19b6cc4f","condition":"full-information","relevant_dimensions":["antennae","wings"],"bee_group":{"antennae":"A","wings":"1","pattern":"X","legs":"X"},"bonus":0.6800000000000008},{"rt":5484.299999982119,"stimulus":"bees-with-color/bee-B1DF.svg","response":1,"trial_type":"image-button-response","trial_index":117,"time_elapsed":1548899,"internal_node_id":"0.0-4.0-0.53","subject_id":"6116875aaf3dfaa62184910a","study_id":"6197b3f67c2b5cd3b6d9596a","session_id":"6197b9e9ef31578b19b6cc4f","condition":"full-information","relevant_dimensions":["antennae","wings"],"bee_group":{"antennae":"A","wings":"1","pattern":"X","legs":"X"},"action":"avoid","summary":"bad-avoid","bonus":0.6800000000000008},{"rt":1165.4000000059605,"stimulus":"\n                    <p><b>Action: <em>avoid</em></b></p>\n                    <p>This is the bee that you just saw.</p>\n                    <img src=\"bees-with-color/bee-B1DF.svg\" width=\"200\">\n                    <p><span class=\"redText\">Bad choice,</span> the bee was friendly.<br>Your bonus pay is unchanged, and remains at $0.56.</p>\n            ","response":0,"trial_type":"html-button-response","trial_index":118,"time_elapsed":1550066,"internal_node_id":"0.0-4.0-1.53","subject_id":"6116875aaf3dfaa62184910a","study_id":"6197b3f67c2b5cd3b6d9596a","session_id":"6197b9e9ef31578b19b6cc4f","condition":"full-information","relevant_dimensions":["antennae","wings"],"bee_group":{"antennae":"A","wings":"1","pattern":"X","legs":"X"},"bonus":0.6800000000000008},{"rt":10430.700000017881,"stimulus":"bees-with-color/bee-A2SF.svg","response":0,"trial_type":"image-button-response","trial_index":119,"time_elapsed":1560499,"internal_node_id":"0.0-4.0-0.54","subject_id":"6116875aaf3dfaa62184910a","study_id":"6197b3f67c2b5cd3b6d9596a","session_id":"6197b9e9ef31578b19b6cc4f","condition":"full-information","relevant_dimensions":["antennae","wings"],"bee_group":{"antennae":"A","wings":"1","pattern":"X","legs":"X"},"action":"harvest","summary":"good-harvest","bonus":0.6800000000000008},{"rt":1054.5,"stimulus":"\n                    <p><b>Action: <em>harvest</em></b></p>\n                    <p>This is the bee that you just saw.</p>\n                    <img src=\"bees-with-color/bee-A2SF.svg\" width=\"200\">\n                    <p><span class=\"greenText\"><b>Successful harvest!</b></span><br>Your pay has increased by $0.02. Your bonus pay is now $0.58.</p>\n            ","response":0,"trial_type":"html-button-response","trial_index":120,"time_elapsed":1561556,"internal_node_id":"0.0-4.0-1.54","subject_id":"6116875aaf3dfaa62184910a","study_id":"6197b3f67c2b5cd3b6d9596a","session_id":"6197b9e9ef31578b19b6cc4f","condition":"full-information","relevant_dimensions":["antennae","wings"],"bee_group":{"antennae":"A","wings":"1","pattern":"X","legs":"X"},"bonus":0.6800000000000008},{"rt":14644.799999982119,"stimulus":"bees-with-color/bee-B2DM.svg","response":1,"trial_type":"image-button-response","trial_index":121,"time_elapsed":1576204,"internal_node_id":"0.0-4.0-0.55","subject_id":"6116875aaf3dfaa62184910a","study_id":"6197b3f67c2b5cd3b6d9596a","session_id":"6197b9e9ef31578b19b6cc4f","condition":"full-information","relevant_dimensions":["antennae","wings"],"bee_group":{"antennae":"A","wings":"1","pattern":"X","legs":"X"},"action":"avoid","summary":"bad-avoid","bonus":0.6800000000000008},{"rt":1297.0999999940395,"stimulus":"\n                    <p><b>Action: <em>avoid</em></b></p>\n                    <p>This is the bee that you just saw.</p>\n                    <img src=\"bees-with-color/bee-B2DM.svg\" width=\"200\">\n                    <p><span class=\"redText\">Bad choice,</span> the bee was friendly.<br>Your bonus pay is unchanged, and remains at $0.58.</p>\n            ","response":0,"trial_type":"html-button-response","trial_index":122,"time_elapsed":1577502,"internal_node_id":"0.0-4.0-1.55","subject_id":"6116875aaf3dfaa62184910a","study_id":"6197b3f67c2b5cd3b6d9596a","session_id":"6197b9e9ef31578b19b6cc4f","condition":"full-information","relevant_dimensions":["antennae","wings"],"bee_group":{"antennae":"A","wings":"1","pattern":"X","legs":"X"},"bonus":0.6800000000000008},{"rt":7240.699999988079,"stimulus":"bees-with-color/bee-A2DM.svg","response":1,"trial_type":"image-button-response","trial_index":123,"time_elapsed":1584746,"internal_node_id":"0.0-4.0-0.56","subject_id":"6116875aaf3dfaa62184910a","study_id":"6197b3f67c2b5cd3b6d9596a","session_id":"6197b9e9ef31578b19b6cc4f","condition":"full-information","relevant_dimensions":["antennae","wings"],"bee_group":{"antennae":"A","wings":"1","pattern":"X","legs":"X"},"action":"avoid","summary":"bad-avoid","bonus":0.6800000000000008},{"rt":3179.699999988079,"stimulus":"\n                    <p><b>Action: <em>avoid</em></b></p>\n                    <p>This is the bee that you just saw.</p>\n                    <img src=\"bees-with-color/bee-A2DM.svg\" width=\"200\">\n                    <p><span class=\"redText\">Bad choice,</span> the bee was friendly.<br>Your bonus pay is unchanged, and remains at $0.58.</p>\n            ","response":0,"trial_type":"html-button-response","trial_index":124,"time_elapsed":1587928,"internal_node_id":"0.0-4.0-1.56","subject_id":"6116875aaf3dfaa62184910a","study_id":"6197b3f67c2b5cd3b6d9596a","session_id":"6197b9e9ef31578b19b6cc4f","condition":"full-information","relevant_dimensions":["antennae","wings"],"bee_group":{"antennae":"A","wings":"1","pattern":"X","legs":"X"},"bonus":0.6800000000000008},{"rt":8606.5,"stimulus":"bees-with-color/bee-A1DM.svg","response":1,"trial_type":"image-button-response","trial_index":125,"time_elapsed":1596537,"internal_node_id":"0.0-4.0-0.57","subject_id":"6116875aaf3dfaa62184910a","study_id":"6197b3f67c2b5cd3b6d9596a","session_id":"6197b9e9ef31578b19b6cc4f","condition":"full-information","relevant_dimensions":["antennae","wings"],"bee_group":{"antennae":"A","wings":"1","pattern":"X","legs":"X"},"action":"avoid","summary":"good-avoid","bonus":0.6800000000000008},{"rt":1014.1000000238419,"stimulus":"\n                    <p><b>Action: <em>avoid</em></b></p>\n                    <p>This is the bee that you just saw.</p>\n                    <img src=\"bees-with-color/bee-A1DM.svg\" width=\"200\">\n                    <p><span class=\"greenText\">Good choice!</span>  This bee would have stung you.<br>Your bonus pay is unchanged, and remains at $0.58.</p>\n            ","response":0,"trial_type":"html-button-response","trial_index":126,"time_elapsed":1597553,"internal_node_id":"0.0-4.0-1.57","subject_id":"6116875aaf3dfaa62184910a","study_id":"6197b3f67c2b5cd3b6d9596a","session_id":"6197b9e9ef31578b19b6cc4f","condition":"full-information","relevant_dimensions":["antennae","wings"],"bee_group":{"antennae":"A","wings":"1","pattern":"X","legs":"X"},"bonus":0.6800000000000008},{"rt":1819.699999988079,"stimulus":"bees-with-color/bee-A2DF.svg","response":0,"trial_type":"image-button-response","trial_index":127,"time_elapsed":1599375,"internal_node_id":"0.0-4.0-0.58","subject_id":"6116875aaf3dfaa62184910a","study_id":"6197b3f67c2b5cd3b6d9596a","session_id":"6197b9e9ef31578b19b6cc4f","condition":"full-information","relevant_dimensions":["antennae","wings"],"bee_group":{"antennae":"A","wings":"1","pattern":"X","legs":"X"},"action":"harvest","summary":"good-harvest","bonus":0.6800000000000008},{"rt":1158.699999988079,"stimulus":"\n                    <p><b>Action: <em>harvest</em></b></p>\n                    <p>This is the bee that you just saw.</p>\n                    <img src=\"bees-with-color/bee-A2DF.svg\" width=\"200\">\n                    <p><span class=\"greenText\"><b>Successful harvest!</b></span><br>Your pay has increased by $0.02. Your bonus pay is now $0.60.</p>\n            ","response":0,"trial_type":"html-button-response","trial_index":128,"time_elapsed":1600536,"internal_node_id":"0.0-4.0-1.58","subject_id":"6116875aaf3dfaa62184910a","study_id":"6197b3f67c2b5cd3b6d9596a","session_id":"6197b9e9ef31578b19b6cc4f","condition":"full-information","relevant_dimensions":["antennae","wings"],"bee_group":{"antennae":"A","wings":"1","pattern":"X","legs":"X"},"bonus":0.6800000000000008},{"rt":10639.600000023842,"stimulus":"bees-with-color/bee-A2SM.svg","response":0,"trial_type":"image-button-response","trial_index":129,"time_elapsed":1611178,"internal_node_id":"0.0-4.0-0.59","subject_id":"6116875aaf3dfaa62184910a","study_id":"6197b3f67c2b5cd3b6d9596a","session_id":"6197b9e9ef31578b19b6cc4f","condition":"full-information","relevant_dimensions":["antennae","wings"],"bee_group":{"antennae":"A","wings":"1","pattern":"X","legs":"X"},"action":"harvest","summary":"good-harvest","bonus":0.6800000000000008},{"rt":1157.699999988079,"stimulus":"\n                    <p><b>Action: <em>harvest</em></b></p>\n                    <p>This is the bee that you just saw.</p>\n                    <img src=\"bees-with-color/bee-A2SM.svg\" width=\"200\">\n                    <p><span class=\"greenText\"><b>Successful harvest!</b></span><br>Your pay has increased by $0.02. Your bonus pay is now $0.62.</p>\n            ","response":0,"trial_type":"html-button-response","trial_index":130,"time_elapsed":1612338,"internal_node_id":"0.0-4.0-1.59","subject_id":"6116875aaf3dfaa62184910a","study_id":"6197b3f67c2b5cd3b6d9596a","session_id":"6197b9e9ef31578b19b6cc4f","condition":"full-information","relevant_dimensions":["antennae","wings"],"bee_group":{"antennae":"A","wings":"1","pattern":"X","legs":"X"},"bonus":0.6800000000000008},{"rt":2515.0999999940395,"stimulus":"bees-with-color/bee-B1DM.svg","response":1,"trial_type":"image-button-response","trial_index":131,"time_elapsed":1614856,"internal_node_id":"0.0-4.0-0.60","subject_id":"6116875aaf3dfaa62184910a","study_id":"6197b3f67c2b5cd3b6d9596a","session_id":"6197b9e9ef31578b19b6cc4f","condition":"full-information","relevant_dimensions":["antennae","wings"],"bee_group":{"antennae":"A","wings":"1","pattern":"X","legs":"X"},"action":"avoid","summary":"bad-avoid","bonus":0.6800000000000008},{"rt":1235.800000011921,"stimulus":"\n                    <p><b>Action: <em>avoid</em></b></p>\n                    <p>This is the bee that you just saw.</p>\n                    <img src=\"bees-with-color/bee-B1DM.svg\" width=\"200\">\n                    <p><span class=\"redText\">Bad choice,</span> the bee was friendly.<br>Your bonus pay is unchanged, and remains at $0.62.</p>\n            ","response":0,"trial_type":"html-button-response","trial_index":132,"time_elapsed":1616095,"internal_node_id":"0.0-4.0-1.60","subject_id":"6116875aaf3dfaa62184910a","study_id":"6197b3f67c2b5cd3b6d9596a","session_id":"6197b9e9ef31578b19b6cc4f","condition":"full-information","relevant_dimensions":["antennae","wings"],"bee_group":{"antennae":"A","wings":"1","pattern":"X","legs":"X"},"bonus":0.6800000000000008},{"rt":14602.5,"stimulus":"bees-with-color/bee-A1SM.svg","response":0,"trial_type":"image-button-response","trial_index":133,"time_elapsed":1630700,"internal_node_id":"0.0-4.0-0.61","subject_id":"6116875aaf3dfaa62184910a","study_id":"6197b3f67c2b5cd3b6d9596a","session_id":"6197b9e9ef31578b19b6cc4f","condition":"full-information","relevant_dimensions":["antennae","wings"],"bee_group":{"antennae":"A","wings":"1","pattern":"X","legs":"X"},"action":"harvest","summary":"bad-harvest","bonus":0.6800000000000008},{"rt":2602.5999999940395,"stimulus":"\n                    <p><b>Action: <em>harvest</em></b></p>\n                    <p>This is the bee that you just saw.</p>\n                    <img src=\"bees-with-color/bee-A1SM.svg\" width=\"200\">\n                    <p><span class=\"redText\">Bad choice, the bee was angry.</span><br><b>You have been stung!</b><br>Your pay has been decreased by $0.10. Your bonus pay is now $0.52.</p>\n            ","response":0,"trial_type":"html-button-response","trial_index":134,"time_elapsed":1633305,"internal_node_id":"0.0-4.0-1.61","subject_id":"6116875aaf3dfaa62184910a","study_id":"6197b3f67c2b5cd3b6d9596a","session_id":"6197b9e9ef31578b19b6cc4f","condition":"full-information","relevant_dimensions":["antennae","wings"],"bee_group":{"antennae":"A","wings":"1","pattern":"X","legs":"X"},"bonus":0.6800000000000008},{"rt":19379,"stimulus":"bees-with-color/bee-B1SM.svg","response":0,"trial_type":"image-button-response","trial_index":135,"time_elapsed":1652687,"internal_node_id":"0.0-4.0-0.62","subject_id":"6116875aaf3dfaa62184910a","study_id":"6197b3f67c2b5cd3b6d9596a","session_id":"6197b9e9ef31578b19b6cc4f","condition":"full-information","relevant_dimensions":["antennae","wings"],"bee_group":{"antennae":"A","wings":"1","pattern":"X","legs":"X"},"action":"harvest","summary":"good-harvest","bonus":0.6800000000000008},{"rt":6341,"stimulus":"\n                    <p><b>Action: <em>harvest</em></b></p>\n                    <p>This is the bee that you just saw.</p>\n                    <img src=\"bees-with-color/bee-B1SM.svg\" width=\"200\">\n                    <p><span class=\"greenText\"><b>Successful harvest!</b></span><br>Your pay has increased by $0.02. Your bonus pay is now $0.54.</p>\n            ","response":0,"trial_type":"html-button-response","trial_index":136,"time_elapsed":1659030,"internal_node_id":"0.0-4.0-1.62","subject_id":"6116875aaf3dfaa62184910a","study_id":"6197b3f67c2b5cd3b6d9596a","session_id":"6197b9e9ef31578b19b6cc4f","condition":"full-information","relevant_dimensions":["antennae","wings"],"bee_group":{"antennae":"A","wings":"1","pattern":"X","legs":"X"},"bonus":0.6800000000000008},{"rt":10315.5,"stimulus":"bees-with-color/bee-B2DF.svg","response":1,"trial_type":"image-button-response","trial_index":137,"time_elapsed":1669350,"internal_node_id":"0.0-4.0-0.63","subject_id":"6116875aaf3dfaa62184910a","study_id":"6197b3f67c2b5cd3b6d9596a","session_id":"6197b9e9ef31578b19b6cc4f","condition":"full-information","relevant_dimensions":["antennae","wings"],"bee_group":{"antennae":"A","wings":"1","pattern":"X","legs":"X"},"action":"avoid","summary":"bad-avoid","bonus":0.6800000000000008},{"rt":1261.5999999940395,"stimulus":"\n                    <p><b>Action: <em>avoid</em></b></p>\n                    <p>This is the bee that you just saw.</p>\n                    <img src=\"bees-with-color/bee-B2DF.svg\" width=\"200\">\n                    <p><span class=\"redText\">Bad choice,</span> the bee was friendly.<br>Your bonus pay is unchanged, and remains at $0.54.</p>\n            ","response":0,"trial_type":"html-button-response","trial_index":138,"time_elapsed":1670614,"internal_node_id":"0.0-4.0-1.63","subject_id":"6116875aaf3dfaa62184910a","study_id":"6197b3f67c2b5cd3b6d9596a","session_id":"6197b9e9ef31578b19b6cc4f","condition":"full-information","relevant_dimensions":["antennae","wings"],"bee_group":{"antennae":"A","wings":"1","pattern":"X","legs":"X"},"bonus":0.6800000000000008},{"rt":14803,"stimulus":"You have completed the first part of this experiment.<br><br>You will now begin a shorter second part, in which you will receive no feedback.<br>The same rules regarding bonus pay apply.<br><br>Press any key to begin.","response":" ","trial_type":"html-keyboard-response","trial_index":139,"time_elapsed":1685421,"internal_node_id":"0.0-5.0","subject_id":"6116875aaf3dfaa62184910a","study_id":"6197b3f67c2b5cd3b6d9596a","session_id":"6197b9e9ef31578b19b6cc4f","condition":"full-information","relevant_dimensions":["antennae","wings"],"bee_group":{"antennae":"A","wings":"1","pattern":"X","legs":"X"},"bonus":0.6800000000000008},{"rt":144417.69999998808,"stimulus":"bees-with-color/bee-B1SF.svg","response":0,"trial_type":"image-button-response","trial_index":140,"time_elapsed":1829862,"internal_node_id":"0.0-6.0-0.0","subject_id":"6116875aaf3dfaa62184910a","study_id":"6197b3f67c2b5cd3b6d9596a","session_id":"6197b9e9ef31578b19b6cc4f","condition":"full-information","relevant_dimensions":["antennae","wings"],"bee_group":{"antennae":"A","wings":"1","pattern":"X","legs":"X"},"bonus":0.6800000000000008},{"rt":6263.899999976158,"stimulus":"bees-with-color/bee-A1SF.svg","response":1,"trial_type":"image-button-response","trial_index":141,"time_elapsed":1836136,"internal_node_id":"0.0-6.0-0.1","subject_id":"6116875aaf3dfaa62184910a","study_id":"6197b3f67c2b5cd3b6d9596a","session_id":"6197b9e9ef31578b19b6cc4f","condition":"full-information","relevant_dimensions":["antennae","wings"],"bee_group":{"antennae":"A","wings":"1","pattern":"X","legs":"X"},"bonus":0.6800000000000008},{"rt":9340.90000000596,"stimulus":"bees-with-color/bee-A1SM.svg","response":1,"trial_type":"image-button-response","trial_index":142,"time_elapsed":1845482,"internal_node_id":"0.0-6.0-0.2","subject_id":"6116875aaf3dfaa62184910a","study_id":"6197b3f67c2b5cd3b6d9596a","session_id":"6197b9e9ef31578b19b6cc4f","condition":"full-information","relevant_dimensions":["antennae","wings"],"bee_group":{"antennae":"A","wings":"1","pattern":"X","legs":"X"},"bonus":0.6800000000000008},{"rt":22596.90000000596,"stimulus":"bees-with-color/bee-B1DM.svg","response":0,"trial_type":"image-button-response","trial_index":143,"time_elapsed":1868086,"internal_node_id":"0.0-6.0-0.3","subject_id":"6116875aaf3dfaa62184910a","study_id":"6197b3f67c2b5cd3b6d9596a","session_id":"6197b9e9ef31578b19b6cc4f","condition":"full-information","relevant_dimensions":["antennae","wings"],"bee_group":{"antennae":"A","wings":"1","pattern":"X","legs":"X"},"bonus":0.6800000000000008},{"rt":19774.5,"stimulus":"bees-with-color/bee-A2DM.svg","response":0,"trial_type":"image-button-response","trial_index":144,"time_elapsed":1887867,"internal_node_id":"0.0-6.0-0.4","subject_id":"6116875aaf3dfaa62184910a","study_id":"6197b3f67c2b5cd3b6d9596a","session_id":"6197b9e9ef31578b19b6cc4f","condition":"full-information","relevant_dimensions":["antennae","wings"],"bee_group":{"antennae":"A","wings":"1","pattern":"X","legs":"X"},"bonus":0.6800000000000008},{"rt":14020.90000000596,"stimulus":"bees-with-color/bee-B2SM.svg","response":0,"trial_type":"image-button-response","trial_index":145,"time_elapsed":1901893,"internal_node_id":"0.0-6.0-0.5","subject_id":"6116875aaf3dfaa62184910a","study_id":"6197b3f67c2b5cd3b6d9596a","session_id":"6197b9e9ef31578b19b6cc4f","condition":"full-information","relevant_dimensions":["antennae","wings"],"bee_group":{"antennae":"A","wings":"1","pattern":"X","legs":"X"},"bonus":0.6800000000000008},{"rt":23658.09999999404,"stimulus":"bees-with-color/bee-B2DM.svg","response":1,"trial_type":"image-button-response","trial_index":146,"time_elapsed":1925556,"internal_node_id":"0.0-6.0-0.6","subject_id":"6116875aaf3dfaa62184910a","study_id":"6197b3f67c2b5cd3b6d9596a","session_id":"6197b9e9ef31578b19b6cc4f","condition":"full-information","relevant_dimensions":["antennae","wings"],"bee_group":{"antennae":"A","wings":"1","pattern":"X","legs":"X"},"bonus":0.6800000000000008},{"rt":632.5,"stimulus":"bees-with-color/bee-B2DF.svg","response":1,"trial_type":"image-button-response","trial_index":147,"time_elapsed":1926193,"internal_node_id":"0.0-6.0-0.7","subject_id":"6116875aaf3dfaa62184910a","study_id":"6197b3f67c2b5cd3b6d9596a","session_id":"6197b9e9ef31578b19b6cc4f","condition":"full-information","relevant_dimensions":["antennae","wings"],"bee_group":{"antennae":"A","wings":"1","pattern":"X","legs":"X"},"bonus":0.6800000000000008},{"rt":237,"stimulus":"bees-with-color/bee-A1DF.svg","response":1,"trial_type":"image-button-response","trial_index":148,"time_elapsed":1926433,"internal_node_id":"0.0-6.0-0.8","subject_id":"6116875aaf3dfaa62184910a","study_id":"6197b3f67c2b5cd3b6d9596a","session_id":"6197b9e9ef31578b19b6cc4f","condition":"full-information","relevant_dimensions":["antennae","wings"],"bee_group":{"antennae":"A","wings":"1","pattern":"X","legs":"X"},"bonus":0.6800000000000008},{"rt":188.40000000596046,"stimulus":"bees-with-color/bee-B1SM.svg","response":1,"trial_type":"image-button-response","trial_index":149,"time_elapsed":1926624,"internal_node_id":"0.0-6.0-0.9","subject_id":"6116875aaf3dfaa62184910a","study_id":"6197b3f67c2b5cd3b6d9596a","session_id":"6197b9e9ef31578b19b6cc4f","condition":"full-information","relevant_dimensions":["antennae","wings"],"bee_group":{"antennae":"A","wings":"1","pattern":"X","legs":"X"},"bonus":0.6800000000000008},{"rt":165.69999998807907,"stimulus":"bees-with-color/bee-B2SF.svg","response":1,"trial_type":"image-button-response","trial_index":150,"time_elapsed":1926793,"internal_node_id":"0.0-6.0-0.10","subject_id":"6116875aaf3dfaa62184910a","study_id":"6197b3f67c2b5cd3b6d9596a","session_id":"6197b9e9ef31578b19b6cc4f","condition":"full-information","relevant_dimensions":["antennae","wings"],"bee_group":{"antennae":"A","wings":"1","pattern":"X","legs":"X"},"bonus":0.6800000000000008},{"rt":155.80000001192093,"stimulus":"bees-with-color/bee-A1DM.svg","response":1,"trial_type":"image-button-response","trial_index":151,"time_elapsed":1926953,"internal_node_id":"0.0-6.0-0.11","subject_id":"6116875aaf3dfaa62184910a","study_id":"6197b3f67c2b5cd3b6d9596a","session_id":"6197b9e9ef31578b19b6cc4f","condition":"full-information","relevant_dimensions":["antennae","wings"],"bee_group":{"antennae":"A","wings":"1","pattern":"X","legs":"X"},"bonus":0.6800000000000008},{"rt":141.7000000178814,"stimulus":"bees-with-color/bee-A2SF.svg","response":1,"trial_type":"image-button-response","trial_index":152,"time_elapsed":1927097,"internal_node_id":"0.0-6.0-0.12","subject_id":"6116875aaf3dfaa62184910a","study_id":"6197b3f67c2b5cd3b6d9596a","session_id":"6197b9e9ef31578b19b6cc4f","condition":"full-information","relevant_dimensions":["antennae","wings"],"bee_group":{"antennae":"A","wings":"1","pattern":"X","legs":"X"},"bonus":0.6800000000000008},{"rt":165.09999999403954,"stimulus":"bees-with-color/bee-A2SM.svg","response":1,"trial_type":"image-button-response","trial_index":153,"time_elapsed":1927265,"internal_node_id":"0.0-6.0-0.13","subject_id":"6116875aaf3dfaa62184910a","study_id":"6197b3f67c2b5cd3b6d9596a","session_id":"6197b9e9ef31578b19b6cc4f","condition":"full-information","relevant_dimensions":["antennae","wings"],"bee_group":{"antennae":"A","wings":"1","pattern":"X","legs":"X"},"bonus":0.6800000000000008},{"rt":148.69999998807907,"stimulus":"bees-with-color/bee-B1DF.svg","response":1,"trial_type":"image-button-response","trial_index":154,"time_elapsed":1927417,"internal_node_id":"0.0-6.0-0.14","subject_id":"6116875aaf3dfaa62184910a","study_id":"6197b3f67c2b5cd3b6d9596a","session_id":"6197b9e9ef31578b19b6cc4f","condition":"full-information","relevant_dimensions":["antennae","wings"],"bee_group":{"antennae