[{"success":true,"trial_type":"fullscreen","trial_index":0,"time_elapsed":10978,"internal_node_id":"0.0-0.0","subject_id":"5e85fb52694b68049c112544","study_id":"60edd13110225f80f9f3709b","session_id":"6196c706760b93acd6241d8f","condition":"full-information","relevant_dimensions":["antennae","pattern"],"bee_group":{"antennae":"B","wings":"X","pattern":"S","legs":"X"},"bonus":0},{"success":true,"timeout":false,"failed_images":[],"failed_audio":[],"failed_video":[],"trial_type":"preload","trial_index":1,"time_elapsed":12804,"internal_node_id":"0.0-1.0","subject_id":"5e85fb52694b68049c112544","study_id":"60edd13110225f80f9f3709b","session_id":"6196c706760b93acd6241d8f","condition":"full-information","relevant_dimensions":["antennae","pattern"],"bee_group":{"antennae":"B","wings":"X","pattern":"S","legs":"X"},"bonus":0},{"rt":1516.7000000029802,"stimulus":"Welcome! Press any key to begin.","response":" ","trial_type":"html-keyboard-response","trial_index":2,"time_elapsed":14322,"internal_node_id":"0.0-2.0","subject_id":"5e85fb52694b68049c112544","study_id":"60edd13110225f80f9f3709b","session_id":"6196c706760b93acd6241d8f","condition":"full-information","relevant_dimensions":["antennae","pattern"],"bee_group":{"antennae":"B","wings":"X","pattern":"S","legs":"X"},"bonus":0},{"view_history":[{"page_index":0,"viewing_time":2741.7999999970198},{"page_index":1,"viewing_time":1426},{"page_index":2,"viewing_time":2133.7999999970198},{"page_index":3,"viewing_time":3842.0999999940395},{"page_index":2,"viewing_time":899.8000000119209},{"page_index":1,"viewing_time":656},{"page_index":0,"viewing_time":3240.0999999940395},{"page_index":1,"viewing_time":9021.70000000298},{"page_index":2,"viewing_time":6852.0999999940395},{"page_index":3,"viewing_time":6177.20000000298},{"page_index":4,"viewing_time":8946.79999999702},{"page_index":5,"viewing_time":3456.6000000089407},{"page_index":6,"viewing_time":1520.5999999940395},{"page_index":7,"viewing_time":3470.5999999940395},{"page_index":6,"viewing_time":10549.300000011921},{"page_index":7,"viewing_time":4300.699999988079},{"page_index":8,"viewing_time":3800.2000000029802},{"page_index":9,"viewing_time":2341.7999999970198},{"page_index":10,"viewing_time":1466.2000000029802},{"page_index":11,"viewing_time":5756.9000000059605},{"page_index":10,"viewing_time":822.2000000029802},{"page_index":9,"viewing_time":279},{"page_index":8,"viewing_time":523.8999999910593},{"page_index":7,"viewing_time":3954.9000000059605},{"page_index":8,"viewing_time":995.8999999910593},{"page_index":7,"viewing_time":1263.2000000029802},{"page_index":8,"viewing_time":2504},{"page_index":7,"viewing_time":1512.7999999970198},{"page_index":8,"viewing_time":1588.2000000029802},{"page_index":9,"viewing_time":4749.9000000059605},{"page_index":10,"viewing_time":3045},{"page_index":11,"viewing_time":851.0999999940395},{"page_index":12,"viewing_time":1955.7999999970198},{"page_index":13,"viewing_time":790},{"page_index":14,"viewing_time":2007.1000000089407}],"rt":109443.5,"trial_type":"instructions","trial_index":3,"time_elapsed":123766,"internal_node_id":"0.0-3.0-0.0","subject_id":"5e85fb52694b68049c112544","study_id":"60edd13110225f80f9f3709b","session_id":"6196c706760b93acd6241d8f","condition":"full-information","relevant_dimensions":["antennae","pattern"],"bee_group":{"antennae":"B","wings":"X","pattern":"S","legs":"X"},"bonus":0},{"rt":10858.29999999702,"response":{"Q0":["Two or six legs","Stripes or spots on body","Single or double wings","Antennae or no antennae"]},"question_order":[0],"trial_type":"survey-multi-select","trial_index":4,"time_elapsed":134628,"internal_node_id":"0.0-3.0-1.0","subject_id":"5e85fb52694b68049c112544","study_id":"60edd13110225f80f9f3709b","session_id":"6196c706760b93acd6241d8f","condition":"full-information","relevant_dimensions":["antennae","pattern"],"bee_group":{"antennae":"B","wings":"X","pattern":"S","legs":"X"},"correct":true,"bonus":0},{"rt":18284.79999999702,"response":{"Q1":"No.","Q2":"Based on the four features of the bee.","Q3":"You learn if it was friendly or dangerous, but do not alter your bonus."},"question_order":[0,1,2],"trial_type":"survey-multi-choice","trial_index":5,"time_elapsed":152917,"internal_node_id":"0.0-3.0-2.0","subject_id":"5e85fb52694b68049c112544","study_id":"60edd13110225f80f9f3709b","session_id":"6196c706760b93acd6241d8f","condition":"full-information","relevant_dimensions":["antennae","pattern"],"bee_group":{"antennae":"B","wings":"X","pattern":"S","legs":"X"},"correct":true,"bonus":0},{"rt":2557.2000000029802,"stimulus":"<p>Congrats, you got everything right<br>When you're ready, click the button below to continue to the experiment.</p>","response":0,"trial_type":"html-button-response","trial_index":6,"time_elapsed":155478,"internal_node_id":"0.0-3.0-3.0","subject_id":"5e85fb52694b68049c112544","study_id":"60edd13110225f80f9f3709b","session_id":"6196c706760b93acd6241d8f","condition":"full-information","relevant_dimensions":["antennae","pattern"],"bee_group":{"antennae":"B","wings":"X","pattern":"S","legs":"X"},"bonus":0},{"rt":9020.300000011921,"stimulus":"bees-with-color/bee-A2DF.svg","response":1,"trial_type":"image-button-response","trial_index":7,"time_elapsed":164499,"internal_node_id":"0.0-4.0-0.0","subject_id":"5e85fb52694b68049c112544","study_id":"60edd13110225f80f9f3709b","session_id":"6196c706760b93acd6241d8f","condition":"full-information","relevant_dimensions":["antennae","pattern"],"bee_group":{"antennae":"B","wings":"X","pattern":"S","legs":"X"},"action":"avoid","summary":"bad-avoid","bonus":0},{"rt":7133.899999991059,"stimulus":"\n                    <p><b>Action: <em>avoid</em></b></p>\n                    <p>This is the bee that you just saw.</p>\n                    <img src=\"bees-with-color/bee-A2DF.svg\" width=\"200\">\n                    <p><span class=\"redText\">Bad choice,</span> the bee was friendly.<br>Your bonus pay is unchanged, and remains at $0.54.</p>\n            ","response":0,"trial_type":"html-button-response","trial_index":8,"time_elapsed":171635,"internal_node_id":"0.0-4.0-1.0","subject_id":"5e85fb52694b68049c112544","study_id":"60edd13110225f80f9f3709b","session_id":"6196c706760b93acd6241d8f","condition":"full-information","relevant_dimensions":["antennae","pattern"],"bee_group":{"antennae":"B","wings":"X","pattern":"S","legs":"X"},"bonus":0},{"rt":3445.2000000029802,"stimulus":"bees-with-color/bee-A2SM.svg","response":0,"trial_type":"image-button-response","trial_index":9,"time_elapsed":175082,"internal_node_id":"0.0-4.0-0.1","subject_id":"5e85fb52694b68049c112544","study_id":"60edd13110225f80f9f3709b","session_id":"6196c706760b93acd6241d8f","condition":"full-information","relevant_dimensions":["antennae","pattern"],"bee_group":{"antennae":"B","wings":"X","pattern":"S","legs":"X"},"action":"harvest","summary":"good-harvest","bonus":0},{"rt":7051.600000008941,"stimulus":"\n                    <p><b>Action: <em>harvest</em></b></p>\n                    <p>This is the bee that you just saw.</p>\n                    <img src=\"bees-with-color/bee-A2SM.svg\" width=\"200\">\n                    <p><span class=\"greenText\"><b>Successful harvest!</b></span><br>Your pay has increased by $0.02. Your bonus pay is now $0.56.</p>\n            ","response":0,"trial_type":"html-button-response","trial_index":10,"time_elapsed":182135,"internal_node_id":"0.0-4.0-1.1","subject_id":"5e85fb52694b68049c112544","study_id":"60edd13110225f80f9f3709b","session_id":"6196c706760b93acd6241d8f","condition":"full-information","relevant_dimensions":["antennae","pattern"],"bee_group":{"antennae":"B","wings":"X","pattern":"S","legs":"X"},"bonus":0},{"rt":1505.0999999940395,"stimulus":"bees-with-color/bee-A1SM.svg","response":1,"trial_type":"image-button-response","trial_index":11,"time_elapsed":183642,"internal_node_id":"0.0-4.0-0.2","subject_id":"5e85fb52694b68049c112544","study_id":"60edd13110225f80f9f3709b","session_id":"6196c706760b93acd6241d8f","condition":"full-information","relevant_dimensions":["antennae","pattern"],"bee_group":{"antennae":"B","wings":"X","pattern":"S","legs":"X"},"action":"avoid","summary":"bad-avoid","bonus":0},{"rt":3074.0999999940395,"stimulus":"\n                    <p><b>Action: <em>avoid</em></b></p>\n                    <p>This is the bee that you just saw.</p>\n                    <img src=\"bees-with-color/bee-A1SM.svg\" width=\"200\">\n                    <p><span class=\"redText\">Bad choice,</span> the bee was friendly.<br>Your bonus pay is unchanged, and remains at $0.56.</p>\n            ","response":0,"trial_type":"html-button-response","trial_index":12,"time_elapsed":186717,"internal_node_id":"0.0-4.0-1.2","subject_id":"5e85fb52694b68049c112544","study_id":"60edd13110225f80f9f3709b","session_id":"6196c706760b93acd6241d8f","condition":"full-information","relevant_dimensions":["antennae","pattern"],"bee_group":{"antennae":"B","wings":"X","pattern":"S","legs":"X"},"bonus":0},{"rt":1578,"stimulus":"bees-with-color/bee-A2SF.svg","response":1,"trial_type":"image-button-response","trial_index":13,"time_elapsed":188296,"internal_node_id":"0.0-4.0-0.3","subject_id":"5e85fb52694b68049c112544","study_id":"60edd13110225f80f9f3709b","session_id":"6196c706760b93acd6241d8f","condition":"full-information","relevant_dimensions":["antennae","pattern"],"bee_group":{"antennae":"B","wings":"X","pattern":"S","legs":"X"},"action":"avoid","summary":"bad-avoid","bonus":0},{"rt":1948.7999999970198,"stimulus":"\n                    <p><b>Action: <em>avoid</em></b></p>\n                    <p>This is the bee that you just saw.</p>\n                    <img src=\"bees-with-color/bee-A2SF.svg\" width=\"200\">\n                    <p><span class=\"redText\">Bad choice,</span> the bee was friendly.<br>Your bonus pay is unchanged, and remains at $0.56.</p>\n            ","response":0,"trial_type":"html-button-response","trial_index":14,"time_elapsed":190246,"internal_node_id":"0.0-4.0-1.3","subject_id":"5e85fb52694b68049c112544","study_id":"60edd13110225f80f9f3709b","session_id":"6196c706760b93acd6241d8f","condition":"full-information","relevant_dimensions":["antennae","pattern"],"bee_group":{"antennae":"B","wings":"X","pattern":"S","legs":"X"},"bonus":0},{"rt":935.4000000059605,"stimulus":"bees-with-color/bee-A1SF.svg","response":1,"trial_type":"image-button-response","trial_index":15,"time_elapsed":191183,"internal_node_id":"0.0-4.0-0.4","subject_id":"5e85fb52694b68049c112544","study_id":"60edd13110225f80f9f3709b","session_id":"6196c706760b93acd6241d8f","condition":"full-information","relevant_dimensions":["antennae","pattern"],"bee_group":{"antennae":"B","wings":"X","pattern":"S","legs":"X"},"action":"avoid","summary":"bad-avoid","bonus":0},{"rt":1676.7999999970198,"stimulus":"\n                    <p><b>Action: <em>avoid</em></b></p>\n                    <p>This is the bee that you just saw.</p>\n                    <img src=\"bees-with-color/bee-A1SF.svg\" width=\"200\">\n                    <p><span class=\"redText\">Bad choice,</span> the bee was friendly.<br>Your bonus pay is unchanged, and remains at $0.56.</p>\n            ","response":0,"trial_type":"html-button-response","trial_index":16,"time_elapsed":192861,"internal_node_id":"0.0-4.0-1.4","subject_id":"5e85fb52694b68049c112544","study_id":"60edd13110225f80f9f3709b","session_id":"6196c706760b93acd6241d8f","condition":"full-information","relevant_dimensions":["antennae","pattern"],"bee_group":{"antennae":"B","wings":"X","pattern":"S","legs":"X"},"bonus":0},{"rt":818,"stimulus":"bees-with-color/bee-A1DF.svg","response":1,"trial_type":"image-button-response","trial_index":17,"time_elapsed":193680,"internal_node_id":"0.0-4.0-0.5","subject_id":"5e85fb52694b68049c112544","study_id":"60edd13110225f80f9f3709b","session_id":"6196c706760b93acd6241d8f","condition":"full-information","relevant_dimensions":["antennae","pattern"],"bee_group":{"antennae":"B","wings":"X","pattern":"S","legs":"X"},"action":"avoid","summary":"bad-avoid","bonus":0},{"rt":2076.800000011921,"stimulus":"\n                    <p><b>Action: <em>avoid</em></b></p>\n                    <p>This is the bee that you just saw.</p>\n                    <img src=\"bees-with-color/bee-A1DF.svg\" width=\"200\">\n                    <p><span class=\"redText\">Bad choice,</span> the bee was friendly.<br>Your bonus pay is unchanged, and remains at $0.56.</p>\n            ","response":0,"trial_type":"html-button-response","trial_index":18,"time_elapsed":195758,"internal_node_id":"0.0-4.0-1.5","subject_id":"5e85fb52694b68049c112544","study_id":"60edd13110225f80f9f3709b","session_id":"6196c706760b93acd6241d8f","condition":"full-information","relevant_dimensions":["antennae","pattern"],"bee_group":{"antennae":"B","wings":"X","pattern":"S","legs":"X"},"bonus":0},{"rt":2864.9000000059605,"stimulus":"bees-with-color/bee-B2SF.svg","response":1,"trial_type":"image-button-response","trial_index":19,"time_elapsed":198624,"internal_node_id":"0.0-4.0-0.6","subject_id":"5e85fb52694b68049c112544","study_id":"60edd13110225f80f9f3709b","session_id":"6196c706760b93acd6241d8f","condition":"full-information","relevant_dimensions":["antennae","pattern"],"bee_group":{"antennae":"B","wings":"X","pattern":"S","legs":"X"},"action":"avoid","summary":"good-avoid","bonus":0},{"rt":3815.2999999970198,"stimulus":"\n                    <p><b>Action: <em>avoid</em></b></p>\n                    <p>This is the bee that you just saw.</p>\n                    <img src=\"bees-with-color/bee-B2SF.svg\" width=\"200\">\n                    <p><span class=\"greenText\">Good choice!</span>  This bee would have stung you.<br>Your bonus pay is unchanged, and remains at $0.56.</p>\n            ","response":0,"trial_type":"html-button-response","trial_index":20,"time_elapsed":202440,"internal_node_id":"0.0-4.0-1.6","subject_id":"5e85fb52694b68049c112544","study_id":"60edd13110225f80f9f3709b","session_id":"6196c706760b93acd6241d8f","condition":"full-information","relevant_dimensions":["antennae","pattern"],"bee_group":{"antennae":"B","wings":"X","pattern":"S","legs":"X"},"bonus":0},{"rt":1420.5999999940395,"stimulus":"bees-with-color/bee-B1SM.svg","response":1,"trial_type":"image-button-response","trial_index":21,"time_elapsed":203862,"internal_node_id":"0.0-4.0-0.7","subject_id":"5e85fb52694b68049c112544","study_id":"60edd13110225f80f9f3709b","session_id":"6196c706760b93acd6241d8f","condition":"full-information","relevant_dimensions":["antennae","pattern"],"bee_group":{"antennae":"B","wings":"X","pattern":"S","legs":"X"},"action":"avoid","summary":"good-avoid","bonus":0},{"rt":683.2000000029802,"stimulus":"\n                    <p><b>Action: <em>avoid</em></b></p>\n                    <p>This is the bee that you just saw.</p>\n                    <img src=\"bees-with-color/bee-B1SM.svg\" width=\"200\">\n                    <p><span class=\"greenText\">Good choice!</span>  This bee would have stung you.<br>Your bonus pay is unchanged, and remains at $0.56.</p>\n            ","response":0,"trial_type":"html-button-response","trial_index":22,"time_elapsed":204546,"internal_node_id":"0.0-4.0-1.7","subject_id":"5e85fb52694b68049c112544","study_id":"60edd13110225f80f9f3709b","session_id":"6196c706760b93acd6241d8f","condition":"full-information","relevant_dimensions":["antennae","pattern"],"bee_group":{"antennae":"B","wings":"X","pattern":"S","legs":"X"},"bonus":0},{"rt":5150.399999991059,"stimulus":"bees-with-color/bee-B2DM.svg","response":0,"trial_type":"image-button-response","trial_index":23,"time_elapsed":209697,"internal_node_id":"0.0-4.0-0.8","subject_id":"5e85fb52694b68049c112544","study_id":"60edd13110225f80f9f3709b","session_id":"6196c706760b93acd6241d8f","condition":"full-information","relevant_dimensions":["antennae","pattern"],"bee_group":{"antennae":"B","wings":"X","pattern":"S","legs":"X"},"action":"harvest","summary":"good-harvest","bonus":0},{"rt":2788.2999999970198,"stimulus":"\n                    <p><b>Action: <em>harvest</em></b></p>\n                    <p>This is the bee that you just saw.</p>\n                    <img src=\"bees-with-color/bee-B2DM.svg\" width=\"200\">\n                    <p><span class=\"greenText\"><b>Successful harvest!</b></span><br>Your pay has increased by $0.02. Your bonus pay is now $0.58.</p>\n            ","response":0,"trial_type":"html-button-response","trial_index":24,"time_elapsed":212487,"internal_node_id":"0.0-4.0-1.8","subject_id":"5e85fb52694b68049c112544","study_id":"60edd13110225f80f9f3709b","session_id":"6196c706760b93acd6241d8f","condition":"full-information","relevant_dimensions":["antennae","pattern"],"bee_group":{"antennae":"B","wings":"X","pattern":"S","legs":"X"},"bonus":0},{"rt":3915,"stimulus":"bees-with-color/bee-A2DM.svg","response":1,"trial_type":"image-button-response","trial_index":25,"time_elapsed":216403,"internal_node_id":"0.0-4.0-0.9","subject_id":"5e85fb52694b68049c112544","study_id":"60edd13110225f80f9f3709b","session_id":"6196c706760b93acd6241d8f","condition":"full-information","relevant_dimensions":["antennae","pattern"],"bee_group":{"antennae":"B","wings":"X","pattern":"S","legs":"X"},"action":"avoid","summary":"bad-avoid","bonus":0},{"rt":2876.9000000059605,"stimulus":"\n                    <p><b>Action: <em>avoid</em></b></p>\n                    <p>This is the bee that you just saw.</p>\n                    <img src=\"bees-with-color/bee-A2DM.svg\" width=\"200\">\n                    <p><span class=\"redText\">Bad choice,</span> the bee was friendly.<br>Your bonus pay is unchanged, and remains at $0.58.</p>\n            ","response":0,"trial_type":"html-button-response","trial_index":26,"time_elapsed":219281,"internal_node_id":"0.0-4.0-1.9","subject_id":"5e85fb52694b68049c112544","study_id":"60edd13110225f80f9f3709b","session_id":"6196c706760b93acd6241d8f","condition":"full-information","relevant_dimensions":["antennae","pattern"],"bee_group":{"antennae":"B","wings":"X","pattern":"S","legs":"X"},"bonus":0},{"rt":2727.7000000029802,"stimulus":"bees-with-color/bee-B1DF.svg","response":0,"trial_type":"image-button-response","trial_index":27,"time_elapsed":222010,"internal_node_id":"0.0-4.0-0.10","subject_id":"5e85fb52694b68049c112544","study_id":"60edd13110225f80f9f3709b","session_id":"6196c706760b93acd6241d8f","condition":"full-information","relevant_dimensions":["antennae","pattern"],"bee_group":{"antennae":"B","wings":"X","pattern":"S","legs":"X"},"action":"harvest","summary":"good-harvest","bonus":0},{"rt":2088.7000000029802,"stimulus":"\n                    <p><b>Action: <em>harvest</em></b></p>\n                    <p>This is the bee that you just saw.</p>\n                    <img src=\"bees-with-color/bee-B1DF.svg\" width=\"200\">\n                    <p><span class=\"greenText\"><b>Successful harvest!</b></span><br>Your pay has increased by $0.02. Your bonus pay is now $0.60.</p>\n            ","response":0,"trial_type":"html-button-response","trial_index":28,"time_elapsed":224100,"internal_node_id":"0.0-4.0-1.10","subject_id":"5e85fb52694b68049c112544","study_id":"60edd13110225f80f9f3709b","session_id":"6196c706760b93acd6241d8f","condition":"full-information","relevant_dimensions":["antennae","pattern"],"bee_group":{"antennae":"B","wings":"X","pattern":"S","legs":"X"},"bonus":0},{"rt":2420.8999999910593,"stimulus":"bees-with-color/bee-B2DF.svg","response":1,"trial_type":"image-button-response","trial_index":29,"time_elapsed":226521,"internal_node_id":"0.0-4.0-0.11","subject_id":"5e85fb52694b68049c112544","study_id":"60edd13110225f80f9f3709b","session_id":"6196c706760b93acd6241d8f","condition":"full-information","relevant_dimensions":["antennae","pattern"],"bee_group":{"antennae":"B","wings":"X","pattern":"S","legs":"X"},"action":"avoid","summary":"bad-avoid","bonus":0},{"rt":3432,"stimulus":"\n                    <p><b>Action: <em>avoid</em></b></p>\n                    <p>This is the bee that you just saw.</p>\n                    <img src=\"bees-with-color/bee-B2DF.svg\" width=\"200\">\n                    <p><span class=\"redText\">Bad choice,</span> the bee was friendly.<br>Your bonus pay is unchanged, and remains at $0.60.</p>\n            ","response":0,"trial_type":"html-button-response","trial_index":30,"time_elapsed":229954,"internal_node_id":"0.0-4.0-1.11","subject_id":"5e85fb52694b68049c112544","study_id":"60edd13110225f80f9f3709b","session_id":"6196c706760b93acd6241d8f","condition":"full-information","relevant_dimensions":["antennae","pattern"],"bee_group":{"antennae":"B","wings":"X","pattern":"S","legs":"X"},"bonus":0},{"rt":5390.0999999940395,"stimulus":"bees-with-color/bee-B2SM.svg","response":0,"trial_type":"image-button-response","trial_index":31,"time_elapsed":235345,"internal_node_id":"0.0-4.0-0.12","subject_id":"5e85fb52694b68049c112544","study_id":"60edd13110225f80f9f3709b","session_id":"6196c706760b93acd6241d8f","condition":"full-information","relevant_dimensions":["antennae","pattern"],"bee_group":{"antennae":"B","wings":"X","pattern":"S","legs":"X"},"action":"harvest","summary":"bad-harvest","bonus":0},{"rt":1965.2999999970198,"stimulus":"\n                    <p><b>Action: <em>harvest</em></b></p>\n                    <p>This is the bee that you just saw.</p>\n                    <img src=\"bees-with-color/bee-B2SM.svg\" width=\"200\">\n                    <p><span class=\"redText\">Bad choice, the bee was angry.</span><br><b>You have been stung!</b><br>Your pay has been decreased by $0.10. Your bonus pay is now $0.50.</p>\n            ","response":0,"trial_type":"html-button-response","trial_index":32,"time_elapsed":237311,"internal_node_id":"0.0-4.0-1.12","subject_id":"5e85fb52694b68049c112544","study_id":"60edd13110225f80f9f3709b","session_id":"6196c706760b93acd6241d8f","condition":"full-information","relevant_dimensions":["antennae","pattern"],"bee_group":{"antennae":"B","wings":"X","pattern":"S","legs":"X"},"bonus":0},{"rt":1493.5,"stimulus":"bees-with-color/bee-B1DM.svg","response":1,"trial_type":"image-button-response","trial_index":33,"time_elapsed":238806,"internal_node_id":"0.0-4.0-0.13","subject_id":"5e85fb52694b68049c112544","study_id":"60edd13110225f80f9f3709b","session_id":"6196c706760b93acd6241d8f","condition":"full-information","relevant_dimensions":["antennae","pattern"],"bee_group":{"antennae":"B","wings":"X","pattern":"S","legs":"X"},"action":"avoid","summary":"bad-avoid","bonus":0},{"rt":843.8999999910593,"stimulus":"\n                    <p><b>Action: <em>avoid</em></b></p>\n                    <p>This is the bee that you just saw.</p>\n                    <img src=\"bees-with-color/bee-B1DM.svg\" width=\"200\">\n                    <p><span class=\"redText\">Bad choice,</span> the bee was friendly.<br>Your bonus pay is unchanged, and remains at $0.50.</p>\n            ","response":0,"trial_type":"html-button-response","trial_index":34,"time_elapsed":239651,"internal_node_id":"0.0-4.0-1.13","subject_id":"5e85fb52694b68049c112544","study_id":"60edd13110225f80f9f3709b","session_id":"6196c706760b93acd6241d8f","condition":"full-information","relevant_dimensions":["antennae","pattern"],"bee_group":{"antennae":"B","wings":"X","pattern":"S","legs":"X"},"bonus":0},{"rt":1136.2000000029802,"stimulus":"bees-with-color/bee-B1SF.svg","response":0,"trial_type":"image-button-response","trial_index":35,"time_elapsed":240788,"internal_node_id":"0.0-4.0-0.14","subject_id":"5e85fb52694b68049c112544","study_id":"60edd13110225f80f9f3709b","session_id":"6196c706760b93acd6241d8f","condition":"full-information","relevant_dimensions":["antennae","pattern"],"bee_group":{"antennae":"B","wings":"X","pattern":"S","legs":"X"},"action":"harvest","summary":"bad-harvest","bonus":0},{"rt":963.6999999880791,"stimulus":"\n                    <p><b>Action: <em>harvest</em></b></p>\n                    <p>This is the bee that you just saw.</p>\n                    <img src=\"bees-with-color/bee-B1SF.svg\" width=\"200\">\n                    <p><span class=\"redText\">Bad choice, the bee was angry.</span><br><b>You have been stung!</b><br>Your pay has been decreased by $0.10. Your bonus pay is now $0.40.</p>\n            ","response":0,"trial_type":"html-button-response","trial_index":36,"time_elapsed":241753,"internal_node_id":"0.0-4.0-1.14","subject_id":"5e85fb52694b68049c112544","study_id":"60edd13110225f80f9f3709b","session_id":"6196c706760b93acd6241d8f","condition":"full-information","relevant_dimensions":["antennae","pattern"],"bee_group":{"antennae":"B","wings":"X","pattern":"S","legs":"X"},"bonus":0},{"rt":434.40000000596046,"stimulus":"bees-with-color/bee-A1DM.svg","response":1,"trial_type":"image-button-response","trial_index":37,"time_elapsed":242188,"internal_node_id":"0.0-4.0-0.15","subject_id":"5e85fb52694b68049c112544","study_id":"60edd13110225f80f9f3709b","session_id":"6196c706760b93acd6241d8f","condition":"full-information","relevant_dimensions":["antennae","pattern"],"bee_group":{"antennae":"B","wings":"X","pattern":"S","legs":"X"},"action":"avoid","summary":"bad-avoid","bonus":0},{"rt":1369.2999999970198,"stimulus":"\n                    <p><b>Action: <em>avoid</em></b></p>\n                    <p>This is the bee that you just saw.</p>\n                    <img src=\"bees-with-color/bee-A1DM.svg\" width=\"200\">\n                    <p><span class=\"redText\">Bad choice,</span> the bee was friendly.<br>Your bonus pay is unchanged, and remains at $0.40.</p>\n            ","response":0,"trial_type":"html-button-response","trial_index":38,"time_elapsed":243558,"internal_node_id":"0.0-4.0-1.15","subject_id":"5e85fb52694b68049c112544","study_id":"60edd13110225f80f9f3709b","session_id":"6196c706760b93acd6241d8f","condition":"full-information","relevant_dimensions":["antennae","pattern"],"bee_group":{"antennae":"B","wings":"X","pattern":"S","legs":"X"},"bonus":0},{"rt":1214.7000000029802,"stimulus":"bees-with-color/bee-B2SF.svg","response":0,"trial_type":"image-button-response","trial_index":39,"time_elapsed":244774,"internal_node_id":"0.0-4.0-0.16","subject_id":"5e85fb52694b68049c112544","study_id":"60edd13110225f80f9f3709b","session_id":"6196c706760b93acd6241d8f","condition":"full-information","relevant_dimensions":["antennae","pattern"],"bee_group":{"antennae":"B","wings":"X","pattern":"S","legs":"X"},"action":"harvest","summary":"bad-harvest","bonus":0},{"rt":934.0999999940395,"stimulus":"\n                    <p><b>Action: <em>harvest</em></b></p>\n                    <p>This is the bee that you just saw.</p>\n                    <img src=\"bees-with-color/bee-B2SF.svg\" width=\"200\">\n                    <p><span class=\"redText\">Bad choice, the bee was angry.</span><br><b>You have been stung!</b><br>Your pay has been decreased by $0.10. Your bonus pay is now $0.30.</p>\n            ","response":0,"trial_type":"html-button-response","trial_index":40,"time_elapsed":245709,"internal_node_id":"0.0-4.0-1.16","subject_id":"5e85fb52694b68049c112544","study_id":"60edd13110225f80f9f3709b","session_id":"6196c706760b93acd6241d8f","condition":"full-information","relevant_dimensions":["antennae","pattern"],"bee_group":{"antennae":"B","wings":"X","pattern":"S","legs":"X"},"bonus":0},{"rt":2771.7000000029802,"stimulus":"bees-with-color/bee-B1SF.svg","response":0,"trial_type":"image-button-response","trial_index":41,"time_elapsed":248481,"internal_node_id":"0.0-4.0-0.17","subject_id":"5e85fb52694b68049c112544","study_id":"60edd13110225f80f9f3709b","session_id":"6196c706760b93acd6241d8f","condition":"full-information","relevant_dimensions":["antennae","pattern"],"bee_group":{"antennae":"B","wings":"X","pattern":"S","legs":"X"},"action":"harvest","summary":"bad-harvest","bonus":0},{"rt":876.5,"stimulus":"\n                    <p><b>Action: <em>harvest</em></b></p>\n                    <p>This is the bee that you just saw.</p>\n                    <img src=\"bees-with-color/bee-B1SF.svg\" width=\"200\">\n                    <p><span class=\"redText\">Bad choice, the bee was angry.</span><br><b>You have been stung!</b><br>Your pay has been decreased by $0.10. Your bonus pay is now $0.20.</p>\n            ","response":0,"trial_type":"html-button-response","trial_index":42,"time_elapsed":249359,"internal_node_id":"0.0-4.0-1.17","subject_id":"5e85fb52694b68049c112544","study_id":"60edd13110225f80f9f3709b","session_id":"6196c706760b93acd6241d8f","condition":"full-information","relevant_dimensions":["antennae","pattern"],"bee_group":{"antennae":"B","wings":"X","pattern":"S","legs":"X"},"bonus":0},{"rt":1240.2000000029802,"stimulus":"bees-with-color/bee-A2SF.svg","response":1,"trial_type":"image-button-response","trial_index":43,"time_elapsed":250600,"internal_node_id":"0.0-4.0-0.18","subject_id":"5e85fb52694b68049c112544","study_id":"60edd13110225f80f9f3709b","session_id":"6196c706760b93acd6241d8f","condition":"full-information","relevant_dimensions":["antennae","pattern"],"bee_group":{"antennae":"B","wings":"X","pattern":"S","legs":"X"},"action":"avoid","summary":"bad-avoid","bonus":0},{"rt":1829,"stimulus":"\n                    <p><b>Action: <em>avoid</em></b></p>\n                    <p>This is the bee that you just saw.</p>\n                    <img src=\"bees-with-color/bee-A2SF.svg\" width=\"200\">\n                    <p><span class=\"redText\">Bad choice,</span> the bee was friendly.<br>Your bonus pay is unchanged, and remains at $0.20.</p>\n            ","response":0,"trial_type":"html-button-response","trial_index":44,"time_elapsed":252430,"internal_node_id":"0.0-4.0-1.18","subject_id":"5e85fb52694b68049c112544","study_id":"60edd13110225f80f9f3709b","session_id":"6196c706760b93acd6241d8f","condition":"full-information","relevant_dimensions":["antennae","pattern"],"bee_group":{"antennae":"B","wings":"X","pattern":"S","legs":"X"},"bonus":0},{"rt":1930.7000000029802,"stimulus":"bees-with-color/bee-B1DM.svg","response":0,"trial_type":"image-button-response","trial_index":45,"time_elapsed":254362,"internal_node_id":"0.0-4.0-0.19","subject_id":"5e85fb52694b68049c112544","study_id":"60edd13110225f80f9f3709b","session_id":"6196c706760b93acd6241d8f","condition":"full-information","relevant_dimensions":["antennae","pattern"],"bee_group":{"antennae":"B","wings":"X","pattern":"S","legs":"X"},"action":"harvest","summary":"good-harvest","bonus":0},{"rt":894.8000000119209,"stimulus":"\n                    <p><b>Action: <em>harvest</em></b></p>\n                    <p>This is the bee that you just saw.</p>\n                    <img src=\"bees-with-color/bee-B1DM.svg\" width=\"200\">\n                    <p><span class=\"greenText\"><b>Successful harvest!</b></span><br>Your pay has increased by $0.02. Your bonus pay is now $0.22.</p>\n            ","response":0,"trial_type":"html-button-response","trial_index":46,"time_elapsed":255258,"internal_node_id":"0.0-4.0-1.19","subject_id":"5e85fb52694b68049c112544","study_id":"60edd13110225f80f9f3709b","session_id":"6196c706760b93acd6241d8f","condition":"full-information","relevant_dimensions":["antennae","pattern"],"bee_group":{"antennae":"B","wings":"X","pattern":"S","legs":"X"},"bonus":0},{"rt":3125.9000000059605,"stimulus":"bees-with-color/bee-B2DF.svg","response":0,"trial_type":"image-button-response","trial_index":47,"time_elapsed":258385,"internal_node_id":"0.0-4.0-0.20","subject_id":"5e85fb52694b68049c112544","study_id":"60edd13110225f80f9f3709b","session_id":"6196c706760b93acd6241d8f","condition":"full-information","relevant_dimensions":["antennae","pattern"],"bee_group":{"antennae":"B","wings":"X","pattern":"S","legs":"X"},"action":"harvest","summary":"good-harvest","bonus":0},{"rt":953.7000000029802,"stimulus":"\n                    <p><b>Action: <em>harvest</em></b></p>\n                    <p>This is the bee that you just saw.</p>\n                    <img src=\"bees-with-color/bee-B2DF.svg\" width=\"200\">\n                    <p><span class=\"greenText\"><b>Successful harvest!</b></span><br>Your pay has increased by $0.02. Your bonus pay is now $0.24.</p>\n            ","response":0,"trial_type":"html-button-response","trial_index":48,"time_elapsed":259340,"internal_node_id":"0.0-4.0-1.20","subject_id":"5e85fb52694b68049c112544","study_id":"60edd13110225f80f9f3709b","session_id":"6196c706760b93acd6241d8f","condition":"full-information","relevant_dimensions":["antennae","pattern"],"bee_group":{"antennae":"B","wings":"X","pattern":"S","legs":"X"},"bonus":0},{"rt":1536.7999999970198,"stimulus":"bees-with-color/bee-A2DF.svg","response":0,"trial_type":"image-button-response","trial_index":49,"time_elapsed":260878,"internal_node_id":"0.0-4.0-0.21","subject_id":"5e85fb52694b68049c112544","study_id":"60edd13110225f80f9f3709b","session_id":"6196c706760b93acd6241d8f","condition":"full-information","relevant_dimensions":["antennae","pattern"],"bee_group":{"antennae":"B","wings":"X","pattern":"S","legs":"X"},"action":"harvest","summary":"good-harvest","bonus":0},{"rt":572.4000000059605,"stimulus":"\n                    <p><b>Action: <em>harvest</em></b></p>\n                    <p>This is the bee that you just saw.</p>\n                    <img src=\"bees-with-color/bee-A2DF.svg\" width=\"200\">\n                    <p><span class=\"greenText\"><b>Successful harvest!</b></span><br>Your pay has increased by $0.02. Your bonus pay is now $0.26.</p>\n            ","response":0,"trial_type":"html-button-response","trial_index":50,"time_elapsed":261452,"internal_node_id":"0.0-4.0-1.21","subject_id":"5e85fb52694b68049c112544","study_id":"60edd13110225f80f9f3709b","session_id":"6196c706760b93acd6241d8f","condition":"full-information","relevant_dimensions":["antennae","pattern"],"bee_group":{"antennae":"B","wings":"X","pattern":"S","legs":"X"},"bonus":0},{"rt":970,"stimulus":"bees-with-color/bee-A2SM.svg","response":1,"trial_type":"image-button-response","trial_index":51,"time_elapsed":262423,"internal_node_id":"0.0-4.0-0.22","subject_id":"5e85fb52694b68049c112544","study_id":"60edd13110225f80f9f3709b","session_id":"6196c706760b93acd6241d8f","condition":"full-information","relevant_dimensions":["antennae","pattern"],"bee_group":{"antennae":"B","wings":"X","pattern":"S","legs":"X"},"action":"avoid","summary":"bad-avoid","bonus":0},{"rt":670.2000000029802,"stimulus":"\n                    <p><b>Action: <em>avoid</em></b></p>\n                    <p>This is the bee that you just saw.</p>\n                    <img src=\"bees-with-color/bee-A2SM.svg\" width=\"200\">\n                    <p><span class=\"redText\">Bad choice,</span> the bee was friendly.<br>Your bonus pay is unchanged, and remains at $0.26.</p>\n            ","response":0,"trial_type":"html-button-response","trial_index":52,"time_elapsed":263094,"internal_node_id":"0.0-4.0-1.22","subject_id":"5e85fb52694b68049c112544","study_id":"60edd13110225f80f9f3709b","session_id":"6196c706760b93acd6241d8f","condition":"full-information","relevant_dimensions":["antennae","pattern"],"bee_group":{"antennae":"B","wings":"X","pattern":"S","legs":"X"},"bonus":0},{"rt":2488.8999999910593,"stimulus":"bees-with-color/bee-A1SF.svg","response":1,"trial_type":"image-button-response","trial_index":53,"time_elapsed":265584,"internal_node_id":"0.0-4.0-0.23","subject_id":"5e85fb52694b68049c112544","study_id":"60edd13110225f80f9f3709b","session_id":"6196c706760b93acd6241d8f","condition":"full-information","relevant_dimensions":["antennae","pattern"],"bee_group":{"antennae":"B","wings":"X","pattern":"S","legs":"X"},"action":"avoid","summary":"bad-avoid","bonus":0},{"rt":814.5999999940395,"stimulus":"\n                    <p><b>Action: <em>avoid</em></b></p>\n                    <p>This is the bee that you just saw.</p>\n                    <img src=\"bees-with-color/bee-A1SF.svg\" width=\"200\">\n                    <p><span class=\"redText\">Bad choice,</span> the bee was friendly.<br>Your bonus pay is unchanged, and remains at $0.26.</p>\n            ","response":0,"trial_type":"html-button-response","trial_index":54,"time_elapsed":266399,"internal_node_id":"0.0-4.0-1.23","subject_id":"5e85fb52694b68049c112544","study_id":"60edd13110225f80f9f3709b","session_id":"6196c706760b93acd6241d8f","condition":"full-information","relevant_dimensions":["antennae","pattern"],"bee_group":{"antennae":"B","wings":"X","pattern":"S","legs":"X"},"bonus":0},{"rt":2875.5999999940395,"stimulus":"bees-with-color/bee-B1SM.svg","response":0,"trial_type":"image-button-response","trial_index":55,"time_elapsed":269276,"internal_node_id":"0.0-4.0-0.24","subject_id":"5e85fb52694b68049c112544","study_id":"60edd13110225f80f9f3709b","session_id":"6196c706760b93acd6241d8f","condition":"full-information","relevant_dimensions":["antennae","pattern"],"bee_group":{"antennae":"B","wings":"X","pattern":"S","legs":"X"},"action":"harvest","summary":"bad-harvest","bonus":0},{"rt":1136.5999999940395,"stimulus":"\n                    <p><b>Action: <em>harvest</em></b></p>\n                    <p>This is the bee that you just saw.</p>\n                    <img src=\"bees-with-color/bee-B1SM.svg\" width=\"200\">\n                    <p><span class=\"redText\">Bad choice, the bee was angry.</span><br><b>You have been stung!</b><br>Your pay has been decreased by $0.10. Your bonus pay is now $0.16.</p>\n            ","response":0,"trial_type":"html-button-response","trial_index":56,"time_elapsed":270413,"internal_node_id":"0.0-4.0-1.24","subject_id":"5e85fb52694b68049c112544","study_id":"60edd13110225f80f9f3709b","session_id":"6196c706760b93acd6241d8f","condition":"full-information","relevant_dimensions":["antennae","pattern"],"bee_group":{"antennae":"B","wings":"X","pattern":"S","legs":"X"},"bonus":0},{"rt":570.5,"stimulus":"bees-with-color/bee-A2DM.svg","response":1,"trial_type":"image-button-response","trial_index":57,"time_elapsed":270985,"internal_node_id":"0.0-4.0-0.25","subject_id":"5e85fb52694b68049c112544","study_id":"60edd13110225f80f9f3709b","session_id":"6196c706760b93acd6241d8f","condition":"full-information","relevant_dimensions":["antennae","pattern"],"bee_group":{"antennae":"B","wings":"X","pattern":"S","legs":"X"},"action":"avoid","summary":"bad-avoid","bonus":0},{"rt":44731.70000000298,"stimulus":"\n                    <p><b>Action: <em>avoid</em></b></p>\n                    <p>This is the bee that you just saw.</p>\n                    <img src=\"bees-with-color/bee-A2DM.svg\" width=\"200\">\n                    <p><span class=\"redText\">Bad choice,</span> the bee was friendly.<br>Your bonus pay is unchanged, and remains at $0.16.</p>\n            ","response":0,"trial_type":"html-button-response","trial_index":58,"time_elapsed":315718,"internal_node_id":"0.0-4.0-1.25","subject_id":"5e85fb52694b68049c112544","study_id":"60edd13110225f80f9f3709b","session_id":"6196c706760b93acd6241d8f","condition":"full-information","relevant_dimensions":["antennae","pattern"],"bee_group":{"antennae":"B","wings":"X","pattern":"S","legs":"X"},"bonus":0},{"rt":916.2000000029802,"stimulus":"bees-with-color/bee-B2DM.svg","response":0,"trial_type":"image-button-response","trial_index":59,"time_elapsed":316636,"internal_node_id":"0.0-4.0-0.26","subject_id":"5e85fb52694b68049c112544","study_id":"60edd13110225f80f9f3709b","session_id":"6196c706760b93acd6241d8f","condition":"full-information","relevant_dimensions":["antennae","pattern"],"bee_group":{"antennae":"B","wings":"X","pattern":"S","legs":"X"},"action":"harvest","summary":"good-harvest","bonus":0},{"rt":662.8999999910593,"stimulus":"\n                    <p><b>Action: <em>harvest</em></b></p>\n                    <p>This is the bee that you just saw.</p>\n                    <img src=\"bees-with-color/bee-B2DM.svg\" width=\"200\">\n                    <p><span class=\"greenText\"><b>Successful harvest!</b></span><br>Your pay has increased by $0.02. Your bonus pay is now $0.18.</p>\n            ","response":0,"trial_type":"html-button-response","trial_index":60,"time_elapsed":317300,"internal_node_id":"0.0-4.0-1.26","subject_id":"5e85fb52694b68049c112544","study_id":"60edd13110225f80f9f3709b","session_id":"6196c706760b93acd6241d8f","condition":"full-information","relevant_dimensions":["antennae","pattern"],"bee_group":{"antennae":"B","wings":"X","pattern":"S","legs":"X"},"bonus":0},{"rt":1192.7999999970198,"stimulus":"bees-with-color/bee-A1DM.svg","response":0,"trial_type":"image-button-response","trial_index":61,"time_elapsed":318494,"internal_node_id":"0.0-4.0-0.27","subject_id":"5e85fb52694b68049c112544","study_id":"60edd13110225f80f9f3709b","session_id":"6196c706760b93acd6241d8f","condition":"full-information","relevant_dimensions":["antennae","pattern"],"bee_group":{"antennae":"B","wings":"X","pattern":"S","legs":"X"},"action":"harvest","summary":"good-harvest","bonus":0},{"rt":651.8000000119209,"stimulus":"\n                    <p><b>Action: <em>harvest</em></b></p>\n                    <p>This is the bee that you just saw.</p>\n                    <img src=\"bees-with-color/bee-A1DM.svg\" width=\"200\">\n                    <p><span class=\"greenText\"><b>Successful harvest!</b></span><br>Your pay has increased by $0.02. Your bonus pay is now $0.20.</p>\n            ","response":0,"trial_type":"html-button-response","trial_index":62,"time_elapsed":319147,"internal_node_id":"0.0-4.0-1.27","subject_id":"5e85fb52694b68049c112544","study_id":"60edd13110225f80f9f3709b","session_id":"6196c706760b93acd6241d8f","condition":"full-information","relevant_dimensions":["antennae","pattern"],"bee_group":{"antennae":"B","wings":"X","pattern":"S","legs":"X"},"bonus":0},{"rt":816.7999999970198,"stimulus":"bees-with-color/bee-A1DF.svg","response":1,"trial_type":"image-button-response","trial_index":63,"time_elapsed":319965,"internal_node_id":"0.0-4.0-0.28","subject_id":"5e85fb52694b68049c112544","study_id":"60edd13110225f80f9f3709b","session_id":"6196c706760b93acd6241d8f","condition":"full-information","relevant_dimensions":["antennae","pattern"],"bee_group":{"antennae":"B","wings":"X","pattern":"S","legs":"X"},"action":"avoid","summary":"bad-avoid","bonus":0},{"rt":689.3000000119209,"stimulus":"\n                    <p><b>Action: <em>avoid</em></b></p>\n                    <p>This is the bee that you just saw.</p>\n                    <img src=\"bees-with-color/bee-A1DF.svg\" width=\"200\">\n                    <p><span class=\"redText\">Bad choice,</span> the bee was friendly.<br>Your bonus pay is unchanged, and remains at $0.20.</p>\n            ","response":0,"trial_type":"html-button-response","trial_index":64,"time_elapsed":320655,"internal_node_id":"0.0-4.0-1.28","subject_id":"5e85fb52694b68049c112544","study_id":"60edd13110225f80f9f3709b","session_id":"6196c706760b93acd6241d8f","condition":"full-information","relevant_dimensions":["antennae","pattern"],"bee_group":{"antennae":"B","wings":"X","pattern":"S","legs":"X"},"bonus":0},{"rt":1018.8000000119209,"stimulus":"bees-with-color/bee-A1SM.svg","response":0,"trial_type":"image-button-response","trial_index":65,"time_elapsed":321675,"internal_node_id":"0.0-4.0-0.29","subject_id":"5e85fb52694b68049c112544","study_id":"60edd13110225f80f9f3709b","session_id":"6196c706760b93acd6241d8f","condition":"full-information","relevant_dimensions":["antennae","pattern"],"bee_group":{"antennae":"B","wings":"X","pattern":"S","legs":"X"},"action":"harvest","summary":"good-harvest","bonus":0},{"rt":736.5999999940395,"stimulus":"\n                    <p><b>Action: <em>harvest</em></b></p>\n                    <p>This is the bee that you just saw.</p>\n                    <img src=\"bees-with-color/bee-A1SM.svg\" width=\"200\">\n                    <p><span class=\"greenText\"><b>Successful harvest!</b></span><br>Your pay has increased by $0.02. Your bonus pay is now $0.22.</p>\n            ","response":0,"trial_type":"html-button-response","trial_index":66,"time_elapsed":322413,"internal_node_id":"0.0-4.0-1.29","subject_id":"5e85fb52694b68049c112544","study_id":"60edd13110225f80f9f3709b","session_id":"6196c706760b93acd6241d8f","condition":"full-information","relevant_dimensions":["antennae","pattern"],"bee_group":{"antennae":"B","wings":"X","pattern":"S","legs":"X"},"bonus":0},{"rt":1085.3999999910593,"stimulus":"bees-with-color/bee-B1DF.svg","response":1,"trial_type":"image-button-response","trial_index":67,"time_elapsed":323499,"internal_node_id":"0.0-4.0-0.30","subject_id":"5e85fb52694b68049c112544","study_id":"60edd13110225f80f9f3709b","session_id":"6196c706760b93acd6241d8f","condition":"full-information","relevant_dimensions":["antennae","pattern"],"bee_group":{"antennae":"B","wings":"X","pattern":"S","legs":"X"},"action":"avoid","summary":"bad-avoid","bonus":0},{"rt":700.0999999940395,"stimulus":"\n                    <p><b>Action: <em>avoid</em></b></p>\n                    <p>This is the bee that you just saw.</p>\n                    <img src=\"bees-with-color/bee-B1DF.svg\" width=\"200\">\n                    <p><span class=\"redText\">Bad choice,</span> the bee was friendly.<br>Your bonus pay is unchanged, and remains at $0.22.</p>\n            ","response":0,"trial_type":"html-button-response","trial_index":68,"time_elapsed":324200,"internal_node_id":"0.0-4.0-1.30","subject_id":"5e85fb52694b68049c112544","study_id":"60edd13110225f80f9f3709b","session_id":"6196c706760b93acd6241d8f","condition":"full-information","relevant_dimensions":["antennae","pattern"],"bee_group":{"antennae":"B","wings":"X","pattern":"S","legs":"X"},"bonus":0},{"rt":7456.899999991059,"stimulus":"bees-with-color/bee-B2SM.svg","response":0,"trial_type":"image-button-response","trial_index":69,"time_elapsed":331657,"internal_node_id":"0.0-4.0-0.31","subject_id":"5e85fb52694b68049c112544","study_id":"60edd13110225f80f9f3709b","session_id":"6196c706760b93acd6241d8f","condition":"full-information","relevant_dimensions":["antennae","pattern"],"bee_group":{"antennae":"B","wings":"X","pattern":"S","legs":"X"},"action":"harvest","summary":"bad-harvest","bonus":0},{"rt":844.5,"stimulus":"\n                    <p><b>Action: <em>harvest</em></b></p>\n                    <p>This is the bee that you just saw.</p>\n                    <img src=\"bees-with-color/bee-B2SM.svg\" width=\"200\">\n                    <p><span class=\"redText\">Bad choice, the bee was angry.</span><br><b>You have been stung!</b><br>Your pay has been decreased by $0.10. Your bonus pay is now $0.12.</p>\n            ","response":0,"trial_type":"html-button-response","trial_index":70,"time_elapsed":332503,"internal_node_id":"0.0-4.0-1.31","subject_id":"5e85fb52694b68049c112544","study_id":"60edd13110225f80f9f3709b","session_id":"6196c706760b93acd6241d8f","condition":"full-information","relevant_dimensions":["antennae","pattern"],"bee_group":{"antennae":"B","wings":"X","pattern":"S","legs":"X"},"bonus":0},{"rt":997.7999999970198,"stimulus":"bees-with-color/bee-B2SM.svg","response":0,"trial_type":"image-button-response","trial_index":71,"time_elapsed":333502,"internal_node_id":"0.0-4.0-0.32","subject_id":"5e85fb52694b68049c112544","study_id":"60edd13110225f80f9f3709b","session_id":"6196c706760b93acd6241d8f","condition":"full-information","relevant_dimensions":["antennae","pattern"],"bee_group":{"antennae":"B","wings":"X","pattern":"S","legs":"X"},"action":"harvest","summary":"bad-harvest","bonus":0},{"rt":956.9000000059605,"stimulus":"\n                    <p><b>Action: <em>harvest</em></b></p>\n                    <p>This is the bee that you just saw.</p>\n                    <img src=\"bees-with-color/bee-B2SM.svg\" width=\"200\">\n                    <p><span class=\"redText\">Bad choice, the bee was angry.</span><br><b>You have been stung!</b><br>Your pay has been decreased by $0.10. Your bonus pay is now $0.02.</p>\n            ","response":0,"trial_type":"html-button-response","trial_index":72,"time_elapsed":334459,"internal_node_id":"0.0-4.0-1.32","subject_id":"5e85fb52694b68049c112544","study_id":"60edd13110225f80f9f3709b","session_id":"6196c706760b93acd6241d8f","condition":"full-information","relevant_dimensions":["antennae","pattern"],"bee_group":{"antennae":"B","wings":"X","pattern":"S","legs":"X"},"bonus":0},{"rt":473.6000000089407,"stimulus":"bees-with-color/bee-B2DF.svg","response":0,"trial_type":"image-button-response","trial_index":73,"time_elapsed":334934,"internal_node_id":"0.0-4.0-0.33","subject_id":"5e85fb52694b68049c112544","study_id":"60edd13110225f80f9f3709b","session_id":"6196c706760b93acd6241d8f","condition":"full-information","relevant_dimensions":["antennae","pattern"],"bee_group":{"antennae":"B","wings":"X","pattern":"S","legs":"X"},"action":"harvest","summary":"good-harvest","bonus":0},{"rt":861.2000000029802,"stimulus":"\n                    <p><b>Action: <em>harvest</em></b></p>\n                    <p>This is the bee that you just saw.</p>\n                    <img src=\"bees-with-color/bee-B2DF.svg\" width=\"200\">\n                    <p><span class=\"greenText\"><b>Successful harvest!</b></span><br>Your pay has increased by $0.02. Your bonus pay is now $0.04.</p>\n            ","response":0,"trial_type":"html-button-response","trial_index":74,"time_elapsed":335796,"internal_node_id":"0.0-4.0-1.33","subject_id":"5e85fb52694b68049c112544","study_id":"60edd13110225f80f9f3709b","session_id":"6196c706760b93acd6241d8f","condition":"full-information","relevant_dimensions":["antennae","pattern"],"bee_group":{"antennae":"B","wings":"X","pattern":"S","legs":"X"},"bonus":0},{"rt":851,"stimulus":"bees-with-color/bee-B1SF.svg","response":1,"trial_type":"image-button-response","trial_index":75,"time_elapsed":336648,"internal_node_id":"0.0-4.0-0.34","subject_id":"5e85fb52694b68049c112544","study_id":"60edd13110225f80f9f3709b","session_id":"6196c706760b93acd6241d8f","condition":"full-information","relevant_dimensions":["antennae","pattern"],"bee_group":{"antennae":"B","wings":"X","pattern":"S","legs":"X"},"action":"avoid","summary":"good-avoid","bonus":0},{"rt":992.2000000029802,"stimulus":"\n                    <p><b>Action: <em>avoid</em></b></p>\n                    <p>This is the bee that you just saw.</p>\n                    <img src=\"bees-with-color/bee-B1SF.svg\" width=\"200\">\n                    <p><span class=\"greenText\">Good choice!</span>  This bee would have stung you.<br>Your bonus pay is unchanged, and remains at $0.04.</p>\n            ","response":0,"trial_type":"html-button-response","trial_index":76,"time_elapsed":337641,"internal_node_id":"0.0-4.0-1.34","subject_id":"5e85fb52694b68049c112544","study_id":"60edd13110225f80f9f3709b","session_id":"6196c706760b93acd6241d8f","condition":"full-information","relevant_dimensions":["antennae","pattern"],"bee_group":{"antennae":"B","wings":"X","pattern":"S","legs":"X"},"bonus":0},{"rt":921.7999999970198,"stimulus":"bees-with-color/bee-A2DF.svg","response":1,"trial_type":"image-button-response","trial_index":77,"time_elapsed":338563,"internal_node_id":"0.0-4.0-0.35","subject_id":"5e85fb52694b68049c112544","study_id":"60edd13110225f80f9f3709b","session_id":"6196c706760b93acd6241d8f","condition":"full-information","relevant_dimensions":["antennae","pattern"],"bee_group":{"antennae":"B","wings":"X","pattern":"S","legs":"X"},"action":"avoid","summary":"bad-avoid","bonus":0},{"rt":805.2999999970198,"stimulus":"\n                    <p><b>Action: <em>avoid</em></b></p>\n                    <p>This is the bee that you just saw.</p>\n                    <img src=\"bees-with-color/bee-A2DF.svg\" width=\"200\">\n                    <p><span class=\"redText\">Bad choice,</span> the bee was friendly.<br>Your bonus pay is unchanged, and remains at $0.04.</p>\n            ","response":0,"trial_type":"html-button-response","trial_index":78,"time_elapsed":339370,"internal_node_id":"0.0-4.0-1.35","subject_id":"5e85fb52694b68049c112544","study_id":"60edd13110225f80f9f3709b","session_id":"6196c706760b93acd6241d8f","condition":"full-information","relevant_dimensions":["antennae","pattern"],"bee_group":{"antennae":"B","wings":"X","pattern":"S","legs":"X"},"bonus":0},{"rt":355,"stimulus":"bees-with-color/bee-B1DM.svg","response":0,"trial_type":"image-button-response","trial_index":79,"time_elapsed":339725,"internal_node_id":"0.0-4.0-0.36","subject_id":"5e85fb52694b68049c112544","study_id":"60edd13110225f80f9f3709b","session_id":"6196c706760b93acd6241d8f","condition":"full-information","relevant_dimensions":["antennae","pattern"],"bee_group":{"antennae":"B","wings":"X","pattern":"S","legs":"X"},"action":"harvest","summary":"good-harvest","bonus":0},{"rt":1438.6000000089407,"stimulus":"\n                    <p><b>Action: <em>harvest</em></b></p>\n                    <p>This is the bee that you just saw.</p>\n                    <img src=\"bees-with-color/bee-B1DM.svg\" width=\"200\">\n                    <p><span class=\"greenText\"><b>Successful harvest!</b></span><br>Your pay has increased by $0.02. Your bonus pay is now $0.06.</p>\n            ","response":0,"trial_type":"html-button-response","trial_index":80,"time_elapsed":341165,"internal_node_id":"0.0-4.0-1.36","subject_id":"5e85fb52694b68049c112544","study_id":"60edd13110225f80f9f3709b","session_id":"6196c706760b93acd6241d8f","condition":"full-information","relevant_dimensions":["antennae","pattern"],"bee_group":{"antennae":"B","wings":"X","pattern":"S","legs":"X"},"bonus":0},{"rt":674.7999999970198,"stimulus":"bees-with-color/bee-A2SM.svg","response":1,"trial_type":"image-button-response","trial_index":81,"time_elapsed":341841,"internal_node_id":"0.0-4.0-0.37","subject_id":"5e85fb52694b68049c112544","study_id":"60edd13110225f80f9f3709b","session_id":"6196c706760b93acd6241d8f","condition":"full-information","relevant_dimensions":["antennae","pattern"],"bee_group":{"antennae":"B","wings":"X","pattern":"S","legs":"X"},"action":"avoid","summary":"bad-avoid","bonus":0},{"rt":789.8000000119209,"stimulus":"\n                    <p><b>Action: <em>avoid</em></b></p>\n                    <p>This is the bee that you just saw.</p>\n                    <img src=\"bees-with-color/bee-A2SM.svg\" width=\"200\">\n                    <p><span class=\"redText\">Bad choice,</span> the bee was friendly.<br>Your bonus pay is unchanged, and remains at $0.06.</p>\n            ","response":0,"trial_type":"html-button-response","trial_index":82,"time_elapsed":342631,"internal_node_id":"0.0-4.0-1.37","subject_id":"5e85fb52694b68049c112544","study_id":"60edd13110225f80f9f3709b","session_id":"6196c706760b93acd6241d8f","condition":"full-information","relevant_dimensions":["antennae","pattern"],"bee_group":{"antennae":"B","wings":"X","pattern":"S","legs":"X"},"bonus":0},{"rt":911.5,"stimulus":"bees-with-color/bee-A1DM.svg","response":1,"trial_type":"image-button-response","trial_index":83,"time_elapsed":343544,"internal_node_id":"0.0-4.0-0.38","subject_id":"5e85fb52694b68049c112544","study_id":"60edd13110225f80f9f3709b","session_id":"6196c706760b93acd6241d8f","condition":"full-information","relevant_dimensions":["antennae","pattern"],"bee_group":{"antennae":"B","wings":"X","pattern":"S","legs":"X"},"action":"avoid","summary":"bad-avoid","bonus":0},{"rt":528.6000000089407,"stimulus":"\n                    <p><b>Action: <em>avoid</em></b></p>\n                    <p>This is the bee that you just saw.</p>\n                    <img src=\"bees-with-color/bee-A1DM.svg\" width=\"200\">\n                    <p><span class=\"redText\">Bad choice,</span> the bee was friendly.<br>Your bonus pay is unchanged, and remains at $0.06.</p>\n            ","response":0,"trial_type":"html-button-response","trial_index":84,"time_elapsed":344073,"internal_node_id":"0.0-4.0-1.38","subject_id":"5e85fb52694b68049c112544","study_id":"60edd13110225f80f9f3709b","session_id":"6196c706760b93acd6241d8f","condition":"full-information","relevant_dimensions":["antennae","pattern"],"bee_group":{"antennae":"B","wings":"X","pattern":"S","legs":"X"},"bonus":0},{"rt":650.7000000029802,"stimulus":"bees-with-color/bee-A1SM.svg","response":0,"trial_type":"image-button-response","trial_index":85,"time_elapsed":344725,"internal_node_id":"0.0-4.0-0.39","subject_id":"5e85fb52694b68049c112544","study_id":"60edd13110225f80f9f3709b","session_id":"6196c706760b93acd6241d8f","condition":"full-information","relevant_dimensions":["antennae","pattern"],"bee_group":{"antennae":"B","wings":"X","pattern":"S","legs":"X"},"action":"harvest","summary":"good-harvest","bonus":0},{"rt":878.7999999970198,"stimulus":"\n                    <p><b>Action: <em>harvest</em></b></p>\n                    <p>This is the bee that you just saw.</p>\n                    <img src=\"bees-with-color/bee-A1SM.svg\" width=\"200\">\n                    <p><span class=\"greenText\"><b>Successful harvest!</b></span><br>Your pay has increased by $0.02. Your bonus pay is now $0.08.</p>\n            ","response":0,"trial_type":"html-button-response","trial_index":86,"time_elapsed":345605,"internal_node_id":"0.0-4.0-1.39","subject_id":"5e85fb52694b68049c112544","study_id":"60edd13110225f80f9f3709b","session_id":"6196c706760b93acd6241d8f","condition":"full-information","relevant_dimensions":["antennae","pattern"],"bee_group":{"antennae":"B","wings":"X","pattern":"S","legs":"X"},"bonus":0},{"rt":838.2999999970198,"stimulus":"bees-with-color/bee-B2DM.svg","response":1,"trial_type":"image-button-response","trial_index":87,"time_elapsed":346444,"internal_node_id":"0.0-4.0-0.40","subject_id":"5e85fb52694b68049c112544","study_id":"60edd13110225f80f9f3709b","session_id":"6196c706760b93acd6241d8f","condition":"full-information","relevant_dimensions":["antennae","pattern"],"bee_group":{"antennae":"B","wings":"X","pattern":"S","legs":"X"},"action":"avoid","summary":"bad-avoid","bonus":0},{"rt":502.19999998807907,"stimulus":"\n                    <p><b>Action: <em>avoid</em></b></p>\n                    <p>This is the bee that you just saw.</p>\n                    <img src=\"bees-with-color/bee-B2DM.svg\" width=\"200\">\n                    <p><span class=\"redText\">Bad choice,</span> the bee was friendly.<br>Your bonus pay is unchanged, and remains at $0.08.</p>\n            ","response":0,"trial_type":"html-button-response","trial_index":88,"time_elapsed":346947,"internal_node_id":"0.0-4.0-1.40","subject_id":"5e85fb52694b68049c112544","study_id":"60edd13110225f80f9f3709b","session_id":"6196c706760b93acd6241d8f","condition":"full-information","relevant_dimensions":["antennae","pattern"],"bee_group":{"antennae":"B","wings":"X","pattern":"S","legs":"X"},"bonus":0},{"rt":1696.7000000029802,"stimulus":"bees-with-color/bee-B1SM.svg","response":0,"trial_type":"image-button-response","trial_index":89,"time_elapsed":348644,"internal_node_id":"0.0-4.0-0.41","subject_id":"5e85fb52694b68049c112544","study_id":"60edd13110225f80f9f3709b","session_id":"6196c706760b93acd6241d8f","condition":"full-information","relevant_dimensions":["antennae","pattern"],"bee_group":{"antennae":"B","wings":"X","pattern":"S","legs":"X"},"action":"harvest","summary":"bad-harvest","bonus":0},{"rt":1360.4000000059605,"stimulus":"\n                    <p><b>Action: <em>harvest</em></b></p>\n                    <p>This is the bee that you just saw.</p>\n                    <img src=\"bees-with-color/bee-B1SM.svg\" width=\"200\">\n                    <p><span class=\"redText\">Bad choice, the bee was angry.</span><br><b>You have been stung!</b><br>Your pay has been decreased by $0.10. Your bonus pay is now $0.00.</p>\n            ","response":0,"trial_type":"html-button-response","trial_index":90,"time_elapsed":350005,"internal_node_id":"0.0-4.0-1.41","subject_id":"5e85fb52694b68049c112544","study_id":"60edd13110225f80f9f3709b","session_id":"6196c706760b93acd6241d8f","condition":"full-information","relevant_dimensions":["antennae","pattern"],"bee_group":{"antennae":"B","wings":"X","pattern":"S","legs":"X"},"bonus":0},{"rt":741.1000000089407,"stimulus":"bees-with-color/bee-A1DF.svg","response":0,"trial_type":"image-button-response","trial_index":91,"time_elapsed":350748,"internal_node_id":"0.0-4.0-0.42","subject_id":"5e85fb52694b68049c112544","study_id":"60edd13110225f80f9f3709b","session_id":"6196c706760b93acd6241d8f","condition":"full-information","relevant_dimensions":["antennae","pattern"],"bee_group":{"antennae":"B","wings":"X","pattern":"S","legs":"X"},"action":"harvest","summary":"good-harvest","bonus":0},{"rt":841.9000000059605,"stimulus":"\n                    <p><b>Action: <em>harvest</em></b></p>\n                    <p>This is the bee that you just saw.</p>\n                    <img src=\"bees-with-color/bee-A1DF.svg\" width=\"200\">\n                    <p><span class=\"greenText\"><b>Successful harvest!</b></span><br>Your pay has increased by $0.02. Your bonus pay is now $0.02.</p>\n            ","response":0,"trial_type":"html-button-response","trial_index":92,"time_elapsed":351591,"internal_node_id":"0.0-4.0-1.42","subject_id":"5e85fb52694b68049c112544","study_id":"60edd13110225f80f9f3709b","session_id":"6196c706760b93acd6241d8f","condition":"full-information","relevant_dimensions":["antennae","pattern"],"bee_group":{"antennae":"B","wings":"X","pattern":"S","legs":"X"},"bonus":0},{"rt":396.70000000298023,"stimulus":"bees-with-color/bee-A1SF.svg","response":0,"trial_type":"image-button-response","trial_index":93,"time_elapsed":351988,"internal_node_id":"0.0-4.0-0.43","subject_id":"5e85fb52694b68049c112544","study_id":"60edd13110225f80f9f3709b","session_id":"6196c706760b93acd6241d8f","condition":"full-information","relevant_dimensions":["antennae","pattern"],"bee_group":{"antennae":"B","wings":"X","pattern":"S","legs":"X"},"action":"harvest","summary":"good-harvest","bonus":0},{"rt":596.5,"stimulus":"\n                    <p><b>Action: <em>harvest</em></b></p>\n                    <p>This is the bee that you just saw.</p>\n                    <img src=\"bees-with-color/bee-A1SF.svg\" width=\"200\">\n                    <p><span class=\"greenText\"><b>Successful harvest!</b></span><br>Your pay has increased by $0.02. Your bonus pay is now $0.04.</p>\n            ","response":0,"trial_type":"html-button-response","trial_index":94,"time_elapsed":352586,"internal_node_id":"0.0-4.0-1.43","subject_id":"5e85fb52694b68049c112544","study_id":"60edd13110225f80f9f3709b","session_id":"6196c706760b93acd6241d8f","condition":"full-information","relevant_dimensions":["antennae","pattern"],"bee_group":{"antennae":"B","wings":"X","pattern":"S","legs":"X"},"bonus":0},{"rt":472.70000000298023,"stimulus":"bees-with-color/bee-B1DF.svg","response":0,"trial_type":"image-button-response","trial_index":95,"time_elapsed":353059,"internal_node_id":"0.0-4.0-0.44","subject_id":"5e85fb52694b68049c112544","study_id":"60edd13110225f80f9f3709b","session_id":"6196c706760b93acd6241d8f","condition":"full-information","relevant_dimensions":["antennae","pattern"],"bee_group":{"antennae":"B","wings":"X","pattern":"S","legs":"X"},"action":"harvest","summary":"good-harvest","bonus":0},{"rt":538.2999999970198,"stimulus":"\n                    <p><b>Action: <em>harvest</em></b></p>\n                    <p>This is the bee that you just saw.</p>\n                    <img src=\"bees-with-color/bee-B1DF.svg\" width=\"200\">\n                    <p><span class=\"greenText\"><b>Successful harvest!</b></span><br>Your pay has increased by $0.02. Your bonus pay is now $0.06.</p>\n            ","response":0,"trial_type":"html-button-response","trial_index":96,"time_elapsed":353599,"internal_node_id":"0.0-4.0-1.44","subject_id":"5e85fb52694b68049c112544","study_id":"60edd13110225f80f9f3709b","session_id":"6196c706760b93acd6241d8f","condition":"full-information","relevant_dimensions":["antennae","pattern"],"bee_group":{"antennae":"B","wings":"X","pattern":"S","legs":"X"},"bonus":0},{"rt":1519,"stimulus":"bees-with-color/bee-B2SF.svg","response":1,"trial_type":"image-button-response","trial_index":97,"time_elapsed":355119,"internal_node_id":"0.0-4.0-0.45","subject_id":"5e85fb52694b68049c112544","study_id":"60edd13110225f80f9f3709b","session_id":"6196c706760b93acd6241d8f","condition":"full-information","relevant_dimensions":["antennae","pattern"],"bee_group":{"antennae":"B","wings":"X","pattern":"S","legs":"X"},"action":"avoid","summary":"good-avoid","bonus":0},{"rt":822.3999999910593,"stimulus":"\n                    <p><b>Action: <em>avoid</em></b></p>\n                    <p>This is the bee that you just saw.</p>\n                    <img src=\"bees-with-color/bee-B2SF.svg\" width=\"200\">\n                    <p><span class=\"greenText\">Good choice!</span>  This bee would have stung you.<br>Your bonus pay is unchanged, and remains at $0.06.</p>\n            ","response":0,"trial_type":"html-button-response","trial_index":98,"time_elapsed":355942,"internal_node_id":"0.0-4.0-1.45","subject_id":"5e85fb52694b68049c112544","study_id":"60edd13110225f80f9f3709b","session_id":"6196c706760b93acd6241d8f","condition":"full-information","relevant_dimensions":["antennae","pattern"],"bee_group":{"antennae":"B","wings":"X","pattern":"S","legs":"X"},"bonus":0},{"rt":975.7999999970198,"stimulus":"bees-with-color/bee-A2SF.svg","response":1,"trial_type":"image-button-response","trial_index":99,"time_elapsed":356919,"internal_node_id":"0.0-4.0-0.46","subject_id":"5e85fb52694b68049c112544","study_id":"60edd13110225f80f9f3709b","session_id":"6196c706760b93acd6241d8f","condition":"full-information","relevant_dimensions":["antennae","pattern"],"bee_group":{"antennae":"B","wings":"X","pattern":"S","legs":"X"},"action":"avoid","summary":"bad-avoid","bonus":0},{"rt":499.09999999403954,"stimulus":"\n                    <p><b>Action: <em>avoid</em></b></p>\n                    <p>This is the bee that you just saw.</p>\n                    <img src=\"bees-with-color/bee-A2SF.svg\" width=\"200\">\n                    <p><span class=\"redText\">Bad choice,</span> the bee was friendly.<br>Your bonus pay is unchanged, and remains at $0.06.</p>\n            ","response":0,"trial_type":"html-button-response","trial_index":100,"time_elapsed":357419,"internal_node_id":"0.0-4.0-1.46","subject_id":"5e85fb52694b68049c112544","study_id":"60edd13110225f80f9f3709b","session_id":"6196c706760b93acd6241d8f","condition":"full-information","relevant_dimensions":["antennae","pattern"],"bee_group":{"antennae":"B","wings":"X","pattern":"S","legs":"X"},"bonus":0},{"rt":581.1000000089407,"stimulus":"bees-with-color/bee-A2DM.svg","response":0,"trial_type":"image-button-response","trial_index":101,"time_elapsed":358001,"internal_node_id":"0.0-4.0-0.47","subject_id":"5e85fb52694b68049c112544","study_id":"60edd13110225f80f9f3709b","session_id":"6196c706760b93acd6241d8f","condition":"full-information","relevant_dimensions":["antennae","pattern"],"bee_group":{"antennae":"B","wings":"X","pattern":"S","legs":"X"},"action":"harvest","summary":"good-harvest","bonus":0},{"rt":708.5999999940395,"stimulus":"\n                    <p><b>Action: <em>harvest</em></b></p>\n                    <p>This is the bee that you just saw.</p>\n                    <img src=\"bees-with-color/bee-A2DM.svg\" width=\"200\">\n                    <p><span class=\"greenText\"><b>Successful harvest!</b></span><br>Your pay has increased by $0.02. Your bonus pay is now $0.08.</p>\n            ","response":0,"trial_type":"html-button-response","trial_index":102,"time_elapsed":358711,"internal_node_id":"0.0-4.0-1.47","subject_id":"5e85fb52694b68049c112544","study_id":"60edd13110225f80f9f3709b","session_id":"6196c706760b93acd6241d8f","condition":"full-information","relevant_dimensions":["antennae","pattern"],"bee_group":{"antennae":"B","wings":"X","pattern":"S","legs":"X"},"bonus":0},{"rt":868.4000000059605,"stimulus":"bees-with-color/bee-B2DF.svg","response":1,"trial_type":"image-button-response","trial_index":103,"time_elapsed":359580,"internal_node_id":"0.0-4.0-0.48","subject_id":"5e85fb52694b68049c112544","study_id":"60edd13110225f80f9f3709b","session_id":"6196c706760b93acd6241d8f","condition":"full-information","relevant_dimensions":["antennae","pattern"],"bee_group":{"antennae":"B","wings":"X","pattern":"S","legs":"X"},"action":"avoid","summary":"bad-avoid","bonus":0},{"rt":501,"stimulus":"\n                    <p><b>Action: <em>avoid</em></b></p>\n                    <p>This is the bee that you just saw.</p>\n                    <img src=\"bees-with-color/bee-B2DF.svg\" width=\"200\">\n                    <p><span class=\"redText\">Bad choice,</span> the bee was friendly.<br>Your bonus pay is unchanged, and remains at $0.08.</p>\n            ","response":0,"trial_type":"html-button-response","trial_index":104,"time_elapsed":360082,"internal_node_id":"0.0-4.0-1.48","subject_id":"5e85fb52694b68049c112544","study_id":"60edd13110225f80f9f3709b","session_id":"6196c706760b93acd6241d8f","condition":"full-information","relevant_dimensions":["antennae","pattern"],"bee_group":{"antennae":"B","wings":"X","pattern":"S","legs":"X"},"bonus":0},{"rt":708.2999999970198,"stimulus":"bees-with-color/bee-A1DM.svg","response":1,"trial_type":"image-button-response","trial_index":105,"time_elapsed":360791,"internal_node_id":"0.0-4.0-0.49","subject_id":"5e85fb52694b68049c112544","study_id":"60edd13110225f80f9f3709b","session_id":"6196c706760b93acd6241d8f","condition":"full-information","relevant_dimensions":["antennae","pattern"],"bee_group":{"antennae":"B","wings":"X","pattern":"S","legs":"X"},"action":"avoid","summary":"bad-avoid","bonus":0},{"rt":733.7999999970198,"stimulus":"\n                    <p><b>Action: <em>avoid</em></b></p>\n                    <p>This is the bee that you just saw.</p>\n                    <img src=\"bees-with-color/bee-A1DM.svg\" width=\"200\">\n                    <p><span class=\"redText\">Bad choice,</span> the bee was friendly.<br>Your bonus pay is unchanged, and remains at $0.08.</p>\n            ","response":0,"trial_type":"html-button-response","trial_index":106,"time_elapsed":361526,"internal_node_id":"0.0-4.0-1.49","subject_id":"5e85fb52694b68049c112544","study_id":"60edd13110225f80f9f3709b","session_id":"6196c706760b93acd6241d8f","condition":"full-information","relevant_dimensions":["antennae","pattern"],"bee_group":{"antennae":"B","wings":"X","pattern":"S","legs":"X"},"bonus":0},{"rt":423.3999999910593,"stimulus":"bees-with-color/bee-A2DF.svg","response":1,"trial_type":"image-button-response","trial_index":107,"time_elapsed":361950,"internal_node_id":"0.0-4.0-0.50","subject_id":"5e85fb52694b68049c112544","study_id":"60edd13110225f80f9f3709b","session_id":"6196c706760b93acd6241d8f","condition":"full-information","relevant_dimensions":["antennae","pattern"],"bee_group":{"antennae":"B","wings":"X","pattern":"S","legs":"X"},"action":"avoid","summary":"bad-avoid","bonus":0},{"rt":662.8999999910593,"stimulus":"\n                    <p><b>Action: <em>avoid</em></b></p>\n                    <p>This is the bee that you just saw.</p>\n                    <img src=\"bees-with-color/bee-A2DF.svg\" width=\"200\">\n                    <p><span class=\"redText\">Bad choice,</span> the bee was friendly.<br>Your bonus pay is unchanged, and remains at $0.08.</p>\n            ","response":0,"trial_type":"html-button-response","trial_index":108,"time_elapsed":362614,"internal_node_id":"0.0-4.0-1.50","subject_id":"5e85fb52694b68049c112544","study_id":"60edd13110225f80f9f3709b","session_id":"6196c706760b93acd6241d8f","condition":"full-information","relevant_dimensions":["antennae","pattern"],"bee_group":{"antennae":"B","wings":"X","pattern":"S","legs":"X"},"bonus":0},{"rt":397,"stimulus":"bees-with-color/bee-A1SF.svg","response":1,"trial_type":"image-button-response","trial_index":109,"time_elapsed":363012,"internal_node_id":"0.0-4.0-0.51","subject_id":"5e85fb52694b68049c112544","study_id":"60edd13110225f80f9f3709b","session_id":"6196c706760b93acd6241d8f","condition":"full-information","relevant_dimensions":["antennae","pattern"],"bee_group":{"antennae":"B","wings":"X","pattern":"S","legs":"X"},"action":"avoid","summary":"bad-avoid","bonus":0},{"rt":506.30000001192093,"stimulus":"\n                    <p><b>Action: <em>avoid</em></b></p>\n                    <p>This is the bee that you just saw.</p>\n                    <img src=\"bees-with-color/bee-A1SF.svg\" width=\"200\">\n                    <p><span class=\"redText\">Bad choice,</span> the bee was friendly.<br>Your bonus pay is unchanged, and remains at $0.08.</p>\n            ","response":0,"trial_type":"html-button-response","trial_index":110,"time_elapsed":363519,"internal_node_id":"0.0-4.0-1.51","subject_id":"5e85fb52694b68049c112544","study_id":"60edd13110225f80f9f3709b","session_id":"6196c706760b93acd6241d8f","condition":"full-information","relevant_dimensions":["antennae","pattern"],"bee_group":{"antennae":"B","wings":"X","pattern":"S","legs":"X"},"bonus":0},{"rt":423.3999999910593,"stimulus":"bees-with-color/bee-B2DM.svg","response":1,"trial_type":"image-button-response","trial_index":111,"time_elapsed":363944,"internal_node_id":"0.0-4.0-0.52","subject_id":"5e85fb52694b68049c112544","study_id":"60edd13110225f80f9f3709b","session_id":"6196c706760b93acd6241d8f","condition":"full-information","relevant_dimensions":["antennae","pattern"],"bee_group":{"antennae":"B","wings":"X","pattern":"S","legs":"X"},"action":"avoid","summary":"bad-avoid","bonus":0},{"rt":859.5,"stimulus":"\n                    <p><b>Action: <em>avoid</em></b></p>\n                    <p>This is the bee that you just saw.</p>\n                    <img src=\"bees-with-color/bee-B2DM.svg\" width=\"200\">\n                    <p><span class=\"redText\">Bad choice,</span> the bee was friendly.<br>Your bonus pay is unchanged, and remains at $0.08.</p>\n            ","response":0,"trial_type":"html-button-response","trial_index":112,"time_elapsed":364804,"internal_node_id":"0.0-4.0-1.52","subject_id":"5e85fb52694b68049c112544","study_id":"60edd13110225f80f9f3709b","session_id":"6196c706760b93acd6241d8f","condition":"full-information","relevant_dimensions":["antennae","pattern"],"bee_group":{"antennae":"B","wings":"X","pattern":"S","legs":"X"},"bonus":0},{"rt":342.90000000596046,"stimulus":"bees-with-color/bee-B2SF.svg","response":1,"trial_type":"image-button-response","trial_index":113,"time_elapsed":365148,"internal_node_id":"0.0-4.0-0.53","subject_id":"5e85fb52694b68049c112544","study_id":"60edd13110225f80f9f3709b","session_id":"6196c706760b93acd6241d8f","condition":"full-information","relevant_dimensions":["antennae","pattern"],"bee_group":{"antennae":"B","wings":"X","pattern":"S","legs":"X"},"action":"avoid","summary":"good-avoid","bonus":0},{"rt":1406.699999988079,"stimulus":"\n                    <p><b>Action: <em>avoid</em></b></p>\n                    <p>This is the bee that you just saw.</p>\n                    <img src=\"bees-with-color/bee-B2SF.svg\" width=\"200\">\n                    <p><span class=\"greenText\">Good choice!</span>  This bee would have stung you.<br>Your bonus pay is unchanged, and remains at $0.08.</p>\n            ","response":0,"trial_type":"html-button-response","trial_index":114,"time_elapsed":366555,"internal_node_id":"0.0-4.0-1.53","subject_id":"5e85fb52694b68049c112544","study_id":"60edd13110225f80f9f3709b","session_id":"6196c706760b93acd6241d8f","condition":"full-information","relevant_dimensions":["antennae","pattern"],"bee_group":{"antennae":"B","wings":"X","pattern":"S","legs":"X"},"bonus":0},{"rt":1614.5,"stimulus":"bees-with-color/bee-A1SM.svg","response":0,"trial_type":"image-button-response","trial_index":115,"time_elapsed":368171,"internal_node_id":"0.0-4.0-0.54","subject_id":"5e85fb52694b68049c112544","study_id":"60edd13110225f80f9f3709b","session_id":"6196c706760b93acd6241d8f","condition":"full-information","relevant_dimensions":["antennae","pattern"],"bee_group":{"antennae":"B","wings":"X","pattern":"S","legs":"X"},"action":"harvest","summary":"good-harvest","bonus":0},{"rt":577.8999999910593,"stimulus":"\n                    <p><b>Action: <em>harvest</em></b></p>\n                    <p>This is the bee that you just saw.</p>\n                    <img src=\"bees-with-color/bee-A1SM.svg\" width=\"200\">\n                    <p><span class=\"greenText\"><b>Successful harvest!</b></span><br>Your pay has increased by $0.02. Your bonus pay is now $0.10.</p>\n            ","response":0,"trial_type":"html-button-response","trial_index":116,"time_elapsed":368750,"internal_node_id":"0.0-4.0-1.54","subject_id":"5e85fb52694b68049c112544","study_id":"60edd13110225f80f9f3709b","session_id":"6196c706760b93acd6241d8f","condition":"full-information","relevant_dimensions":["antennae","pattern"],"bee_group":{"antennae":"B","wings":"X","pattern":"S","legs":"X"},"bonus":0},{"rt":393.29999999701977,"stimulus":"bees-with-color/bee-B2SM.svg","response":0,"trial_type":"image-button-response","trial_index":117,"time_elapsed":369144,"internal_node_id":"0.0-4.0-0.55","subject_id":"5e85fb52694b68049c112544","study_id":"60edd13110225f80f9f3709b","session_id":"6196c706760b93acd6241d8f","condition":"full-information","relevant_dimensions":["antennae","pattern"],"bee_group":{"antennae":"B","wings":"X","pattern":"S","legs":"X"},"action":"harvest","summary":"bad-harvest","bonus":0},{"rt":646.9000000059605,"stimulus":"\n                    <p><b>Action: <em>harvest</em></b></p>\n                    <p>This is the bee that you just saw.</p>\n                    <img src=\"bees-with-color/bee-B2SM.svg\" width=\"200\">\n                    <p><span class=\"redText\">Bad choice, the bee was angry.</span><br><b>You have been stung!</b><br>Your pay has been decreased by $0.10. Your bonus pay is now $0.00.</p>\n            ","response":0,"trial_type":"html-button-response","trial_index":118,"time_elapsed":369792,"internal_node_id":"0.0-4.0-1.55","subject_id":"5e85fb52694b68049c112544","study_id":"60edd13110225f80f9f3709b","session_id":"6196c706760b93acd6241d8f","condition":"full-information","relevant_dimensions":["antennae","pattern"],"bee_group":{"antennae":"B","wings":"X","pattern":"S","legs":"X"},"bonus":0},{"rt":382.20000000298023,"stimulus":"bees-with-color/bee-A2DM.svg","response":0,"trial_type":"image-button-response","trial_index":119,"time_elapsed":370175,"internal_node_id":"0.0-4.0-0.56","subject_id":"5e85fb52694b68049c112544","study_id":"60edd13110225f80f9f3709b","session_id":"6196c706760b93acd6241d8f","condition":"full-information","relevant_dimensions":["antennae","pattern"],"bee_group":{"antennae":"B","wings":"X","pattern":"S","legs":"X"},"action":"harvest","summary":"good-harvest","bonus":0},{"rt":492.70000000298023,"stimulus":"\n                    <p><b>Action: <em>harvest</em></b></p>\n                    <p>This is the bee that you just saw.</p>\n                    <img src=\"bees-with-color/bee-A2DM.svg\" width=\"200\">\n                    <p><span class=\"greenText\"><b>Successful harvest!</b></span><br>Your pay has increased by $0.02. Your bonus pay is now $0.02.</p>\n            ","response":0,"trial_type":"html-button-response","trial_index":120,"time_elapsed":370669,"internal_node_id":"0.0-4.0-1.56","subject_id":"5e85fb52694b68049c112544","study_id":"60edd13110225f80f9f3709b","session_id":"6196c706760b93acd6241d8f","condition":"full-information","relevant_dimensions":["antennae","pattern"],"bee_group":{"antennae":"B","wings":"X","pattern":"S","legs":"X"},"bonus":0},{"rt":299.79999999701977,"stimulus":"bees-with-color/bee-B1DF.svg","response":0,"trial_type":"image-button-response","trial_index":121,"time_elapsed":370970,"internal_node_id":"0.0-4.0-0.57","subject_id":"5e85fb52694b68049c112544","study_id":"60edd13110225f80f9f3709b","session_id":"6196c706760b93acd6241d8f","condition":"full-information","relevant_dimensions":["antennae","pattern"],"bee_group":{"antennae":"B","wings":"X","pattern":"S","legs":"X"},"action":"harvest","summary":"good-harvest","bonus":0},{"rt":428.59999999403954,"stimulus":"\n                    <p><b>Action: <em>harvest</em></b></p>\n                    <p>This is the bee that you just saw.</p>\n                    <img src=\"bees-with-color/bee-B1DF.svg\" width=\"200\">\n                    <p><span class=\"greenText\"><b>Successful harvest!</b></span><br>Your pay has increased by $0.02. Your bonus pay is now $0.04.</p>\n            ","response":0,"trial_type":"html-button-response","trial_index":122,"time_elapsed":371399,"internal_node_id":"0.0-4.0-1.57","subject_id":"5e85fb52694b68049c112544","study_id":"60edd13110225f80f9f3709b","session_id":"6196c706760b93acd6241d8f","condition":"full-information","relevant_dimensions":["antennae","pattern"],"bee_group":{"antennae":"B","wings":"X","pattern":"S","legs":"X"},"bonus":0},{"rt":325.40000000596046,"stimulus":"bees-with-color/bee-B1SM.svg","response":0,"trial_type":"image-button-response","trial_index":123,"time_elapsed":371726,"internal_node_id":"0.0-4.0-0.58","subject_id":"5e85fb52694b68049c112544","study_id":"60edd13110225f80f9f3709b","session_id":"6196c706760b93acd6241d8f","condition":"full-information","relevant_dimensions":["antennae","pattern"],"bee_group":{"antennae":"B","wings":"X","pattern":"S","legs":"X"},"action":"harvest","summary":"bad-harvest","bonus":0},{"rt":455.5,"stimulus":"\n                    <p><b>Action: <em>harvest</em></b></p>\n                    <p>This is the bee that you just saw.</p>\n                    <img src=\"bees-with-color/bee-B1SM.svg\" width=\"200\">\n                    <p><span class=\"redText\">Bad choice, the bee was angry.</span><br><b>You have been stung!</b><br>Your pay has been decreased by $0.10. Your bonus pay is now $0.00.</p>\n            ","response":0,"trial_type":"html-button-response","trial_index":124,"time_elapsed":372182,"internal_node_id":"0.0-4.0-1.58","subject_id":"5e85fb52694b68049c112544","study_id":"60edd13110225f80f9f3709b","session_id":"6196c706760b93acd6241d8f","condition":"full-information","relevant_dimensions":["antennae","pattern"],"bee_group":{"antennae":"B","wings":"X","pattern":"S","legs":"X"},"bonus":0},{"rt":328.40000000596046,"stimulus":"bees-with-color/bee-A2SM.svg","response":0,"trial_type":"image-button-response","trial_index":125,"time_elapsed":372511,"internal_node_id":"0.0-4.0-0.59","subject_id":"5e85fb52694b68049c112544","study_id":"60edd13110225f80f9f3709b","session_id":"6196c706760b93acd6241d8f","condition":"full-information","relevant_dimensions":["antennae","pattern"],"bee_group":{"antennae":"B","wings":"X","pattern":"S","legs":"X"},"action":"harvest","summary":"good-harvest","bonus":0},{"rt":1379.2999999970198,"stimulus":"\n                    <p><b>Action: <em>harvest</em></b></p>\n                    <p>This is the bee that you just saw.</p>\n                    <img src=\"bees-with-color/bee-A2SM.svg\" width=\"200\">\n                    <p><span class=\"greenText\"><b>Successful harvest!</b></span><br>Your pay has increased by $0.02. Your bonus pay is now $0.02.</p>\n            ","response":0,"trial_type":"html-button-response","trial_index":126,"time_elapsed":373892,"internal_node_id":"0.0-4.0-1.59","subject_id":"5e85fb52694b68049c112544","study_id":"60edd13110225f80f9f3709b","session_id":"6196c706760b93acd6241d8f","condition":"full-information","relevant_dimensions":["antennae","pattern"],"bee_group":{"antennae":"B","wings":"X","pattern":"S","legs":"X"},"bonus":0},{"rt":1090.8999999910593,"stimulus":"bees-with-color/bee-A2SF.svg","response":1,"trial_type":"image-button-response","trial_index":127,"time_elapsed":374984,"internal_node_id":"0.0-4.0-0.60","subject_id":"5e85fb52694b68049c112544","study_id":"60edd13110225f80f9f3709b","session_id":"6196c706760b93acd6241d8f","condition":"full-information","relevant_dimensions":["antennae","pattern"],"bee_group":{"antennae":"B","wings":"X","pattern":"S","legs":"X"},"action":"avoid","summary":"bad-avoid","bonus":0},{"rt":874.9000000059605,"stimulus":"\n                    <p><b>Action: <em>avoid</em></b></p>\n                    <p>This is the bee that you just saw.</p>\n                    <img src=\"bees-with-color/bee-A2SF.svg\" width=\"200\">\n                    <p><span class=\"redText\">Bad choice,</span> the bee was friendly.<br>Your bonus pay is unchanged, and remains at $0.02.</p>\n            ","response":0,"trial_type":"html-button-response","trial_index":128,"time_elapsed":375859,"internal_node_id":"0.0-4.0-1.60","subject_id":"5e85fb52694b68049c112544","study_id":"60edd13110225f80f9f3709b","session_id":"6196c706760b93acd6241d8f","condition":"full-information","relevant_dimensions":["antennae","pattern"],"bee_group":{"antennae":"B","wings":"X","pattern":"S","legs":"X"},"bonus":0},{"rt":737.2000000029802,"stimulus":"bees-with-color/bee-B1DM.svg","response":0,"trial_type":"image-button-response","trial_index":129,"time_elapsed":376597,"internal_node_id":"0.0-4.0-0.61","subject_id":"5e85fb52694b68049c112544","study_id":"60edd13110225f80f9f3709b","session_id":"6196c706760b93acd6241d8f","condition":"full-information","relevant_dimensions":["antennae","pattern"],"bee_group":{"antennae":"B","wings":"X","pattern":"S","legs":"X"},"action":"harvest","summary":"good-harvest","bonus":0},{"rt":638.8999999910593,"stimulus":"\n                    <p><b>Action: <em>harvest</em></b></p>\n                    <p>This is the bee that you just saw.</p>\n                    <img src=\"bees-with-color/bee-B1DM.svg\" width=\"200\">\n                    <p><span class=\"greenText\"><b>Successful harvest!</b></span><br>Your pay has increased by $0.02. Your bonus pay is now $0.04.</p>\n            ","response":0,"trial_type":"html-button-response","trial_index":130,"time_elapsed":377237,"internal_node_id":"0.0-4.0-1.61","subject_id":"5e85fb52694b68049c112544","study_id":"60edd13110225f80f9f3709b","session_id":"6196c706760b93acd6241d8f","condition":"full-information","relevant_dimensions":["antennae","pattern"],"bee_group":{"antennae":"B","wings":"X","pattern":"S","legs":"X"},"bonus":0},{"rt":821.2000000029802,"stimulus":"bees-with-color/bee-A1DF.svg","response":0,"trial_type":"image-button-response","trial_index":131,"time_elapsed":378059,"internal_node_id":"0.0-4.0-0.62","subject_id":"5e85fb52694b68049c112544","study_id":"60edd13110225f80f9f3709b","session_id":"6196c706760b93acd6241d8f","condition":"full-information","relevant_dimensions":["antennae","pattern"],"bee_group":{"antennae":"B","wings":"X","pattern":"S","legs":"X"},"action":"harvest","summary":"good-harvest","bonus":0},{"rt":717.9000000059605,"stimulus":"\n                    <p><b>Action: <em>harvest</em></b></p>\n                    <p>This is the bee that you just saw.</p>\n                    <img src=\"bees-with-color/bee-A1DF.svg\" width=\"200\">\n                    <p><span class=\"greenText\"><b>Successful harvest!</b></span><br>Your pay has increased by $0.02. Your bonus pay is now $0.06.</p>\n            ","response":0,"trial_type":"html-button-response","trial_index":132,"time_elapsed":378778,"internal_node_id":"0.0-4.0-1.62","subject_id":"5e85fb52694b68049c112544","study_id":"60edd13110225f80f9f3709b","session_id":"6196c706760b93acd6241d8f","condition":"full-information","relevant_dimensions":["antennae","pattern"],"bee_group":{"antennae":"B","wings":"X","pattern":"S","legs":"X"},"bonus":0},{"rt":477.29999999701977,"stimulus":"bees-with-color/bee-B1SF.svg","response":0,"trial_type":"image-button-response","trial_index":133,"time_elapsed":379256,"internal_node_id":"0.0-4.0-0.63","subject_id":"5e85fb52694b68049c112544","study_id":"60edd13110225f80f9f3709b","session_id":"6196c706760b93acd6241d8f","condition":"full-information","relevant_dimensions":["antennae","pattern"],"bee_group":{"antennae":"B","wings":"X","pattern":"S","legs":"X"},"action":"harvest","summary":"bad-harvest","bonus":0},{"rt":979.0999999940395,"stimulus":"\n                    <p><b>Action: <em>harvest</em></b></p>\n                    <p>This is the bee that you just saw.</p>\n                    <img src=\"bees-with-color/bee-B1SF.svg\" width=\"200\">\n                    <p><span class=\"redText\">Bad choice, the bee was angry.</span><br><b>You have been stung!</b><br>Your pay has been decreased by $0.10. Your bonus pay is now $0.00.</p>\n            ","response":0,"trial_type":"html-button-response","trial_index":134,"time_elapsed":380236,"internal_node_id":"0.0-4.0-1.63","subject_id":"5e85fb52694b68049c112544","study_id":"60edd13110225f80f9f3709b","session_id":"6196c706760b93acd6241d8f","condition":"full-information","relevant_dimensions":["antennae","pattern"],"bee_group":{"antennae":"B","wings":"X","pattern":"S","legs":"X"},"bonus":0},{"rt":6764.5999999940395,"stimulus":"You have completed the first part of this experiment.<br><br>You will now begin a shorter second part, in which you will receive no feedback.<br>The same rules regarding bonus pay apply.<br><br>Press any key to begin.","response":" ","trial_type":"html-keyboard-response","trial_index":135,"time_elapsed":387002,"internal_node_id":"0.0-5.0","subject_id":"5e85fb52694b68049c112544","study_id":"60edd13110225f80f9f3709b","session_id":"6196c706760b93acd6241d8f","condition":"full-information","relevant_dimensions":["antennae","pattern"],"bee_group":{"antennae":"B","wings":"X","pattern":"S","legs":"X"},"bonus":0},{"rt":4228.399999991059,"stimulus":"bees-with-color/bee-B1SF.svg","response":0,"trial_type":"image-button-response","trial_index":136,"time_elapsed":391239,"internal_node_id":"0.0-6.0-0.0","subject_id":"5e85fb52694b68049c112544","study_id":"60edd13110225f80f9f3709b","session_id":"6196c706760b93acd6241d8f","condition":"full-information","relevant_dimensions":["antennae","pattern"],"bee_group":{"antennae":"B","wings":"X","pattern":"S","legs":"X"},"bonus":0},{"rt":6412.70000000298,"stimulus":"bees-with-color/bee-A1DF.svg","response":0,"trial_type":"image-button-response","trial_index":137,"time_elapsed":397653,"internal_node_id":"0.0-6.0-0.1","subject_id":"5e85fb52694b68049c112544","study_id":"60edd13110225f80f9f3709b","session_id":"6196c706760b93acd6241d8f","condition":"full-information","relevant_dimensions":["antennae","pattern"],"bee_group":{"antennae":"B","wings":"X","pattern":"S","legs":"X"},"bonus":0},{"rt":2184.2000000029802,"stimulus":"bees-with-color/bee-A1DM.svg","response":0,"trial_type":"image-button-response","trial_index":138,"time_elapsed":399839,"internal_node_id":"0.0-6.0-0.2","subject_id":"5e85fb52694b68049c112544","study_id":"60edd13110225f80f9f3709b","session_id":"6196c706760b93acd6241d8f","condition":"full-information","relevant_dimensions":["antennae","pattern"],"bee_group":{"antennae":"B","wings":"X","pattern":"S","legs":"X"},"bonus":0},{"rt":1432.2000000029802,"stimulus":"bees-with-color/bee-B2DM.svg","response":1,"trial_type":"image-button-response","trial_index":139,"time_elapsed":401273,"internal_node_id":"0.0-6.0-0.3","subject_id":"5e85fb52694b68049c112544","study_id":"60edd13110225f80f9f3709b","session_id":"6196c706760b93acd6241d8f","condition":"full-information","relevant_dimensions":["antennae","pattern"],"bee_group":{"antennae":"B","wings":"X","pattern":"S","legs":"X"},"bonus":0},{"rt":15301.5,"stimulus":"bees-with-color/bee-B1DM.svg","response":0,"trial_type":"image-button-response","trial_index":140,"time_elapsed":416576,"internal_node_id":"0.0-6.0-0.4","subject_id":"5e85fb52694b68049c112544","study_id":"60edd13110225f80f9f3709b","session_id":"6196c706760b93acd6241d8f","condition":"full-information","relevant_dimensions":["antennae","pattern"],"bee_group":{"antennae":"B","wings":"X","pattern":"S","legs":"X"},"bonus":0},{"rt":1042.7999999970198,"stimulus":"bees-with-color/bee-B1SM.svg","response":1,"trial_type":"image-button-response","trial_index":141,"time_elapsed":417621,"internal_node_id":"0.0-6.0-0.5","subject_id":"5e85fb52694b68049c112544","study_id":"60edd13110225f80f9f3709b","session_id":"6196c706760b93acd6241d8f","condition":"full-information","relevant_dimensions":["antennae","pattern"],"bee_group":{"antennae":"B","wings":"X","pattern":"S","legs":"X"},"bonus":0},{"rt":2203.8999999910593,"stimulus":"bees-with-color/bee-A1SM.svg","response":0,"trial_type":"image-button-response","trial_index":142,"time_elapsed":419826,"internal_node_id":"0.0-6.0-0.6","subject_id":"5e85fb52694b68049c112544","study_id":"60edd13110225f80f9f3709b","session_id":"6196c706760b93acd6241d8f","condition":"full-information","relevant_dimensions":["antennae","pattern"],"bee_group":{"antennae":"B","wings":"X","pattern":"S","legs":"X"},"bonus":0},{"rt":1847.2999999970198,"stimulus":"bees-with-color/bee-A1SF.svg","response":1,"trial_type":"image-button-response","trial_index":143,"time_elapsed":421675,"internal_node_id":"0.0-6.0-0.7","subject_id":"5e85fb52694b68049c112544","study_id":"60edd13110225f80f9f3709b","session_id":"6196c706760b93acd6241d8f","condition":"full-information","relevant_dimensions":["antennae","pattern"],"bee_group":{"antennae":"B","wings":"X","pattern":"S","legs":"X"},"bonus":0},{"rt":1978.5,"stimulus":"bees-with-color/bee-A2SF.svg","response":1,"trial_type":"image-button-response","trial_index":144,"time_elapsed":423655,"internal_node_id":"0.0-6.0-0.8","subject_id":"5e85fb52694b68049c112544","study_id":"60edd13110225f80f9f3709b","session_id":"6196c706760b93acd6241d8f","condition":"full-information","relevant_dimensions":["antennae","pattern"],"bee_group":{"antennae":"B","wings":"X","pattern":"S","legs":"X"},"bonus":0},{"rt":1169.5,"stimulus":"bees-with-color/bee-B2SM.svg","response":1,"trial_type":"image-button-response","trial_index":145,"time_elapsed":424826,"internal_node_id":"0.0-6.0-0.9","subject_id":"5e85fb52694b68049c112544","study_id":"60edd13110225f80f9f3709b","session_id":"6196c706760b93acd6241d8f","condition":"full-information","relevant_dimensions":["antennae","pattern"],"bee_group":{"antennae":"B","wings":"X","pattern":"S","legs":"X"},"bonus":0},{"rt":2732.2999999970198,"stimulus":"bees-with-color/bee-B2DF.svg","response":1,"trial_type":"image-button-response","trial_index":146,"time_elapsed":427560,"internal_node_id":"0.0-6.0-0.10","subject_id":"5e85fb52694b68049c112544","study_id":"60edd13110225f80f9f3709b","session_id":"6196c706760b93acd6241d8f","condition":"full-information","relevant_dimensions":["antennae","pattern"],"bee_group":{"antennae":"B","wings":"X","pattern":"S","legs":"X"},"bonus":0},{"rt":1650.8999999910593,"stimulus":"bees-with-color/bee-A2SM.svg","response":0,"trial_type":"image-button-response","trial_index":147,"time_elapsed":429212,"internal_node_id":"0.0-6.0-0.11","subject_id":"5e85fb52694b68049c112544","study_id":"60edd13110225f80f9f3709b","session_id":"6196c706760b93acd6241d8f","condition":"full-information","relevant_dimensions":["antennae","pattern"],"bee_group":{"antennae":"B","wings":"X","pattern":"S","legs":"X"},"bonus":0},{"rt":790.4000000059605,"stimulus":"bees-with-color/bee-B1DF.svg","response":1,"trial_type":"image-button-response","trial_index":148,"time_elapsed":430004,"internal_node_id":"0.0-6.0-0.12","subject_id":"5e85fb52694b68049c112544","study_id":"60edd13110225f80f9f3709b","session_id":"6196c706760b93acd6241d8f","condition":"full-information","relevant_dimensions":["antennae","pattern"],"bee_group":{"antennae":"B","wings":"X","pattern":"S","legs":"X"},"bonus":0},{"rt":1143,"stimulus":"bees-with-color/bee-A2DM.svg","response":1,"trial_type":"image-button-response","trial_index":149,"time_elapsed":431148,"internal_node_id":"0.0-6.0-0.13","subject_id":"5e85fb52694b68049c112544","study_id":"60edd13110225f80f9f3709b","session_id":"6196c706760b93acd6241d8f","condition":"full-information","relevant_dimensions":["antennae","pattern"],"bee_group":{"antennae":"B","wings":"X","pattern":"S","legs":"X"},"bonus":0},{"rt":633.3000000119209,"stimulus":"bees-with-color/bee-A2DF.svg","response":1,"trial_type":"image-button-response","trial_index":150,"time_elapsed":431783,"internal_node_id":"0.0-6.0-0.14","subject_id":"5e85fb52694b68049c112544","study_id":"60edd13110225f80f9f3709b","session_id":"6196c706760b93acd6241d8f","condition":"full-information","relevant_dimensions":["antennae","pattern"],"bee_group":{"antennae":"B","wings":"X","pattern":"S","legs":"X"},"bonus":0},{"rt":1129.7999999970198,"stimulus":"bees-with-color/bee-B2SF.svg","response":1,"trial_type":"image-button-response","trial_index":151,"time_elapsed":432914,"internal_node_id":"0.0-6.0-0.15","subject_id":"5e85fb52694b68049c112544","study_id":"60edd13110225f80f9f3709b","session_id":"6196c706760b93acd6241d8f","condition":"full-information","relevant_dimensions":["antennae","pattern"],"bee_group":{"antennae":"B","wings":"X","pattern":"S","legs":"X"},"bonus":0},{"rt":716.5999999940395,"stimulus":"bees-with-color/bee-A2DM.svg","response":1,"trial_type":"image-button-response","trial_index":152,"time_elapsed":433632,"internal_node_id":"0.0-6.0-0.16","subject_id":"5e85fb52694b68049c112544","study_id":"60edd13110225f80f9f3709b","session_id":"6196c706760b93acd6241d8f","condition":"full-information","relevant_dimensions":["antennae","pattern"],"bee_group":{"antennae":"B","wings":"X","pattern":"S","legs":"X"},"bonus":0},{"rt":577.1000000089407,"stimulus":"bees-with-color/bee-B2DF.svg","response":1,"trial_type":"image-button-response","trial_index":153,"time_elapsed":434210,"internal_node_id":"0.0-6.0-0.17","subject_id":"5e85fb52694b68049c112544","study_id":"60edd13110225f80f9f3709b","session_id":"6196c706760b93acd6241d8f","condition":"full-information","relevant_dimensions":["antennae","pattern"],"bee_group":{"antennae":"B","wings":"X","pattern":"S","legs":"X"},"bonus":0},{"rt":1566.4000000059605,"stimulus":"bees-with-color/bee-A1SM.svg","response":0,"trial_type":"image-button-response","trial_index":154,"time_elapsed":435778,"internal_node_id":"0.0-6.0-0.18","subject_id":"5e85fb52694b68049c112544","study_id":"60edd13110225f80f9f3709b","session_id":"6196c706760b93acd6241d8f","condition":"full-information","relevant_dimensions":["antennae","pattern"],"bee_group":{"antennae":"B","wings":"X","pattern":"S","legs":"X"},"bonus":0},{"rt":1057,"stimulus":"bees-with-color/bee-A1DF.svg","response":1,"trial_type":"image-button-response","trial_index":155,"time_elapsed":436836,"internal_node_id":"0.0-6.0-0.19","subject_id":"5e85fb52694b68049c112544","study_id":"60edd13110225f80f9f3709b","session_id":"6196c706760b93acd6241d8f","condition":"full-information","relevant_dimensions":["antennae","pattern"],"bee_group":{"antennae":"B","wings":"X","pattern":"S","legs":"X"},"bonus":0},{"rt":6197.70000000298,"stimulus":"bees-with-color/bee-B1SF.svg","response":0,"trial_type":"image-button-response","trial_index":156,"time_elapsed":443035,"internal_node_id":"0.0-6.0-0.20","subject_id":"5e85fb52694b68049c112544","study_id":"60edd13110225f80f9f3709b","session_id":"6196c706760b93acd6241d8f","condition":"full-information","relevant_dimensions":["antennae","pattern"],"bee_group":{"antennae":"B","wings":"X","pattern":"S","legs":"X"},"bonus":0},{"rt":805.6000000089407,"stimulus":"bees-with-color/bee-B1DM.svg","response":1,"trial_type":"image-button-response","trial_index":157,"time_elapsed":443842,"internal_node_id":"0.0-6.0-0.21","subject_id":"5e85fb52694b68049c112544","study_id":"60edd13110225f80f9f3709b","session_id":"6196c706760b93acd6241d8f","condition":"full-information","relevant_dimensions":["antennae","pattern"],"bee_group":{"antennae":"B","wings":"X","pattern":"S","legs":"X"},"bonus":0},{"rt":1245.7999999970198,"stimulus":"bees-with-color/bee-B2SM.svg","response":1,"trial_type":"image-button-response","trial_index":158,"time_elapsed":445089,"internal_node_id":"0.0-6.0-0.22","subject_id":"5e85fb52694b68049c112544","study_id":"60edd13110225f80f9f3709b","session_id":"6196c706760b93acd6241d8f","condition":"full-information","relevant_dimensions":["antennae","pattern"],"bee_group":{"antennae":"B","wings":"X","pattern":"S","legs":"X"},"bonus":0},{"rt":830.3999999910593,"stimulus":"bees-with-color/bee-A2SM.svg","response":0,"trial_type":"image-button-response","trial_index":159,"time_elapsed":445921,"internal_node_id":"0.0-6.0-0.23","subject_id":"5e85fb52694b68049c112544","study_id":"60edd13110225f80f9f3709b","session_id":"6196c706760b93acd6241d8f","condition":"full-information","relevant_dimensions":["antennae","pattern"],"bee_group":{"antennae":"B","wings":"X","pattern":"S","legs":"X"},"bonus":0},{