[{"success":true,"trial_type":"fullscreen","trial_index":0,"time_elapsed":7665,"internal_node_id":"0.0-0.0","subject_id":"5f64af3570cc750009026296","study_id":"60edd13110225f80f9f3709b","session_id":"6196c70262630adcd4f02e8a","condition":"full-information","relevant_dimensions":["wings","legs"],"bee_group":{"antennae":"X","wings":"2","pattern":"X","legs":"M"},"bonus":1.9200000000000013},{"success":true,"timeout":false,"failed_images":[],"failed_audio":[],"failed_video":[],"trial_type":"preload","trial_index":1,"time_elapsed":10551,"internal_node_id":"0.0-1.0","subject_id":"5f64af3570cc750009026296","study_id":"60edd13110225f80f9f3709b","session_id":"6196c70262630adcd4f02e8a","condition":"full-information","relevant_dimensions":["wings","legs"],"bee_group":{"antennae":"X","wings":"2","pattern":"X","legs":"M"},"bonus":1.9200000000000013},{"rt":2944.199999988079,"stimulus":"Welcome! Press any key to begin.","response":" ","trial_type":"html-keyboard-response","trial_index":2,"time_elapsed":13497,"internal_node_id":"0.0-2.0","subject_id":"5f64af3570cc750009026296","study_id":"60edd13110225f80f9f3709b","session_id":"6196c70262630adcd4f02e8a","condition":"full-information","relevant_dimensions":["wings","legs"],"bee_group":{"antennae":"X","wings":"2","pattern":"X","legs":"M"},"bonus":1.9200000000000013},{"view_history":[{"page_index":0,"viewing_time":23847.900000035763},{"page_index":1,"viewing_time":16982.599999964237},{"page_index":2,"viewing_time":5583.200000047684},{"page_index":3,"viewing_time":10983.599999964237},{"page_index":4,"viewing_time":5233.5},{"page_index":5,"viewing_time":6767.5},{"page_index":6,"viewing_time":14283.5},{"page_index":7,"viewing_time":6499.300000011921},{"page_index":8,"viewing_time":3400.5},{"page_index":9,"viewing_time":2800.899999976158},{"page_index":10,"viewing_time":3448.600000023842},{"page_index":11,"viewing_time":16650.19999998808},{"page_index":12,"viewing_time":10217},{"page_index":13,"viewing_time":1283.199999988079},{"page_index":14,"viewing_time":2133.2000000476837}],"rt":130115.40000003576,"trial_type":"instructions","trial_index":3,"time_elapsed":143612,"internal_node_id":"0.0-3.0-0.0","subject_id":"5f64af3570cc750009026296","study_id":"60edd13110225f80f9f3709b","session_id":"6196c70262630adcd4f02e8a","condition":"full-information","relevant_dimensions":["wings","legs"],"bee_group":{"antennae":"X","wings":"2","pattern":"X","legs":"M"},"bonus":1.9200000000000013},{"rt":21544.80000001192,"response":{"Q0":["Two or six legs","Stripes or spots on body","Single or double wings","Antennae or no antennae"]},"question_order":[0],"trial_type":"survey-multi-select","trial_index":4,"time_elapsed":165163,"internal_node_id":"0.0-3.0-1.0","subject_id":"5f64af3570cc750009026296","study_id":"60edd13110225f80f9f3709b","session_id":"6196c70262630adcd4f02e8a","condition":"full-information","relevant_dimensions":["wings","legs"],"bee_group":{"antennae":"X","wings":"2","pattern":"X","legs":"M"},"correct":true,"bonus":1.9200000000000013},{"rt":52197.59999996424,"response":{"Q1":"No.","Q2":"Based on the four features of the bee.","Q3":"You learn if it was friendly or dangerous, but do not alter your bonus."},"question_order":[0,1,2],"trial_type":"survey-multi-choice","trial_index":5,"time_elapsed":217369,"internal_node_id":"0.0-3.0-2.0","subject_id":"5f64af3570cc750009026296","study_id":"60edd13110225f80f9f3709b","session_id":"6196c70262630adcd4f02e8a","condition":"full-information","relevant_dimensions":["wings","legs"],"bee_group":{"antennae":"X","wings":"2","pattern":"X","legs":"M"},"correct":true,"bonus":1.9200000000000013},{"rt":2162.7999999523163,"stimulus":"<p>Congrats, you got everything right<br>When you're ready, click the button below to continue to the experiment.</p>","response":0,"trial_type":"html-button-response","trial_index":6,"time_elapsed":219535,"internal_node_id":"0.0-3.0-3.0","subject_id":"5f64af3570cc750009026296","study_id":"60edd13110225f80f9f3709b","session_id":"6196c70262630adcd4f02e8a","condition":"full-information","relevant_dimensions":["wings","legs"],"bee_group":{"antennae":"X","wings":"2","pattern":"X","legs":"M"},"bonus":1.9200000000000013},{"rt":23778.399999976158,"stimulus":"bees-with-color/bee-B2DM.svg","response":1,"trial_type":"image-button-response","trial_index":7,"time_elapsed":243319,"internal_node_id":"0.0-4.0-0.0","subject_id":"5f64af3570cc750009026296","study_id":"60edd13110225f80f9f3709b","session_id":"6196c70262630adcd4f02e8a","condition":"full-information","relevant_dimensions":["wings","legs"],"bee_group":{"antennae":"X","wings":"2","pattern":"X","legs":"M"},"action":"avoid","summary":"good-avoid","bonus":1.9200000000000013},{"rt":8529.100000023842,"stimulus":"\n                    <p><b>Action: <em>avoid</em></b></p>\n                    <p>This is the bee that you just saw.</p>\n                    <img src=\"bees-with-color/bee-B2DM.svg\" width=\"200\">\n                    <p><span class=\"greenText\">Good choice!</span>  This bee would have stung you.<br>Your bonus pay is unchanged, and remains at $0.54.</p>\n            ","response":0,"trial_type":"html-button-response","trial_index":8,"time_elapsed":251853,"internal_node_id":"0.0-4.0-1.0","subject_id":"5f64af3570cc750009026296","study_id":"60edd13110225f80f9f3709b","session_id":"6196c70262630adcd4f02e8a","condition":"full-information","relevant_dimensions":["wings","legs"],"bee_group":{"antennae":"X","wings":"2","pattern":"X","legs":"M"},"bonus":1.9200000000000013},{"rt":5778.199999988079,"stimulus":"bees-with-color/bee-A1DF.svg","response":1,"trial_type":"image-button-response","trial_index":9,"time_elapsed":257635,"internal_node_id":"0.0-4.0-0.1","subject_id":"5f64af3570cc750009026296","study_id":"60edd13110225f80f9f3709b","session_id":"6196c70262630adcd4f02e8a","condition":"full-information","relevant_dimensions":["wings","legs"],"bee_group":{"antennae":"X","wings":"2","pattern":"X","legs":"M"},"action":"avoid","summary":"bad-avoid","bonus":1.9200000000000013},{"rt":4244.5,"stimulus":"\n                    <p><b>Action: <em>avoid</em></b></p>\n                    <p>This is the bee that you just saw.</p>\n                    <img src=\"bees-with-color/bee-A1DF.svg\" width=\"200\">\n                    <p><span class=\"redText\">Bad choice,</span> the bee was friendly.<br>Your bonus pay is unchanged, and remains at $0.54.</p>\n            ","response":0,"trial_type":"html-button-response","trial_index":10,"time_elapsed":261885,"internal_node_id":"0.0-4.0-1.1","subject_id":"5f64af3570cc750009026296","study_id":"60edd13110225f80f9f3709b","session_id":"6196c70262630adcd4f02e8a","condition":"full-information","relevant_dimensions":["wings","legs"],"bee_group":{"antennae":"X","wings":"2","pattern":"X","legs":"M"},"bonus":1.9200000000000013},{"rt":9014.100000023842,"stimulus":"bees-with-color/bee-A2SM.svg","response":1,"trial_type":"image-button-response","trial_index":11,"time_elapsed":270903,"internal_node_id":"0.0-4.0-0.2","subject_id":"5f64af3570cc750009026296","study_id":"60edd13110225f80f9f3709b","session_id":"6196c70262630adcd4f02e8a","condition":"full-information","relevant_dimensions":["wings","legs"],"bee_group":{"antennae":"X","wings":"2","pattern":"X","legs":"M"},"action":"avoid","summary":"good-avoid","bonus":1.9200000000000013},{"rt":5412.100000023842,"stimulus":"\n                    <p><b>Action: <em>avoid</em></b></p>\n                    <p>This is the bee that you just saw.</p>\n                    <img src=\"bees-with-color/bee-A2SM.svg\" width=\"200\">\n                    <p><span class=\"greenText\">Good choice!</span>  This bee would have stung you.<br>Your bonus pay is unchanged, and remains at $0.54.</p>\n            ","response":0,"trial_type":"html-button-response","trial_index":12,"time_elapsed":276318,"internal_node_id":"0.0-4.0-1.2","subject_id":"5f64af3570cc750009026296","study_id":"60edd13110225f80f9f3709b","session_id":"6196c70262630adcd4f02e8a","condition":"full-information","relevant_dimensions":["wings","legs"],"bee_group":{"antennae":"X","wings":"2","pattern":"X","legs":"M"},"bonus":1.9200000000000013},{"rt":3880.5,"stimulus":"bees-with-color/bee-B1DF.svg","response":0,"trial_type":"image-button-response","trial_index":13,"time_elapsed":280203,"internal_node_id":"0.0-4.0-0.3","subject_id":"5f64af3570cc750009026296","study_id":"60edd13110225f80f9f3709b","session_id":"6196c70262630adcd4f02e8a","condition":"full-information","relevant_dimensions":["wings","legs"],"bee_group":{"antennae":"X","wings":"2","pattern":"X","legs":"M"},"action":"harvest","summary":"good-harvest","bonus":1.9200000000000013},{"rt":1461.8999999761581,"stimulus":"\n                    <p><b>Action: <em>harvest</em></b></p>\n                    <p>This is the bee that you just saw.</p>\n                    <img src=\"bees-with-color/bee-B1DF.svg\" width=\"200\">\n                    <p><span class=\"greenText\"><b>Successful harvest!</b></span><br>Your pay has increased by $0.02. Your bonus pay is now $0.56.</p>\n            ","response":0,"trial_type":"html-button-response","trial_index":14,"time_elapsed":281668,"internal_node_id":"0.0-4.0-1.3","subject_id":"5f64af3570cc750009026296","study_id":"60edd13110225f80f9f3709b","session_id":"6196c70262630adcd4f02e8a","condition":"full-information","relevant_dimensions":["wings","legs"],"bee_group":{"antennae":"X","wings":"2","pattern":"X","legs":"M"},"bonus":1.9200000000000013},{"rt":4131.599999964237,"stimulus":"bees-with-color/bee-A2DF.svg","response":0,"trial_type":"image-button-response","trial_index":15,"time_elapsed":285803,"internal_node_id":"0.0-4.0-0.4","subject_id":"5f64af3570cc750009026296","study_id":"60edd13110225f80f9f3709b","session_id":"6196c70262630adcd4f02e8a","condition":"full-information","relevant_dimensions":["wings","legs"],"bee_group":{"antennae":"X","wings":"2","pattern":"X","legs":"M"},"action":"harvest","summary":"good-harvest","bonus":1.9200000000000013},{"rt":2311.600000023842,"stimulus":"\n                    <p><b>Action: <em>harvest</em></b></p>\n                    <p>This is the bee that you just saw.</p>\n                    <img src=\"bees-with-color/bee-A2DF.svg\" width=\"200\">\n                    <p><span class=\"greenText\"><b>Successful harvest!</b></span><br>Your pay has increased by $0.02. Your bonus pay is now $0.58.</p>\n            ","response":0,"trial_type":"html-button-response","trial_index":16,"time_elapsed":288119,"internal_node_id":"0.0-4.0-1.4","subject_id":"5f64af3570cc750009026296","study_id":"60edd13110225f80f9f3709b","session_id":"6196c70262630adcd4f02e8a","condition":"full-information","relevant_dimensions":["wings","legs"],"bee_group":{"antennae":"X","wings":"2","pattern":"X","legs":"M"},"bonus":1.9200000000000013},{"rt":7164,"stimulus":"bees-with-color/bee-B2DF.svg","response":0,"trial_type":"image-button-response","trial_index":17,"time_elapsed":295286,"internal_node_id":"0.0-4.0-0.5","subject_id":"5f64af3570cc750009026296","study_id":"60edd13110225f80f9f3709b","session_id":"6196c70262630adcd4f02e8a","condition":"full-information","relevant_dimensions":["wings","legs"],"bee_group":{"antennae":"X","wings":"2","pattern":"X","legs":"M"},"action":"harvest","summary":"good-harvest","bonus":1.9200000000000013},{"rt":4015.099999964237,"stimulus":"\n                    <p><b>Action: <em>harvest</em></b></p>\n                    <p>This is the bee that you just saw.</p>\n                    <img src=\"bees-with-color/bee-B2DF.svg\" width=\"200\">\n                    <p><span class=\"greenText\"><b>Successful harvest!</b></span><br>Your pay has increased by $0.02. Your bonus pay is now $0.60.</p>\n            ","response":0,"trial_type":"html-button-response","trial_index":18,"time_elapsed":299304,"internal_node_id":"0.0-4.0-1.5","subject_id":"5f64af3570cc750009026296","study_id":"60edd13110225f80f9f3709b","session_id":"6196c70262630adcd4f02e8a","condition":"full-information","relevant_dimensions":["wings","legs"],"bee_group":{"antennae":"X","wings":"2","pattern":"X","legs":"M"},"bonus":1.9200000000000013},{"rt":2878,"stimulus":"bees-with-color/bee-A1DM.svg","response":1,"trial_type":"image-button-response","trial_index":19,"time_elapsed":302185,"internal_node_id":"0.0-4.0-0.6","subject_id":"5f64af3570cc750009026296","study_id":"60edd13110225f80f9f3709b","session_id":"6196c70262630adcd4f02e8a","condition":"full-information","relevant_dimensions":["wings","legs"],"bee_group":{"antennae":"X","wings":"2","pattern":"X","legs":"M"},"action":"avoid","summary":"bad-avoid","bonus":1.9200000000000013},{"rt":11896.699999988079,"stimulus":"\n                    <p><b>Action: <em>avoid</em></b></p>\n                    <p>This is the bee that you just saw.</p>\n                    <img src=\"bees-with-color/bee-A1DM.svg\" width=\"200\">\n                    <p><span class=\"redText\">Bad choice,</span> the bee was friendly.<br>Your bonus pay is unchanged, and remains at $0.60.</p>\n            ","response":0,"trial_type":"html-button-response","trial_index":20,"time_elapsed":314085,"internal_node_id":"0.0-4.0-1.6","subject_id":"5f64af3570cc750009026296","study_id":"60edd13110225f80f9f3709b","session_id":"6196c70262630adcd4f02e8a","condition":"full-information","relevant_dimensions":["wings","legs"],"bee_group":{"antennae":"X","wings":"2","pattern":"X","legs":"M"},"bonus":1.9200000000000013},{"rt":7447.300000011921,"stimulus":"bees-with-color/bee-B2SF.svg","response":0,"trial_type":"image-button-response","trial_index":21,"time_elapsed":321535,"internal_node_id":"0.0-4.0-0.7","subject_id":"5f64af3570cc750009026296","study_id":"60edd13110225f80f9f3709b","session_id":"6196c70262630adcd4f02e8a","condition":"full-information","relevant_dimensions":["wings","legs"],"bee_group":{"antennae":"X","wings":"2","pattern":"X","legs":"M"},"action":"harvest","summary":"good-harvest","bonus":1.9200000000000013},{"rt":1180.6000000238419,"stimulus":"\n                    <p><b>Action: <em>harvest</em></b></p>\n                    <p>This is the bee that you just saw.</p>\n                    <img src=\"bees-with-color/bee-B2SF.svg\" width=\"200\">\n                    <p><span class=\"greenText\"><b>Successful harvest!</b></span><br>Your pay has increased by $0.02. Your bonus pay is now $0.62.</p>\n            ","response":0,"trial_type":"html-button-response","trial_index":22,"time_elapsed":322719,"internal_node_id":"0.0-4.0-1.7","subject_id":"5f64af3570cc750009026296","study_id":"60edd13110225f80f9f3709b","session_id":"6196c70262630adcd4f02e8a","condition":"full-information","relevant_dimensions":["wings","legs"],"bee_group":{"antennae":"X","wings":"2","pattern":"X","legs":"M"},"bonus":1.9200000000000013},{"rt":4247,"stimulus":"bees-with-color/bee-A1SF.svg","response":0,"trial_type":"image-button-response","trial_index":23,"time_elapsed":326970,"internal_node_id":"0.0-4.0-0.8","subject_id":"5f64af3570cc750009026296","study_id":"60edd13110225f80f9f3709b","session_id":"6196c70262630adcd4f02e8a","condition":"full-information","relevant_dimensions":["wings","legs"],"bee_group":{"antennae":"X","wings":"2","pattern":"X","legs":"M"},"action":"harvest","summary":"good-harvest","bonus":1.9200000000000013},{"rt":1046.5,"stimulus":"\n                    <p><b>Action: <em>harvest</em></b></p>\n                    <p>This is the bee that you just saw.</p>\n                    <img src=\"bees-with-color/bee-A1SF.svg\" width=\"200\">\n                    <p><span class=\"greenText\"><b>Successful harvest!</b></span><br>Your pay has increased by $0.02. Your bonus pay is now $0.64.</p>\n            ","response":0,"trial_type":"html-button-response","trial_index":24,"time_elapsed":328019,"internal_node_id":"0.0-4.0-1.8","subject_id":"5f64af3570cc750009026296","study_id":"60edd13110225f80f9f3709b","session_id":"6196c70262630adcd4f02e8a","condition":"full-information","relevant_dimensions":["wings","legs"],"bee_group":{"antennae":"X","wings":"2","pattern":"X","legs":"M"},"bonus":1.9200000000000013},{"rt":4212.699999988079,"stimulus":"bees-with-color/bee-B1SF.svg","response":0,"trial_type":"image-button-response","trial_index":25,"time_elapsed":332235,"internal_node_id":"0.0-4.0-0.9","subject_id":"5f64af3570cc750009026296","study_id":"60edd13110225f80f9f3709b","session_id":"6196c70262630adcd4f02e8a","condition":"full-information","relevant_dimensions":["wings","legs"],"bee_group":{"antennae":"X","wings":"2","pattern":"X","legs":"M"},"action":"harvest","summary":"good-harvest","bonus":1.9200000000000013},{"rt":913.4000000357628,"stimulus":"\n                    <p><b>Action: <em>harvest</em></b></p>\n                    <p>This is the bee that you just saw.</p>\n                    <img src=\"bees-with-color/bee-B1SF.svg\" width=\"200\">\n                    <p><span class=\"greenText\"><b>Successful harvest!</b></span><br>Your pay has increased by $0.02. Your bonus pay is now $0.66.</p>\n            ","response":0,"trial_type":"html-button-response","trial_index":26,"time_elapsed":333151,"internal_node_id":"0.0-4.0-1.9","subject_id":"5f64af3570cc750009026296","study_id":"60edd13110225f80f9f3709b","session_id":"6196c70262630adcd4f02e8a","condition":"full-information","relevant_dimensions":["wings","legs"],"bee_group":{"antennae":"X","wings":"2","pattern":"X","legs":"M"},"bonus":1.9200000000000013},{"rt":4730.900000035763,"stimulus":"bees-with-color/bee-B1SM.svg","response":1,"trial_type":"image-button-response","trial_index":27,"time_elapsed":337886,"internal_node_id":"0.0-4.0-0.10","subject_id":"5f64af3570cc750009026296","study_id":"60edd13110225f80f9f3709b","session_id":"6196c70262630adcd4f02e8a","condition":"full-information","relevant_dimensions":["wings","legs"],"bee_group":{"antennae":"X","wings":"2","pattern":"X","legs":"M"},"action":"avoid","summary":"bad-avoid","bonus":1.9200000000000013},{"rt":2429.2999999523163,"stimulus":"\n                    <p><b>Action: <em>avoid</em></b></p>\n                    <p>This is the bee that you just saw.</p>\n                    <img src=\"bees-with-color/bee-B1SM.svg\" width=\"200\">\n                    <p><span class=\"redText\">Bad choice,</span> the bee was friendly.<br>Your bonus pay is unchanged, and remains at $0.66.</p>\n            ","response":0,"trial_type":"html-button-response","trial_index":28,"time_elapsed":340319,"internal_node_id":"0.0-4.0-1.10","subject_id":"5f64af3570cc750009026296","study_id":"60edd13110225f80f9f3709b","session_id":"6196c70262630adcd4f02e8a","condition":"full-information","relevant_dimensions":["wings","legs"],"bee_group":{"antennae":"X","wings":"2","pattern":"X","legs":"M"},"bonus":1.9200000000000013},{"rt":2513,"stimulus":"bees-with-color/bee-B2SM.svg","response":1,"trial_type":"image-button-response","trial_index":29,"time_elapsed":342836,"internal_node_id":"0.0-4.0-0.11","subject_id":"5f64af3570cc750009026296","study_id":"60edd13110225f80f9f3709b","session_id":"6196c70262630adcd4f02e8a","condition":"full-information","relevant_dimensions":["wings","legs"],"bee_group":{"antennae":"X","wings":"2","pattern":"X","legs":"M"},"action":"avoid","summary":"good-avoid","bonus":1.9200000000000013},{"rt":2029.5999999642372,"stimulus":"\n                    <p><b>Action: <em>avoid</em></b></p>\n                    <p>This is the bee that you just saw.</p>\n                    <img src=\"bees-with-color/bee-B2SM.svg\" width=\"200\">\n                    <p><span class=\"greenText\">Good choice!</span>  This bee would have stung you.<br>Your bonus pay is unchanged, and remains at $0.66.</p>\n            ","response":0,"trial_type":"html-button-response","trial_index":30,"time_elapsed":344869,"internal_node_id":"0.0-4.0-1.11","subject_id":"5f64af3570cc750009026296","study_id":"60edd13110225f80f9f3709b","session_id":"6196c70262630adcd4f02e8a","condition":"full-information","relevant_dimensions":["wings","legs"],"bee_group":{"antennae":"X","wings":"2","pattern":"X","legs":"M"},"bonus":1.9200000000000013},{"rt":1814.8999999761581,"stimulus":"bees-with-color/bee-A2DM.svg","response":1,"trial_type":"image-button-response","trial_index":31,"time_elapsed":346687,"internal_node_id":"0.0-4.0-0.12","subject_id":"5f64af3570cc750009026296","study_id":"60edd13110225f80f9f3709b","session_id":"6196c70262630adcd4f02e8a","condition":"full-information","relevant_dimensions":["wings","legs"],"bee_group":{"antennae":"X","wings":"2","pattern":"X","legs":"M"},"action":"avoid","summary":"good-avoid","bonus":1.9200000000000013},{"rt":1528.5,"stimulus":"\n                    <p><b>Action: <em>avoid</em></b></p>\n                    <p>This is the bee that you just saw.</p>\n                    <img src=\"bees-with-color/bee-A2DM.svg\" width=\"200\">\n                    <p><span class=\"greenText\">Good choice!</span>  This bee would have stung you.<br>Your bonus pay is unchanged, and remains at $0.66.</p>\n            ","response":0,"trial_type":"html-button-response","trial_index":32,"time_elapsed":348219,"internal_node_id":"0.0-4.0-1.12","subject_id":"5f64af3570cc750009026296","study_id":"60edd13110225f80f9f3709b","session_id":"6196c70262630adcd4f02e8a","condition":"full-information","relevant_dimensions":["wings","legs"],"bee_group":{"antennae":"X","wings":"2","pattern":"X","legs":"M"},"bonus":1.9200000000000013},{"rt":3863.5,"stimulus":"bees-with-color/bee-B1DM.svg","response":0,"trial_type":"image-button-response","trial_index":33,"time_elapsed":352086,"internal_node_id":"0.0-4.0-0.13","subject_id":"5f64af3570cc750009026296","study_id":"60edd13110225f80f9f3709b","session_id":"6196c70262630adcd4f02e8a","condition":"full-information","relevant_dimensions":["wings","legs"],"bee_group":{"antennae":"X","wings":"2","pattern":"X","legs":"M"},"action":"harvest","summary":"good-harvest","bonus":1.9200000000000013},{"rt":847.1999999880791,"stimulus":"\n                    <p><b>Action: <em>harvest</em></b></p>\n                    <p>This is the bee that you just saw.</p>\n                    <img src=\"bees-with-color/bee-B1DM.svg\" width=\"200\">\n                    <p><span class=\"greenText\"><b>Successful harvest!</b></span><br>Your pay has increased by $0.02. Your bonus pay is now $0.68.</p>\n            ","response":0,"trial_type":"html-button-response","trial_index":34,"time_elapsed":352936,"internal_node_id":"0.0-4.0-1.13","subject_id":"5f64af3570cc750009026296","study_id":"60edd13110225f80f9f3709b","session_id":"6196c70262630adcd4f02e8a","condition":"full-information","relevant_dimensions":["wings","legs"],"bee_group":{"antennae":"X","wings":"2","pattern":"X","legs":"M"},"bonus":1.9200000000000013},{"rt":2596.899999976158,"stimulus":"bees-with-color/bee-A1SM.svg","response":0,"trial_type":"image-button-response","trial_index":35,"time_elapsed":355535,"internal_node_id":"0.0-4.0-0.14","subject_id":"5f64af3570cc750009026296","study_id":"60edd13110225f80f9f3709b","session_id":"6196c70262630adcd4f02e8a","condition":"full-information","relevant_dimensions":["wings","legs"],"bee_group":{"antennae":"X","wings":"2","pattern":"X","legs":"M"},"action":"harvest","summary":"good-harvest","bonus":1.9200000000000013},{"rt":830.3999999761581,"stimulus":"\n                    <p><b>Action: <em>harvest</em></b></p>\n                    <p>This is the bee that you just saw.</p>\n                    <img src=\"bees-with-color/bee-A1SM.svg\" width=\"200\">\n                    <p><span class=\"greenText\"><b>Successful harvest!</b></span><br>Your pay has increased by $0.02. Your bonus pay is now $0.70.</p>\n            ","response":0,"trial_type":"html-button-response","trial_index":36,"time_elapsed":356369,"internal_node_id":"0.0-4.0-1.14","subject_id":"5f64af3570cc750009026296","study_id":"60edd13110225f80f9f3709b","session_id":"6196c70262630adcd4f02e8a","condition":"full-information","relevant_dimensions":["wings","legs"],"bee_group":{"antennae":"X","wings":"2","pattern":"X","legs":"M"},"bonus":1.9200000000000013},{"rt":2213.699999988079,"stimulus":"bees-with-color/bee-A2SF.svg","response":0,"trial_type":"image-button-response","trial_index":37,"time_elapsed":358585,"internal_node_id":"0.0-4.0-0.15","subject_id":"5f64af3570cc750009026296","study_id":"60edd13110225f80f9f3709b","session_id":"6196c70262630adcd4f02e8a","condition":"full-information","relevant_dimensions":["wings","legs"],"bee_group":{"antennae":"X","wings":"2","pattern":"X","legs":"M"},"action":"harvest","summary":"good-harvest","bonus":1.9200000000000013},{"rt":963.3999999761581,"stimulus":"\n                    <p><b>Action: <em>harvest</em></b></p>\n                    <p>This is the bee that you just saw.</p>\n                    <img src=\"bees-with-color/bee-A2SF.svg\" width=\"200\">\n                    <p><span class=\"greenText\"><b>Successful harvest!</b></span><br>Your pay has increased by $0.02. Your bonus pay is now $0.72.</p>\n            ","response":0,"trial_type":"html-button-response","trial_index":38,"time_elapsed":359552,"internal_node_id":"0.0-4.0-1.15","subject_id":"5f64af3570cc750009026296","study_id":"60edd13110225f80f9f3709b","session_id":"6196c70262630adcd4f02e8a","condition":"full-information","relevant_dimensions":["wings","legs"],"bee_group":{"antennae":"X","wings":"2","pattern":"X","legs":"M"},"bonus":1.9200000000000013},{"rt":1881.7000000476837,"stimulus":"bees-with-color/bee-B2DM.svg","response":1,"trial_type":"image-button-response","trial_index":39,"time_elapsed":361436,"internal_node_id":"0.0-4.0-0.16","subject_id":"5f64af3570cc750009026296","study_id":"60edd13110225f80f9f3709b","session_id":"6196c70262630adcd4f02e8a","condition":"full-information","relevant_dimensions":["wings","legs"],"bee_group":{"antennae":"X","wings":"2","pattern":"X","legs":"M"},"action":"avoid","summary":"good-avoid","bonus":1.9200000000000013},{"rt":896.0999999642372,"stimulus":"\n                    <p><b>Action: <em>avoid</em></b></p>\n                    <p>This is the bee that you just saw.</p>\n                    <img src=\"bees-with-color/bee-B2DM.svg\" width=\"200\">\n                    <p><span class=\"greenText\">Good choice!</span>  This bee would have stung you.<br>Your bonus pay is unchanged, and remains at $0.72.</p>\n            ","response":0,"trial_type":"html-button-response","trial_index":40,"time_elapsed":362335,"internal_node_id":"0.0-4.0-1.16","subject_id":"5f64af3570cc750009026296","study_id":"60edd13110225f80f9f3709b","session_id":"6196c70262630adcd4f02e8a","condition":"full-information","relevant_dimensions":["wings","legs"],"bee_group":{"antennae":"X","wings":"2","pattern":"X","legs":"M"},"bonus":1.9200000000000013},{"rt":2313.599999964237,"stimulus":"bees-with-color/bee-A2SF.svg","response":0,"trial_type":"image-button-response","trial_index":41,"time_elapsed":364652,"internal_node_id":"0.0-4.0-0.17","subject_id":"5f64af3570cc750009026296","study_id":"60edd13110225f80f9f3709b","session_id":"6196c70262630adcd4f02e8a","condition":"full-information","relevant_dimensions":["wings","legs"],"bee_group":{"antennae":"X","wings":"2","pattern":"X","legs":"M"},"action":"harvest","summary":"good-harvest","bonus":1.9200000000000013},{"rt":714.5,"stimulus":"\n                    <p><b>Action: <em>harvest</em></b></p>\n                    <p>This is the bee that you just saw.</p>\n                    <img src=\"bees-with-color/bee-A2SF.svg\" width=\"200\">\n                    <p><span class=\"greenText\"><b>Successful harvest!</b></span><br>Your pay has increased by $0.02. Your bonus pay is now $0.74.</p>\n            ","response":0,"trial_type":"html-button-response","trial_index":42,"time_elapsed":365370,"internal_node_id":"0.0-4.0-1.17","subject_id":"5f64af3570cc750009026296","study_id":"60edd13110225f80f9f3709b","session_id":"6196c70262630adcd4f02e8a","condition":"full-information","relevant_dimensions":["wings","legs"],"bee_group":{"antennae":"X","wings":"2","pattern":"X","legs":"M"},"bonus":1.9200000000000013},{"rt":2497.099999964237,"stimulus":"bees-with-color/bee-A2DF.svg","response":0,"trial_type":"image-button-response","trial_index":43,"time_elapsed":367869,"internal_node_id":"0.0-4.0-0.18","subject_id":"5f64af3570cc750009026296","study_id":"60edd13110225f80f9f3709b","session_id":"6196c70262630adcd4f02e8a","condition":"full-information","relevant_dimensions":["wings","legs"],"bee_group":{"antennae":"X","wings":"2","pattern":"X","legs":"M"},"action":"harvest","summary":"good-harvest","bonus":1.9200000000000013},{"rt":696.3000000119209,"stimulus":"\n                    <p><b>Action: <em>harvest</em></b></p>\n                    <p>This is the bee that you just saw.</p>\n                    <img src=\"bees-with-color/bee-A2DF.svg\" width=\"200\">\n                    <p><span class=\"greenText\"><b>Successful harvest!</b></span><br>Your pay has increased by $0.02. Your bonus pay is now $0.76.</p>\n            ","response":0,"trial_type":"html-button-response","trial_index":44,"time_elapsed":368569,"internal_node_id":"0.0-4.0-1.18","subject_id":"5f64af3570cc750009026296","study_id":"60edd13110225f80f9f3709b","session_id":"6196c70262630adcd4f02e8a","condition":"full-information","relevant_dimensions":["wings","legs"],"bee_group":{"antennae":"X","wings":"2","pattern":"X","legs":"M"},"bonus":1.9200000000000013},{"rt":1463.199999988079,"stimulus":"bees-with-color/bee-B2DF.svg","response":0,"trial_type":"image-button-response","trial_index":45,"time_elapsed":370035,"internal_node_id":"0.0-4.0-0.19","subject_id":"5f64af3570cc750009026296","study_id":"60edd13110225f80f9f3709b","session_id":"6196c70262630adcd4f02e8a","condition":"full-information","relevant_dimensions":["wings","legs"],"bee_group":{"antennae":"X","wings":"2","pattern":"X","legs":"M"},"action":"harvest","summary":"good-harvest","bonus":1.9200000000000013},{"rt":631.7999999523163,"stimulus":"\n                    <p><b>Action: <em>harvest</em></b></p>\n                    <p>This is the bee that you just saw.</p>\n                    <img src=\"bees-with-color/bee-B2DF.svg\" width=\"200\">\n                    <p><span class=\"greenText\"><b>Successful harvest!</b></span><br>Your pay has increased by $0.02. Your bonus pay is now $0.78.</p>\n            ","response":0,"trial_type":"html-button-response","trial_index":46,"time_elapsed":370670,"internal_node_id":"0.0-4.0-1.19","subject_id":"5f64af3570cc750009026296","study_id":"60edd13110225f80f9f3709b","session_id":"6196c70262630adcd4f02e8a","condition":"full-information","relevant_dimensions":["wings","legs"],"bee_group":{"antennae":"X","wings":"2","pattern":"X","legs":"M"},"bonus":1.9200000000000013},{"rt":1996.5,"stimulus":"bees-with-color/bee-B1SM.svg","response":0,"trial_type":"image-button-response","trial_index":47,"time_elapsed":372669,"internal_node_id":"0.0-4.0-0.20","subject_id":"5f64af3570cc750009026296","study_id":"60edd13110225f80f9f3709b","session_id":"6196c70262630adcd4f02e8a","condition":"full-information","relevant_dimensions":["wings","legs"],"bee_group":{"antennae":"X","wings":"2","pattern":"X","legs":"M"},"action":"harvest","summary":"good-harvest","bonus":1.9200000000000013},{"rt":680.5999999642372,"stimulus":"\n                    <p><b>Action: <em>harvest</em></b></p>\n                    <p>This is the bee that you just saw.</p>\n                    <img src=\"bees-with-color/bee-B1SM.svg\" width=\"200\">\n                    <p><span class=\"greenText\"><b>Successful harvest!</b></span><br>Your pay has increased by $0.02. Your bonus pay is now $0.80.</p>\n            ","response":0,"trial_type":"html-button-response","trial_index":48,"time_elapsed":373353,"internal_node_id":"0.0-4.0-1.20","subject_id":"5f64af3570cc750009026296","study_id":"60edd13110225f80f9f3709b","session_id":"6196c70262630adcd4f02e8a","condition":"full-information","relevant_dimensions":["wings","legs"],"bee_group":{"antennae":"X","wings":"2","pattern":"X","legs":"M"},"bonus":1.9200000000000013},{"rt":1413.300000011921,"stimulus":"bees-with-color/bee-B1DF.svg","response":0,"trial_type":"image-button-response","trial_index":49,"time_elapsed":374769,"internal_node_id":"0.0-4.0-0.21","subject_id":"5f64af3570cc750009026296","study_id":"60edd13110225f80f9f3709b","session_id":"6196c70262630adcd4f02e8a","condition":"full-information","relevant_dimensions":["wings","legs"],"bee_group":{"antennae":"X","wings":"2","pattern":"X","legs":"M"},"action":"harvest","summary":"good-harvest","bonus":1.9200000000000013},{"rt":630,"stimulus":"\n                    <p><b>Action: <em>harvest</em></b></p>\n                    <p>This is the bee that you just saw.</p>\n                    <img src=\"bees-with-color/bee-B1DF.svg\" width=\"200\">\n                    <p><span class=\"greenText\"><b>Successful harvest!</b></span><br>Your pay has increased by $0.02. Your bonus pay is now $0.82.</p>\n            ","response":0,"trial_type":"html-button-response","trial_index":50,"time_elapsed":375402,"internal_node_id":"0.0-4.0-1.21","subject_id":"5f64af3570cc750009026296","study_id":"60edd13110225f80f9f3709b","session_id":"6196c70262630adcd4f02e8a","condition":"full-information","relevant_dimensions":["wings","legs"],"bee_group":{"antennae":"X","wings":"2","pattern":"X","legs":"M"},"bonus":1.9200000000000013},{"rt":1163.800000011921,"stimulus":"bees-with-color/bee-A2SM.svg","response":1,"trial_type":"image-button-response","trial_index":51,"time_elapsed":376569,"internal_node_id":"0.0-4.0-0.22","subject_id":"5f64af3570cc750009026296","study_id":"60edd13110225f80f9f3709b","session_id":"6196c70262630adcd4f02e8a","condition":"full-information","relevant_dimensions":["wings","legs"],"bee_group":{"antennae":"X","wings":"2","pattern":"X","legs":"M"},"action":"avoid","summary":"good-avoid","bonus":1.9200000000000013},{"rt":646.2000000476837,"stimulus":"\n                    <p><b>Action: <em>avoid</em></b></p>\n                    <p>This is the bee that you just saw.</p>\n                    <img src=\"bees-with-color/bee-A2SM.svg\" width=\"200\">\n                    <p><span class=\"greenText\">Good choice!</span>  This bee would have stung you.<br>Your bonus pay is unchanged, and remains at $0.82.</p>\n            ","response":0,"trial_type":"html-button-response","trial_index":52,"time_elapsed":377219,"internal_node_id":"0.0-4.0-1.22","subject_id":"5f64af3570cc750009026296","study_id":"60edd13110225f80f9f3709b","session_id":"6196c70262630adcd4f02e8a","condition":"full-information","relevant_dimensions":["wings","legs"],"bee_group":{"antennae":"X","wings":"2","pattern":"X","legs":"M"},"bonus":1.9200000000000013},{"rt":4095.300000011921,"stimulus":"bees-with-color/bee-A1DM.svg","response":0,"trial_type":"image-button-response","trial_index":53,"time_elapsed":381317,"internal_node_id":"0.0-4.0-0.23","subject_id":"5f64af3570cc750009026296","study_id":"60edd13110225f80f9f3709b","session_id":"6196c70262630adcd4f02e8a","condition":"full-information","relevant_dimensions":["wings","legs"],"bee_group":{"antennae":"X","wings":"2","pattern":"X","legs":"M"},"action":"harvest","summary":"good-harvest","bonus":1.9200000000000013},{"rt":850,"stimulus":"\n                    <p><b>Action: <em>harvest</em></b></p>\n                    <p>This is the bee that you just saw.</p>\n                    <img src=\"bees-with-color/bee-A1DM.svg\" width=\"200\">\n                    <p><span class=\"greenText\"><b>Successful harvest!</b></span><br>Your pay has increased by $0.02. Your bonus pay is now $0.84.</p>\n            ","response":0,"trial_type":"html-button-response","trial_index":54,"time_elapsed":382169,"internal_node_id":"0.0-4.0-1.23","subject_id":"5f64af3570cc750009026296","study_id":"60edd13110225f80f9f3709b","session_id":"6196c70262630adcd4f02e8a","condition":"full-information","relevant_dimensions":["wings","legs"],"bee_group":{"antennae":"X","wings":"2","pattern":"X","legs":"M"},"bonus":1.9200000000000013},{"rt":1397.8999999761581,"stimulus":"bees-with-color/bee-B1SF.svg","response":0,"trial_type":"image-button-response","trial_index":55,"time_elapsed":383569,"internal_node_id":"0.0-4.0-0.24","subject_id":"5f64af3570cc750009026296","study_id":"60edd13110225f80f9f3709b","session_id":"6196c70262630adcd4f02e8a","condition":"full-information","relevant_dimensions":["wings","legs"],"bee_group":{"antennae":"X","wings":"2","pattern":"X","legs":"M"},"action":"harvest","summary":"good-harvest","bonus":1.9200000000000013},{"rt":679.5,"stimulus":"\n                    <p><b>Action: <em>harvest</em></b></p>\n                    <p>This is the bee that you just saw.</p>\n                    <img src=\"bees-with-color/bee-B1SF.svg\" width=\"200\">\n                    <p><span class=\"greenText\"><b>Successful harvest!</b></span><br>Your pay has increased by $0.02. Your bonus pay is now $0.86.</p>\n            ","response":0,"trial_type":"html-button-response","trial_index":56,"time_elapsed":384252,"internal_node_id":"0.0-4.0-1.24","subject_id":"5f64af3570cc750009026296","study_id":"60edd13110225f80f9f3709b","session_id":"6196c70262630adcd4f02e8a","condition":"full-information","relevant_dimensions":["wings","legs"],"bee_group":{"antennae":"X","wings":"2","pattern":"X","legs":"M"},"bonus":1.9200000000000013},{"rt":998.0999999642372,"stimulus":"bees-with-color/bee-B2SM.svg","response":1,"trial_type":"image-button-response","trial_index":57,"time_elapsed":385252,"internal_node_id":"0.0-4.0-0.25","subject_id":"5f64af3570cc750009026296","study_id":"60edd13110225f80f9f3709b","session_id":"6196c70262630adcd4f02e8a","condition":"full-information","relevant_dimensions":["wings","legs"],"bee_group":{"antennae":"X","wings":"2","pattern":"X","legs":"M"},"action":"avoid","summary":"good-avoid","bonus":1.9200000000000013},{"rt":680.1000000238419,"stimulus":"\n                    <p><b>Action: <em>avoid</em></b></p>\n                    <p>This is the bee that you just saw.</p>\n                    <img src=\"bees-with-color/bee-B2SM.svg\" width=\"200\">\n                    <p><span class=\"greenText\">Good choice!</span>  This bee would have stung you.<br>Your bonus pay is unchanged, and remains at $0.86.</p>\n            ","response":0,"trial_type":"html-button-response","trial_index":58,"time_elapsed":385935,"internal_node_id":"0.0-4.0-1.25","subject_id":"5f64af3570cc750009026296","study_id":"60edd13110225f80f9f3709b","session_id":"6196c70262630adcd4f02e8a","condition":"full-information","relevant_dimensions":["wings","legs"],"bee_group":{"antennae":"X","wings":"2","pattern":"X","legs":"M"},"bonus":1.9200000000000013},{"rt":931.0999999642372,"stimulus":"bees-with-color/bee-A2DM.svg","response":1,"trial_type":"image-button-response","trial_index":59,"time_elapsed":386869,"internal_node_id":"0.0-4.0-0.26","subject_id":"5f64af3570cc750009026296","study_id":"60edd13110225f80f9f3709b","session_id":"6196c70262630adcd4f02e8a","condition":"full-information","relevant_dimensions":["wings","legs"],"bee_group":{"antennae":"X","wings":"2","pattern":"X","legs":"M"},"action":"avoid","summary":"good-avoid","bonus":1.9200000000000013},{"rt":581,"stimulus":"\n                    <p><b>Action: <em>avoid</em></b></p>\n                    <p>This is the bee that you just saw.</p>\n                    <img src=\"bees-with-color/bee-A2DM.svg\" width=\"200\">\n                    <p><span class=\"greenText\">Good choice!</span>  This bee would have stung you.<br>Your bonus pay is unchanged, and remains at $0.86.</p>\n            ","response":0,"trial_type":"html-button-response","trial_index":60,"time_elapsed":387453,"internal_node_id":"0.0-4.0-1.26","subject_id":"5f64af3570cc750009026296","study_id":"60edd13110225f80f9f3709b","session_id":"6196c70262630adcd4f02e8a","condition":"full-information","relevant_dimensions":["wings","legs"],"bee_group":{"antennae":"X","wings":"2","pattern":"X","legs":"M"},"bonus":1.9200000000000013},{"rt":3613.199999988079,"stimulus":"bees-with-color/bee-B1DM.svg","response":0,"trial_type":"image-button-response","trial_index":61,"time_elapsed":391069,"internal_node_id":"0.0-4.0-0.27","subject_id":"5f64af3570cc750009026296","study_id":"60edd13110225f80f9f3709b","session_id":"6196c70262630adcd4f02e8a","condition":"full-information","relevant_dimensions":["wings","legs"],"bee_group":{"antennae":"X","wings":"2","pattern":"X","legs":"M"},"action":"harvest","summary":"good-harvest","bonus":1.9200000000000013},{"rt":714.0999999642372,"stimulus":"\n                    <p><b>Action: <em>harvest</em></b></p>\n                    <p>This is the bee that you just saw.</p>\n                    <img src=\"bees-with-color/bee-B1DM.svg\" width=\"200\">\n                    <p><span class=\"greenText\"><b>Successful harvest!</b></span><br>Your pay has increased by $0.02. Your bonus pay is now $0.88.</p>\n            ","response":0,"trial_type":"html-button-response","trial_index":62,"time_elapsed":391787,"internal_node_id":"0.0-4.0-1.27","subject_id":"5f64af3570cc750009026296","study_id":"60edd13110225f80f9f3709b","session_id":"6196c70262630adcd4f02e8a","condition":"full-information","relevant_dimensions":["wings","legs"],"bee_group":{"antennae":"X","wings":"2","pattern":"X","legs":"M"},"bonus":1.9200000000000013},{"rt":1146,"stimulus":"bees-with-color/bee-A1DF.svg","response":0,"trial_type":"image-button-response","trial_index":63,"time_elapsed":392935,"internal_node_id":"0.0-4.0-0.28","subject_id":"5f64af3570cc750009026296","study_id":"60edd13110225f80f9f3709b","session_id":"6196c70262630adcd4f02e8a","condition":"full-information","relevant_dimensions":["wings","legs"],"bee_group":{"antennae":"X","wings":"2","pattern":"X","legs":"M"},"action":"harvest","summary":"good-harvest","bonus":1.9200000000000013},{"rt":564.6000000238419,"stimulus":"\n                    <p><b>Action: <em>harvest</em></b></p>\n                    <p>This is the bee that you just saw.</p>\n                    <img src=\"bees-with-color/bee-A1DF.svg\" width=\"200\">\n                    <p><span class=\"greenText\"><b>Successful harvest!</b></span><br>Your pay has increased by $0.02. Your bonus pay is now $0.90.</p>\n            ","response":0,"trial_type":"html-button-response","trial_index":64,"time_elapsed":393503,"internal_node_id":"0.0-4.0-1.28","subject_id":"5f64af3570cc750009026296","study_id":"60edd13110225f80f9f3709b","session_id":"6196c70262630adcd4f02e8a","condition":"full-information","relevant_dimensions":["wings","legs"],"bee_group":{"antennae":"X","wings":"2","pattern":"X","legs":"M"},"bonus":1.9200000000000013},{"rt":1579.800000011921,"stimulus":"bees-with-color/bee-B2SF.svg","response":0,"trial_type":"image-button-response","trial_index":65,"time_elapsed":395086,"internal_node_id":"0.0-4.0-0.29","subject_id":"5f64af3570cc750009026296","study_id":"60edd13110225f80f9f3709b","session_id":"6196c70262630adcd4f02e8a","condition":"full-information","relevant_dimensions":["wings","legs"],"bee_group":{"antennae":"X","wings":"2","pattern":"X","legs":"M"},"action":"harvest","summary":"good-harvest","bonus":1.9200000000000013},{"rt":913.0999999642372,"stimulus":"\n                    <p><b>Action: <em>harvest</em></b></p>\n                    <p>This is the bee that you just saw.</p>\n                    <img src=\"bees-with-color/bee-B2SF.svg\" width=\"200\">\n                    <p><span class=\"greenText\"><b>Successful harvest!</b></span><br>Your pay has increased by $0.02. Your bonus pay is now $0.92.</p>\n            ","response":0,"trial_type":"html-button-response","trial_index":66,"time_elapsed":396002,"internal_node_id":"0.0-4.0-1.29","subject_id":"5f64af3570cc750009026296","study_id":"60edd13110225f80f9f3709b","session_id":"6196c70262630adcd4f02e8a","condition":"full-information","relevant_dimensions":["wings","legs"],"bee_group":{"antennae":"X","wings":"2","pattern":"X","legs":"M"},"bonus":1.9200000000000013},{"rt":5548.199999988079,"stimulus":"bees-with-color/bee-A1SM.svg","response":0,"trial_type":"image-button-response","trial_index":67,"time_elapsed":401554,"internal_node_id":"0.0-4.0-0.30","subject_id":"5f64af3570cc750009026296","study_id":"60edd13110225f80f9f3709b","session_id":"6196c70262630adcd4f02e8a","condition":"full-information","relevant_dimensions":["wings","legs"],"bee_group":{"antennae":"X","wings":"2","pattern":"X","legs":"M"},"action":"harvest","summary":"good-harvest","bonus":1.9200000000000013},{"rt":645.3000000119209,"stimulus":"\n                    <p><b>Action: <em>harvest</em></b></p>\n                    <p>This is the bee that you just saw.</p>\n                    <img src=\"bees-with-color/bee-A1SM.svg\" width=\"200\">\n                    <p><span class=\"greenText\"><b>Successful harvest!</b></span><br>Your pay has increased by $0.02. Your bonus pay is now $0.94.</p>\n            ","response":0,"trial_type":"html-button-response","trial_index":68,"time_elapsed":402203,"internal_node_id":"0.0-4.0-1.30","subject_id":"5f64af3570cc750009026296","study_id":"60edd13110225f80f9f3709b","session_id":"6196c70262630adcd4f02e8a","condition":"full-information","relevant_dimensions":["wings","legs"],"bee_group":{"antennae":"X","wings":"2","pattern":"X","legs":"M"},"bonus":1.9200000000000013},{"rt":1097.300000011921,"stimulus":"bees-with-color/bee-A1SF.svg","response":0,"trial_type":"image-button-response","trial_index":69,"time_elapsed":403303,"internal_node_id":"0.0-4.0-0.31","subject_id":"5f64af3570cc750009026296","study_id":"60edd13110225f80f9f3709b","session_id":"6196c70262630adcd4f02e8a","condition":"full-information","relevant_dimensions":["wings","legs"],"bee_group":{"antennae":"X","wings":"2","pattern":"X","legs":"M"},"action":"harvest","summary":"good-harvest","bonus":1.9200000000000013},{"rt":530.3000000119209,"stimulus":"\n                    <p><b>Action: <em>harvest</em></b></p>\n                    <p>This is the bee that you just saw.</p>\n                    <img src=\"bees-with-color/bee-A1SF.svg\" width=\"200\">\n                    <p><span class=\"greenText\"><b>Successful harvest!</b></span><br>Your pay has increased by $0.02. Your bonus pay is now $0.96.</p>\n            ","response":0,"trial_type":"html-button-response","trial_index":70,"time_elapsed":403837,"internal_node_id":"0.0-4.0-1.31","subject_id":"5f64af3570cc750009026296","study_id":"60edd13110225f80f9f3709b","session_id":"6196c70262630adcd4f02e8a","condition":"full-information","relevant_dimensions":["wings","legs"],"bee_group":{"antennae":"X","wings":"2","pattern":"X","legs":"M"},"bonus":1.9200000000000013},{"rt":1612.3999999761581,"stimulus":"bees-with-color/bee-A1DM.svg","response":0,"trial_type":"image-button-response","trial_index":71,"time_elapsed":405452,"internal_node_id":"0.0-4.0-0.32","subject_id":"5f64af3570cc750009026296","study_id":"60edd13110225f80f9f3709b","session_id":"6196c70262630adcd4f02e8a","condition":"full-information","relevant_dimensions":["wings","legs"],"bee_group":{"antennae":"X","wings":"2","pattern":"X","legs":"M"},"action":"harvest","summary":"good-harvest","bonus":1.9200000000000013},{"rt":530.1999999880791,"stimulus":"\n                    <p><b>Action: <em>harvest</em></b></p>\n                    <p>This is the bee that you just saw.</p>\n                    <img src=\"bees-with-color/bee-A1DM.svg\" width=\"200\">\n                    <p><span class=\"greenText\"><b>Successful harvest!</b></span><br>Your pay has increased by $0.02. Your bonus pay is now $0.98.</p>\n            ","response":0,"trial_type":"html-button-response","trial_index":72,"time_elapsed":405985,"internal_node_id":"0.0-4.0-1.32","subject_id":"5f64af3570cc750009026296","study_id":"60edd13110225f80f9f3709b","session_id":"6196c70262630adcd4f02e8a","condition":"full-information","relevant_dimensions":["wings","legs"],"bee_group":{"antennae":"X","wings":"2","pattern":"X","legs":"M"},"bonus":1.9200000000000013},{"rt":1149.300000011921,"stimulus":"bees-with-color/bee-B2DM.svg","response":1,"trial_type":"image-button-response","trial_index":73,"time_elapsed":407137,"internal_node_id":"0.0-4.0-0.33","subject_id":"5f64af3570cc750009026296","study_id":"60edd13110225f80f9f3709b","session_id":"6196c70262630adcd4f02e8a","condition":"full-information","relevant_dimensions":["wings","legs"],"bee_group":{"antennae":"X","wings":"2","pattern":"X","legs":"M"},"action":"avoid","summary":"good-avoid","bonus":1.9200000000000013},{"rt":729.9000000357628,"stimulus":"\n                    <p><b>Action: <em>avoid</em></b></p>\n                    <p>This is the bee that you just saw.</p>\n                    <img src=\"bees-with-color/bee-B2DM.svg\" width=\"200\">\n                    <p><span class=\"greenText\">Good choice!</span>  This bee would have stung you.<br>Your bonus pay is unchanged, and remains at $0.98.</p>\n            ","response":0,"trial_type":"html-button-response","trial_index":74,"time_elapsed":407869,"internal_node_id":"0.0-4.0-1.33","subject_id":"5f64af3570cc750009026296","study_id":"60edd13110225f80f9f3709b","session_id":"6196c70262630adcd4f02e8a","condition":"full-information","relevant_dimensions":["wings","legs"],"bee_group":{"antennae":"X","wings":"2","pattern":"X","legs":"M"},"bonus":1.9200000000000013},{"rt":948.1000000238419,"stimulus":"bees-with-color/bee-A1SF.svg","response":0,"trial_type":"image-button-response","trial_index":75,"time_elapsed":408820,"internal_node_id":"0.0-4.0-0.34","subject_id":"5f64af3570cc750009026296","study_id":"60edd13110225f80f9f3709b","session_id":"6196c70262630adcd4f02e8a","condition":"full-information","relevant_dimensions":["wings","legs"],"bee_group":{"antennae":"X","wings":"2","pattern":"X","legs":"M"},"action":"harvest","summary":"good-harvest","bonus":1.9200000000000013},{"rt":777.9000000357628,"stimulus":"\n                    <p><b>Action: <em>harvest</em></b></p>\n                    <p>This is the bee that you just saw.</p>\n                    <img src=\"bees-with-color/bee-A1SF.svg\" width=\"200\">\n                    <p><span class=\"greenText\"><b>Successful harvest!</b></span><br>Your pay has increased by $0.02. Your bonus pay is now $1.00.</p>\n            ","response":0,"trial_type":"html-button-response","trial_index":76,"time_elapsed":409600,"internal_node_id":"0.0-4.0-1.34","subject_id":"5f64af3570cc750009026296","study_id":"60edd13110225f80f9f3709b","session_id":"6196c70262630adcd4f02e8a","condition":"full-information","relevant_dimensions":["wings","legs"],"bee_group":{"antennae":"X","wings":"2","pattern":"X","legs":"M"},"bonus":1.9200000000000013},{"rt":1383.699999988079,"stimulus":"bees-with-color/bee-A2SF.svg","response":0,"trial_type":"image-button-response","trial_index":77,"time_elapsed":410986,"internal_node_id":"0.0-4.0-0.35","subject_id":"5f64af3570cc750009026296","study_id":"60edd13110225f80f9f3709b","session_id":"6196c70262630adcd4f02e8a","condition":"full-information","relevant_dimensions":["wings","legs"],"bee_group":{"antennae":"X","wings":"2","pattern":"X","legs":"M"},"action":"harvest","summary":"good-harvest","bonus":1.9200000000000013},{"rt":647.7999999523163,"stimulus":"\n                    <p><b>Action: <em>harvest</em></b></p>\n                    <p>This is the bee that you just saw.</p>\n                    <img src=\"bees-with-color/bee-A2SF.svg\" width=\"200\">\n                    <p><span class=\"greenText\"><b>Successful harvest!</b></span><br>Your pay has increased by $0.02. Your bonus pay is now $1.02.</p>\n            ","response":0,"trial_type":"html-button-response","trial_index":78,"time_elapsed":411636,"internal_node_id":"0.0-4.0-1.35","subject_id":"5f64af3570cc750009026296","study_id":"60edd13110225f80f9f3709b","session_id":"6196c70262630adcd4f02e8a","condition":"full-information","relevant_dimensions":["wings","legs"],"bee_group":{"antennae":"X","wings":"2","pattern":"X","legs":"M"},"bonus":1.9200000000000013},{"rt":1597.5,"stimulus":"bees-with-color/bee-A1SM.svg","response":0,"trial_type":"image-button-response","trial_index":79,"time_elapsed":413236,"internal_node_id":"0.0-4.0-0.36","subject_id":"5f64af3570cc750009026296","study_id":"60edd13110225f80f9f3709b","session_id":"6196c70262630adcd4f02e8a","condition":"full-information","relevant_dimensions":["wings","legs"],"bee_group":{"antennae":"X","wings":"2","pattern":"X","legs":"M"},"action":"harvest","summary":"good-harvest","bonus":1.9200000000000013},{"rt":597,"stimulus":"\n                    <p><b>Action: <em>harvest</em></b></p>\n                    <p>This is the bee that you just saw.</p>\n                    <img src=\"bees-with-color/bee-A1SM.svg\" width=\"200\">\n                    <p><span class=\"greenText\"><b>Successful harvest!</b></span><br>Your pay has increased by $0.02. Your bonus pay is now $1.04.</p>\n            ","response":0,"trial_type":"html-button-response","trial_index":80,"time_elapsed":413836,"internal_node_id":"0.0-4.0-1.36","subject_id":"5f64af3570cc750009026296","study_id":"60edd13110225f80f9f3709b","session_id":"6196c70262630adcd4f02e8a","condition":"full-information","relevant_dimensions":["wings","legs"],"bee_group":{"antennae":"X","wings":"2","pattern":"X","legs":"M"},"bonus":1.9200000000000013},{"rt":980.6000000238419,"stimulus":"bees-with-color/bee-B1DF.svg","response":0,"trial_type":"image-button-response","trial_index":81,"time_elapsed":414819,"internal_node_id":"0.0-4.0-0.37","subject_id":"5f64af3570cc750009026296","study_id":"60edd13110225f80f9f3709b","session_id":"6196c70262630adcd4f02e8a","condition":"full-information","relevant_dimensions":["wings","legs"],"bee_group":{"antennae":"X","wings":"2","pattern":"X","legs":"M"},"action":"harvest","summary":"good-harvest","bonus":1.9200000000000013},{"rt":946.6999999880791,"stimulus":"\n                    <p><b>Action: <em>harvest</em></b></p>\n                    <p>This is the bee that you just saw.</p>\n                    <img src=\"bees-with-color/bee-B1DF.svg\" width=\"200\">\n                    <p><span class=\"greenText\"><b>Successful harvest!</b></span><br>Your pay has increased by $0.02. Your bonus pay is now $1.06.</p>\n            ","response":0,"trial_type":"html-button-response","trial_index":82,"time_elapsed":415769,"internal_node_id":"0.0-4.0-1.37","subject_id":"5f64af3570cc750009026296","study_id":"60edd13110225f80f9f3709b","session_id":"6196c70262630adcd4f02e8a","condition":"full-information","relevant_dimensions":["wings","legs"],"bee_group":{"antennae":"X","wings":"2","pattern":"X","legs":"M"},"bonus":1.9200000000000013},{"rt":1114.5,"stimulus":"bees-with-color/bee-A1DF.svg","response":0,"trial_type":"image-button-response","trial_index":83,"time_elapsed":416886,"internal_node_id":"0.0-4.0-0.38","subject_id":"5f64af3570cc750009026296","study_id":"60edd13110225f80f9f3709b","session_id":"6196c70262630adcd4f02e8a","condition":"full-information","relevant_dimensions":["wings","legs"],"bee_group":{"antennae":"X","wings":"2","pattern":"X","legs":"M"},"action":"harvest","summary":"good-harvest","bonus":1.9200000000000013},{"rt":646.8000000119209,"stimulus":"\n                    <p><b>Action: <em>harvest</em></b></p>\n                    <p>This is the bee that you just saw.</p>\n                    <img src=\"bees-with-color/bee-A1DF.svg\" width=\"200\">\n                    <p><span class=\"greenText\"><b>Successful harvest!</b></span><br>Your pay has increased by $0.02. Your bonus pay is now $1.08.</p>\n            ","response":0,"trial_type":"html-button-response","trial_index":84,"time_elapsed":417536,"internal_node_id":"0.0-4.0-1.38","subject_id":"5f64af3570cc750009026296","study_id":"60edd13110225f80f9f3709b","session_id":"6196c70262630adcd4f02e8a","condition":"full-information","relevant_dimensions":["wings","legs"],"bee_group":{"antennae":"X","wings":"2","pattern":"X","legs":"M"},"bonus":1.9200000000000013},{"rt":1214.6000000238419,"stimulus":"bees-with-color/bee-B2SM.svg","response":1,"trial_type":"image-button-response","trial_index":85,"time_elapsed":418753,"internal_node_id":"0.0-4.0-0.39","subject_id":"5f64af3570cc750009026296","study_id":"60edd13110225f80f9f3709b","session_id":"6196c70262630adcd4f02e8a","condition":"full-information","relevant_dimensions":["wings","legs"],"bee_group":{"antennae":"X","wings":"2","pattern":"X","legs":"M"},"action":"avoid","summary":"good-avoid","bonus":1.9200000000000013},{"rt":646.5,"stimulus":"\n                    <p><b>Action: <em>avoid</em></b></p>\n                    <p>This is the bee that you just saw.</p>\n                    <img src=\"bees-with-color/bee-B2SM.svg\" width=\"200\">\n                    <p><span class=\"greenText\">Good choice!</span>  This bee would have stung you.<br>Your bonus pay is unchanged, and remains at $1.08.</p>\n            ","response":0,"trial_type":"html-button-response","trial_index":86,"time_elapsed":419403,"internal_node_id":"0.0-4.0-1.39","subject_id":"5f64af3570cc750009026296","study_id":"60edd13110225f80f9f3709b","session_id":"6196c70262630adcd4f02e8a","condition":"full-information","relevant_dimensions":["wings","legs"],"bee_group":{"antennae":"X","wings":"2","pattern":"X","legs":"M"},"bonus":1.9200000000000013},{"rt":1080,"stimulus":"bees-with-color/bee-A2DM.svg","response":1,"trial_type":"image-button-response","trial_index":87,"time_elapsed":420485,"internal_node_id":"0.0-4.0-0.40","subject_id":"5f64af3570cc750009026296","study_id":"60edd13110225f80f9f3709b","session_id":"6196c70262630adcd4f02e8a","condition":"full-information","relevant_dimensions":["wings","legs"],"bee_group":{"antennae":"X","wings":"2","pattern":"X","legs":"M"},"action":"avoid","summary":"good-avoid","bonus":1.9200000000000013},{"rt":631.5,"stimulus":"\n                    <p><b>Action: <em>avoid</em></b></p>\n                    <p>This is the bee that you just saw.</p>\n                    <img src=\"bees-with-color/bee-A2DM.svg\" width=\"200\">\n                    <p><span class=\"greenText\">Good choice!</span>  This bee would have stung you.<br>Your bonus pay is unchanged, and remains at $1.08.</p>\n            ","response":0,"trial_type":"html-button-response","trial_index":88,"time_elapsed":421119,"internal_node_id":"0.0-4.0-1.40","subject_id":"5f64af3570cc750009026296","study_id":"60edd13110225f80f9f3709b","session_id":"6196c70262630adcd4f02e8a","condition":"full-information","relevant_dimensions":["wings","legs"],"bee_group":{"antennae":"X","wings":"2","pattern":"X","legs":"M"},"bonus":1.9200000000000013},{"rt":1514.300000011921,"stimulus":"bees-with-color/bee-A2SM.svg","response":1,"trial_type":"image-button-response","trial_index":89,"time_elapsed":422636,"internal_node_id":"0.0-4.0-0.41","subject_id":"5f64af3570cc750009026296","study_id":"60edd13110225f80f9f3709b","session_id":"6196c70262630adcd4f02e8a","condition":"full-information","relevant_dimensions":["wings","legs"],"bee_group":{"antennae":"X","wings":"2","pattern":"X","legs":"M"},"action":"avoid","summary":"good-avoid","bonus":1.9200000000000013},{"rt":779.4000000357628,"stimulus":"\n                    <p><b>Action: <em>avoid</em></b></p>\n                    <p>This is the bee that you just saw.</p>\n                    <img src=\"bees-with-color/bee-A2SM.svg\" width=\"200\">\n                    <p><span class=\"greenText\">Good choice!</span>  This bee would have stung you.<br>Your bonus pay is unchanged, and remains at $1.08.</p>\n            ","response":0,"trial_type":"html-button-response","trial_index":90,"time_elapsed":423419,"internal_node_id":"0.0-4.0-1.41","subject_id":"5f64af3570cc750009026296","study_id":"60edd13110225f80f9f3709b","session_id":"6196c70262630adcd4f02e8a","condition":"full-information","relevant_dimensions":["wings","legs"],"bee_group":{"antennae":"X","wings":"2","pattern":"X","legs":"M"},"bonus":1.9200000000000013},{"rt":1680.699999988079,"stimulus":"bees-with-color/bee-A2DF.svg","response":0,"trial_type":"image-button-response","trial_index":91,"time_elapsed":425103,"internal_node_id":"0.0-4.0-0.42","subject_id":"5f64af3570cc750009026296","study_id":"60edd13110225f80f9f3709b","session_id":"6196c70262630adcd4f02e8a","condition":"full-information","relevant_dimensions":["wings","legs"],"bee_group":{"antennae":"X","wings":"2","pattern":"X","legs":"M"},"action":"harvest","summary":"good-harvest","bonus":1.9200000000000013},{"rt":547.1000000238419,"stimulus":"\n                    <p><b>Action: <em>harvest</em></b></p>\n                    <p>This is the bee that you just saw.</p>\n                    <img src=\"bees-with-color/bee-A2DF.svg\" width=\"200\">\n                    <p><span class=\"greenText\"><b>Successful harvest!</b></span><br>Your pay has increased by $0.02. Your bonus pay is now $1.10.</p>\n            ","response":0,"trial_type":"html-button-response","trial_index":92,"time_elapsed":425653,"internal_node_id":"0.0-4.0-1.42","subject_id":"5f64af3570cc750009026296","study_id":"60edd13110225f80f9f3709b","session_id":"6196c70262630adcd4f02e8a","condition":"full-information","relevant_dimensions":["wings","legs"],"bee_group":{"antennae":"X","wings":"2","pattern":"X","legs":"M"},"bonus":1.9200000000000013},{"rt":1380.2999999523163,"stimulus":"bees-with-color/bee-B1DM.svg","response":0,"trial_type":"image-button-response","trial_index":93,"time_elapsed":427036,"internal_node_id":"0.0-4.0-0.43","subject_id":"5f64af3570cc750009026296","study_id":"60edd13110225f80f9f3709b","session_id":"6196c70262630adcd4f02e8a","condition":"full-information","relevant_dimensions":["wings","legs"],"bee_group":{"antennae":"X","wings":"2","pattern":"X","legs":"M"},"action":"harvest","summary":"good-harvest","bonus":1.9200000000000013},{"rt":963.1000000238419,"stimulus":"\n                    <p><b>Action: <em>harvest</em></b></p>\n                    <p>This is the bee that you just saw.</p>\n                    <img src=\"bees-with-color/bee-B1DM.svg\" width=\"200\">\n                    <p><span class=\"greenText\"><b>Successful harvest!</b></span><br>Your pay has increased by $0.02. Your bonus pay is now $1.12.</p>\n            ","response":0,"trial_type":"html-button-response","trial_index":94,"time_elapsed":428002,"internal_node_id":"0.0-4.0-1.43","subject_id":"5f64af3570cc750009026296","study_id":"60edd13110225f80f9f3709b","session_id":"6196c70262630adcd4f02e8a","condition":"full-information","relevant_dimensions":["wings","legs"],"bee_group":{"antennae":"X","wings":"2","pattern":"X","legs":"M"},"bonus":1.9200000000000013},{"rt":964.2000000476837,"stimulus":"bees-with-color/bee-B1SF.svg","response":0,"trial_type":"image-button-response","trial_index":95,"time_elapsed":428969,"internal_node_id":"0.0-4.0-0.44","subject_id":"5f64af3570cc750009026296","study_id":"60edd13110225f80f9f3709b","session_id":"6196c70262630adcd4f02e8a","condition":"full-information","relevant_dimensions":["wings","legs"],"bee_group":{"antennae":"X","wings":"2","pattern":"X","legs":"M"},"action":"harvest","summary":"good-harvest","bonus":1.9200000000000013},{"rt":497.30000001192093,"stimulus":"\n                    <p><b>Action: <em>harvest</em></b></p>\n                    <p>This is the bee that you just saw.</p>\n                    <img src=\"bees-with-color/bee-B1SF.svg\" width=\"200\">\n                    <p><span class=\"greenText\"><b>Successful harvest!</b></span><br>Your pay has increased by $0.02. Your bonus pay is now $1.14.</p>\n            ","response":0,"trial_type":"html-button-response","trial_index":96,"time_elapsed":429469,"internal_node_id":"0.0-4.0-1.44","subject_id":"5f64af3570cc750009026296","study_id":"60edd13110225f80f9f3709b","session_id":"6196c70262630adcd4f02e8a","condition":"full-information","relevant_dimensions":["wings","legs"],"bee_group":{"antennae":"X","wings":"2","pattern":"X","legs":"M"},"bonus":1.9200000000000013},{"rt":1048,"stimulus":"bees-with-color/bee-B2DF.svg","response":0,"trial_type":"image-button-response","trial_index":97,"time_elapsed":430519,"internal_node_id":"0.0-4.0-0.45","subject_id":"5f64af3570cc750009026296","study_id":"60edd13110225f80f9f3709b","session_id":"6196c70262630adcd4f02e8a","condition":"full-information","relevant_dimensions":["wings","legs"],"bee_group":{"antennae":"X","wings":"2","pattern":"X","legs":"M"},"action":"harvest","summary":"good-harvest","bonus":1.9200000000000013},{"rt":596.8000000119209,"stimulus":"\n                    <p><b>Action: <em>harvest</em></b></p>\n                    <p>This is the bee that you just saw.</p>\n                    <img src=\"bees-with-color/bee-B2DF.svg\" width=\"200\">\n                    <p><span class=\"greenText\"><b>Successful harvest!</b></span><br>Your pay has increased by $0.02. Your bonus pay is now $1.16.</p>\n            ","response":0,"trial_type":"html-button-response","trial_index":98,"time_elapsed":431119,"internal_node_id":"0.0-4.0-1.45","subject_id":"5f64af3570cc750009026296","study_id":"60edd13110225f80f9f3709b","session_id":"6196c70262630adcd4f02e8a","condition":"full-information","relevant_dimensions":["wings","legs"],"bee_group":{"antennae":"X","wings":"2","pattern":"X","legs":"M"},"bonus":1.9200000000000013},{"rt":1447.5,"stimulus":"bees-with-color/bee-B2SF.svg","response":0,"trial_type":"image-button-response","trial_index":99,"time_elapsed":432569,"internal_node_id":"0.0-4.0-0.46","subject_id":"5f64af3570cc750009026296","study_id":"60edd13110225f80f9f3709b","session_id":"6196c70262630adcd4f02e8a","condition":"full-information","relevant_dimensions":["wings","legs"],"bee_group":{"antennae":"X","wings":"2","pattern":"X","legs":"M"},"action":"harvest","summary":"good-harvest","bonus":1.9200000000000013},{"rt":1296.9000000357628,"stimulus":"\n                    <p><b>Action: <em>harvest</em></b></p>\n                    <p>This is the bee that you just saw.</p>\n                    <img src=\"bees-with-color/bee-B2SF.svg\" width=\"200\">\n                    <p><span class=\"greenText\"><b>Successful harvest!</b></span><br>Your pay has increased by $0.02. Your bonus pay is now $1.18.</p>\n            ","response":0,"trial_type":"html-button-response","trial_index":100,"time_elapsed":433869,"internal_node_id":"0.0-4.0-1.46","subject_id":"5f64af3570cc750009026296","study_id":"60edd13110225f80f9f3709b","session_id":"6196c70262630adcd4f02e8a","condition":"full-information","relevant_dimensions":["wings","legs"],"bee_group":{"antennae":"X","wings":"2","pattern":"X","legs":"M"},"bonus":1.9200000000000013},{"rt":1797,"stimulus":"bees-with-color/bee-B1SM.svg","response":0,"trial_type":"image-button-response","trial_index":101,"time_elapsed":435669,"internal_node_id":"0.0-4.0-0.47","subject_id":"5f64af3570cc750009026296","study_id":"60edd13110225f80f9f3709b","session_id":"6196c70262630adcd4f02e8a","condition":"full-information","relevant_dimensions":["wings","legs"],"bee_group":{"antennae":"X","wings":"2","pattern":"X","legs":"M"},"action":"harvest","summary":"good-harvest","bonus":1.9200000000000013},{"rt":798,"stimulus":"\n                    <p><b>Action: <em>harvest</em></b></p>\n                    <p>This is the bee that you just saw.</p>\n                    <img src=\"bees-with-color/bee-B1SM.svg\" width=\"200\">\n                    <p><span class=\"greenText\"><b>Successful harvest!</b></span><br>Your pay has increased by $0.02. Your bonus pay is now $1.20.</p>\n            ","response":0,"trial_type":"html-button-response","trial_index":102,"time_elapsed":436469,"internal_node_id":"0.0-4.0-1.47","subject_id":"5f64af3570cc750009026296","study_id":"60edd13110225f80f9f3709b","session_id":"6196c70262630adcd4f02e8a","condition":"full-information","relevant_dimensions":["wings","legs"],"bee_group":{"antennae":"X","wings":"2","pattern":"X","legs":"M"},"bonus":1.9200000000000013},{"rt":1264.6000000238419,"stimulus":"bees-with-color/bee-A2SM.svg","response":1,"trial_type":"image-button-response","trial_index":103,"time_elapsed":437737,"internal_node_id":"0.0-4.0-0.48","subject_id":"5f64af3570cc750009026296","study_id":"60edd13110225f80f9f3709b","session_id":"6196c70262630adcd4f02e8a","condition":"full-information","relevant_dimensions":["wings","legs"],"bee_group":{"antennae":"X","wings":"2","pattern":"X","legs":"M"},"action":"avoid","summary":"good-avoid","bonus":1.9200000000000013},{"rt":645.8999999761581,"stimulus":"\n                    <p><b>Action: <em>avoid</em></b></p>\n                    <p>This is the bee that you just saw.</p>\n                    <img src=\"bees-with-color/bee-A2SM.svg\" width=\"200\">\n                    <p><span class=\"greenText\">Good choice!</span>  This bee would have stung you.<br>Your bonus pay is unchanged, and remains at $1.20.</p>\n            ","response":0,"trial_type":"html-button-response","trial_index":104,"time_elapsed":438386,"internal_node_id":"0.0-4.0-1.48","subject_id":"5f64af3570cc750009026296","study_id":"60edd13110225f80f9f3709b","session_id":"6196c70262630adcd4f02e8a","condition":"full-information","relevant_dimensions":["wings","legs"],"bee_group":{"antennae":"X","wings":"2","pattern":"X","legs":"M"},"bonus":1.9200000000000013},{"rt":980.8000000119209,"stimulus":"bees-with-color/bee-A1SF.svg","response":0,"trial_type":"image-button-response","trial_index":105,"time_elapsed":439369,"internal_node_id":"0.0-4.0-0.49","subject_id":"5f64af3570cc750009026296","study_id":"60edd13110225f80f9f3709b","session_id":"6196c70262630adcd4f02e8a","condition":"full-information","relevant_dimensions":["wings","legs"],"bee_group":{"antennae":"X","wings":"2","pattern":"X","legs":"M"},"action":"harvest","summary":"good-harvest","bonus":1.9200000000000013},{"rt":647.1999999880791,"stimulus":"\n                    <p><b>Action: <em>harvest</em></b></p>\n                    <p>This is the bee that you just saw.</p>\n                    <img src=\"bees-with-color/bee-A1SF.svg\" width=\"200\">\n                    <p><span class=\"greenText\"><b>Successful harvest!</b></span><br>Your pay has increased by $0.02. Your bonus pay is now $1.22.</p>\n            ","response":0,"trial_type":"html-button-response","trial_index":106,"time_elapsed":440020,"internal_node_id":"0.0-4.0-1.49","subject_id":"5f64af3570cc750009026296","study_id":"60edd13110225f80f9f3709b","session_id":"6196c70262630adcd4f02e8a","condition":"full-information","relevant_dimensions":["wings","legs"],"bee_group":{"antennae":"X","wings":"2","pattern":"X","legs":"M"},"bonus":1.9200000000000013},{"rt":913.3999999761581,"stimulus":"bees-with-color/bee-B1DF.svg","response":0,"trial_type":"image-button-response","trial_index":107,"time_elapsed":440936,"internal_node_id":"0.0-4.0-0.50","subject_id":"5f64af3570cc750009026296","study_id":"60edd13110225f80f9f3709b","session_id":"6196c70262630adcd4f02e8a","condition":"full-information","relevant_dimensions":["wings","legs"],"bee_group":{"antennae":"X","wings":"2","pattern":"X","legs":"M"},"action":"harvest","summary":"good-harvest","bonus":1.9200000000000013},{"rt":581.0999999642372,"stimulus":"\n                    <p><b>Action: <em>harvest</em></b></p>\n                    <p>This is the bee that you just saw.</p>\n                    <img src=\"bees-with-color/bee-B1DF.svg\" width=\"200\">\n                    <p><span class=\"greenText\"><b>Successful harvest!</b></span><br>Your pay has increased by $0.02. Your bonus pay is now $1.24.</p>\n            ","response":0,"trial_type":"html-button-response","trial_index":108,"time_elapsed":441520,"internal_node_id":"0.0-4.0-1.50","subject_id":"5f64af3570cc750009026296","study_id":"60edd13110225f80f9f3709b","session_id":"6196c70262630adcd4f02e8a","condition":"full-information","relevant_dimensions":["wings","legs"],"bee_group":{"antennae":"X","wings":"2","pattern":"X","legs":"M"},"bonus":1.9200000000000013},{"rt":1213.8999999761581,"stimulus":"bees-with-color/bee-A2SF.svg","response":0,"trial_type":"image-button-response","trial_index":109,"time_elapsed":442737,"internal_node_id":"0.0-4.0-0.51","subject_id":"5f64af3570cc750009026296","study_id":"60edd13110225f80f9f3709b","session_id":"6196c70262630adcd4f02e8a","condition":"full-information","relevant_dimensions":["wings","legs"],"bee_group":{"antennae":"X","wings":"2","pattern":"X","legs":"M"},"action":"harvest","summary":"good-harvest","bonus":1.9200000000000013},{"rt":712.1999999880791,"stimulus":"\n                    <p><b>Action: <em>harvest</em></b></p>\n                    <p>This is the bee that you just saw.</p>\n                    <img src=\"bees-with-color/bee-A2SF.svg\" width=\"200\">\n                    <p><span class=\"greenText\"><b>Successful harvest!</b></span><br>Your pay has increased by $0.02. Your bonus pay is now $1.26.</p>\n            ","response":0,"trial_type":"html-button-response","trial_index":110,"time_elapsed":443453,"internal_node_id":"0.0-4.0-1.51","subject_id":"5f64af3570cc750009026296","study_id":"60edd13110225f80f9f3709b","session_id":"6196c70262630adcd4f02e8a","condition":"full-information","relevant_dimensions":["wings","legs"],"bee_group":{"antennae":"X","wings":"2","pattern":"X","legs":"M"},"bonus":1.9200000000000013},{"rt":813.5,"stimulus":"bees-with-color/bee-B1SF.svg","response":0,"trial_type":"image-button-response","trial_index":111,"time_elapsed":444270,"internal_node_id":"0.0-4.0-0.52","subject_id":"5f64af3570cc750009026296","study_id":"60edd13110225f80f9f3709b","session_id":"6196c70262630adcd4f02e8a","condition":"full-information","relevant_dimensions":["wings","legs"],"bee_group":{"antennae":"X","wings":"2","pattern":"X","legs":"M"},"action":"harvest","summary":"good-harvest","bonus":1.9200000000000013},{"rt":596.6000000238419,"stimulus":"\n                    <p><b>Action: <em>harvest</em></b></p>\n                    <p>This is the bee that you just saw.</p>\n                    <img src=\"bees-with-color/bee-B1SF.svg\" width=\"200\">\n                    <p><span class=\"greenText\"><b>Successful harvest!</b></span><br>Your pay has increased by $0.02. Your bonus pay is now $1.28.</p>\n            ","response":0,"trial_type":"html-button-response","trial_index":112,"time_elapsed":444870,"internal_node_id":"0.0-4.0-1.52","subject_id":"5f64af3570cc750009026296","study_id":"60edd13110225f80f9f3709b","session_id":"6196c70262630adcd4f02e8a","condition":"full-information","relevant_dimensions":["wings","legs"],"bee_group":{"antennae":"X","wings":"2","pattern":"X","legs":"M"},"bonus":1.9200000000000013},{"rt":1396.6000000238419,"stimulus":"bees-with-color/bee-B2SM.svg","response":1,"trial_type":"image-button-response","trial_index":113,"time_elapsed":446269,"internal_node_id":"0.0-4.0-0.53","subject_id":"5f64af3570cc750009026296","study_id":"60edd13110225f80f9f3709b","session_id":"6196c70262630adcd4f02e8a","condition":"full-information","relevant_dimensions":["wings","legs"],"bee_group":{"antennae":"X","wings":"2","pattern":"X","legs":"M"},"action":"avoid","summary":"good-avoid","bonus":1.9200000000000013},{"rt":646,"stimulus":"\n                    <p><b>Action: <em>avoid</em></b></p>\n                    <p>This is the bee that you just saw.</p>\n                    <img src=\"bees-with-color/bee-B2SM.svg\" width=\"200\">\n                    <p><span class=\"greenText\">Good choice!</span>  This bee would have stung you.<br>Your bonus pay is unchanged, and remains at $1.28.</p>\n            ","response":0,"trial_type":"html-button-response","trial_index":114,"time_elapsed":446921,"internal_node_id":"0.0-4.0-1.53","subject_id":"5f64af3570cc750009026296","study_id":"60edd13110225f80f9f3709b","session_id":"6196c70262630adcd4f02e8a","condition":"full-information","relevant_dimensions":["wings","legs"],"bee_group":{"antennae":"X","wings":"2","pattern":"X","legs":"M"},"bonus":1.9200000000000013},{"rt":1946.5,"stimulus":"bees-with-color/bee-A2DF.svg","response":0,"trial_type":"image-button-response","trial_index":115,"time_elapsed":448870,"internal_node_id":"0.0-4.0-0.54","subject_id":"5f64af3570cc750009026296","study_id":"60edd13110225f80f9f3709b","session_id":"6196c70262630adcd4f02e8a","condition":"full-information","relevant_dimensions":["wings","legs"],"bee_group":{"antennae":"X","wings":"2","pattern":"X","legs":"M"},"action":"harvest","summary":"good-harvest","bonus":1.9200000000000013},{"rt":580.4000000357628,"stimulus":"\n                    <p><b>Action: <em>harvest</em></b></p>\n                    <p>This is the bee that you just saw.</p>\n                    <img src=\"bees-with-color/bee-A2DF.svg\" width=\"200\">\n                    <p><span class=\"greenText\"><b>Successful harvest!</b></span><br>Your pay has increased by $0.02. Your bonus pay is now $1.30.</p>\n            ","response":0,"trial_type":"html-button-response","trial_index":116,"time_elapsed":449453,"internal_node_id":"0.0-4.0-1.54","subject_id":"5f64af3570cc750009026296","study_id":"60edd13110225f80f9f3709b","session_id":"6196c70262630adcd4f02e8a","condition":"full-information","relevant_dimensions":["wings","legs"],"bee_group":{"antennae":"X","wings":"2","pattern":"X","legs":"M"},"bonus":1.9200000000000013},{"rt":1380.300000011921,"stimulus":"bees-with-color/bee-B1SM.svg","response":0,"trial_type":"image-button-response","trial_index":117,"time_elapsed":450837,"internal_node_id":"0.0-4.0-0.55","subject_id":"5f64af3570cc750009026296","study_id":"60edd13110225f80f9f3709b","session_id":"6196c70262630adcd4f02e8a","condition":"full-information","relevant_dimensions":["wings","legs"],"bee_group":{"antennae":"X","wings":"2","pattern":"X","legs":"M"},"action":"harvest","summary":"good-harvest","bonus":1.9200000000000013},{"rt":1247.1000000238419,"stimulus":"\n                    <p><b>Action: <em>harvest</em></b></p>\n                    <p>This is the bee that you just saw.</p>\n                    <img src=\"bees-with-color/bee-B1SM.svg\" width=\"200\">\n                    <p><span class=\"greenText\"><b>Successful harvest!</b></span><br>Your pay has increased by $0.02. Your bonus pay is now $1.32.</p>\n            ","response":0,"trial_type":"html-button-response","trial_index":118,"time_elapsed":452087,"internal_node_id":"0.0-4.0-1.55","subject_id":"5f64af3570cc750009026296","study_id":"60edd13110225f80f9f3709b","session_id":"6196c70262630adcd4f02e8a","condition":"full-information","relevant_dimensions":["wings","legs"],"bee_group":{"antennae":"X","wings":"2","pattern":"X","legs":"M"},"bonus":1.9200000000000013},{"rt":1079.8999999761581,"stimulus":"bees-with-color/bee-B2DM.svg","response":1,"trial_type":"image-button-response","trial_index":119,"time_elapsed":453169,"internal_node_id":"0.0-4.0-0.56","subject_id":"5f64af3570cc750009026296","study_id":"60edd13110225f80f9f3709b","session_id":"6196c70262630adcd4f02e8a","condition":"full-information","relevant_dimensions":["wings","legs"],"bee_group":{"antennae":"X","wings":"2","pattern":"X","legs":"M"},"action":"avoid","summary":"good-avoid","bonus":1.9200000000000013},{"rt":596.8000000119209,"stimulus":"\n                    <p><b>Action: <em>avoid</em></b></p>\n                    <p>This is the bee that you just saw.</p>\n                    <img src=\"bees-with-color/bee-B2DM.svg\" width=\"200\">\n                    <p><span class=\"greenText\">Good choice!</span>  This bee would have stung you.<br>Your bonus pay is unchanged, and remains at $1.32.</p>\n            ","response":0,"trial_type":"html-button-response","trial_index":120,"time_elapsed":453769,"internal_node_id":"0.0-4.0-1.56","subject_id":"5f64af3570cc750009026296","study_id":"60edd13110225f80f9f3709b","session_id":"6196c70262630adcd4f02e8a","condition":"full-information","relevant_dimensions":["wings","legs"],"bee_group":{"antennae":"X","wings":"2","pattern":"X","legs":"M"},"bonus":1.9200000000000013},{"rt":1780.5,"stimulus":"bees-with-color/bee-A1DM.svg","response":0,"trial_type":"image-button-response","trial_index":121,"time_elapsed":455552,"internal_node_id":"0.0-4.0-0.57","subject_id":"5f64af3570cc750009026296","study_id":"60edd13110225f80f9f3709b","session_id":"6196c70262630adcd4f02e8a","condition":"full-information","relevant_dimensions":["wings","legs"],"bee_group":{"antennae":"X","wings":"2","pattern":"X","legs":"M"},"action":"harvest","summary":"good-harvest","bonus":1.9200000000000013},{"rt":547.3000000119209,"stimulus":"\n                    <p><b>Action: <em>harvest</em></b></p>\n                    <p>This is the bee that you just saw.</p>\n                    <img src=\"bees-with-color/bee-A1DM.svg\" width=\"200\">\n                    <p><span class=\"greenText\"><b>Successful harvest!</b></span><br>Your pay has increased by $0.02. Your bonus pay is now $1.34.</p>\n            ","response":0,"trial_type":"html-button-response","trial_index":122,"time_elapsed":456103,"internal_node_id":"0.0-4.0-1.57","subject_id":"5f64af3570cc750009026296","study_id":"60edd13110225f80f9f3709b","session_id":"6196c70262630adcd4f02e8a","condition":"full-information","relevant_dimensions":["wings","legs"],"bee_group":{"antennae":"X","wings":"2","pattern":"X","legs":"M"},"bonus":1.9200000000000013},{"rt":1430.9000000357628,"stimulus":"bees-with-color/bee-B1DM.svg","response":0,"trial_type":"image-button-response","trial_index":123,"time_elapsed":457536,"internal_node_id":"0.0-4.0-0.58","subject_id":"5f64af3570cc750009026296","study_id":"60edd13110225f80f9f3709b","session_id":"6196c70262630adcd4f02e8a","condition":"full-information","relevant_dimensions":["wings","legs"],"bee_group":{"antennae":"X","wings":"2","pattern":"X","legs":"M"},"action":"harvest","summary":"good-harvest","bonus":1.9200000000000013},{"rt":996.8999999761581,"stimulus":"\n                    <p><b>Action: <em>harvest</em></b></p>\n                    <p>This is the bee that you just saw.</p>\n                    <img src=\"bees-with-color/bee-B1DM.svg\" width=\"200\">\n                    <p><span class=\"greenText\"><b>Successful harvest!</b></span><br>Your pay has increased by $0.02. Your bonus pay is now $1.36.</p>\n            ","response":0,"trial_type":"html-button-response","trial_index":124,"time_elapsed":458537,"internal_node_id":"0.0-4.0-1.58","subject_id":"5f64af3570cc750009026296","study_id":"60edd13110225f80f9f3709b","session_id":"6196c70262630adcd4f02e8a","condition":"full-information","relevant_dimensions":["wings","legs"],"bee_group":{"antennae":"X","wings":"2","pattern":"X","legs":"M"},"bonus":1.9200000000000013},{"rt":1346.6000000238419,"stimulus":"bees-with-color/bee-A1DF.svg","response":0,"trial_type":"image-button-response","trial_index":125,"time_elapsed":459886,"internal_node_id":"0.0-4.0-0.59","subject_id":"5f64af3570cc750009026296","study_id":"60edd13110225f80f9f3709b","session_id":"6196c70262630adcd4f02e8a","condition":"full-information","relevant_dimensions":["wings","legs"],"bee_group":{"antennae":"X","wings":"2","pattern":"X","legs":"M"},"action":"harvest","summary":"good-harvest","bonus":1.9200000000000013},{"rt":1130.1000000238419,"stimulus":"\n                    <p><b>Action: <em>harvest</em></b></p>\n                    <p>This is the bee that you just saw.</p>\n                    <img src=\"bees-with-color/bee-A1DF.svg\" width=\"200\">\n                    <p><span class=\"greenText\"><b>Successful harvest!</b></span><br>Your pay has increased by $0.02. Your bonus pay is now $1.38.</p>\n            ","response":0,"trial_type":"html-button-response","trial_index":126,"time_elapsed":461020,"internal_node_id":"0.0-4.0-1.59","subject_id":"5f64af3570cc750009026296","study_id":"60edd13110225f80f9f3709b","session_id":"6196c70262630adcd4f02e8a","condition":"full-information","relevant_dimensions":["wings","legs"],"bee_group":{"antennae":"X","wings":"2","pattern":"X","legs":"M"},"bonus":1.9200000000000013},{"rt":1380.8999999761581,"stimulus":"bees-with-color/bee-A1SM.svg","response":0,"trial_type":"image-button-response","trial_index":127,"time_elapsed":462403,"internal_node_id":"0.0-4.0-0.60","subject_id":"5f64af3570cc750009026296","study_id":"60edd13110225f80f9f3709b","session_id":"6196c70262630adcd4f02e8a","condition":"full-information","relevant_dimensions":["wings","legs"],"bee_group":{"antennae":"X","wings":"2","pattern":"X","legs":"M"},"action":"harvest","summary":"good-harvest","bonus":1.9200000000000013},{"rt":596.5,"stimulus":"\n                    <p><b>Action: <em>harvest</em></b></p>\n                    <p>This is the bee that you just saw.</p>\n                    <img src=\"bees-with-color/bee-A1SM.svg\" width=\"200\">\n                    <p><span class=\"greenText\"><b>Successful harvest!</b></span><br>Your pay has increased by $0.02. Your bonus pay is now $1.40.</p>\n            ","response":0,"trial_type":"html-button-response","trial_index":128,"time_elapsed":463003,"internal_node_id":"0.0-4.0-1.60","subject_id":"5f64af3570cc750009026296","study_id":"60edd13110225f80f9f3709b","session_id":"6196c70262630adcd4f02e8a","condition":"full-information","relevant_dimensions":["wings","legs"],"bee_group":{"antennae":"X","wings":"2","pattern":"X","legs":"M"},"bonus":1.9200000000000013},{"rt":1463.2999999523163,"stimulus":"bees-with-color/bee-A2DM.svg","response":1,"trial_type":"image-button-response","trial_index":129,"time_elapsed":464469,"internal_node_id":"0.0-4.0-0.61","subject_id":"5f64af3570cc750009026296","study_id":"60edd13110225f80f9f3709b","session_id":"6196c70262630adcd4f02e8a","condition":"full-information","relevant_dimensions":["wings","legs"],"bee_group":{"antennae":"X","wings":"2","pattern":"X","legs":"M"},"action":"avoid","summary":"good-avoid","bonus":1.9200000000000013},{"rt":1081,"stimulus":"\n                    <p><b>Action: <em>avoid</em></b></p>\n                    <p>This is the bee that you just saw.</p>\n                    <img src=\"bees-with-color/bee-A2DM.svg\" width=\"200\">\n                    <p><span class=\"greenText\">Good choice!</span>  This bee would have stung you.<br>Your bonus pay is unchanged, and remains at $1.40.</p>\n            ","response":0,"trial_type":"html-button-response","trial_index":130,"time_elapsed":465554,"internal_node_id":"0.0-4.0-1.61","subject_id":"5f64af3570cc750009026296","study_id":"60edd13110225f80f9f3709b","session_id":"6196c70262630adcd4f02e8a","condition":"full-information","relevant_dimensions":["wings","legs"],"bee_group":{"antennae":"X","wings":"2","pattern":"X","legs":"M"},"bonus":1.9200000000000013},{"rt":1280,"stimulus":"bees-with-color/bee-B2DF.svg","response":0,"trial_type":"image-button-response","trial_index":131,"time_elapsed":466837,"internal_node_id":"0.0-4.0-0.62","subject_id":"5f64af3570cc750009026296","study_id":"60edd13110225f80f9f3709b","session_id":"6196c70262630adcd4f02e8a","condition":"full-information","relevant_dimensions":["wings","legs"],"bee_group":{"antennae":"X","wings":"2","pattern":"X","legs":"M"},"action":"harvest","summary":"good-harvest","bonus":1.9200000000000013},{"rt":596.5,"stimulus":"\n                    <p><b>Action: <em>harvest</em></b></p>\n                    <p>This is the bee that you just saw.</p>\n                    <img src=\"bees-with-color/bee-B2DF.svg\" width=\"200\">\n                    <p><span class=\"greenText\"><b>Successful harvest!</b></span><br>Your pay has increased by $0.02. Your bonus pay is now $1.42.</p>\n            ","response":0,"trial_type":"html-button-response","trial_index":132,"time_elapsed":467436,"internal_node_id":"0.0-4.0-1.62","subject_id":"5f64af3570cc750009026296","study_id":"60edd13110225f80f9f3709b","session_id":"6196c70262630adcd4f02e8a","condition":"full-information","relevant_dimensions":["wings","legs"],"bee_group":{"antennae":"X","wings":"2","pattern":"X","legs":"M"},"bonus":1.9200000000000013},{"rt":880.3000000119209,"stimulus":"bees-with-color/bee-B2SF.svg","response":0,"trial_type":"image-button-response","trial_index":133,"time_elapsed":468320,"internal_node_id":"0.0-4.0-0.63","subject_id":"5f64af3570cc750009026296","study_id":"60edd13110225f80f9f3709b","session_id":"6196c70262630adcd4f02e8a","condition":"full-information","relevant_dimensions":["wings","legs"],"bee_group":{"antennae":"X","wings":"2","pattern":"X","legs":"M"},"action":"harvest","summary":"good-harvest","bonus":1.9200000000000013},{"rt":913.6999999880791,"stimulus":"\n                    <p><b>Action: <em>harvest</em></b></p>\n                    <p>This is the bee that you just saw.</p>\n                    <img src=\"bees-with-color/bee-B2SF.svg\" width=\"200\">\n                    <p><span class=\"greenText\"><b>Successful harvest!</b></span><br>Your pay has increased by $0.02. Your bonus pay is now $1.44.</p>\n            ","response":0,"trial_type":"html-button-response","trial_index":134,"time_elapsed":469236,"internal_node_id":"0.0-4.0-1.63","subject_id":"5f64af3570cc750009026296","study_id":"60edd13110225f80f9f3709b","session_id":"6196c70262630adcd4f02e8a","condition":"full-information","relevant_dimensions":["wings","legs"],"bee_group":{"antennae":"X","wings":"2","pattern":"X","legs":"M"},"bonus":1.9200000000000013},{"rt":4594.800000011921,"stimulus":"You have completed the first part of this experiment.<br><br>You will now begin a shorter second part, in which you will receive no feedback.<br>The same rules regarding bonus pay apply.<br><br>Press any key to begin.","response":" ","trial_type":"html-keyboard-response","trial_index":135,"time_elapsed":473834,"internal_node_id":"0.0-5.0","subject_id":"5f64af3570cc750009026296","study_id":"60edd13110225f80f9f3709b","session_id":"6196c70262630adcd4f02e8a","condition":"full-information","relevant_dimensions":["wings","legs"],"bee_group":{"antennae":"X","wings":"2","pattern":"X","legs":"M"},"bonus":1.9200000000000013},{"rt":3847.5,"stimulus":"bees-with-color/bee-A2SM.svg","response":1,"trial_type":"image-button-response","trial_index":136,"time_elapsed":477686,"internal_node_id":"0.0-6.0-0.0","subject_id":"5f64af3570cc750009026296","study_id":"60edd13110225f80f9f3709b","session_id":"6196c70262630adcd4f02e8a","condition":"full-information","relevant_dimensions":["wings","legs"],"bee_group":{"antennae":"X","wings":"2","pattern":"X","legs":"M"},"bonus":1.9200000000000013},{"rt":6597.800000011921,"stimulus":"bees-with-color/bee-B2DF.svg","response":0,"trial_type":"image-button-response","trial_index":137,"time_elapsed":484287,"internal_node_id":"0.0-6.0-0.1","subject_id":"5f64af3570cc750009026296","study_id":"60edd13110225f80f9f3709b","session_id":"6196c70262630adcd4f02e8a","condition":"full-information","relevant_dimensions":["wings","legs"],"bee_group":{"antennae":"X","wings":"2","pattern":"X","legs":"M"},"bonus":1.9200000000000013},{"rt":1212.800000011921,"stimulus":"bees-with-color/bee-A2DF.svg","response":0,"trial_type":"image-button-response","trial_index":138,"time_elapsed":485503,"internal_node_id":"0.0-6.0-0.2","subject_id":"5f64af3570cc750009026296","study_id":"60edd13110225f80f9f3709b","session_id":"6196c70262630adcd4f02e8a","condition":"full-information","relevant_dimensions":["wings","legs"],"bee_group":{"antennae":"X","wings":"2","pattern":"X","legs":"M"},"bonus":1.9200000000000013},{"rt":1213.5,"stimulus":"bees-with-color/bee-B2SM.svg","response":1,"trial_type":"image-button-response","trial_index":139,"time_elapsed":486719,"internal_node_id":"0.0-6.0-0.3","subject_id":"5f64af3570cc750009026296","study_id":"60edd13110225f80f9f3709b","session_id":"6196c70262630adcd4f02e8a","condition":"full-information","relevant_dimensions":["wings","legs"],"bee_group":{"antennae":"X","wings":"2","pattern":"X","legs":"M"},"bonus":1.9200000000000013},{"rt":962.7999999523163,"stimulus":"bees-with-color/bee-B2SF.svg","response":0,"trial_type":"image-button-response","trial_index":140,"time_elapsed":487686,"internal_node_id":"0.0-6.0-0.4","subject_id":"5f64af3570cc750009026296","study_id":"60edd13110225f80f9f3709b","session_id":"6196c70262630adcd4f02e8a","condition":"full-information","relevant_dimensions":["wings","legs"],"bee_group":{"antennae":"X","wings":"2","pattern":"X","legs":"M"},"bonus":1.9200000000000013},{"rt":813.6999999880791,"stimulus":"bees-with-color/bee-A2SF.svg","response":0,"trial_type":"image-button-response","trial_index":141,"time_elapsed":488503,"internal_node_id":"0.0-6.0-0.5","subject_id":"5f64af3570cc750009026296","study_id":"60edd13110225f80f9f3709b","session_id":"6196c70262630adcd4f02e8a","condition":"full-information","relevant_dimensions":["wings","legs"],"bee_group":{"antennae":"X","wings":"2","pattern":"X","legs":"M"},"bonus":1.9200000000000013},{"rt":931.6999999880791,"stimulus":"bees-with-color/bee-B1SM.svg","response":0,"trial_type":"image-button-response","trial_index":142,"time_elapsed":489437,"internal_node_id":"0.0-6.0-0.6","subject_id":"5f64af3570cc750009026296","study_id":"60edd13110225f80f9f3709b","session_id":"6196c70262630adcd4f02e8a","condition":"full-information","relevant_dimensions":["wings","legs"],"bee_group":{"antennae":"X","wings":"2","pattern":"X","legs":"M"},"bonus":1.9200000000000013},{"rt":829.3999999761581,"stimulus":"bees-with-color/bee-B1SF.svg","response":0,"trial_type":"image-button-response","trial_index":143,"time_elapsed":490269,"internal_node_id":"0.0-6.0-0.7","subject_id":"5f64af3570cc750009026296","study_id":"60edd13110225f80f9f3709b","session_id":"6196c70262630adcd4f02e8a","condition":"full-information","relevant_dimensions":["wings","legs"],"bee_group":{"antennae":"X","wings":"2","pattern":"X","legs":"M"},"bonus":1.9200000000000013},{"rt":1049.0999999642372,"stimulus":"bees-with-color/bee-A1SM.svg","response":0,"trial_type":"image-button-response","trial_index":144,"time_elapsed":491321,"internal_node_id":"0.0-6.0-0.8","subject_id":"5f64af3570cc750009026296","study_id":"60edd13110225f80f9f3709b","session_id":"6196c70262630adcd4f02e8a","condition":"full-information","relevant_dimensions":["wings","legs"],"bee_group":{"antennae":"X","wings":"2","pattern":"X","legs":"M"},"bonus":1.9200000000000013},{"rt":1230.5,"stimulus":"bees-with-color/bee-A1DF.svg","response":0,"trial_type":"image-button-response","trial_index":145,"time_elapsed":492554,"internal_node_id":"0.0-6.0-0.9","subject_id":"5f64af3570cc750009026296","study_id":"60edd13110225f80f9f3709b","session_id":"6196c70262630adcd4f02e8a","condition":"full-information","relevant_dimensions":["wings","legs"],"bee_group":{"antennae":"X","wings":"2","pattern":"X","legs":"M"},"bonus":1.9200000000000013},{"rt":614.3000000119209,"stimulus":"bees-with-color/bee-A1SF.svg","response":0,"trial_type":"image-button-response","trial_index":146,"time_elapsed":493170,"internal_node_id":"0.0-6.0-0.10","subject_id":"5f64af3570cc750009026296","study_id":"60edd13110225f80f9f3709b","session_id":"6196c70262630adcd4f02e8a","condition":"full-information","relevant_dimensions":["wings","legs"],"bee_group":{"antennae":"X","wings":"2","pattern":"X","legs":"M"},"bonus":1.9200000000000013},{"rt":897.6999999880791,"stimulus":"bees-with-color/bee-B2DM.svg","response":1,"trial_type":"image-button-response","trial_index":147,"time_elapsed":494070,"internal_node_id":"0.0-6.0-0.11","subject_id":"5f64af3570cc750009026296","study_id":"60edd13110225f80f9f3709b","session_id":"6196c70262630adcd4f02e8a","condition":"full-information","relevant_dimensions":["wings","legs"],"bee_group":{"antennae":"X","wings":"2","pattern":"X","legs":"M"},"bonus":1.9200000000000013},{"rt":613.3000000119209,"stimulus":"bees-with-color/bee-B1DF.svg","response":0,"trial_type":"image-button-response","trial_index":148,"time_elapsed":494686,"internal_node_id":"0.0-6.0-0.12","subject_id":"5f64af3570cc750009026296","study_id":"60edd13110225f80f9f3709b","session_id":"6196c70262630adcd4f02e8a","condition":"full-information","relevant_dimensions":["wings","legs"],"bee_group":{"antennae":"X","wings":"2","pattern":"X","legs":"M"},"bonus":1.9200000000000013},{"rt":1697.6000000238419,"stimulus":"bees-with-color/bee-A1DM.svg","response":0,"trial_type":"image-button-response","trial_index":149,"time_elapsed":496386,"internal_node_id":"0.0-6.0-0.13","subject_id":"5f64af3570cc750009026296","study_id":"60edd13110225f80f9f3709b","session_id":"6196c70262630adcd4f02e8a","condition":"full-information","relevant_dimensions":["wings","legs"],"bee_group":{"antennae":"X","wings":"2","pattern":"X","legs":"M"},"bonus":1.9200000000000013},{"rt":997.3999999761581,"stimulus":"bees-with-color/bee-A2DM.svg","response":1,"trial_type":"image-button-response","trial_index":150,"time_elapsed":497387,"internal_node_id":"0.0-6.0-0.14","subject_id":"5f64af3570cc750009026296","study_id":"60edd13110225f80f9f3709b","session_id":"6196c70262630adcd4f02e8a","condition":"full-information","relevant_dimensions":["wings","legs"],"bee_group":{"antennae":"X","wings":"2","pattern":"X","legs":"M"},"bonus":1.9200000000000013},{"rt":1080.199999988079,"stimulus":"bees-with-color/bee-B1DM.svg","response":0,"trial_type":"image-button-response","trial_index":151,"time_elapsed":498470,"internal_node_id":"0.0-6.0-0.15","subject_id":"5f64af3570cc750009026296","study_id":"60edd13110225f80f9f3709b","session_id":"6196c70262630adcd4f02e8a","condition":"full-information","relevant_dimensions":["wings","legs"],"bee_group":{"antennae":"X","wings":"2","pattern":"X","legs":"M"},"bonus":1.9200000000000013},{"rt":980.6999999880791,"stimulus":"bees-with-color/bee-A2SM.svg","response":1,"trial_type":"image-button-response","trial_index":152,"time_elapsed":499454,"internal_node_id":"0.0-6.0-0.16","subject_id":"5f64af3570cc750009026296","study_id":"60edd13110225f80f9f3709b","session_id":"6196c70262630adcd4f02e8a","condition":"full-information","relevant_dimensions":["wings","legs"],"bee_group":{"antennae":"X","wings":"2","pattern":"X","legs":"M"},"bonus":1.9200000000000013},{"rt":829.3000000119209,"stimulus":"bees-with-color/bee-B1DF.svg","response":0,"trial_type":"image-button-response","trial_index":153,"time_elapsed":500287,"internal_node_id":"0.0-6.0-0.17","subject_id":"5f64af3570cc750009026296","study_id":"60edd13110225f80f9f3709b","session_id":"6196c70262630adcd4f02e8a","condition":"full-information","relevant_dimensions":["wings","legs"],"bee_group":{"antennae":"X","wings":"2","pattern":"X","legs":"M"},"bonus":1.9200000000000013},{"rt":546.4000000357628,"stimulus":"bees-with-color/bee-A1SF.svg","response":0,"trial_type":"image-button-response","trial_index":154,"time_elapsed":500837,"internal_node_id":"0.0-6.0-0.18","subject_id":"5f64af3570cc750009026296","study_id":"60edd13110225f80f9f3709b","session_id":"6196c70262630adcd4f02e8a","condition":"full-information","relevant_dimensions":["wings","legs"],"bee_group":{"antennae":"X","wings":"2","pattern":"X","legs":"M"},"bonus":1.9200000000000013},{"rt":646.8000000119209,"stimulus":"bees-with-color/bee-A2SF.svg","response":0,"trial_type":"image-button-response","trial_index":155,"time_elapsed":501487,"internal_node_id":"0.0-6.0-0.19","subject_id":"5f64af3570cc750009026296","study_id":"60edd13110225f80f9f3709b","session_id":"6196c70262630adcd4f02e8a","condition":"full-information","relevant_dimensions":["wings","legs"],"bee_group":{"antennae":"X","wings":"2","pattern":"X","legs":"M"},"bonus":1.9200000000000013},{"rt":829.7000000476837,"stimulus":"bees-with-color/bee-B1DM.svg","response":0,"trial_type":"image-button-response","trial_index":156,"time_elapsed":502320,"internal_node_id":"0.0-6.0-0.20","subject_id":"5f64af3570cc750009026296","study_id":"60edd13110225f80f9f3709b","session_id":"6196c70262630adcd4f02e8a","condition":"full-information","relevant_dimensions":["wings","legs"],"bee_group":{"antennae":"X","wings":"2","pattern":"X","legs":"M"},"bonus":1.9200000000000013},{"rt":1314.300000011921,"stimulus":"bees-with-color/bee-B2DM.svg","response":1,"trial_type":"image-button-response","trial_index":157,"time_elapsed":503637,"internal_node_id":"0.0-6.0-0.21","subject_id":"5f64af3570cc750009026296","study_id":"60edd13110225f80f9f3709b","session_id":"6196c70262630adcd4f02e8a","condition":"full-information","relevant_dimensions":["wings","legs"],"bee_group":{"antennae":"X","wings":"2","pattern":"X","legs":"M"},"bonus":1.9200000000000013},{"rt":1296.7999999523163,"stimulus":"bees-with-color/bee-A1DM.svg","response":0,"trial_type":"image-button-response","trial_index":158,"time_elapsed":504936,"internal_node_id":"0.0-6.0-0.22","subject_id":"5f64af3570cc750009026296","study_id":"60edd13110225f80f9f3709b","session_id":"6196c70262630adcd4f02e8a","condition":"full-information","relevant_dimensions":["wings","legs"],"bee_group":{"antennae":"X","wings":"2","pattern":"X","l