[{"success":true,"trial_type":"fullscreen","trial_index":0,"time_elapsed":14004,"internal_node_id":"0.0-0.0","subject_id":"5e2df2855e01ef3e5d01ab58","study_id":"6197b3f67c2b5cd3b6d9596a","session_id":"619be5af460f5b1e6659b03d","condition":"contingent","relevant_dimensions":["antennae","wings"],"bee_group":{"antennae":"A","wings":"1","pattern":"X","legs":"X"},"bonus":1.5400000000000014},{"success":true,"timeout":false,"failed_images":[],"failed_audio":[],"failed_video":[],"trial_type":"preload","trial_index":1,"time_elapsed":15414,"internal_node_id":"0.0-1.0","subject_id":"5e2df2855e01ef3e5d01ab58","study_id":"6197b3f67c2b5cd3b6d9596a","session_id":"619be5af460f5b1e6659b03d","condition":"contingent","relevant_dimensions":["antennae","wings"],"bee_group":{"antennae":"A","wings":"1","pattern":"X","legs":"X"},"bonus":1.5400000000000014},{"rt":1618.9000000022352,"stimulus":"Welcome! Press any key to begin.","response":" ","trial_type":"html-keyboard-response","trial_index":2,"time_elapsed":17034,"internal_node_id":"0.0-2.0","subject_id":"5e2df2855e01ef3e5d01ab58","study_id":"6197b3f67c2b5cd3b6d9596a","session_id":"619be5af460f5b1e6659b03d","condition":"contingent","relevant_dimensions":["antennae","wings"],"bee_group":{"antennae":"A","wings":"1","pattern":"X","legs":"X"},"bonus":1.5400000000000014},{"view_history":[{"page_index":0,"viewing_time":3231.5},{"page_index":1,"viewing_time":13886.099999997765},{"page_index":2,"viewing_time":7990},{"page_index":3,"viewing_time":11276},{"page_index":4,"viewing_time":4264.900000002235},{"page_index":5,"viewing_time":4948},{"page_index":6,"viewing_time":8453},{"page_index":7,"viewing_time":3916.099999997765},{"page_index":8,"viewing_time":3191.10000000149},{"page_index":9,"viewing_time":1490.8999999985099},{"page_index":10,"viewing_time":2532},{"page_index":11,"viewing_time":2037.800000000745},{"page_index":10,"viewing_time":6245.10000000149},{"page_index":11,"viewing_time":8105},{"page_index":12,"viewing_time":9270.099999997765},{"page_index":13,"viewing_time":1284.9000000022352},{"page_index":14,"viewing_time":1422.0999999977648}],"rt":93544.69999999925,"trial_type":"instructions","trial_index":3,"time_elapsed":110579,"internal_node_id":"0.0-3.0-0.0","subject_id":"5e2df2855e01ef3e5d01ab58","study_id":"6197b3f67c2b5cd3b6d9596a","session_id":"619be5af460f5b1e6659b03d","condition":"contingent","relevant_dimensions":["antennae","wings"],"bee_group":{"antennae":"A","wings":"1","pattern":"X","legs":"X"},"bonus":1.5400000000000014},{"rt":9400.89999999851,"response":{"Q0":["Two or six legs","Stripes or spots on body","Single or double wings","Antennae or no antennae"]},"question_order":[0],"trial_type":"survey-multi-select","trial_index":4,"time_elapsed":119982,"internal_node_id":"0.0-3.0-1.0","subject_id":"5e2df2855e01ef3e5d01ab58","study_id":"6197b3f67c2b5cd3b6d9596a","session_id":"619be5af460f5b1e6659b03d","condition":"contingent","relevant_dimensions":["antennae","wings"],"bee_group":{"antennae":"A","wings":"1","pattern":"X","legs":"X"},"correct":true,"bonus":1.5400000000000014},{"rt":17571.699999999255,"response":{"Q1":"No.","Q2":"Based on the four features of the bee.","Q3":"You do not learn if it was friendly or dangerous, and do not alter your bonus."},"question_order":[0,1,2],"trial_type":"survey-multi-choice","trial_index":5,"time_elapsed":137555,"internal_node_id":"0.0-3.0-2.0","subject_id":"5e2df2855e01ef3e5d01ab58","study_id":"6197b3f67c2b5cd3b6d9596a","session_id":"619be5af460f5b1e6659b03d","condition":"contingent","relevant_dimensions":["antennae","wings"],"bee_group":{"antennae":"A","wings":"1","pattern":"X","legs":"X"},"correct":true,"bonus":1.5400000000000014},{"rt":2299.10000000149,"stimulus":"<p>Congrats, you got everything right<br>When you're ready, click the button below to continue to the experiment.</p>","response":0,"trial_type":"html-button-response","trial_index":6,"time_elapsed":139855,"internal_node_id":"0.0-3.0-3.0","subject_id":"5e2df2855e01ef3e5d01ab58","study_id":"6197b3f67c2b5cd3b6d9596a","session_id":"619be5af460f5b1e6659b03d","condition":"contingent","relevant_dimensions":["antennae","wings"],"bee_group":{"antennae":"A","wings":"1","pattern":"X","legs":"X"},"bonus":1.5400000000000014},{"rt":4900.199999999255,"stimulus":"bees-with-color/bee-B1SM.svg","response":0,"trial_type":"image-button-response","trial_index":7,"time_elapsed":144757,"internal_node_id":"0.0-4.0-0.0","subject_id":"5e2df2855e01ef3e5d01ab58","study_id":"6197b3f67c2b5cd3b6d9596a","session_id":"619be5af460f5b1e6659b03d","condition":"contingent","relevant_dimensions":["antennae","wings"],"bee_group":{"antennae":"A","wings":"1","pattern":"X","legs":"X"},"action":"harvest","summary":"good-harvest","bonus":1.5400000000000014},{"rt":6684.199999999255,"stimulus":"\n                    <p><b>Action: <em>harvest</em></b></p>\n                    <p>This is the bee that you just saw.</p>\n                    <img src=\"bees-with-color/bee-B1SM.svg\" width=\"200\">\n                    <p><span class=\"greenText\"><b>Successful harvest!</b></span><br>Your pay has increased by $0.02. Your bonus pay is now $0.56.</p>\n            ","response":0,"trial_type":"html-button-response","trial_index":8,"time_elapsed":151443,"internal_node_id":"0.0-4.0-1.0","subject_id":"5e2df2855e01ef3e5d01ab58","study_id":"6197b3f67c2b5cd3b6d9596a","session_id":"619be5af460f5b1e6659b03d","condition":"contingent","relevant_dimensions":["antennae","wings"],"bee_group":{"antennae":"A","wings":"1","pattern":"X","legs":"X"},"bonus":1.5400000000000014},{"rt":3165.900000002235,"stimulus":"bees-with-color/bee-B2DM.svg","response":0,"trial_type":"image-button-response","trial_index":9,"time_elapsed":154610,"internal_node_id":"0.0-4.0-0.1","subject_id":"5e2df2855e01ef3e5d01ab58","study_id":"6197b3f67c2b5cd3b6d9596a","session_id":"619be5af460f5b1e6659b03d","condition":"contingent","relevant_dimensions":["antennae","wings"],"bee_group":{"antennae":"A","wings":"1","pattern":"X","legs":"X"},"action":"harvest","summary":"good-harvest","bonus":1.5400000000000014},{"rt":5493.800000000745,"stimulus":"\n                    <p><b>Action: <em>harvest</em></b></p>\n                    <p>This is the bee that you just saw.</p>\n                    <img src=\"bees-with-color/bee-B2DM.svg\" width=\"200\">\n                    <p><span class=\"greenText\"><b>Successful harvest!</b></span><br>Your pay has increased by $0.02. Your bonus pay is now $0.58.</p>\n            ","response":0,"trial_type":"html-button-response","trial_index":10,"time_elapsed":160105,"internal_node_id":"0.0-4.0-1.1","subject_id":"5e2df2855e01ef3e5d01ab58","study_id":"6197b3f67c2b5cd3b6d9596a","session_id":"619be5af460f5b1e6659b03d","condition":"contingent","relevant_dimensions":["antennae","wings"],"bee_group":{"antennae":"A","wings":"1","pattern":"X","legs":"X"},"bonus":1.5400000000000014},{"rt":2504.699999999255,"stimulus":"bees-with-color/bee-B2SM.svg","response":0,"trial_type":"image-button-response","trial_index":11,"time_elapsed":162611,"internal_node_id":"0.0-4.0-0.2","subject_id":"5e2df2855e01ef3e5d01ab58","study_id":"6197b3f67c2b5cd3b6d9596a","session_id":"619be5af460f5b1e6659b03d","condition":"contingent","relevant_dimensions":["antennae","wings"],"bee_group":{"antennae":"A","wings":"1","pattern":"X","legs":"X"},"action":"harvest","summary":"good-harvest","bonus":1.5400000000000014},{"rt":3308,"stimulus":"\n                    <p><b>Action: <em>harvest</em></b></p>\n                    <p>This is the bee that you just saw.</p>\n                    <img src=\"bees-with-color/bee-B2SM.svg\" width=\"200\">\n                    <p><span class=\"greenText\"><b>Successful harvest!</b></span><br>Your pay has increased by $0.02. Your bonus pay is now $0.60.</p>\n            ","response":0,"trial_type":"html-button-response","trial_index":12,"time_elapsed":165920,"internal_node_id":"0.0-4.0-1.2","subject_id":"5e2df2855e01ef3e5d01ab58","study_id":"6197b3f67c2b5cd3b6d9596a","session_id":"619be5af460f5b1e6659b03d","condition":"contingent","relevant_dimensions":["antennae","wings"],"bee_group":{"antennae":"A","wings":"1","pattern":"X","legs":"X"},"bonus":1.5400000000000014},{"rt":3036.800000000745,"stimulus":"bees-with-color/bee-A1DM.svg","response":1,"trial_type":"image-button-response","trial_index":13,"time_elapsed":168958,"internal_node_id":"0.0-4.0-0.3","subject_id":"5e2df2855e01ef3e5d01ab58","study_id":"6197b3f67c2b5cd3b6d9596a","session_id":"619be5af460f5b1e6659b03d","condition":"contingent","relevant_dimensions":["antennae","wings"],"bee_group":{"antennae":"A","wings":"1","pattern":"X","legs":"X"},"action":"avoid","summary":"good-avoid","bonus":1.5400000000000014},{"rt":2204.39999999851,"stimulus":"\n                    <p><b>Action: <em>avoid</em></b></p>\n                    <p>This is the bee that you just saw.</p>\n                    <img src=\"bees-with-color/bee-A1DM.svg\" width=\"200\">\n                    <p><br>Your bonus pay is unchanged, and remains at $0.60.</p>\n            ","response":0,"trial_type":"html-button-response","trial_index":14,"time_elapsed":171163,"internal_node_id":"0.0-4.0-1.3","subject_id":"5e2df2855e01ef3e5d01ab58","study_id":"6197b3f67c2b5cd3b6d9596a","session_id":"619be5af460f5b1e6659b03d","condition":"contingent","relevant_dimensions":["antennae","wings"],"bee_group":{"antennae":"A","wings":"1","pattern":"X","legs":"X"},"bonus":1.5400000000000014},{"rt":2092.7000000029802,"stimulus":"bees-with-color/bee-A2DF.svg","response":0,"trial_type":"image-button-response","trial_index":15,"time_elapsed":173257,"internal_node_id":"0.0-4.0-0.4","subject_id":"5e2df2855e01ef3e5d01ab58","study_id":"6197b3f67c2b5cd3b6d9596a","session_id":"619be5af460f5b1e6659b03d","condition":"contingent","relevant_dimensions":["antennae","wings"],"bee_group":{"antennae":"A","wings":"1","pattern":"X","legs":"X"},"action":"harvest","summary":"good-harvest","bonus":1.5400000000000014},{"rt":5483.20000000298,"stimulus":"\n                    <p><b>Action: <em>harvest</em></b></p>\n                    <p>This is the bee that you just saw.</p>\n                    <img src=\"bees-with-color/bee-A2DF.svg\" width=\"200\">\n                    <p><span class=\"greenText\"><b>Successful harvest!</b></span><br>Your pay has increased by $0.02. Your bonus pay is now $0.62.</p>\n            ","response":0,"trial_type":"html-button-response","trial_index":16,"time_elapsed":178741,"internal_node_id":"0.0-4.0-1.4","subject_id":"5e2df2855e01ef3e5d01ab58","study_id":"6197b3f67c2b5cd3b6d9596a","session_id":"619be5af460f5b1e6659b03d","condition":"contingent","relevant_dimensions":["antennae","wings"],"bee_group":{"antennae":"A","wings":"1","pattern":"X","legs":"X"},"bonus":1.5400000000000014},{"rt":2963.199999999255,"stimulus":"bees-with-color/bee-B2DF.svg","response":0,"trial_type":"image-button-response","trial_index":17,"time_elapsed":181705,"internal_node_id":"0.0-4.0-0.5","subject_id":"5e2df2855e01ef3e5d01ab58","study_id":"6197b3f67c2b5cd3b6d9596a","session_id":"619be5af460f5b1e6659b03d","condition":"contingent","relevant_dimensions":["antennae","wings"],"bee_group":{"antennae":"A","wings":"1","pattern":"X","legs":"X"},"action":"harvest","summary":"good-harvest","bonus":1.5400000000000014},{"rt":3064.099999997765,"stimulus":"\n                    <p><b>Action: <em>harvest</em></b></p>\n                    <p>This is the bee that you just saw.</p>\n                    <img src=\"bees-with-color/bee-B2DF.svg\" width=\"200\">\n                    <p><span class=\"greenText\"><b>Successful harvest!</b></span><br>Your pay has increased by $0.02. Your bonus pay is now $0.64.</p>\n            ","response":0,"trial_type":"html-button-response","trial_index":18,"time_elapsed":184770,"internal_node_id":"0.0-4.0-1.5","subject_id":"5e2df2855e01ef3e5d01ab58","study_id":"6197b3f67c2b5cd3b6d9596a","session_id":"619be5af460f5b1e6659b03d","condition":"contingent","relevant_dimensions":["antennae","wings"],"bee_group":{"antennae":"A","wings":"1","pattern":"X","legs":"X"},"bonus":1.5400000000000014},{"rt":3859.7000000029802,"stimulus":"bees-with-color/bee-A2SM.svg","response":0,"trial_type":"image-button-response","trial_index":19,"time_elapsed":188631,"internal_node_id":"0.0-4.0-0.6","subject_id":"5e2df2855e01ef3e5d01ab58","study_id":"6197b3f67c2b5cd3b6d9596a","session_id":"619be5af460f5b1e6659b03d","condition":"contingent","relevant_dimensions":["antennae","wings"],"bee_group":{"antennae":"A","wings":"1","pattern":"X","legs":"X"},"action":"harvest","summary":"good-harvest","bonus":1.5400000000000014},{"rt":2391.099999997765,"stimulus":"\n                    <p><b>Action: <em>harvest</em></b></p>\n                    <p>This is the bee that you just saw.</p>\n                    <img src=\"bees-with-color/bee-A2SM.svg\" width=\"200\">\n                    <p><span class=\"greenText\"><b>Successful harvest!</b></span><br>Your pay has increased by $0.02. Your bonus pay is now $0.66.</p>\n            ","response":0,"trial_type":"html-button-response","trial_index":20,"time_elapsed":191023,"internal_node_id":"0.0-4.0-1.6","subject_id":"5e2df2855e01ef3e5d01ab58","study_id":"6197b3f67c2b5cd3b6d9596a","session_id":"619be5af460f5b1e6659b03d","condition":"contingent","relevant_dimensions":["antennae","wings"],"bee_group":{"antennae":"A","wings":"1","pattern":"X","legs":"X"},"bonus":1.5400000000000014},{"rt":2789,"stimulus":"bees-with-color/bee-A1DF.svg","response":0,"trial_type":"image-button-response","trial_index":21,"time_elapsed":193813,"internal_node_id":"0.0-4.0-0.7","subject_id":"5e2df2855e01ef3e5d01ab58","study_id":"6197b3f67c2b5cd3b6d9596a","session_id":"619be5af460f5b1e6659b03d","condition":"contingent","relevant_dimensions":["antennae","wings"],"bee_group":{"antennae":"A","wings":"1","pattern":"X","legs":"X"},"action":"harvest","summary":"bad-harvest","bonus":1.5400000000000014},{"rt":7527.89999999851,"stimulus":"\n                    <p><b>Action: <em>harvest</em></b></p>\n                    <p>This is the bee that you just saw.</p>\n                    <img src=\"bees-with-color/bee-A1DF.svg\" width=\"200\">\n                    <p><span class=\"redText\">Bad choice, the bee was angry.</span><br><b>You have been stung!</b><br>Your pay has been decreased by $0.10. Your bonus pay is now $0.56.</p>\n            ","response":0,"trial_type":"html-button-response","trial_index":22,"time_elapsed":201342,"internal_node_id":"0.0-4.0-1.7","subject_id":"5e2df2855e01ef3e5d01ab58","study_id":"6197b3f67c2b5cd3b6d9596a","session_id":"619be5af460f5b1e6659b03d","condition":"contingent","relevant_dimensions":["antennae","wings"],"bee_group":{"antennae":"A","wings":"1","pattern":"X","legs":"X"},"bonus":1.5400000000000014},{"rt":2477.89999999851,"stimulus":"bees-with-color/bee-A2DM.svg","response":0,"trial_type":"image-button-response","trial_index":23,"time_elapsed":203821,"internal_node_id":"0.0-4.0-0.8","subject_id":"5e2df2855e01ef3e5d01ab58","study_id":"6197b3f67c2b5cd3b6d9596a","session_id":"619be5af460f5b1e6659b03d","condition":"contingent","relevant_dimensions":["antennae","wings"],"bee_group":{"antennae":"A","wings":"1","pattern":"X","legs":"X"},"action":"harvest","summary":"good-harvest","bonus":1.5400000000000014},{"rt":1784,"stimulus":"\n                    <p><b>Action: <em>harvest</em></b></p>\n                    <p>This is the bee that you just saw.</p>\n                    <img src=\"bees-with-color/bee-A2DM.svg\" width=\"200\">\n                    <p><span class=\"greenText\"><b>Successful harvest!</b></span><br>Your pay has increased by $0.02. Your bonus pay is now $0.58.</p>\n            ","response":0,"trial_type":"html-button-response","trial_index":24,"time_elapsed":205606,"internal_node_id":"0.0-4.0-1.8","subject_id":"5e2df2855e01ef3e5d01ab58","study_id":"6197b3f67c2b5cd3b6d9596a","session_id":"619be5af460f5b1e6659b03d","condition":"contingent","relevant_dimensions":["antennae","wings"],"bee_group":{"antennae":"A","wings":"1","pattern":"X","legs":"X"},"bonus":1.5400000000000014},{"rt":2482.10000000149,"stimulus":"bees-with-color/bee-A1SF.svg","response":1,"trial_type":"image-button-response","trial_index":25,"time_elapsed":208089,"internal_node_id":"0.0-4.0-0.9","subject_id":"5e2df2855e01ef3e5d01ab58","study_id":"6197b3f67c2b5cd3b6d9596a","session_id":"619be5af460f5b1e6659b03d","condition":"contingent","relevant_dimensions":["antennae","wings"],"bee_group":{"antennae":"A","wings":"1","pattern":"X","legs":"X"},"action":"avoid","summary":"good-avoid","bonus":1.5400000000000014},{"rt":2012,"stimulus":"\n                    <p><b>Action: <em>avoid</em></b></p>\n                    <p>This is the bee that you just saw.</p>\n                    <img src=\"bees-with-color/bee-A1SF.svg\" width=\"200\">\n                    <p><br>Your bonus pay is unchanged, and remains at $0.58.</p>\n            ","response":0,"trial_type":"html-button-response","trial_index":26,"time_elapsed":210102,"internal_node_id":"0.0-4.0-1.9","subject_id":"5e2df2855e01ef3e5d01ab58","study_id":"6197b3f67c2b5cd3b6d9596a","session_id":"619be5af460f5b1e6659b03d","condition":"contingent","relevant_dimensions":["antennae","wings"],"bee_group":{"antennae":"A","wings":"1","pattern":"X","legs":"X"},"bonus":1.5400000000000014},{"rt":4107.800000000745,"stimulus":"bees-with-color/bee-B1SF.svg","response":0,"trial_type":"image-button-response","trial_index":27,"time_elapsed":214211,"internal_node_id":"0.0-4.0-0.10","subject_id":"5e2df2855e01ef3e5d01ab58","study_id":"6197b3f67c2b5cd3b6d9596a","session_id":"619be5af460f5b1e6659b03d","condition":"contingent","relevant_dimensions":["antennae","wings"],"bee_group":{"antennae":"A","wings":"1","pattern":"X","legs":"X"},"action":"harvest","summary":"good-harvest","bonus":1.5400000000000014},{"rt":1069.3999999985099,"stimulus":"\n                    <p><b>Action: <em>harvest</em></b></p>\n                    <p>This is the bee that you just saw.</p>\n                    <img src=\"bees-with-color/bee-B1SF.svg\" width=\"200\">\n                    <p><span class=\"greenText\"><b>Successful harvest!</b></span><br>Your pay has increased by $0.02. Your bonus pay is now $0.60.</p>\n            ","response":0,"trial_type":"html-button-response","trial_index":28,"time_elapsed":215281,"internal_node_id":"0.0-4.0-1.10","subject_id":"5e2df2855e01ef3e5d01ab58","study_id":"6197b3f67c2b5cd3b6d9596a","session_id":"619be5af460f5b1e6659b03d","condition":"contingent","relevant_dimensions":["antennae","wings"],"bee_group":{"antennae":"A","wings":"1","pattern":"X","legs":"X"},"bonus":1.5400000000000014},{"rt":1772,"stimulus":"bees-with-color/bee-A1SM.svg","response":0,"trial_type":"image-button-response","trial_index":29,"time_elapsed":217054,"internal_node_id":"0.0-4.0-0.11","subject_id":"5e2df2855e01ef3e5d01ab58","study_id":"6197b3f67c2b5cd3b6d9596a","session_id":"619be5af460f5b1e6659b03d","condition":"contingent","relevant_dimensions":["antennae","wings"],"bee_group":{"antennae":"A","wings":"1","pattern":"X","legs":"X"},"action":"harvest","summary":"bad-harvest","bonus":1.5400000000000014},{"rt":8950.60000000149,"stimulus":"\n                    <p><b>Action: <em>harvest</em></b></p>\n                    <p>This is the bee that you just saw.</p>\n                    <img src=\"bees-with-color/bee-A1SM.svg\" width=\"200\">\n                    <p><span class=\"redText\">Bad choice, the bee was angry.</span><br><b>You have been stung!</b><br>Your pay has been decreased by $0.10. Your bonus pay is now $0.50.</p>\n            ","response":0,"trial_type":"html-button-response","trial_index":30,"time_elapsed":226005,"internal_node_id":"0.0-4.0-1.11","subject_id":"5e2df2855e01ef3e5d01ab58","study_id":"6197b3f67c2b5cd3b6d9596a","session_id":"619be5af460f5b1e6659b03d","condition":"contingent","relevant_dimensions":["antennae","wings"],"bee_group":{"antennae":"A","wings":"1","pattern":"X","legs":"X"},"bonus":1.5400000000000014},{"rt":2123.7999999970198,"stimulus":"bees-with-color/bee-B1DF.svg","response":0,"trial_type":"image-button-response","trial_index":31,"time_elapsed":228130,"internal_node_id":"0.0-4.0-0.12","subject_id":"5e2df2855e01ef3e5d01ab58","study_id":"6197b3f67c2b5cd3b6d9596a","session_id":"619be5af460f5b1e6659b03d","condition":"contingent","relevant_dimensions":["antennae","wings"],"bee_group":{"antennae":"A","wings":"1","pattern":"X","legs":"X"},"action":"harvest","summary":"good-harvest","bonus":1.5400000000000014},{"rt":902.9000000022352,"stimulus":"\n                    <p><b>Action: <em>harvest</em></b></p>\n                    <p>This is the bee that you just saw.</p>\n                    <img src=\"bees-with-color/bee-B1DF.svg\" width=\"200\">\n                    <p><span class=\"greenText\"><b>Successful harvest!</b></span><br>Your pay has increased by $0.02. Your bonus pay is now $0.52.</p>\n            ","response":0,"trial_type":"html-button-response","trial_index":32,"time_elapsed":229034,"internal_node_id":"0.0-4.0-1.12","subject_id":"5e2df2855e01ef3e5d01ab58","study_id":"6197b3f67c2b5cd3b6d9596a","session_id":"619be5af460f5b1e6659b03d","condition":"contingent","relevant_dimensions":["antennae","wings"],"bee_group":{"antennae":"A","wings":"1","pattern":"X","legs":"X"},"bonus":1.5400000000000014},{"rt":1722.2000000029802,"stimulus":"bees-with-color/bee-B1DM.svg","response":0,"trial_type":"image-button-response","trial_index":33,"time_elapsed":230757,"internal_node_id":"0.0-4.0-0.13","subject_id":"5e2df2855e01ef3e5d01ab58","study_id":"6197b3f67c2b5cd3b6d9596a","session_id":"619be5af460f5b1e6659b03d","condition":"contingent","relevant_dimensions":["antennae","wings"],"bee_group":{"antennae":"A","wings":"1","pattern":"X","legs":"X"},"action":"harvest","summary":"good-harvest","bonus":1.5400000000000014},{"rt":867.3000000007451,"stimulus":"\n                    <p><b>Action: <em>harvest</em></b></p>\n                    <p>This is the bee that you just saw.</p>\n                    <img src=\"bees-with-color/bee-B1DM.svg\" width=\"200\">\n                    <p><span class=\"greenText\"><b>Successful harvest!</b></span><br>Your pay has increased by $0.02. Your bonus pay is now $0.54.</p>\n            ","response":0,"trial_type":"html-button-response","trial_index":34,"time_elapsed":231625,"internal_node_id":"0.0-4.0-1.13","subject_id":"5e2df2855e01ef3e5d01ab58","study_id":"6197b3f67c2b5cd3b6d9596a","session_id":"619be5af460f5b1e6659b03d","condition":"contingent","relevant_dimensions":["antennae","wings"],"bee_group":{"antennae":"A","wings":"1","pattern":"X","legs":"X"},"bonus":1.5400000000000014},{"rt":3403.2999999970198,"stimulus":"bees-with-color/bee-A2SF.svg","response":0,"trial_type":"image-button-response","trial_index":35,"time_elapsed":235029,"internal_node_id":"0.0-4.0-0.14","subject_id":"5e2df2855e01ef3e5d01ab58","study_id":"6197b3f67c2b5cd3b6d9596a","session_id":"619be5af460f5b1e6659b03d","condition":"contingent","relevant_dimensions":["antennae","wings"],"bee_group":{"antennae":"A","wings":"1","pattern":"X","legs":"X"},"action":"harvest","summary":"good-harvest","bonus":1.5400000000000014},{"rt":815.8000000007451,"stimulus":"\n                    <p><b>Action: <em>harvest</em></b></p>\n                    <p>This is the bee that you just saw.</p>\n                    <img src=\"bees-with-color/bee-A2SF.svg\" width=\"200\">\n                    <p><span class=\"greenText\"><b>Successful harvest!</b></span><br>Your pay has increased by $0.02. Your bonus pay is now $0.56.</p>\n            ","response":0,"trial_type":"html-button-response","trial_index":36,"time_elapsed":235846,"internal_node_id":"0.0-4.0-1.14","subject_id":"5e2df2855e01ef3e5d01ab58","study_id":"6197b3f67c2b5cd3b6d9596a","session_id":"619be5af460f5b1e6659b03d","condition":"contingent","relevant_dimensions":["antennae","wings"],"bee_group":{"antennae":"A","wings":"1","pattern":"X","legs":"X"},"bonus":1.5400000000000014},{"rt":1282.199999999255,"stimulus":"bees-with-color/bee-B2SF.svg","response":0,"trial_type":"image-button-response","trial_index":37,"time_elapsed":237129,"internal_node_id":"0.0-4.0-0.15","subject_id":"5e2df2855e01ef3e5d01ab58","study_id":"6197b3f67c2b5cd3b6d9596a","session_id":"619be5af460f5b1e6659b03d","condition":"contingent","relevant_dimensions":["antennae","wings"],"bee_group":{"antennae":"A","wings":"1","pattern":"X","legs":"X"},"action":"harvest","summary":"good-harvest","bonus":1.5400000000000014},{"rt":1453.1000000014901,"stimulus":"\n                    <p><b>Action: <em>harvest</em></b></p>\n                    <p>This is the bee that you just saw.</p>\n                    <img src=\"bees-with-color/bee-B2SF.svg\" width=\"200\">\n                    <p><span class=\"greenText\"><b>Successful harvest!</b></span><br>Your pay has increased by $0.02. Your bonus pay is now $0.58.</p>\n            ","response":0,"trial_type":"html-button-response","trial_index":38,"time_elapsed":238583,"internal_node_id":"0.0-4.0-1.15","subject_id":"5e2df2855e01ef3e5d01ab58","study_id":"6197b3f67c2b5cd3b6d9596a","session_id":"619be5af460f5b1e6659b03d","condition":"contingent","relevant_dimensions":["antennae","wings"],"bee_group":{"antennae":"A","wings":"1","pattern":"X","legs":"X"},"bonus":1.5400000000000014},{"rt":1959.300000000745,"stimulus":"bees-with-color/bee-B1DM.svg","response":0,"trial_type":"image-button-response","trial_index":39,"time_elapsed":240543,"internal_node_id":"0.0-4.0-0.16","subject_id":"5e2df2855e01ef3e5d01ab58","study_id":"6197b3f67c2b5cd3b6d9596a","session_id":"619be5af460f5b1e6659b03d","condition":"contingent","relevant_dimensions":["antennae","wings"],"bee_group":{"antennae":"A","wings":"1","pattern":"X","legs":"X"},"action":"harvest","summary":"good-harvest","bonus":1.5400000000000014},{"rt":668.4000000022352,"stimulus":"\n                    <p><b>Action: <em>harvest</em></b></p>\n                    <p>This is the bee that you just saw.</p>\n                    <img src=\"bees-with-color/bee-B1DM.svg\" width=\"200\">\n                    <p><span class=\"greenText\"><b>Successful harvest!</b></span><br>Your pay has increased by $0.02. Your bonus pay is now $0.60.</p>\n            ","response":0,"trial_type":"html-button-response","trial_index":40,"time_elapsed":241212,"internal_node_id":"0.0-4.0-1.16","subject_id":"5e2df2855e01ef3e5d01ab58","study_id":"6197b3f67c2b5cd3b6d9596a","session_id":"619be5af460f5b1e6659b03d","condition":"contingent","relevant_dimensions":["antennae","wings"],"bee_group":{"antennae":"A","wings":"1","pattern":"X","legs":"X"},"bonus":1.5400000000000014},{"rt":1519.300000000745,"stimulus":"bees-with-color/bee-A2DM.svg","response":0,"trial_type":"image-button-response","trial_index":41,"time_elapsed":242732,"internal_node_id":"0.0-4.0-0.17","subject_id":"5e2df2855e01ef3e5d01ab58","study_id":"6197b3f67c2b5cd3b6d9596a","session_id":"619be5af460f5b1e6659b03d","condition":"contingent","relevant_dimensions":["antennae","wings"],"bee_group":{"antennae":"A","wings":"1","pattern":"X","legs":"X"},"action":"harvest","summary":"good-harvest","bonus":1.5400000000000014},{"rt":999.1000000014901,"stimulus":"\n                    <p><b>Action: <em>harvest</em></b></p>\n                    <p>This is the bee that you just saw.</p>\n                    <img src=\"bees-with-color/bee-A2DM.svg\" width=\"200\">\n                    <p><span class=\"greenText\"><b>Successful harvest!</b></span><br>Your pay has increased by $0.02. Your bonus pay is now $0.62.</p>\n            ","response":0,"trial_type":"html-button-response","trial_index":42,"time_elapsed":243732,"internal_node_id":"0.0-4.0-1.17","subject_id":"5e2df2855e01ef3e5d01ab58","study_id":"6197b3f67c2b5cd3b6d9596a","session_id":"619be5af460f5b1e6659b03d","condition":"contingent","relevant_dimensions":["antennae","wings"],"bee_group":{"antennae":"A","wings":"1","pattern":"X","legs":"X"},"bonus":1.5400000000000014},{"rt":6200.10000000149,"stimulus":"bees-with-color/bee-A1DF.svg","response":0,"trial_type":"image-button-response","trial_index":43,"time_elapsed":249933,"internal_node_id":"0.0-4.0-0.18","subject_id":"5e2df2855e01ef3e5d01ab58","study_id":"6197b3f67c2b5cd3b6d9596a","session_id":"619be5af460f5b1e6659b03d","condition":"contingent","relevant_dimensions":["antennae","wings"],"bee_group":{"antennae":"A","wings":"1","pattern":"X","legs":"X"},"action":"harvest","summary":"bad-harvest","bonus":1.5400000000000014},{"rt":1432.300000000745,"stimulus":"\n                    <p><b>Action: <em>harvest</em></b></p>\n                    <p>This is the bee that you just saw.</p>\n                    <img src=\"bees-with-color/bee-A1DF.svg\" width=\"200\">\n                    <p><span class=\"redText\">Bad choice, the bee was angry.</span><br><b>You have been stung!</b><br>Your pay has been decreased by $0.10. Your bonus pay is now $0.52.</p>\n            ","response":0,"trial_type":"html-button-response","trial_index":44,"time_elapsed":251366,"internal_node_id":"0.0-4.0-1.18","subject_id":"5e2df2855e01ef3e5d01ab58","study_id":"6197b3f67c2b5cd3b6d9596a","session_id":"619be5af460f5b1e6659b03d","condition":"contingent","relevant_dimensions":["antennae","wings"],"bee_group":{"antennae":"A","wings":"1","pattern":"X","legs":"X"},"bonus":1.5400000000000014},{"rt":1736,"stimulus":"bees-with-color/bee-B1DF.svg","response":0,"trial_type":"image-button-response","trial_index":45,"time_elapsed":253103,"internal_node_id":"0.0-4.0-0.19","subject_id":"5e2df2855e01ef3e5d01ab58","study_id":"6197b3f67c2b5cd3b6d9596a","session_id":"619be5af460f5b1e6659b03d","condition":"contingent","relevant_dimensions":["antennae","wings"],"bee_group":{"antennae":"A","wings":"1","pattern":"X","legs":"X"},"action":"harvest","summary":"good-harvest","bonus":1.5400000000000014},{"rt":632.3000000007451,"stimulus":"\n                    <p><b>Action: <em>harvest</em></b></p>\n                    <p>This is the bee that you just saw.</p>\n                    <img src=\"bees-with-color/bee-B1DF.svg\" width=\"200\">\n                    <p><span class=\"greenText\"><b>Successful harvest!</b></span><br>Your pay has increased by $0.02. Your bonus pay is now $0.54.</p>\n            ","response":0,"trial_type":"html-button-response","trial_index":46,"time_elapsed":253736,"internal_node_id":"0.0-4.0-1.19","subject_id":"5e2df2855e01ef3e5d01ab58","study_id":"6197b3f67c2b5cd3b6d9596a","session_id":"619be5af460f5b1e6659b03d","condition":"contingent","relevant_dimensions":["antennae","wings"],"bee_group":{"antennae":"A","wings":"1","pattern":"X","legs":"X"},"bonus":1.5400000000000014},{"rt":1566.3999999985099,"stimulus":"bees-with-color/bee-B2DF.svg","response":0,"trial_type":"image-button-response","trial_index":47,"time_elapsed":255303,"internal_node_id":"0.0-4.0-0.20","subject_id":"5e2df2855e01ef3e5d01ab58","study_id":"6197b3f67c2b5cd3b6d9596a","session_id":"619be5af460f5b1e6659b03d","condition":"contingent","relevant_dimensions":["antennae","wings"],"bee_group":{"antennae":"A","wings":"1","pattern":"X","legs":"X"},"action":"harvest","summary":"good-harvest","bonus":1.5400000000000014},{"rt":556.4000000022352,"stimulus":"\n                    <p><b>Action: <em>harvest</em></b></p>\n                    <p>This is the bee that you just saw.</p>\n                    <img src=\"bees-with-color/bee-B2DF.svg\" width=\"200\">\n                    <p><span class=\"greenText\"><b>Successful harvest!</b></span><br>Your pay has increased by $0.02. Your bonus pay is now $0.56.</p>\n            ","response":0,"trial_type":"html-button-response","trial_index":48,"time_elapsed":255860,"internal_node_id":"0.0-4.0-1.20","subject_id":"5e2df2855e01ef3e5d01ab58","study_id":"6197b3f67c2b5cd3b6d9596a","session_id":"619be5af460f5b1e6659b03d","condition":"contingent","relevant_dimensions":["antennae","wings"],"bee_group":{"antennae":"A","wings":"1","pattern":"X","legs":"X"},"bonus":1.5400000000000014},{"rt":1408.199999999255,"stimulus":"bees-with-color/bee-B1SM.svg","response":0,"trial_type":"image-button-response","trial_index":49,"time_elapsed":257269,"internal_node_id":"0.0-4.0-0.21","subject_id":"5e2df2855e01ef3e5d01ab58","study_id":"6197b3f67c2b5cd3b6d9596a","session_id":"619be5af460f5b1e6659b03d","condition":"contingent","relevant_dimensions":["antennae","wings"],"bee_group":{"antennae":"A","wings":"1","pattern":"X","legs":"X"},"action":"harvest","summary":"good-harvest","bonus":1.5400000000000014},{"rt":631.3000000007451,"stimulus":"\n                    <p><b>Action: <em>harvest</em></b></p>\n                    <p>This is the bee that you just saw.</p>\n                    <img src=\"bees-with-color/bee-B1SM.svg\" width=\"200\">\n                    <p><span class=\"greenText\"><b>Successful harvest!</b></span><br>Your pay has increased by $0.02. Your bonus pay is now $0.58.</p>\n            ","response":0,"trial_type":"html-button-response","trial_index":50,"time_elapsed":257901,"internal_node_id":"0.0-4.0-1.21","subject_id":"5e2df2855e01ef3e5d01ab58","study_id":"6197b3f67c2b5cd3b6d9596a","session_id":"619be5af460f5b1e6659b03d","condition":"contingent","relevant_dimensions":["antennae","wings"],"bee_group":{"antennae":"A","wings":"1","pattern":"X","legs":"X"},"bonus":1.5400000000000014},{"rt":874.3000000007451,"stimulus":"bees-with-color/bee-B2SF.svg","response":0,"trial_type":"image-button-response","trial_index":51,"time_elapsed":258776,"internal_node_id":"0.0-4.0-0.22","subject_id":"5e2df2855e01ef3e5d01ab58","study_id":"6197b3f67c2b5cd3b6d9596a","session_id":"619be5af460f5b1e6659b03d","condition":"contingent","relevant_dimensions":["antennae","wings"],"bee_group":{"antennae":"A","wings":"1","pattern":"X","legs":"X"},"action":"harvest","summary":"good-harvest","bonus":1.5400000000000014},{"rt":641.2000000029802,"stimulus":"\n                    <p><b>Action: <em>harvest</em></b></p>\n                    <p>This is the bee that you just saw.</p>\n                    <img src=\"bees-with-color/bee-B2SF.svg\" width=\"200\">\n                    <p><span class=\"greenText\"><b>Successful harvest!</b></span><br>Your pay has increased by $0.02. Your bonus pay is now $0.60.</p>\n            ","response":0,"trial_type":"html-button-response","trial_index":52,"time_elapsed":259418,"internal_node_id":"0.0-4.0-1.22","subject_id":"5e2df2855e01ef3e5d01ab58","study_id":"6197b3f67c2b5cd3b6d9596a","session_id":"619be5af460f5b1e6659b03d","condition":"contingent","relevant_dimensions":["antennae","wings"],"bee_group":{"antennae":"A","wings":"1","pattern":"X","legs":"X"},"bonus":1.5400000000000014},{"rt":1773.300000000745,"stimulus":"bees-with-color/bee-A1SF.svg","response":1,"trial_type":"image-button-response","trial_index":53,"time_elapsed":261192,"internal_node_id":"0.0-4.0-0.23","subject_id":"5e2df2855e01ef3e5d01ab58","study_id":"6197b3f67c2b5cd3b6d9596a","session_id":"619be5af460f5b1e6659b03d","condition":"contingent","relevant_dimensions":["antennae","wings"],"bee_group":{"antennae":"A","wings":"1","pattern":"X","legs":"X"},"action":"avoid","summary":"good-avoid","bonus":1.5400000000000014},{"rt":1021.3000000007451,"stimulus":"\n                    <p><b>Action: <em>avoid</em></b></p>\n                    <p>This is the bee that you just saw.</p>\n                    <img src=\"bees-with-color/bee-A1SF.svg\" width=\"200\">\n                    <p><br>Your bonus pay is unchanged, and remains at $0.60.</p>\n            ","response":0,"trial_type":"html-button-response","trial_index":54,"time_elapsed":262214,"internal_node_id":"0.0-4.0-1.23","subject_id":"5e2df2855e01ef3e5d01ab58","study_id":"6197b3f67c2b5cd3b6d9596a","session_id":"619be5af460f5b1e6659b03d","condition":"contingent","relevant_dimensions":["antennae","wings"],"bee_group":{"antennae":"A","wings":"1","pattern":"X","legs":"X"},"bonus":1.5400000000000014},{"rt":1386.199999999255,"stimulus":"bees-with-color/bee-B1SF.svg","response":0,"trial_type":"image-button-response","trial_index":55,"time_elapsed":263601,"internal_node_id":"0.0-4.0-0.24","subject_id":"5e2df2855e01ef3e5d01ab58","study_id":"6197b3f67c2b5cd3b6d9596a","session_id":"619be5af460f5b1e6659b03d","condition":"contingent","relevant_dimensions":["antennae","wings"],"bee_group":{"antennae":"A","wings":"1","pattern":"X","legs":"X"},"action":"harvest","summary":"good-harvest","bonus":1.5400000000000014},{"rt":1147.5,"stimulus":"\n                    <p><b>Action: <em>harvest</em></b></p>\n                    <p>This is the bee that you just saw.</p>\n                    <img src=\"bees-with-color/bee-B1SF.svg\" width=\"200\">\n                    <p><span class=\"greenText\"><b>Successful harvest!</b></span><br>Your pay has increased by $0.02. Your bonus pay is now $0.62.</p>\n            ","response":0,"trial_type":"html-button-response","trial_index":56,"time_elapsed":264749,"internal_node_id":"0.0-4.0-1.24","subject_id":"5e2df2855e01ef3e5d01ab58","study_id":"6197b3f67c2b5cd3b6d9596a","session_id":"619be5af460f5b1e6659b03d","condition":"contingent","relevant_dimensions":["antennae","wings"],"bee_group":{"antennae":"A","wings":"1","pattern":"X","legs":"X"},"bonus":1.5400000000000014},{"rt":1558.300000000745,"stimulus":"bees-with-color/bee-B2SM.svg","response":0,"trial_type":"image-button-response","trial_index":57,"time_elapsed":266308,"internal_node_id":"0.0-4.0-0.25","subject_id":"5e2df2855e01ef3e5d01ab58","study_id":"6197b3f67c2b5cd3b6d9596a","session_id":"619be5af460f5b1e6659b03d","condition":"contingent","relevant_dimensions":["antennae","wings"],"bee_group":{"antennae":"A","wings":"1","pattern":"X","legs":"X"},"action":"harvest","summary":"good-harvest","bonus":1.5400000000000014},{"rt":639.2000000029802,"stimulus":"\n                    <p><b>Action: <em>harvest</em></b></p>\n                    <p>This is the bee that you just saw.</p>\n                    <img src=\"bees-with-color/bee-B2SM.svg\" width=\"200\">\n                    <p><span class=\"greenText\"><b>Successful harvest!</b></span><br>Your pay has increased by $0.02. Your bonus pay is now $0.64.</p>\n            ","response":0,"trial_type":"html-button-response","trial_index":58,"time_elapsed":266948,"internal_node_id":"0.0-4.0-1.25","subject_id":"5e2df2855e01ef3e5d01ab58","study_id":"6197b3f67c2b5cd3b6d9596a","session_id":"619be5af460f5b1e6659b03d","condition":"contingent","relevant_dimensions":["antennae","wings"],"bee_group":{"antennae":"A","wings":"1","pattern":"X","legs":"X"},"bonus":1.5400000000000014},{"rt":1294.5,"stimulus":"bees-with-color/bee-A1SM.svg","response":0,"trial_type":"image-button-response","trial_index":59,"time_elapsed":268243,"internal_node_id":"0.0-4.0-0.26","subject_id":"5e2df2855e01ef3e5d01ab58","study_id":"6197b3f67c2b5cd3b6d9596a","session_id":"619be5af460f5b1e6659b03d","condition":"contingent","relevant_dimensions":["antennae","wings"],"bee_group":{"antennae":"A","wings":"1","pattern":"X","legs":"X"},"action":"harvest","summary":"bad-harvest","bonus":1.5400000000000014},{"rt":10962.300000000745,"stimulus":"\n                    <p><b>Action: <em>harvest</em></b></p>\n                    <p>This is the bee that you just saw.</p>\n                    <img src=\"bees-with-color/bee-A1SM.svg\" width=\"200\">\n                    <p><span class=\"redText\">Bad choice, the bee was angry.</span><br><b>You have been stung!</b><br>Your pay has been decreased by $0.10. Your bonus pay is now $0.54.</p>\n            ","response":0,"trial_type":"html-button-response","trial_index":60,"time_elapsed":279206,"internal_node_id":"0.0-4.0-1.26","subject_id":"5e2df2855e01ef3e5d01ab58","study_id":"6197b3f67c2b5cd3b6d9596a","session_id":"619be5af460f5b1e6659b03d","condition":"contingent","relevant_dimensions":["antennae","wings"],"bee_group":{"antennae":"A","wings":"1","pattern":"X","legs":"X"},"bonus":1.5400000000000014},{"rt":3009.099999997765,"stimulus":"bees-with-color/bee-A2SM.svg","response":0,"trial_type":"image-button-response","trial_index":61,"time_elapsed":282216,"internal_node_id":"0.0-4.0-0.27","subject_id":"5e2df2855e01ef3e5d01ab58","study_id":"6197b3f67c2b5cd3b6d9596a","session_id":"619be5af460f5b1e6659b03d","condition":"contingent","relevant_dimensions":["antennae","wings"],"bee_group":{"antennae":"A","wings":"1","pattern":"X","legs":"X"},"action":"harvest","summary":"good-harvest","bonus":1.5400000000000014},{"rt":599.1999999992549,"stimulus":"\n                    <p><b>Action: <em>harvest</em></b></p>\n                    <p>This is the bee that you just saw.</p>\n                    <img src=\"bees-with-color/bee-A2SM.svg\" width=\"200\">\n                    <p><span class=\"greenText\"><b>Successful harvest!</b></span><br>Your pay has increased by $0.02. Your bonus pay is now $0.56.</p>\n            ","response":0,"trial_type":"html-button-response","trial_index":62,"time_elapsed":282816,"internal_node_id":"0.0-4.0-1.27","subject_id":"5e2df2855e01ef3e5d01ab58","study_id":"6197b3f67c2b5cd3b6d9596a","session_id":"619be5af460f5b1e6659b03d","condition":"contingent","relevant_dimensions":["antennae","wings"],"bee_group":{"antennae":"A","wings":"1","pattern":"X","legs":"X"},"bonus":1.5400000000000014},{"rt":1527.300000000745,"stimulus":"bees-with-color/bee-B2DM.svg","response":0,"trial_type":"image-button-response","trial_index":63,"time_elapsed":284344,"internal_node_id":"0.0-4.0-0.28","subject_id":"5e2df2855e01ef3e5d01ab58","study_id":"6197b3f67c2b5cd3b6d9596a","session_id":"619be5af460f5b1e6659b03d","condition":"contingent","relevant_dimensions":["antennae","wings"],"bee_group":{"antennae":"A","wings":"1","pattern":"X","legs":"X"},"action":"harvest","summary":"good-harvest","bonus":1.5400000000000014},{"rt":960.3000000007451,"stimulus":"\n                    <p><b>Action: <em>harvest</em></b></p>\n                    <p>This is the bee that you just saw.</p>\n                    <img src=\"bees-with-color/bee-B2DM.svg\" width=\"200\">\n                    <p><span class=\"greenText\"><b>Successful harvest!</b></span><br>Your pay has increased by $0.02. Your bonus pay is now $0.58.</p>\n            ","response":0,"trial_type":"html-button-response","trial_index":64,"time_elapsed":285305,"internal_node_id":"0.0-4.0-1.28","subject_id":"5e2df2855e01ef3e5d01ab58","study_id":"6197b3f67c2b5cd3b6d9596a","session_id":"619be5af460f5b1e6659b03d","condition":"contingent","relevant_dimensions":["antennae","wings"],"bee_group":{"antennae":"A","wings":"1","pattern":"X","legs":"X"},"bonus":1.5400000000000014},{"rt":3615.099999997765,"stimulus":"bees-with-color/bee-A2DF.svg","response":0,"trial_type":"image-button-response","trial_index":65,"time_elapsed":288921,"internal_node_id":"0.0-4.0-0.29","subject_id":"5e2df2855e01ef3e5d01ab58","study_id":"6197b3f67c2b5cd3b6d9596a","session_id":"619be5af460f5b1e6659b03d","condition":"contingent","relevant_dimensions":["antennae","wings"],"bee_group":{"antennae":"A","wings":"1","pattern":"X","legs":"X"},"action":"harvest","summary":"good-harvest","bonus":1.5400000000000014},{"rt":1190.300000000745,"stimulus":"\n                    <p><b>Action: <em>harvest</em></b></p>\n                    <p>This is the bee that you just saw.</p>\n                    <img src=\"bees-with-color/bee-A2DF.svg\" width=\"200\">\n                    <p><span class=\"greenText\"><b>Successful harvest!</b></span><br>Your pay has increased by $0.02. Your bonus pay is now $0.60.</p>\n            ","response":0,"trial_type":"html-button-response","trial_index":66,"time_elapsed":290112,"internal_node_id":"0.0-4.0-1.29","subject_id":"5e2df2855e01ef3e5d01ab58","study_id":"6197b3f67c2b5cd3b6d9596a","session_id":"619be5af460f5b1e6659b03d","condition":"contingent","relevant_dimensions":["antennae","wings"],"bee_group":{"antennae":"A","wings":"1","pattern":"X","legs":"X"},"bonus":1.5400000000000014},{"rt":5425.199999999255,"stimulus":"bees-with-color/bee-A1DM.svg","response":1,"trial_type":"image-button-response","trial_index":67,"time_elapsed":295538,"internal_node_id":"0.0-4.0-0.30","subject_id":"5e2df2855e01ef3e5d01ab58","study_id":"6197b3f67c2b5cd3b6d9596a","session_id":"619be5af460f5b1e6659b03d","condition":"contingent","relevant_dimensions":["antennae","wings"],"bee_group":{"antennae":"A","wings":"1","pattern":"X","legs":"X"},"action":"avoid","summary":"good-avoid","bonus":1.5400000000000014},{"rt":658.1999999992549,"stimulus":"\n                    <p><b>Action: <em>avoid</em></b></p>\n                    <p>This is the bee that you just saw.</p>\n                    <img src=\"bees-with-color/bee-A1DM.svg\" width=\"200\">\n                    <p><br>Your bonus pay is unchanged, and remains at $0.60.</p>\n            ","response":0,"trial_type":"html-button-response","trial_index":68,"time_elapsed":296197,"internal_node_id":"0.0-4.0-1.30","subject_id":"5e2df2855e01ef3e5d01ab58","study_id":"6197b3f67c2b5cd3b6d9596a","session_id":"619be5af460f5b1e6659b03d","condition":"contingent","relevant_dimensions":["antennae","wings"],"bee_group":{"antennae":"A","wings":"1","pattern":"X","legs":"X"},"bonus":1.5400000000000014},{"rt":2963.89999999851,"stimulus":"bees-with-color/bee-A2SF.svg","response":0,"trial_type":"image-button-response","trial_index":69,"time_elapsed":299162,"internal_node_id":"0.0-4.0-0.31","subject_id":"5e2df2855e01ef3e5d01ab58","study_id":"6197b3f67c2b5cd3b6d9596a","session_id":"619be5af460f5b1e6659b03d","condition":"contingent","relevant_dimensions":["antennae","wings"],"bee_group":{"antennae":"A","wings":"1","pattern":"X","legs":"X"},"action":"harvest","summary":"good-harvest","bonus":1.5400000000000014},{"rt":685.1000000014901,"stimulus":"\n                    <p><b>Action: <em>harvest</em></b></p>\n                    <p>This is the bee that you just saw.</p>\n                    <img src=\"bees-with-color/bee-A2SF.svg\" width=\"200\">\n                    <p><span class=\"greenText\"><b>Successful harvest!</b></span><br>Your pay has increased by $0.02. Your bonus pay is now $0.62.</p>\n            ","response":0,"trial_type":"html-button-response","trial_index":70,"time_elapsed":299848,"internal_node_id":"0.0-4.0-1.31","subject_id":"5e2df2855e01ef3e5d01ab58","study_id":"6197b3f67c2b5cd3b6d9596a","session_id":"619be5af460f5b1e6659b03d","condition":"contingent","relevant_dimensions":["antennae","wings"],"bee_group":{"antennae":"A","wings":"1","pattern":"X","legs":"X"},"bonus":1.5400000000000014},{"rt":1118,"stimulus":"bees-with-color/bee-B2SF.svg","response":0,"trial_type":"image-button-response","trial_index":71,"time_elapsed":300967,"internal_node_id":"0.0-4.0-0.32","subject_id":"5e2df2855e01ef3e5d01ab58","study_id":"6197b3f67c2b5cd3b6d9596a","session_id":"619be5af460f5b1e6659b03d","condition":"contingent","relevant_dimensions":["antennae","wings"],"bee_group":{"antennae":"A","wings":"1","pattern":"X","legs":"X"},"action":"harvest","summary":"good-harvest","bonus":1.5400000000000014},{"rt":546.6000000014901,"stimulus":"\n                    <p><b>Action: <em>harvest</em></b></p>\n                    <p>This is the bee that you just saw.</p>\n                    <img src=\"bees-with-color/bee-B2SF.svg\" width=\"200\">\n                    <p><span class=\"greenText\"><b>Successful harvest!</b></span><br>Your pay has increased by $0.02. Your bonus pay is now $0.64.</p>\n            ","response":0,"trial_type":"html-button-response","trial_index":72,"time_elapsed":301514,"internal_node_id":"0.0-4.0-1.32","subject_id":"5e2df2855e01ef3e5d01ab58","study_id":"6197b3f67c2b5cd3b6d9596a","session_id":"619be5af460f5b1e6659b03d","condition":"contingent","relevant_dimensions":["antennae","wings"],"bee_group":{"antennae":"A","wings":"1","pattern":"X","legs":"X"},"bonus":1.5400000000000014},{"rt":1125,"stimulus":"bees-with-color/bee-B1DF.svg","response":0,"trial_type":"image-button-response","trial_index":73,"time_elapsed":302640,"internal_node_id":"0.0-4.0-0.33","subject_id":"5e2df2855e01ef3e5d01ab58","study_id":"6197b3f67c2b5cd3b6d9596a","session_id":"619be5af460f5b1e6659b03d","condition":"contingent","relevant_dimensions":["antennae","wings"],"bee_group":{"antennae":"A","wings":"1","pattern":"X","legs":"X"},"action":"harvest","summary":"good-harvest","bonus":1.5400000000000014},{"rt":484.19999999925494,"stimulus":"\n                    <p><b>Action: <em>harvest</em></b></p>\n                    <p>This is the bee that you just saw.</p>\n                    <img src=\"bees-with-color/bee-B1DF.svg\" width=\"200\">\n                    <p><span class=\"greenText\"><b>Successful harvest!</b></span><br>Your pay has increased by $0.02. Your bonus pay is now $0.66.</p>\n            ","response":0,"trial_type":"html-button-response","trial_index":74,"time_elapsed":303125,"internal_node_id":"0.0-4.0-1.33","subject_id":"5e2df2855e01ef3e5d01ab58","study_id":"6197b3f67c2b5cd3b6d9596a","session_id":"619be5af460f5b1e6659b03d","condition":"contingent","relevant_dimensions":["antennae","wings"],"bee_group":{"antennae":"A","wings":"1","pattern":"X","legs":"X"},"bonus":1.5400000000000014},{"rt":851,"stimulus":"bees-with-color/bee-B1SF.svg","response":0,"trial_type":"image-button-response","trial_index":75,"time_elapsed":303977,"internal_node_id":"0.0-4.0-0.34","subject_id":"5e2df2855e01ef3e5d01ab58","study_id":"6197b3f67c2b5cd3b6d9596a","session_id":"619be5af460f5b1e6659b03d","condition":"contingent","relevant_dimensions":["antennae","wings"],"bee_group":{"antennae":"A","wings":"1","pattern":"X","legs":"X"},"action":"harvest","summary":"good-harvest","bonus":1.5400000000000014},{"rt":442,"stimulus":"\n                    <p><b>Action: <em>harvest</em></b></p>\n                    <p>This is the bee that you just saw.</p>\n                    <img src=\"bees-with-color/bee-B1SF.svg\" width=\"200\">\n                    <p><span class=\"greenText\"><b>Successful harvest!</b></span><br>Your pay has increased by $0.02. Your bonus pay is now $0.68.</p>\n            ","response":0,"trial_type":"html-button-response","trial_index":76,"time_elapsed":304420,"internal_node_id":"0.0-4.0-1.34","subject_id":"5e2df2855e01ef3e5d01ab58","study_id":"6197b3f67c2b5cd3b6d9596a","session_id":"619be5af460f5b1e6659b03d","condition":"contingent","relevant_dimensions":["antennae","wings"],"bee_group":{"antennae":"A","wings":"1","pattern":"X","legs":"X"},"bonus":1.5400000000000014},{"rt":1856.2000000029802,"stimulus":"bees-with-color/bee-A1SF.svg","response":1,"trial_type":"image-button-response","trial_index":77,"time_elapsed":306277,"internal_node_id":"0.0-4.0-0.35","subject_id":"5e2df2855e01ef3e5d01ab58","study_id":"6197b3f67c2b5cd3b6d9596a","session_id":"619be5af460f5b1e6659b03d","condition":"contingent","relevant_dimensions":["antennae","wings"],"bee_group":{"antennae":"A","wings":"1","pattern":"X","legs":"X"},"action":"avoid","summary":"good-avoid","bonus":1.5400000000000014},{"rt":603.1999999992549,"stimulus":"\n                    <p><b>Action: <em>avoid</em></b></p>\n                    <p>This is the bee that you just saw.</p>\n                    <img src=\"bees-with-color/bee-A1SF.svg\" width=\"200\">\n                    <p><br>Your bonus pay is unchanged, and remains at $0.68.</p>\n            ","response":0,"trial_type":"html-button-response","trial_index":78,"time_elapsed":306881,"internal_node_id":"0.0-4.0-1.35","subject_id":"5e2df2855e01ef3e5d01ab58","study_id":"6197b3f67c2b5cd3b6d9596a","session_id":"619be5af460f5b1e6659b03d","condition":"contingent","relevant_dimensions":["antennae","wings"],"bee_group":{"antennae":"A","wings":"1","pattern":"X","legs":"X"},"bonus":1.5400000000000014},{"rt":1578.2000000029802,"stimulus":"bees-with-color/bee-A1DF.svg","response":1,"trial_type":"image-button-response","trial_index":79,"time_elapsed":308460,"internal_node_id":"0.0-4.0-0.36","subject_id":"5e2df2855e01ef3e5d01ab58","study_id":"6197b3f67c2b5cd3b6d9596a","session_id":"619be5af460f5b1e6659b03d","condition":"contingent","relevant_dimensions":["antennae","wings"],"bee_group":{"antennae":"A","wings":"1","pattern":"X","legs":"X"},"action":"avoid","summary":"good-avoid","bonus":1.5400000000000014},{"rt":446.30000000074506,"stimulus":"\n                    <p><b>Action: <em>avoid</em></b></p>\n                    <p>This is the bee that you just saw.</p>\n                    <img src=\"bees-with-color/bee-A1DF.svg\" width=\"200\">\n                    <p><br>Your bonus pay is unchanged, and remains at $0.68.</p>\n            ","response":0,"trial_type":"html-button-response","trial_index":80,"time_elapsed":308907,"internal_node_id":"0.0-4.0-1.36","subject_id":"5e2df2855e01ef3e5d01ab58","study_id":"6197b3f67c2b5cd3b6d9596a","session_id":"619be5af460f5b1e6659b03d","condition":"contingent","relevant_dimensions":["antennae","wings"],"bee_group":{"antennae":"A","wings":"1","pattern":"X","legs":"X"},"bonus":1.5400000000000014},{"rt":1316.199999999255,"stimulus":"bees-with-color/bee-B1SM.svg","response":0,"trial_type":"image-button-response","trial_index":81,"time_elapsed":310224,"internal_node_id":"0.0-4.0-0.37","subject_id":"5e2df2855e01ef3e5d01ab58","study_id":"6197b3f67c2b5cd3b6d9596a","session_id":"619be5af460f5b1e6659b03d","condition":"contingent","relevant_dimensions":["antennae","wings"],"bee_group":{"antennae":"A","wings":"1","pattern":"X","legs":"X"},"action":"harvest","summary":"good-harvest","bonus":1.5400000000000014},{"rt":791.1000000014901,"stimulus":"\n                    <p><b>Action: <em>harvest</em></b></p>\n                    <p>This is the bee that you just saw.</p>\n                    <img src=\"bees-with-color/bee-B1SM.svg\" width=\"200\">\n                    <p><span class=\"greenText\"><b>Successful harvest!</b></span><br>Your pay has increased by $0.02. Your bonus pay is now $0.70.</p>\n            ","response":0,"trial_type":"html-button-response","trial_index":82,"time_elapsed":311016,"internal_node_id":"0.0-4.0-1.37","subject_id":"5e2df2855e01ef3e5d01ab58","study_id":"6197b3f67c2b5cd3b6d9596a","session_id":"619be5af460f5b1e6659b03d","condition":"contingent","relevant_dimensions":["antennae","wings"],"bee_group":{"antennae":"A","wings":"1","pattern":"X","legs":"X"},"bonus":1.5400000000000014},{"rt":1003.3999999985099,"stimulus":"bees-with-color/bee-B2SM.svg","response":0,"trial_type":"image-button-response","trial_index":83,"time_elapsed":312020,"internal_node_id":"0.0-4.0-0.38","subject_id":"5e2df2855e01ef3e5d01ab58","study_id":"6197b3f67c2b5cd3b6d9596a","session_id":"619be5af460f5b1e6659b03d","condition":"contingent","relevant_dimensions":["antennae","wings"],"bee_group":{"antennae":"A","wings":"1","pattern":"X","legs":"X"},"action":"harvest","summary":"good-harvest","bonus":1.5400000000000014},{"rt":449.1000000014901,"stimulus":"\n                    <p><b>Action: <em>harvest</em></b></p>\n                    <p>This is the bee that you just saw.</p>\n                    <img src=\"bees-with-color/bee-B2SM.svg\" width=\"200\">\n                    <p><span class=\"greenText\"><b>Successful harvest!</b></span><br>Your pay has increased by $0.02. Your bonus pay is now $0.72.</p>\n            ","response":0,"trial_type":"html-button-response","trial_index":84,"time_elapsed":312470,"internal_node_id":"0.0-4.0-1.38","subject_id":"5e2df2855e01ef3e5d01ab58","study_id":"6197b3f67c2b5cd3b6d9596a","session_id":"619be5af460f5b1e6659b03d","condition":"contingent","relevant_dimensions":["antennae","wings"],"bee_group":{"antennae":"A","wings":"1","pattern":"X","legs":"X"},"bonus":1.5400000000000014},{"rt":1206.300000000745,"stimulus":"bees-with-color/bee-B2DF.svg","response":0,"trial_type":"image-button-response","trial_index":85,"time_elapsed":313677,"internal_node_id":"0.0-4.0-0.39","subject_id":"5e2df2855e01ef3e5d01ab58","study_id":"6197b3f67c2b5cd3b6d9596a","session_id":"619be5af460f5b1e6659b03d","condition":"contingent","relevant_dimensions":["antennae","wings"],"bee_group":{"antennae":"A","wings":"1","pattern":"X","legs":"X"},"action":"harvest","summary":"good-harvest","bonus":1.5400000000000014},{"rt":480.19999999925494,"stimulus":"\n                    <p><b>Action: <em>harvest</em></b></p>\n                    <p>This is the bee that you just saw.</p>\n                    <img src=\"bees-with-color/bee-B2DF.svg\" width=\"200\">\n                    <p><span class=\"greenText\"><b>Successful harvest!</b></span><br>Your pay has increased by $0.02. Your bonus pay is now $0.74.</p>\n            ","response":0,"trial_type":"html-button-response","trial_index":86,"time_elapsed":314158,"internal_node_id":"0.0-4.0-1.39","subject_id":"5e2df2855e01ef3e5d01ab58","study_id":"6197b3f67c2b5cd3b6d9596a","session_id":"619be5af460f5b1e6659b03d","condition":"contingent","relevant_dimensions":["antennae","wings"],"bee_group":{"antennae":"A","wings":"1","pattern":"X","legs":"X"},"bonus":1.5400000000000014},{"rt":1003.7999999970198,"stimulus":"bees-with-color/bee-B1DM.svg","response":0,"trial_type":"image-button-response","trial_index":87,"time_elapsed":315163,"internal_node_id":"0.0-4.0-0.40","subject_id":"5e2df2855e01ef3e5d01ab58","study_id":"6197b3f67c2b5cd3b6d9596a","session_id":"619be5af460f5b1e6659b03d","condition":"contingent","relevant_dimensions":["antennae","wings"],"bee_group":{"antennae":"A","wings":"1","pattern":"X","legs":"X"},"action":"harvest","summary":"good-harvest","bonus":1.5400000000000014},{"rt":457.30000000074506,"stimulus":"\n                    <p><b>Action: <em>harvest</em></b></p>\n                    <p>This is the bee that you just saw.</p>\n                    <img src=\"bees-with-color/bee-B1DM.svg\" width=\"200\">\n                    <p><span class=\"greenText\"><b>Successful harvest!</b></span><br>Your pay has increased by $0.02. Your bonus pay is now $0.76.</p>\n            ","response":0,"trial_type":"html-button-response","trial_index":88,"time_elapsed":315621,"internal_node_id":"0.0-4.0-1.40","subject_id":"5e2df2855e01ef3e5d01ab58","study_id":"6197b3f67c2b5cd3b6d9596a","session_id":"619be5af460f5b1e6659b03d","condition":"contingent","relevant_dimensions":["antennae","wings"],"bee_group":{"antennae":"A","wings":"1","pattern":"X","legs":"X"},"bonus":1.5400000000000014},{"rt":2774.300000000745,"stimulus":"bees-with-color/bee-A2DM.svg","response":0,"trial_type":"image-button-response","trial_index":89,"time_elapsed":318396,"internal_node_id":"0.0-4.0-0.41","subject_id":"5e2df2855e01ef3e5d01ab58","study_id":"6197b3f67c2b5cd3b6d9596a","session_id":"619be5af460f5b1e6659b03d","condition":"contingent","relevant_dimensions":["antennae","wings"],"bee_group":{"antennae":"A","wings":"1","pattern":"X","legs":"X"},"action":"harvest","summary":"good-harvest","bonus":1.5400000000000014},{"rt":927.0999999977648,"stimulus":"\n                    <p><b>Action: <em>harvest</em></b></p>\n                    <p>This is the bee that you just saw.</p>\n                    <img src=\"bees-with-color/bee-A2DM.svg\" width=\"200\">\n                    <p><span class=\"greenText\"><b>Successful harvest!</b></span><br>Your pay has increased by $0.02. Your bonus pay is now $0.78.</p>\n            ","response":0,"trial_type":"html-button-response","trial_index":90,"time_elapsed":319324,"internal_node_id":"0.0-4.0-1.41","subject_id":"5e2df2855e01ef3e5d01ab58","study_id":"6197b3f67c2b5cd3b6d9596a","session_id":"619be5af460f5b1e6659b03d","condition":"contingent","relevant_dimensions":["antennae","wings"],"bee_group":{"antennae":"A","wings":"1","pattern":"X","legs":"X"},"bonus":1.5400000000000014},{"rt":2530,"stimulus":"bees-with-color/bee-A1SM.svg","response":1,"trial_type":"image-button-response","trial_index":91,"time_elapsed":321855,"internal_node_id":"0.0-4.0-0.42","subject_id":"5e2df2855e01ef3e5d01ab58","study_id":"6197b3f67c2b5cd3b6d9596a","session_id":"619be5af460f5b1e6659b03d","condition":"contingent","relevant_dimensions":["antennae","wings"],"bee_group":{"antennae":"A","wings":"1","pattern":"X","legs":"X"},"action":"avoid","summary":"good-avoid","bonus":1.5400000000000014},{"rt":760.3000000007451,"stimulus":"\n                    <p><b>Action: <em>avoid</em></b></p>\n                    <p>This is the bee that you just saw.</p>\n                    <img src=\"bees-with-color/bee-A1SM.svg\" width=\"200\">\n                    <p><br>Your bonus pay is unchanged, and remains at $0.78.</p>\n            ","response":0,"trial_type":"html-button-response","trial_index":92,"time_elapsed":322616,"internal_node_id":"0.0-4.0-1.42","subject_id":"5e2df2855e01ef3e5d01ab58","study_id":"6197b3f67c2b5cd3b6d9596a","session_id":"619be5af460f5b1e6659b03d","condition":"contingent","relevant_dimensions":["antennae","wings"],"bee_group":{"antennae":"A","wings":"1","pattern":"X","legs":"X"},"bonus":1.5400000000000014},{"rt":1066,"stimulus":"bees-with-color/bee-B2DM.svg","response":0,"trial_type":"image-button-response","trial_index":93,"time_elapsed":323683,"internal_node_id":"0.0-4.0-0.43","subject_id":"5e2df2855e01ef3e5d01ab58","study_id":"6197b3f67c2b5cd3b6d9596a","session_id":"619be5af460f5b1e6659b03d","condition":"contingent","relevant_dimensions":["antennae","wings"],"bee_group":{"antennae":"A","wings":"1","pattern":"X","legs":"X"},"action":"harvest","summary":"good-harvest","bonus":1.5400000000000014},{"rt":769.0999999977648,"stimulus":"\n                    <p><b>Action: <em>harvest</em></b></p>\n                    <p>This is the bee that you just saw.</p>\n                    <img src=\"bees-with-color/bee-B2DM.svg\" width=\"200\">\n                    <p><span class=\"greenText\"><b>Successful harvest!</b></span><br>Your pay has increased by $0.02. Your bonus pay is now $0.80.</p>\n            ","response":0,"trial_type":"html-button-response","trial_index":94,"time_elapsed":324453,"internal_node_id":"0.0-4.0-1.43","subject_id":"5e2df2855e01ef3e5d01ab58","study_id":"6197b3f67c2b5cd3b6d9596a","session_id":"619be5af460f5b1e6659b03d","condition":"contingent","relevant_dimensions":["antennae","wings"],"bee_group":{"antennae":"A","wings":"1","pattern":"X","legs":"X"},"bonus":1.5400000000000014},{"rt":1083.1000000014901,"stimulus":"bees-with-color/bee-A2SM.svg","response":0,"trial_type":"image-button-response","trial_index":95,"time_elapsed":325537,"internal_node_id":"0.0-4.0-0.44","subject_id":"5e2df2855e01ef3e5d01ab58","study_id":"6197b3f67c2b5cd3b6d9596a","session_id":"619be5af460f5b1e6659b03d","condition":"contingent","relevant_dimensions":["antennae","wings"],"bee_group":{"antennae":"A","wings":"1","pattern":"X","legs":"X"},"action":"harvest","summary":"good-harvest","bonus":1.5400000000000014},{"rt":593.1999999992549,"stimulus":"\n                    <p><b>Action: <em>harvest</em></b></p>\n                    <p>This is the bee that you just saw.</p>\n                    <img src=\"bees-with-color/bee-A2SM.svg\" width=\"200\">\n                    <p><span class=\"greenText\"><b>Successful harvest!</b></span><br>Your pay has increased by $0.02. Your bonus pay is now $0.82.</p>\n            ","response":0,"trial_type":"html-button-response","trial_index":96,"time_elapsed":326131,"internal_node_id":"0.0-4.0-1.44","subject_id":"5e2df2855e01ef3e5d01ab58","study_id":"6197b3f67c2b5cd3b6d9596a","session_id":"619be5af460f5b1e6659b03d","condition":"contingent","relevant_dimensions":["antennae","wings"],"bee_group":{"antennae":"A","wings":"1","pattern":"X","legs":"X"},"bonus":1.5400000000000014},{"rt":1672,"stimulus":"bees-with-color/bee-A1DM.svg","response":1,"trial_type":"image-button-response","trial_index":97,"time_elapsed":327804,"internal_node_id":"0.0-4.0-0.45","subject_id":"5e2df2855e01ef3e5d01ab58","study_id":"6197b3f67c2b5cd3b6d9596a","session_id":"619be5af460f5b1e6659b03d","condition":"contingent","relevant_dimensions":["antennae","wings"],"bee_group":{"antennae":"A","wings":"1","pattern":"X","legs":"X"},"action":"avoid","summary":"good-avoid","bonus":1.5400000000000014},{"rt":605.1000000014901,"stimulus":"\n                    <p><b>Action: <em>avoid</em></b></p>\n                    <p>This is the bee that you just saw.</p>\n                    <img src=\"bees-with-color/bee-A1DM.svg\" width=\"200\">\n                    <p><br>Your bonus pay is unchanged, and remains at $0.82.</p>\n            ","response":0,"trial_type":"html-button-response","trial_index":98,"time_elapsed":328410,"internal_node_id":"0.0-4.0-1.45","subject_id":"5e2df2855e01ef3e5d01ab58","study_id":"6197b3f67c2b5cd3b6d9596a","session_id":"619be5af460f5b1e6659b03d","condition":"contingent","relevant_dimensions":["antennae","wings"],"bee_group":{"antennae":"A","wings":"1","pattern":"X","legs":"X"},"bonus":1.5400000000000014},{"rt":768.5,"stimulus":"bees-with-color/bee-A2DF.svg","response":0,"trial_type":"image-button-response","trial_index":99,"time_elapsed":329179,"internal_node_id":"0.0-4.0-0.46","subject_id":"5e2df2855e01ef3e5d01ab58","study_id":"6197b3f67c2b5cd3b6d9596a","session_id":"619be5af460f5b1e6659b03d","condition":"contingent","relevant_dimensions":["antennae","wings"],"bee_group":{"antennae":"A","wings":"1","pattern":"X","legs":"X"},"action":"harvest","summary":"good-harvest","bonus":1.5400000000000014},{"rt":694.6000000014901,"stimulus":"\n                    <p><b>Action: <em>harvest</em></b></p>\n                    <p>This is the bee that you just saw.</p>\n                    <img src=\"bees-with-color/bee-A2DF.svg\" width=\"200\">\n                    <p><span class=\"greenText\"><b>Successful harvest!</b></span><br>Your pay has increased by $0.02. Your bonus pay is now $0.84.</p>\n            ","response":0,"trial_type":"html-button-response","trial_index":100,"time_elapsed":329875,"internal_node_id":"0.0-4.0-1.46","subject_id":"5e2df2855e01ef3e5d01ab58","study_id":"6197b3f67c2b5cd3b6d9596a","session_id":"619be5af460f5b1e6659b03d","condition":"contingent","relevant_dimensions":["antennae","wings"],"bee_group":{"antennae":"A","wings":"1","pattern":"X","legs":"X"},"bonus":1.5400000000000014},{"rt":874.4000000022352,"stimulus":"bees-with-color/bee-A2SF.svg","response":0,"trial_type":"image-button-response","trial_index":101,"time_elapsed":330750,"internal_node_id":"0.0-4.0-0.47","subject_id":"5e2df2855e01ef3e5d01ab58","study_id":"6197b3f67c2b5cd3b6d9596a","session_id":"619be5af460f5b1e6659b03d","condition":"contingent","relevant_dimensions":["antennae","wings"],"bee_group":{"antennae":"A","wings":"1","pattern":"X","legs":"X"},"action":"harvest","summary":"good-harvest","bonus":1.5400000000000014},{"rt":523,"stimulus":"\n                    <p><b>Action: <em>harvest</em></b></p>\n                    <p>This is the bee that you just saw.</p>\n                    <img src=\"bees-with-color/bee-A2SF.svg\" width=\"200\">\n                    <p><span class=\"greenText\"><b>Successful harvest!</b></span><br>Your pay has increased by $0.02. Your bonus pay is now $0.86.</p>\n            ","response":0,"trial_type":"html-button-response","trial_index":102,"time_elapsed":331274,"internal_node_id":"0.0-4.0-1.47","subject_id":"5e2df2855e01ef3e5d01ab58","study_id":"6197b3f67c2b5cd3b6d9596a","session_id":"619be5af460f5b1e6659b03d","condition":"contingent","relevant_dimensions":["antennae","wings"],"bee_group":{"antennae":"A","wings":"1","pattern":"X","legs":"X"},"bonus":1.5400000000000014},{"rt":1382.1000000014901,"stimulus":"bees-with-color/bee-B1SF.svg","response":0,"trial_type":"image-button-response","trial_index":103,"time_elapsed":332657,"internal_node_id":"0.0-4.0-0.48","subject_id":"5e2df2855e01ef3e5d01ab58","study_id":"6197b3f67c2b5cd3b6d9596a","session_id":"619be5af460f5b1e6659b03d","condition":"contingent","relevant_dimensions":["antennae","wings"],"bee_group":{"antennae":"A","wings":"1","pattern":"X","legs":"X"},"action":"harvest","summary":"good-harvest","bonus":1.5400000000000014},{"rt":444.3999999985099,"stimulus":"\n                    <p><b>Action: <em>harvest</em></b></p>\n                    <p>This is the bee that you just saw.</p>\n                    <img src=\"bees-with-color/bee-B1SF.svg\" width=\"200\">\n                    <p><span class=\"greenText\"><b>Successful harvest!</b></span><br>Your pay has increased by $0.02. Your bonus pay is now $0.88.</p>\n            ","response":0,"trial_type":"html-button-response","trial_index":104,"time_elapsed":333102,"internal_node_id":"0.0-4.0-1.48","subject_id":"5e2df2855e01ef3e5d01ab58","study_id":"6197b3f67c2b5cd3b6d9596a","session_id":"619be5af460f5b1e6659b03d","condition":"contingent","relevant_dimensions":["antennae","wings"],"bee_group":{"antennae":"A","wings":"1","pattern":"X","legs":"X"},"bonus":1.5400000000000014},{"rt":3670.199999999255,"stimulus":"bees-with-color/bee-A2DM.svg","response":0,"trial_type":"image-button-response","trial_index":105,"time_elapsed":336773,"internal_node_id":"0.0-4.0-0.49","subject_id":"5e2df2855e01ef3e5d01ab58","study_id":"6197b3f67c2b5cd3b6d9596a","session_id":"619be5af460f5b1e6659b03d","condition":"contingent","relevant_dimensions":["antennae","wings"],"bee_group":{"antennae":"A","wings":"1","pattern":"X","legs":"X"},"action":"harvest","summary":"good-harvest","bonus":1.5400000000000014},{"rt":956.2000000029802,"stimulus":"\n                    <p><b>Action: <em>harvest</em></b></p>\n                    <p>This is the bee that you just saw.</p>\n                    <img src=\"bees-with-color/bee-A2DM.svg\" width=\"200\">\n                    <p><span class=\"greenText\"><b>Successful harvest!</b></span><br>Your pay has increased by $0.02. Your bonus pay is now $0.90.</p>\n            ","response":0,"trial_type":"html-button-response","trial_index":106,"time_elapsed":337730,"internal_node_id":"0.0-4.0-1.49","subject_id":"5e2df2855e01ef3e5d01ab58","study_id":"6197b3f67c2b5cd3b6d9596a","session_id":"619be5af460f5b1e6659b03d","condition":"contingent","relevant_dimensions":["antennae","wings"],"bee_group":{"antennae":"A","wings":"1","pattern":"X","legs":"X"},"bonus":1.5400000000000014},{"rt":775.1999999992549,"stimulus":"bees-with-color/bee-B2DM.svg","response":0,"trial_type":"image-button-response","trial_index":107,"time_elapsed":338506,"internal_node_id":"0.0-4.0-0.50","subject_id":"5e2df2855e01ef3e5d01ab58","study_id":"6197b3f67c2b5cd3b6d9596a","session_id":"619be5af460f5b1e6659b03d","condition":"contingent","relevant_dimensions":["antennae","wings"],"bee_group":{"antennae":"A","wings":"1","pattern":"X","legs":"X"},"action":"harvest","summary":"good-harvest","bonus":1.5400000000000014},{"rt":546.1999999992549,"stimulus":"\n                    <p><b>Action: <em>harvest</em></b></p>\n                    <p>This is the bee that you just saw.</p>\n                    <img src=\"bees-with-color/bee-B2DM.svg\" width=\"200\">\n                    <p><span class=\"greenText\"><b>Successful harvest!</b></span><br>Your pay has increased by $0.02. Your bonus pay is now $0.92.</p>\n            ","response":0,"trial_type":"html-button-response","trial_index":108,"time_elapsed":339053,"internal_node_id":"0.0-4.0-1.50","subject_id":"5e2df2855e01ef3e5d01ab58","study_id":"6197b3f67c2b5cd3b6d9596a","session_id":"619be5af460f5b1e6659b03d","condition":"contingent","relevant_dimensions":["antennae","wings"],"bee_group":{"antennae":"A","wings":"1","pattern":"X","legs":"X"},"bonus":1.5400000000000014},{"rt":1649.300000000745,"stimulus":"bees-with-color/bee-A1SM.svg","response":1,"trial_type":"image-button-response","trial_index":109,"time_elapsed":340703,"internal_node_id":"0.0-4.0-0.51","subject_id":"5e2df2855e01ef3e5d01ab58","study_id":"6197b3f67c2b5cd3b6d9596a","session_id":"619be5af460f5b1e6659b03d","condition":"contingent","relevant_dimensions":["antennae","wings"],"bee_group":{"antennae":"A","wings":"1","pattern":"X","legs":"X"},"action":"avoid","summary":"good-avoid","bonus":1.5400000000000014},{"rt":486.9000000022352,"stimulus":"\n                    <p><b>Action: <em>avoid</em></b></p>\n                    <p>This is the bee that you just saw.</p>\n                    <img src=\"bees-with-color/bee-A1SM.svg\" width=\"200\">\n                    <p><br>Your bonus pay is unchanged, and remains at $0.92.</p>\n            ","response":0,"trial_type":"html-button-response","trial_index":110,"time_elapsed":341191,"internal_node_id":"0.0-4.0-1.51","subject_id":"5e2df2855e01ef3e5d01ab58","study_id":"6197b3f67c2b5cd3b6d9596a","session_id":"619be5af460f5b1e6659b03d","condition":"contingent","relevant_dimensions":["antennae","wings"],"bee_group":{"antennae":"A","wings":"1","pattern":"X","legs":"X"},"bonus":1.5400000000000014},{"rt":1263.199999999255,"stimulus":"bees-with-color/bee-B2DF.svg","response":0,"trial_type":"image-button-response","trial_index":111,"time_elapsed":342455,"internal_node_id":"0.0-4.0-0.52","subject_id":"5e2df2855e01ef3e5d01ab58","study_id":"6197b3f67c2b5cd3b6d9596a","session_id":"619be5af460f5b1e6659b03d","condition":"contingent","relevant_dimensions":["antennae","wings"],"bee_group":{"antennae":"A","wings":"1","pattern":"X","legs":"X"},"action":"harvest","summary":"good-harvest","bonus":1.5400000000000014},{"rt":532,"stimulus":"\n                    <p><b>Action: <em>harvest</em></b></p>\n                    <p>This is the bee that you just saw.</p>\n                    <img src=\"bees-with-color/bee-B2DF.svg\" width=\"200\">\n                    <p><span class=\"greenText\"><b>Successful harvest!</b></span><br>Your pay has increased by $0.02. Your bonus pay is now $0.94.</p>\n            ","response":0,"trial_type":"html-button-response","trial_index":112,"time_elapsed":342988,"internal_node_id":"0.0-4.0-1.52","subject_id":"5e2df2855e01ef3e5d01ab58","study_id":"6197b3f67c2b5cd3b6d9596a","session_id":"619be5af460f5b1e6659b03d","condition":"contingent","relevant_dimensions":["antennae","wings"],"bee_group":{"antennae":"A","wings":"1","pattern":"X","legs":"X"},"bonus":1.5400000000000014},{"rt":1249.5999999977648,"stimulus":"bees-with-color/bee-B1DF.svg","response":0,"trial_type":"image-button-response","trial_index":113,"time_elapsed":344238,"internal_node_id":"0.0-4.0-0.53","subject_id":"5e2df2855e01ef3e5d01ab58","study_id":"6197b3f67c2b5cd3b6d9596a","session_id":"619be5af460f5b1e6659b03d","condition":"contingent","relevant_dimensions":["antennae","wings"],"bee_group":{"antennae":"A","wings":"1","pattern":"X","legs":"X"},"action":"harvest","summary":"good-harvest","bonus":1.5400000000000014},{"rt":971.8000000007451,"stimulus":"\n                    <p><b>Action: <em>harvest</em></b></p>\n                    <p>This is the bee that you just saw.</p>\n                    <img src=\"bees-with-color/bee-B1DF.svg\" width=\"200\">\n                    <p><span class=\"greenText\"><b>Successful harvest!</b></span><br>Your pay has increased by $0.02. Your bonus pay is now $0.96.</p>\n            ","response":0,"trial_type":"html-button-response","trial_index":114,"time_elapsed":345211,"internal_node_id":"0.0-4.0-1.53","subject_id":"5e2df2855e01ef3e5d01ab58","study_id":"6197b3f67c2b5cd3b6d9596a","session_id":"619be5af460f5b1e6659b03d","condition":"contingent","relevant_dimensions":["antennae","wings"],"bee_group":{"antennae":"A","wings":"1","pattern":"X","legs":"X"},"bonus":1.5400000000000014},{"rt":1784.2000000029802,"stimulus":"bees-with-color/bee-B1SM.svg","response":0,"trial_type":"image-button-response","trial_index":115,"time_elapsed":346996,"internal_node_id":"0.0-4.0-0.54","subject_id":"5e2df2855e01ef3e5d01ab58","study_id":"6197b3f67c2b5cd3b6d9596a","session_id":"619be5af460f5b1e6659b03d","condition":"contingent","relevant_dimensions":["antennae","wings"],"bee_group":{"antennae":"A","wings":"1","pattern":"X","legs":"X"},"action":"harvest","summary":"good-harvest","bonus":1.5400000000000014},{"rt":590.1999999992549,"stimulus":"\n                    <p><b>Action: <em>harvest</em></b></p>\n                    <p>This is the bee that you just saw.</p>\n                    <img src=\"bees-with-color/bee-B1SM.svg\" width=\"200\">\n                    <p><span class=\"greenText\"><b>Successful harvest!</b></span><br>Your pay has increased by $0.02. Your bonus pay is now $0.98.</p>\n            ","response":0,"trial_type":"html-button-response","trial_index":116,"time_elapsed":347587,"internal_node_id":"0.0-4.0-1.54","subject_id":"5e2df2855e01ef3e5d01ab58","study_id":"6197b3f67c2b5cd3b6d9596a","session_id":"619be5af460f5b1e6659b03d","condition":"contingent","relevant_dimensions":["antennae","wings"],"bee_group":{"antennae":"A","wings":"1","pattern":"X","legs":"X"},"bonus":1.5400000000000014},{"rt":3441.900000002235,"stimulus":"bees-with-color/bee-A1DM.svg","response":1,"trial_type":"image-button-response","trial_index":117,"time_elapsed":351030,"internal_node_id":"0.0-4.0-0.55","subject_id":"5e2df2855e01ef3e5d01ab58","study_id":"6197b3f67c2b5cd3b6d9596a","session_id":"619be5af460f5b1e6659b03d","condition":"contingent","relevant_dimensions":["antennae","wings"],"bee_group":{"antennae":"A","wings":"1","pattern":"X","legs":"X"},"action":"avoid","summary":"good-avoid","bonus":1.5400000000000014},{"rt":692.3999999985099,"stimulus":"\n                    <p><b>Action: <em>avoid</em></b></p>\n                    <p>This is the bee that you just saw.</p>\n                    <img src=\"bees-with-color/bee-A1DM.svg\" width=\"200\">\n                    <p><br>Your bonus pay is unchanged, and remains at $0.98.</p>\n            ","response":0,"trial_type":"html-button-response","trial_index":118,"time_elapsed":351723,"internal_node_id":"0.0-4.0-1.55","subject_id":"5e2df2855e01ef3e5d01ab58","study_id":"6197b3f67c2b5cd3b6d9596a","session_id":"619be5af460f5b1e6659b03d","condition":"contingent","relevant_dimensions":["antennae","wings"],"bee_group":{"antennae":"A","wings":"1","pattern":"X","legs":"X"},"bonus":1.5400000000000014},{"rt":917.3000000007451,"stimulus":"bees-with-color/bee-B2SM.svg","response":0,"trial_type":"image-button-response","trial_index":119,"time_elapsed":352641,"internal_node_id":"0.0-4.0-0.56","subject_id":"5e2df2855e01ef3e5d01ab58","study_id":"6197b3f67c2b5cd3b6d9596a","session_id":"619be5af460f5b1e6659b03d","condition":"contingent","relevant_dimensions":["antennae","wings"],"bee_group":{"antennae":"A","wings":"1","pattern":"X","legs":"X"},"action":"harvest","summary":"good-harvest","bonus":1.5400000000000014},{"rt":469.8999999985099,"stimulus":"\n                    <p><b>Action: <em>harvest</em></b></p>\n                    <p>This is the bee that you just saw.</p>\n                    <img src=\"bees-with-color/bee-B2SM.svg\" width=\"200\">\n                    <p><span class=\"greenText\"><b>Successful harvest!</b></span><br>Your pay has increased by $0.02. Your bonus pay is now $1.00.</p>\n            ","response":0,"trial_type":"html-button-response","trial_index":120,"time_elapsed":353112,"internal_node_id":"0.0-4.0-1.56","subject_id":"5e2df2855e01ef3e5d01ab58","study_id":"6197b3f67c2b5cd3b6d9596a","session_id":"619be5af460f5b1e6659b03d","condition":"contingent","relevant_dimensions":["antennae","wings"],"bee_group":{"antennae":"A","wings":"1","pattern":"X","legs":"X"},"bonus":1.5400000000000014},{"rt":3188.60000000149,"stimulus":"bees-with-color/bee-A1DF.svg","response":1,"trial_type":"image-button-response","trial_index":121,"time_elapsed":356301,"internal_node_id":"0.0-4.0-0.57","subject_id":"5e2df2855e01ef3e5d01ab58","study_id":"6197b3f67c2b5cd3b6d9596a","session_id":"619be5af460f5b1e6659b03d","condition":"contingent","relevant_dimensions":["antennae","wings"],"bee_group":{"antennae":"A","wings":"1","pattern":"X","legs":"X"},"action":"avoid","summary":"good-avoid","bonus":1.5400000000000014},{"rt":678.8999999985099,"stimulus":"\n                    <p><b>Action: <em>avoid</em></b></p>\n                    <p>This is the bee that you just saw.</p>\n                    <img src=\"bees-with-color/bee-A1DF.svg\" width=\"200\">\n                    <p><br>Your bonus pay is unchanged, and remains at $1.00.</p>\n            ","response":0,"trial_type":"html-button-response","trial_index":122,"time_elapsed":356981,"internal_node_id":"0.0-4.0-1.57","subject_id":"5e2df2855e01ef3e5d01ab58","study_id":"6197b3f67c2b5cd3b6d9596a","session_id":"619be5af460f5b1e6659b03d","condition":"contingent","relevant_dimensions":["antennae","wings"],"bee_group":{"antennae":"A","wings":"1","pattern":"X","legs":"X"},"bonus":1.5400000000000014},{"rt":2143.199999999255,"stimulus":"bees-with-color/bee-A1SF.svg","response":1,"trial_type":"image-button-response","trial_index":123,"time_elapsed":359125,"internal_node_id":"0.0-4.0-0.58","subject_id":"5e2df2855e01ef3e5d01ab58","study_id":"6197b3f67c2b5cd3b6d9596a","session_id":"619be5af460f5b1e6659b03d","condition":"contingent","relevant_dimensions":["antennae","wings"],"bee_group":{"antennae":"A","wings":"1","pattern":"X","legs":"X"},"action":"avoid","summary":"good-avoid","bonus":1.5400000000000014},{"rt":700.6999999992549,"stimulus":"\n                    <p><b>Action: <em>avoid</em></b></p>\n                    <p>This is the bee that you just saw.</p>\n                    <img src=\"bees-with-color/bee-A1SF.svg\" width=\"200\">\n                    <p><br>Your bonus pay is unchanged, and remains at $1.00.</p>\n            ","response":0,"trial_type":"html-button-response","trial_index":124,"time_elapsed":359827,"internal_node_id":"0.0-4.0-1.58","subject_id":"5e2df2855e01ef3e5d01ab58","study_id":"6197b3f67c2b5cd3b6d9596a","session_id":"619be5af460f5b1e6659b03d","condition":"contingent","relevant_dimensions":["antennae","wings"],"bee_group":{"antennae":"A","wings":"1","pattern":"X","legs":"X"},"bonus":1.5400000000000014},{"rt":1210,"stimulus":"bees-with-color/bee-A2SM.svg","response":0,"trial_type":"image-button-response","trial_index":125,"time_elapsed":361038,"internal_node_id":"0.0-4.0-0.59","subject_id":"5e2df2855e01ef3e5d01ab58","study_id":"6197b3f67c2b5cd3b6d9596a","session_id":"619be5af460f5b1e6659b03d","condition":"contingent","relevant_dimensions":["antennae","wings"],"bee_group":{"antennae":"A","wings":"1","pattern":"X","legs":"X"},"action":"harvest","summary":"good-harvest","bonus":1.5400000000000014},{"rt":506.19999999925494,"stimulus":"\n                    <p><b>Action: <em>harvest</em></b></p>\n                    <p>This is the bee that you just saw.</p>\n                    <img src=\"bees-with-color/bee-A2SM.svg\" width=\"200\">\n                    <p><span class=\"greenText\"><b>Successful harvest!</b></span><br>Your pay has increased by $0.02. Your bonus pay is now $1.02.</p>\n            ","response":0,"trial_type":"html-button-response","trial_index":126,"time_elapsed":361545,"internal_node_id":"0.0-4.0-1.59","subject_id":"5e2df2855e01ef3e5d01ab58","study_id":"6197b3f67c2b5cd3b6d9596a","session_id":"619be5af460f5b1e6659b03d","condition":"contingent","relevant_dimensions":["antennae","wings"],"bee_group":{"antennae":"A","wings":"1","pattern":"X","legs":"X"},"bonus":1.5400000000000014},{"rt":1288.300000000745,"stimulus":"bees-with-color/bee-B1DM.svg","response":0,"trial_type":"image-button-response","trial_index":127,"time_elapsed":362834,"internal_node_id":"0.0-4.0-0.60","subject_id":"5e2df2855e01ef3e5d01ab58","study_id":"6197b3f67c2b5cd3b6d9596a","session_id":"619be5af460f5b1e6659b03d","condition":"contingent","relevant_dimensions":["antennae","wings"],"bee_group":{"antennae":"A","wings":"1","pattern":"X","legs":"X"},"action":"harvest","summary":"good-harvest","bonus":1.5400000000000014},{"rt":498.80000000074506,"stimulus":"\n                    <p><b>Action: <em>harvest</em></b></p>\n                    <p>This is the bee that you just saw.</p>\n                    <img src=\"bees-with-color/bee-B1DM.svg\" width=\"200\">\n                    <p><span class=\"greenText\"><b>Successful harvest!</b></span><br>Your pay has increased by $0.02. Your bonus pay is now $1.04.</p>\n            ","response":0,"trial_type":"html-button-response","trial_index":128,"time_elapsed":363334,"internal_node_id":"0.0-4.0-1.60","subject_id":"5e2df2855e01ef3e5d01ab58","study_id":"6197b3f67c2b5cd3b6d9596a","session_id":"619be5af460f5b1e6659b03d","condition":"contingent","relevant_dimensions":["antennae","wings"],"bee_group":{"antennae":"A","wings":"1","pattern":"X","legs":"X"},"bonus":1.5400000000000014},{"rt":1667.300000000745,"stimulus":"bees-with-color/bee-A2SF.svg","response":0,"trial_type":"image-button-response","trial_index":129,"time_elapsed":365002,"internal_node_id":"0.0-4.0-0.61","subject_id":"5e2df2855e01ef3e5d01ab58","study_id":"6197b3f67c2b5cd3b6d9596a","session_id":"619be5af460f5b1e6659b03d","condition":"contingent","relevant_dimensions":["antennae","wings"],"bee_group":{"antennae":"A","wings":"1","pattern":"X","legs":"X"},"action":"harvest","summary":"good-harvest","bonus":1.5400000000000014},{"rt":514.3000000007451,"stimulus":"\n                    <p><b>Action: <em>harvest</em></b></p>\n                    <p>This is the bee that you just saw.</p>\n                    <img src=\"bees-with-color/bee-A2SF.svg\" width=\"200\">\n                    <p><span class=\"greenText\"><b>Successful harvest!</b></span><br>Your pay has increased by $0.02. Your bonus pay is now $1.06.</p>\n            ","response":0,"trial_type":"html-button-response","trial_index":130,"time_elapsed":365517,"internal_node_id":"0.0-4.0-1.61","subject_id":"5e2df2855e01ef3e5d01ab58","study_id":"6197b3f67c2b5cd3b6d9596a","session_id":"619be5af460f5b1e6659b03d","condition":"contingent","relevant_dimensions":["antennae","wings"],"bee_group":{"antennae":"A","wings":"1","pattern":"X","legs":"X"},"bonus":1.5400000000000014},{"rt":810.1000000014901,"stimulus":"bees-with-color/bee-A2DF.svg","response":0,"trial_type":"image-button-response","trial_index":131,"time_elapsed":366328,"internal_node_id":"0.0-4.0-0.62","subject_id":"5e2df2855e01ef3e5d01ab58","study_id":"6197b3f67c2b5cd3b6d9596a","session_id":"619be5af460f5b1e6659b03d","condition":"contingent","relevant_dimensions":["antennae","wings"],"bee_group":{"antennae":"A","wings":"1","pattern":"X","legs":"X"},"action":"harvest","summary":"good-harvest","bonus":1.5400000000000014},{"rt":478.4000000022352,"stimulus":"\n                    <p><b>Action: <em>harvest</em></b></p>\n                    <p>This is the bee that you just saw.</p>\n                    <img src=\"bees-with-color/bee-A2DF.svg\" width=\"200\">\n                    <p><span class=\"greenText\"><b>Successful harvest!</b></span><br>Your pay has increased by $0.02. Your bonus pay is now $1.08.</p>\n            ","response":0,"trial_type":"html-button-response","trial_index":132,"time_elapsed":366807,"internal_node_id":"0.0-4.0-1.62","subject_id":"5e2df2855e01ef3e5d01ab58","study_id":"6197b3f67c2b5cd3b6d9596a","session_id":"619be5af460f5b1e6659b03d","condition":"contingent","relevant_dimensions":["antennae","wings"],"bee_group":{"antennae":"A","wings":"1","pattern":"X","legs":"X"},"bonus":1.5400000000000014},{"rt":1386.300000000745,"stimulus":"bees-with-color/bee-B2SF.svg","response":0,"trial_type":"image-button-response","trial_index":133,"time_elapsed":368194,"internal_node_id":"0.0-4.0-0.63","subject_id":"5e2df2855e01ef3e5d01ab58","study_id":"6197b3f67c2b5cd3b6d9596a","session_id":"619be5af460f5b1e6659b03d","condition":"contingent","relevant_dimensions":["antennae","wings"],"bee_group":{"antennae":"A","wings":"1","pattern":"X","legs":"X"},"action":"harvest","summary":"good-harvest","bonus":1.5400000000000014},{"rt":956.3000000007451,"stimulus":"\n                    <p><b>Action: <em>harvest</em></b></p>\n                    <p>This is the bee that you just saw.</p>\n                    <img src=\"bees-with-color/bee-B2SF.svg\" width=\"200\">\n                    <p><span class=\"greenText\"><b>Successful harvest!</b></span><br>Your pay has increased by $0.02. Your bonus pay is now $1.10.</p>\n            ","response":0,"trial_type":"html-button-response","trial_index":134,"time_elapsed":369151,"internal_node_id":"0.0-4.0-1.63","subject_id":"5e2df2855e01ef3e5d01ab58","study_id":"6197b3f67c2b5cd3b6d9596a","session_id":"619be5af460f5b1e6659b03d","condition":"contingent","relevant_dimensions":["antennae","wings"],"bee_group":{"antennae":"A","wings":"1","pattern":"X","legs":"X"},"bonus":1.5400000000000014},{"rt":5505.5,"stimulus":"You have completed the first part of this experiment.<br><br>You will now begin a shorter second part, in which you will receive no feedback.<br>The same rules regarding bonus pay apply.<br><br>Press any key to begin.","response":" ","trial_type":"html-keyboard-response","trial_index":135,"time_elapsed":374657,"internal_node_id":"0.0-5.0","subject_id":"5e2df2855e01ef3e5d01ab58","study_id":"6197b3f67c2b5cd3b6d9596a","session_id":"619be5af460f5b1e6659b03d","condition":"contingent","relevant_dimensions":["antennae","wings"],"bee_group":{"antennae":"A","wings":"1","pattern":"X","legs":"X"},"bonus":1.5400000000000014},{"rt":6932.699999999255,"stimulus":"bees-with-color/bee-A1DF.svg","response":1,"trial_type":"image-button-response","trial_index":136,"time_elapsed":381593,"internal_node_id":"0.0-6.0-0.0","subject_id":"5e2df2855e01ef3e5d01ab58","study_id":"6197b3f67c2b5cd3b6d9596a","session_id":"619be5af460f5b1e6659b03d","condition":"contingent","relevant_dimensions":["antennae","wings"],"bee_group":{"antennae":"A","wings":"1","pattern":"X","legs":"X"},"bonus":1.5400000000000014},{"rt":1423.300000000745,"stimulus":"bees-with-color/bee-B1DM.svg","response":0,"trial_type":"image-button-response","trial_index":137,"time_elapsed":383018,"internal_node_id":"0.0-6.0-0.1","subject_id":"5e2df2855e01ef3e5d01ab58","study_id":"6197b3f67c2b5cd3b6d9596a","session_id":"619be5af460f5b1e6659b03d","condition":"contingent","relevant_dimensions":["antennae","wings"],"bee_group":{"antennae":"A","wings":"1","pattern":"X","legs":"X"},"bonus":1.5400000000000014},{"rt":2827.7000000029802,"stimulus":"bees-with-color/bee-A2DM.svg","response":0,"trial_type":"image-button-response","trial_index":138,"time_elapsed":385847,"internal_node_id":"0.0-6.0-0.2","subject_id":"5e2df2855e01ef3e5d01ab58","study_id":"6197b3f67c2b5cd3b6d9596a","session_id":"619be5af460f5b1e6659b03d","condition":"contingent","relevant_dimensions":["antennae","wings"],"bee_group":{"antennae":"A","wings":"1","pattern":"X","legs":"X"},"bonus":1.5400000000000014},{"rt":1003.8000000007451,"stimulus":"bees-with-color/bee-B1DF.svg","response":0,"trial_type":"image-button-response","trial_index":139,"time_elapsed":386852,"internal_node_id":"0.0-6.0-0.3","subject_id":"5e2df2855e01ef3e5d01ab58","study_id":"6197b3f67c2b5cd3b6d9596a","session_id":"619be5af460f5b1e6659b03d","condition":"contingent","relevant_dimensions":["antennae","wings"],"bee_group":{"antennae":"A","wings":"1","pattern":"X","legs":"X"},"bonus":1.5400000000000014},{"rt":1191.7000000029802,"stimulus":"bees-with-color/bee-B1SM.svg","response":0,"trial_type":"image-button-response","trial_index":140,"time_elapsed":388045,"internal_node_id":"0.0-6.0-0.4","subject_id":"5e2df2855e01ef3e5d01ab58","study_id":"6197b3f67c2b5cd3b6d9596a","session_id":"619be5af460f5b1e6659b03d","condition":"contingent","relevant_dimensions":["antennae","wings"],"bee_group":{"antennae":"A","wings":"1","pattern":"X","legs":"X"},"bonus":1.5400000000000014},{"rt":1094,"stimulus":"bees-with-color/bee-B1SF.svg","response":0,"trial_type":"image-button-response","trial_index":141,"time_elapsed":389140,"internal_node_id":"0.0-6.0-0.5","subject_id":"5e2df2855e01ef3e5d01ab58","study_id":"6197b3f67c2b5cd3b6d9596a","session_id":"619be5af460f5b1e6659b03d","condition":"contingent","relevant_dimensions":["antennae","wings"],"bee_group":{"antennae":"A","wings":"1","pattern":"X","legs":"X"},"bonus":1.5400000000000014},{"rt":1156.800000000745,"stimulus":"bees-with-color/bee-B2SM.svg","response":0,"trial_type":"image-button-response","trial_index":142,"time_elapsed":390298,"internal_node_id":"0.0-6.0-0.6","subject_id":"5e2df2855e01ef3e5d01ab58","study_id":"6197b3f67c2b5cd3b6d9596a","session_id":"619be5af460f5b1e6659b03d","condition":"contingent","relevant_dimensions":["antennae","wings"],"bee_group":{"antennae":"A","wings":"1","pattern":"X","legs":"X"},"bonus":1.5400000000000014},{"rt":1116,"stimulus":"bees-with-color/bee-A1SM.svg","response":1,"trial_type":"image-button-response","trial_index":143,"time_elapsed":391415,"internal_node_id":"0.0-6.0-0.7","subject_id":"5e2df2855e01ef3e5d01ab58","study_id":"6197b3f67c2b5cd3b6d9596a","session_id":"619be5af460f5b1e6659b03d","condition":"contingent","relevant_dimensions":["antennae","wings"],"bee_group":{"antennae":"A","wings":"1","pattern":"X","legs":"X"},"bonus":1.5400000000000014},{"rt":1036.8999999985099,"stimulus":"bees-with-color/bee-A2SM.svg","response":0,"trial_type":"image-button-response","trial_index":144,"time_elapsed":392453,"internal_node_id":"0.0-6.0-0.8","subject_id":"5e2df2855e01ef3e5d01ab58","study_id":"6197b3f67c2b5cd3b6d9596a","session_id":"619be5af460f5b1e6659b03d","condition":"contingent","relevant_dimensions":["antennae","wings"],"bee_group":{"antennae":"A","wings":"1","pattern":"X","legs":"X"},"bonus":1.5400000000000014},{"rt":3036.800000000745,"stimulus":"bees-with-color/bee-A2DF.svg","response":0,"trial_type":"image-button-response","trial_index":145,"time_elapsed":395491,"internal_node_id":"0.0-6.0-0.9","subject_id":"5e2df2855e01ef3e5d01ab58","study_id":"6197b3f67c2b5cd3b6d9596a","session_id":"619be5af460f5b1e6659b03d","condition":"contingent","relevant_dimensions":["antennae","wings"],"bee_group":{"antennae":"A","wings":"1","pattern":"X","legs":"X"},"bonus":1.5400000000000014},{"rt":983.9000000022352,"stimulus":"bees-with-color/bee-B2SF.svg","response":0,"trial_type":"image-button-response","trial_index":146,"time_elapsed":396476,"internal_node_id":"0.0-6.0-0.10","subject_id":"5e2df2855e01ef3e5d01ab58","study_id":"6197b3f67c2b5cd3b6d9596a","session_id":"619be5af460f5b1e6659b03d","condition":"contingent","relevant_dimensions":["antennae","wings"],"bee_group":{"antennae":"A","wings":"1","pattern":"X","legs":"X"},"bonus":1.5400000000000014},{"rt":1304.300000000745,"stimulus":"bees-with-color/bee-A2SF.svg","response":0,"trial_type":"image-button-response","trial_index":147,"time_elapsed":397782,"internal_node_id":"0.0-6.0-0.11","subject_id":"5e2df2855e01ef3e5d01ab58","study_id":"6197b3f67c2b5cd3b6d9596a","session_id":"619be5af460f5b1e6659b03d","condition":"contingent","relevant_dimensions":["antennae","wings"],"bee_group":{"antennae":"A","wings":"1","pattern":"X","legs":"X"},"bonus":1.5400000000000014},{"rt":995.7000000029802,"stimulus":"bees-with-color/bee-B2DF.svg","response":0,"trial_type":"image-button-response","trial_index":148,"time_elapsed":398779,"internal_node_id":"0.0-6.0-0.12","subject_id":"5e2df2855e01ef3e5d01ab58","study_id":"6197b3f67c2b5cd3b6d9596a","session_id":"619be5af460f5b1e6659b03d","condition":"contingent","relevant_dimensions":["antennae","wings"],"bee_group":{"antennae":"A","wings":"1","pattern":"X","legs":"X"},"bonus":1.5400000000000014},{"rt":1823.9000000022352,"stimulus":"bees-with-color/bee-A1SF.svg","response":1,"trial_type":"image-button-response","trial_index":149,"time_elapsed":400604,"internal_node_id":"0.0-6.0-0.13","subject_id":"5e2df2855e01ef3e5d01ab58","study_id":"6197b3f67c2b5cd3b6d9596a","session_id":"619be5af460f5b1e6659b03d","condition":"contingent","relevant_dimensions":["antennae","wings"],"bee_group":{"antennae":"A","wings":"1","pattern":"X","legs":"X"},"bonus":1.5400000000000014},{"rt":919.5,"stimulus":"bees-with-color/bee-B2DM.svg","response":0,"trial_type":"image-button-response","trial_index":150,"time_elapsed":401525,"internal_node_id":"0.0-6.0-0.14","subject_id":"5e2df2855e01ef3e5d01ab58","study_id":"6197b3f67c2b5cd3b6d9596a","session_id":"619be5af460f5b1e6659b03d","condition":"contingent","relevant_dimensions":["antennae","wings"],"bee_group":{"antennae":"A","wings":"1","pattern":"X","legs":"X"},"bonus":1.5400000000000014},{"rt":1528.800000000745,"stimulus":"bees-with-color/bee-A1DM.svg","response":1,"trial_type":"image-button-response","trial_index":151,"time_elapsed":403055,"internal_node_id":"0.0-6.0-0.15","subject_id":"5e2df2855e01ef3e5d01ab58","study_id":"6197b3f67c2b5cd3b6d9596a","session_id":"619be5af460f5b1e6659b03d","condition":"contingent","relevant_dimensions":["antennae","wings"],"bee_group":{"antennae":"A","wings":"1","pattern":"X","legs":"X"},"bonus":1.5400000000000014},{"rt":1692.9000000022352,"stimulus":"bees-with-color/bee-B1DM.svg","response":0,"trial_type":"image-button-response","trial_index":152,"time_elapsed":404749,"internal_node_id":"0.0-6.0-0.16","subject_id":"5e2df2855e01ef3e5d01ab58","study_id":"6197b3f67c2b5cd3b6d9596a","session_id":"619be5af460f5b1e6659b03d","condition":"contingent","relevant_dimensions":["antennae","wings"],"bee_group":{"antennae":"A","wings":"1","pattern":"X","legs":"X"},"bonus":1.5400000000000014},{"rt":1387.5,"stimulus":"bees-with-color/bee-A1DM.svg","response":1,"trial_type":"image-button-response","trial_index":153,"time_elapsed":406138,"internal_node_id":"0.0-6.0-0.17","subject_id":"5e2df2855e01ef3e5d01ab58","study_id":"6197b3f67c2b5cd3b6d9596a","session_id":"619be5af460f5b1e6659b03d","condition":"contingent","relevant_dimensions":["antennae","wings"],"bee_group":{"antennae":"A","wings":"1","pattern":"X","legs":"X"},"bonus":1.5400000000000014},{"rt":3065.800000000745,"stimulus":"bees-with-color/bee-A1SM.svg","response":1,"trial_type":"image-button-response","trial_index":154,"time_elapsed":409205,"internal_node_id":"0.0-6.0-0.18","subject_id":"5e2df2855e01ef3e5d01ab58","study_id":"6197b3f67c2b5cd3b6d9596a","session_id":"619be5af460f5b1e6659b03d","condition":"contingent","relevant_dimensions":["antennae","wings"],"bee_group":{"antennae":"A","wings":"1","pattern":"X","legs":"X"},"bonus":1.5400000000000014},{"rt":706,"stimulus":"bees-with-color/bee-A2DF.svg","response":0,"trial_type":"image-button-response","trial_index":155,"time_elapsed":409912,"internal_node_id":"0.0-6.0-0.19","subject_id":"5e2df2855e01ef3e5d01ab58","study_id":"6197b3f67c2b5cd3b6d9596a","session_id":"619be5af460f5b1e6659b03d","condition":"contingent","relevant_dimensions":["antennae","wings"],"bee_group":{"antennae":"A","wings":"1","pattern":"X","legs":"X"},"bonus":1.5400000000000014},{"rt":1420.0999999977648,"stimulus":"bees-with-color/bee-B2SM.svg","response":0,"trial_type":"image-button-response","trial_index":156,"time_elapsed":411333,"internal_node_id":"0.0-6.0-0.20","subject_id":"5e2df2855e01ef3e5d01ab58","study_id":"6197b3f67c2b5cd3b6d9596a","session_id":"619be5af460f5b1e6659b03d","condition":"contingent","relevant_dimensions":["antennae","wings"],"bee_group":{"antennae":"A","wings":"1","pattern":"X","legs":"X"},"bonus":1.5400000000000014},{"rt":1094.0999999977648,"stimulus":"bees-with-color/bee-B2DF.svg","response":0,"trial_type":"image-button-response","trial_index":157,"time_elapsed":412428,"internal_node_id":"0.0-6.0-0.21","subject_id":"5e2df2855e01ef3e5d01ab58","study_id":"6197b3f67c2b5cd3b6d9596a","session_id":"619be5af460f5b1e6659b03d","condition":"contingent","relevant_dimensions":["antennae","wings"],"bee_group":{"antennae":"A","wings":"1","pattern":"X","legs":"X"},"bonus":1.5400000000000014},{"rt":1171.9000000022352,"stimulus":"bees-with-color/bee-B1SM.svg","response":1,"trial_type":"image-button-response","trial_index":158,"time_elapsed":413601,"internal_node_id":"0.0-6.0-0.22","subject_id":"5e2df2855e01ef3e5d01ab58","study_id":"6197b3f67c2b5cd3b6d9596a","session_id":"619be5af460f5b1e6659b03d","condition":"contingent","relevant_dimensions":["antennae","wings"],"bee_group":{"antennae":"A","wings":"1","pattern":"X","legs":"X"},"bonus":1.5400000000000014},{"rt":2563.099999997765,"stimulus":"bees-with-color/bee-A2SF.svg","response":0,"trial_type":"image-button-response","trial_index":159,"time_elapsed":416165,"internal_node_id":"0.0-6.0-0.23","subject_id":"5e2df2855e01ef3e5d01ab58","study_id":"6197b3f67c2b5cd3b6d9596a","session_id":"619be5af460f5b1e6659b03d","condition":"contingent","relevant_dimensions":["antennae","wings"],"bee_group":{"antennae":"A","wings":"1","pattern":"X","legs":"X"},"bonus":1.5400000000000014},{"rt":1068.1000000014901,"stimulus":"bees-with-color/bee-B2DM.svg","response":0,"trial_type":"image-button-response","trial_index":160,"time_elapsed":417234,"internal_node_id":"0.0-6.0-0.24","subject_id":"5e2df2855e01ef3e5d01ab58","study_id":"6197b3f67c2b5cd3b6d9596a","session_id":"619be5af460f5b1e6659b03d","condition":"contingent","relevant_dimen