[{"success":true,"trial_type":"fullscreen","trial_index":0,"time_elapsed":17552,"internal_node_id":"0.0-0.0","subject_id":"5ed013f88fce6e0d858b732e","study_id":"60edd13110225f80f9f3709b","session_id":"6196c704ba2ac54efa233cdc","condition":"full-information","relevant_dimensions":["antennae","pattern"],"bee_group":{"antennae":"B","wings":"X","pattern":"D","legs":"X"},"bonus":1.660000000000001},{"success":true,"timeout":false,"failed_images":[],"failed_audio":[],"failed_video":[],"trial_type":"preload","trial_index":1,"time_elapsed":20206,"internal_node_id":"0.0-1.0","subject_id":"5ed013f88fce6e0d858b732e","study_id":"60edd13110225f80f9f3709b","session_id":"6196c704ba2ac54efa233cdc","condition":"full-information","relevant_dimensions":["antennae","pattern"],"bee_group":{"antennae":"B","wings":"X","pattern":"D","legs":"X"},"bonus":1.660000000000001},{"rt":9831.89999999851,"stimulus":"Welcome! Press any key to begin.","response":" ","trial_type":"html-keyboard-response","trial_index":2,"time_elapsed":30039,"internal_node_id":"0.0-2.0","subject_id":"5ed013f88fce6e0d858b732e","study_id":"60edd13110225f80f9f3709b","session_id":"6196c704ba2ac54efa233cdc","condition":"full-information","relevant_dimensions":["antennae","pattern"],"bee_group":{"antennae":"B","wings":"X","pattern":"D","legs":"X"},"bonus":1.660000000000001},{"view_history":[{"page_index":0,"viewing_time":12624.39999999851},{"page_index":1,"viewing_time":17408},{"page_index":2,"viewing_time":18111.20000000298},{"page_index":3,"viewing_time":14656},{"page_index":4,"viewing_time":8280.19999999553},{"page_index":5,"viewing_time":10399.80000000447},{"page_index":6,"viewing_time":13455.79999999702},{"page_index":7,"viewing_time":7031.80000000447},{"page_index":8,"viewing_time":5136.19999999553},{"page_index":9,"viewing_time":5167.60000000149},{"page_index":10,"viewing_time":3088.10000000149},{"page_index":11,"viewing_time":12087.69999999553},{"page_index":12,"viewing_time":11815.80000000447},{"page_index":13,"viewing_time":1976.2999999970198},{"page_index":12,"viewing_time":1552},{"page_index":11,"viewing_time":647.6000000014901},{"page_index":10,"viewing_time":608.2999999970198},{"page_index":9,"viewing_time":415.90000000596046},{"page_index":8,"viewing_time":343.69999999552965},{"page_index":7,"viewing_time":408.80000000447035},{"page_index":6,"viewing_time":607.2999999970198},{"page_index":7,"viewing_time":6024.20000000298},{"page_index":8,"viewing_time":4615.79999999702},{"page_index":9,"viewing_time":2000.2000000029802},{"page_index":10,"viewing_time":2743.89999999851},{"page_index":11,"viewing_time":1295.7999999970198},{"page_index":12,"viewing_time":1216},{"page_index":11,"viewing_time":2408.3000000044703},{"page_index":12,"viewing_time":647.7999999970198},{"page_index":13,"viewing_time":895.7000000029802},{"page_index":14,"viewing_time":2984.0999999940395}],"rt":170654.70000000298,"trial_type":"instructions","trial_index":3,"time_elapsed":200694,"internal_node_id":"0.0-3.0-0.0","subject_id":"5ed013f88fce6e0d858b732e","study_id":"60edd13110225f80f9f3709b","session_id":"6196c704ba2ac54efa233cdc","condition":"full-information","relevant_dimensions":["antennae","pattern"],"bee_group":{"antennae":"B","wings":"X","pattern":"D","legs":"X"},"bonus":1.660000000000001},{"rt":15074.80000000447,"response":{"Q0":["Two or six legs","Stripes or spots on body","Single or double wings","Antennae or no antennae"]},"question_order":[0],"trial_type":"survey-multi-select","trial_index":4,"time_elapsed":215775,"internal_node_id":"0.0-3.0-1.0","subject_id":"5ed013f88fce6e0d858b732e","study_id":"60edd13110225f80f9f3709b","session_id":"6196c704ba2ac54efa233cdc","condition":"full-information","relevant_dimensions":["antennae","pattern"],"bee_group":{"antennae":"B","wings":"X","pattern":"D","legs":"X"},"correct":true,"bonus":1.660000000000001},{"rt":22173.5,"response":{"Q1":"No.","Q2":"Based on the four features of the bee.","Q3":"You learn if it was friendly or dangerous, but do not alter your bonus."},"question_order":[0,1,2],"trial_type":"survey-multi-choice","trial_index":5,"time_elapsed":237951,"internal_node_id":"0.0-3.0-2.0","subject_id":"5ed013f88fce6e0d858b732e","study_id":"60edd13110225f80f9f3709b","session_id":"6196c704ba2ac54efa233cdc","condition":"full-information","relevant_dimensions":["antennae","pattern"],"bee_group":{"antennae":"B","wings":"X","pattern":"D","legs":"X"},"correct":true,"bonus":1.660000000000001},{"rt":4638.29999999702,"stimulus":"<p>Congrats, you got everything right<br>When you're ready, click the button below to continue to the experiment.</p>","response":0,"trial_type":"html-button-response","trial_index":6,"time_elapsed":242591,"internal_node_id":"0.0-3.0-3.0","subject_id":"5ed013f88fce6e0d858b732e","study_id":"60edd13110225f80f9f3709b","session_id":"6196c704ba2ac54efa233cdc","condition":"full-information","relevant_dimensions":["antennae","pattern"],"bee_group":{"antennae":"B","wings":"X","pattern":"D","legs":"X"},"bonus":1.660000000000001},{"rt":3253,"stimulus":"bees-with-color/bee-B1SF.svg","response":0,"trial_type":"image-button-response","trial_index":7,"time_elapsed":245846,"internal_node_id":"0.0-4.0-0.0","subject_id":"5ed013f88fce6e0d858b732e","study_id":"60edd13110225f80f9f3709b","session_id":"6196c704ba2ac54efa233cdc","condition":"full-information","relevant_dimensions":["antennae","pattern"],"bee_group":{"antennae":"B","wings":"X","pattern":"D","legs":"X"},"action":"harvest","summary":"good-harvest","bonus":1.660000000000001},{"rt":12989.39999999851,"stimulus":"\n                    <p><b>Action: <em>harvest</em></b></p>\n                    <p>This is the bee that you just saw.</p>\n                    <img src=\"bees-with-color/bee-B1SF.svg\" width=\"200\">\n                    <p><span class=\"greenText\"><b>Successful harvest!</b></span><br>Your pay has increased by $0.02. Your bonus pay is now $0.56.</p>\n            ","response":0,"trial_type":"html-button-response","trial_index":8,"time_elapsed":258838,"internal_node_id":"0.0-4.0-1.0","subject_id":"5ed013f88fce6e0d858b732e","study_id":"60edd13110225f80f9f3709b","session_id":"6196c704ba2ac54efa233cdc","condition":"full-information","relevant_dimensions":["antennae","pattern"],"bee_group":{"antennae":"B","wings":"X","pattern":"D","legs":"X"},"bonus":1.660000000000001},{"rt":1557.5,"stimulus":"bees-with-color/bee-B2DF.svg","response":1,"trial_type":"image-button-response","trial_index":9,"time_elapsed":260398,"internal_node_id":"0.0-4.0-0.1","subject_id":"5ed013f88fce6e0d858b732e","study_id":"60edd13110225f80f9f3709b","session_id":"6196c704ba2ac54efa233cdc","condition":"full-information","relevant_dimensions":["antennae","pattern"],"bee_group":{"antennae":"B","wings":"X","pattern":"D","legs":"X"},"action":"avoid","summary":"good-avoid","bonus":1.660000000000001},{"rt":10174.20000000298,"stimulus":"\n                    <p><b>Action: <em>avoid</em></b></p>\n                    <p>This is the bee that you just saw.</p>\n                    <img src=\"bees-with-color/bee-B2DF.svg\" width=\"200\">\n                    <p><span class=\"greenText\">Good choice!</span>  This bee would have stung you.<br>Your bonus pay is unchanged, and remains at $0.56.</p>\n            ","response":0,"trial_type":"html-button-response","trial_index":10,"time_elapsed":270574,"internal_node_id":"0.0-4.0-1.1","subject_id":"5ed013f88fce6e0d858b732e","study_id":"60edd13110225f80f9f3709b","session_id":"6196c704ba2ac54efa233cdc","condition":"full-information","relevant_dimensions":["antennae","pattern"],"bee_group":{"antennae":"B","wings":"X","pattern":"D","legs":"X"},"bonus":1.660000000000001},{"rt":3461.60000000149,"stimulus":"bees-with-color/bee-A2SM.svg","response":0,"trial_type":"image-button-response","trial_index":11,"time_elapsed":274038,"internal_node_id":"0.0-4.0-0.2","subject_id":"5ed013f88fce6e0d858b732e","study_id":"60edd13110225f80f9f3709b","session_id":"6196c704ba2ac54efa233cdc","condition":"full-information","relevant_dimensions":["antennae","pattern"],"bee_group":{"antennae":"B","wings":"X","pattern":"D","legs":"X"},"action":"harvest","summary":"good-harvest","bonus":1.660000000000001},{"rt":15661.79999999702,"stimulus":"\n                    <p><b>Action: <em>harvest</em></b></p>\n                    <p>This is the bee that you just saw.</p>\n                    <img src=\"bees-with-color/bee-A2SM.svg\" width=\"200\">\n                    <p><span class=\"greenText\"><b>Successful harvest!</b></span><br>Your pay has increased by $0.02. Your bonus pay is now $0.58.</p>\n            ","response":0,"trial_type":"html-button-response","trial_index":12,"time_elapsed":289702,"internal_node_id":"0.0-4.0-1.2","subject_id":"5ed013f88fce6e0d858b732e","study_id":"60edd13110225f80f9f3709b","session_id":"6196c704ba2ac54efa233cdc","condition":"full-information","relevant_dimensions":["antennae","pattern"],"bee_group":{"antennae":"B","wings":"X","pattern":"D","legs":"X"},"bonus":1.660000000000001},{"rt":2790,"stimulus":"bees-with-color/bee-A2DM.svg","response":1,"trial_type":"image-button-response","trial_index":13,"time_elapsed":292493,"internal_node_id":"0.0-4.0-0.3","subject_id":"5ed013f88fce6e0d858b732e","study_id":"60edd13110225f80f9f3709b","session_id":"6196c704ba2ac54efa233cdc","condition":"full-information","relevant_dimensions":["antennae","pattern"],"bee_group":{"antennae":"B","wings":"X","pattern":"D","legs":"X"},"action":"avoid","summary":"bad-avoid","bonus":1.660000000000001},{"rt":6158.39999999851,"stimulus":"\n                    <p><b>Action: <em>avoid</em></b></p>\n                    <p>This is the bee that you just saw.</p>\n                    <img src=\"bees-with-color/bee-A2DM.svg\" width=\"200\">\n                    <p><span class=\"redText\">Bad choice,</span> the bee was friendly.<br>Your bonus pay is unchanged, and remains at $0.58.</p>\n            ","response":0,"trial_type":"html-button-response","trial_index":14,"time_elapsed":298653,"internal_node_id":"0.0-4.0-1.3","subject_id":"5ed013f88fce6e0d858b732e","study_id":"60edd13110225f80f9f3709b","session_id":"6196c704ba2ac54efa233cdc","condition":"full-information","relevant_dimensions":["antennae","pattern"],"bee_group":{"antennae":"B","wings":"X","pattern":"D","legs":"X"},"bonus":1.660000000000001},{"rt":2150.5999999940395,"stimulus":"bees-with-color/bee-A1DM.svg","response":0,"trial_type":"image-button-response","trial_index":15,"time_elapsed":300805,"internal_node_id":"0.0-4.0-0.4","subject_id":"5ed013f88fce6e0d858b732e","study_id":"60edd13110225f80f9f3709b","session_id":"6196c704ba2ac54efa233cdc","condition":"full-information","relevant_dimensions":["antennae","pattern"],"bee_group":{"antennae":"B","wings":"X","pattern":"D","legs":"X"},"action":"harvest","summary":"good-harvest","bonus":1.660000000000001},{"rt":3094.1999999955297,"stimulus":"\n                    <p><b>Action: <em>harvest</em></b></p>\n                    <p>This is the bee that you just saw.</p>\n                    <img src=\"bees-with-color/bee-A1DM.svg\" width=\"200\">\n                    <p><span class=\"greenText\"><b>Successful harvest!</b></span><br>Your pay has increased by $0.02. Your bonus pay is now $0.60.</p>\n            ","response":0,"trial_type":"html-button-response","trial_index":16,"time_elapsed":303901,"internal_node_id":"0.0-4.0-1.4","subject_id":"5ed013f88fce6e0d858b732e","study_id":"60edd13110225f80f9f3709b","session_id":"6196c704ba2ac54efa233cdc","condition":"full-information","relevant_dimensions":["antennae","pattern"],"bee_group":{"antennae":"B","wings":"X","pattern":"D","legs":"X"},"bonus":1.660000000000001},{"rt":4102.60000000149,"stimulus":"bees-with-color/bee-A2SF.svg","response":1,"trial_type":"image-button-response","trial_index":17,"time_elapsed":308005,"internal_node_id":"0.0-4.0-0.5","subject_id":"5ed013f88fce6e0d858b732e","study_id":"60edd13110225f80f9f3709b","session_id":"6196c704ba2ac54efa233cdc","condition":"full-information","relevant_dimensions":["antennae","pattern"],"bee_group":{"antennae":"B","wings":"X","pattern":"D","legs":"X"},"action":"avoid","summary":"bad-avoid","bonus":1.660000000000001},{"rt":4103.10000000149,"stimulus":"\n                    <p><b>Action: <em>avoid</em></b></p>\n                    <p>This is the bee that you just saw.</p>\n                    <img src=\"bees-with-color/bee-A2SF.svg\" width=\"200\">\n                    <p><span class=\"redText\">Bad choice,</span> the bee was friendly.<br>Your bonus pay is unchanged, and remains at $0.60.</p>\n            ","response":0,"trial_type":"html-button-response","trial_index":18,"time_elapsed":312109,"internal_node_id":"0.0-4.0-1.5","subject_id":"5ed013f88fce6e0d858b732e","study_id":"60edd13110225f80f9f3709b","session_id":"6196c704ba2ac54efa233cdc","condition":"full-information","relevant_dimensions":["antennae","pattern"],"bee_group":{"antennae":"B","wings":"X","pattern":"D","legs":"X"},"bonus":1.660000000000001},{"rt":2694.10000000149,"stimulus":"bees-with-color/bee-B1DF.svg","response":1,"trial_type":"image-button-response","trial_index":19,"time_elapsed":314805,"internal_node_id":"0.0-4.0-0.6","subject_id":"5ed013f88fce6e0d858b732e","study_id":"60edd13110225f80f9f3709b","session_id":"6196c704ba2ac54efa233cdc","condition":"full-information","relevant_dimensions":["antennae","pattern"],"bee_group":{"antennae":"B","wings":"X","pattern":"D","legs":"X"},"action":"avoid","summary":"good-avoid","bonus":1.660000000000001},{"rt":2518.5,"stimulus":"\n                    <p><b>Action: <em>avoid</em></b></p>\n                    <p>This is the bee that you just saw.</p>\n                    <img src=\"bees-with-color/bee-B1DF.svg\" width=\"200\">\n                    <p><span class=\"greenText\">Good choice!</span>  This bee would have stung you.<br>Your bonus pay is unchanged, and remains at $0.60.</p>\n            ","response":0,"trial_type":"html-button-response","trial_index":20,"time_elapsed":317325,"internal_node_id":"0.0-4.0-1.6","subject_id":"5ed013f88fce6e0d858b732e","study_id":"60edd13110225f80f9f3709b","session_id":"6196c704ba2ac54efa233cdc","condition":"full-information","relevant_dimensions":["antennae","pattern"],"bee_group":{"antennae":"B","wings":"X","pattern":"D","legs":"X"},"bonus":1.660000000000001},{"rt":2342.10000000149,"stimulus":"bees-with-color/bee-A2DF.svg","response":0,"trial_type":"image-button-response","trial_index":21,"time_elapsed":319669,"internal_node_id":"0.0-4.0-0.7","subject_id":"5ed013f88fce6e0d858b732e","study_id":"60edd13110225f80f9f3709b","session_id":"6196c704ba2ac54efa233cdc","condition":"full-information","relevant_dimensions":["antennae","pattern"],"bee_group":{"antennae":"B","wings":"X","pattern":"D","legs":"X"},"action":"harvest","summary":"good-harvest","bonus":1.660000000000001},{"rt":20526.19999999553,"stimulus":"\n                    <p><b>Action: <em>harvest</em></b></p>\n                    <p>This is the bee that you just saw.</p>\n                    <img src=\"bees-with-color/bee-A2DF.svg\" width=\"200\">\n                    <p><span class=\"greenText\"><b>Successful harvest!</b></span><br>Your pay has increased by $0.02. Your bonus pay is now $0.62.</p>\n            ","response":0,"trial_type":"html-button-response","trial_index":22,"time_elapsed":340197,"internal_node_id":"0.0-4.0-1.7","subject_id":"5ed013f88fce6e0d858b732e","study_id":"60edd13110225f80f9f3709b","session_id":"6196c704ba2ac54efa233cdc","condition":"full-information","relevant_dimensions":["antennae","pattern"],"bee_group":{"antennae":"B","wings":"X","pattern":"D","legs":"X"},"bonus":1.660000000000001},{"rt":4638.20000000298,"stimulus":"bees-with-color/bee-A1SM.svg","response":0,"trial_type":"image-button-response","trial_index":23,"time_elapsed":344837,"internal_node_id":"0.0-4.0-0.8","subject_id":"5ed013f88fce6e0d858b732e","study_id":"60edd13110225f80f9f3709b","session_id":"6196c704ba2ac54efa233cdc","condition":"full-information","relevant_dimensions":["antennae","pattern"],"bee_group":{"antennae":"B","wings":"X","pattern":"D","legs":"X"},"action":"harvest","summary":"good-harvest","bonus":1.660000000000001},{"rt":15318,"stimulus":"\n                    <p><b>Action: <em>harvest</em></b></p>\n                    <p>This is the bee that you just saw.</p>\n                    <img src=\"bees-with-color/bee-A1SM.svg\" width=\"200\">\n                    <p><span class=\"greenText\"><b>Successful harvest!</b></span><br>Your pay has increased by $0.02. Your bonus pay is now $0.64.</p>\n            ","response":0,"trial_type":"html-button-response","trial_index":24,"time_elapsed":360157,"internal_node_id":"0.0-4.0-1.8","subject_id":"5ed013f88fce6e0d858b732e","study_id":"60edd13110225f80f9f3709b","session_id":"6196c704ba2ac54efa233cdc","condition":"full-information","relevant_dimensions":["antennae","pattern"],"bee_group":{"antennae":"B","wings":"X","pattern":"D","legs":"X"},"bonus":1.660000000000001},{"rt":11078.40000000596,"stimulus":"bees-with-color/bee-B1SM.svg","response":1,"trial_type":"image-button-response","trial_index":25,"time_elapsed":371237,"internal_node_id":"0.0-4.0-0.9","subject_id":"5ed013f88fce6e0d858b732e","study_id":"60edd13110225f80f9f3709b","session_id":"6196c704ba2ac54efa233cdc","condition":"full-information","relevant_dimensions":["antennae","pattern"],"bee_group":{"antennae":"B","wings":"X","pattern":"D","legs":"X"},"action":"avoid","summary":"bad-avoid","bonus":1.660000000000001},{"rt":5862.5999999940395,"stimulus":"\n                    <p><b>Action: <em>avoid</em></b></p>\n                    <p>This is the bee that you just saw.</p>\n                    <img src=\"bees-with-color/bee-B1SM.svg\" width=\"200\">\n                    <p><span class=\"redText\">Bad choice,</span> the bee was friendly.<br>Your bonus pay is unchanged, and remains at $0.64.</p>\n            ","response":0,"trial_type":"html-button-response","trial_index":26,"time_elapsed":377101,"internal_node_id":"0.0-4.0-1.9","subject_id":"5ed013f88fce6e0d858b732e","study_id":"60edd13110225f80f9f3709b","session_id":"6196c704ba2ac54efa233cdc","condition":"full-information","relevant_dimensions":["antennae","pattern"],"bee_group":{"antennae":"B","wings":"X","pattern":"D","legs":"X"},"bonus":1.660000000000001},{"rt":13653.89999999851,"stimulus":"bees-with-color/bee-A1SF.svg","response":0,"trial_type":"image-button-response","trial_index":27,"time_elapsed":390757,"internal_node_id":"0.0-4.0-0.10","subject_id":"5ed013f88fce6e0d858b732e","study_id":"60edd13110225f80f9f3709b","session_id":"6196c704ba2ac54efa233cdc","condition":"full-information","relevant_dimensions":["antennae","pattern"],"bee_group":{"antennae":"B","wings":"X","pattern":"D","legs":"X"},"action":"harvest","summary":"good-harvest","bonus":1.660000000000001},{"rt":6087.10000000149,"stimulus":"\n                    <p><b>Action: <em>harvest</em></b></p>\n                    <p>This is the bee that you just saw.</p>\n                    <img src=\"bees-with-color/bee-A1SF.svg\" width=\"200\">\n                    <p><span class=\"greenText\"><b>Successful harvest!</b></span><br>Your pay has increased by $0.02. Your bonus pay is now $0.66.</p>\n            ","response":0,"trial_type":"html-button-response","trial_index":28,"time_elapsed":396845,"internal_node_id":"0.0-4.0-1.10","subject_id":"5ed013f88fce6e0d858b732e","study_id":"60edd13110225f80f9f3709b","session_id":"6196c704ba2ac54efa233cdc","condition":"full-information","relevant_dimensions":["antennae","pattern"],"bee_group":{"antennae":"B","wings":"X","pattern":"D","legs":"X"},"bonus":1.660000000000001},{"rt":8525.89999999851,"stimulus":"bees-with-color/bee-B1DM.svg","response":1,"trial_type":"image-button-response","trial_index":29,"time_elapsed":405372,"internal_node_id":"0.0-4.0-0.11","subject_id":"5ed013f88fce6e0d858b732e","study_id":"60edd13110225f80f9f3709b","session_id":"6196c704ba2ac54efa233cdc","condition":"full-information","relevant_dimensions":["antennae","pattern"],"bee_group":{"antennae":"B","wings":"X","pattern":"D","legs":"X"},"action":"avoid","summary":"good-avoid","bonus":1.660000000000001},{"rt":6919,"stimulus":"\n                    <p><b>Action: <em>avoid</em></b></p>\n                    <p>This is the bee that you just saw.</p>\n                    <img src=\"bees-with-color/bee-B1DM.svg\" width=\"200\">\n                    <p><span class=\"greenText\">Good choice!</span>  This bee would have stung you.<br>Your bonus pay is unchanged, and remains at $0.66.</p>\n            ","response":0,"trial_type":"html-button-response","trial_index":30,"time_elapsed":412293,"internal_node_id":"0.0-4.0-1.11","subject_id":"5ed013f88fce6e0d858b732e","study_id":"60edd13110225f80f9f3709b","session_id":"6196c704ba2ac54efa233cdc","condition":"full-information","relevant_dimensions":["antennae","pattern"],"bee_group":{"antennae":"B","wings":"X","pattern":"D","legs":"X"},"bonus":1.660000000000001},{"rt":7054.39999999851,"stimulus":"bees-with-color/bee-A1DF.svg","response":1,"trial_type":"image-button-response","trial_index":31,"time_elapsed":419349,"internal_node_id":"0.0-4.0-0.12","subject_id":"5ed013f88fce6e0d858b732e","study_id":"60edd13110225f80f9f3709b","session_id":"6196c704ba2ac54efa233cdc","condition":"full-information","relevant_dimensions":["antennae","pattern"],"bee_group":{"antennae":"B","wings":"X","pattern":"D","legs":"X"},"action":"avoid","summary":"bad-avoid","bonus":1.660000000000001},{"rt":6494.5999999940395,"stimulus":"\n                    <p><b>Action: <em>avoid</em></b></p>\n                    <p>This is the bee that you just saw.</p>\n                    <img src=\"bees-with-color/bee-A1DF.svg\" width=\"200\">\n                    <p><span class=\"redText\">Bad choice,</span> the bee was friendly.<br>Your bonus pay is unchanged, and remains at $0.66.</p>\n            ","response":0,"trial_type":"html-button-response","trial_index":32,"time_elapsed":425844,"internal_node_id":"0.0-4.0-1.12","subject_id":"5ed013f88fce6e0d858b732e","study_id":"60edd13110225f80f9f3709b","session_id":"6196c704ba2ac54efa233cdc","condition":"full-information","relevant_dimensions":["antennae","pattern"],"bee_group":{"antennae":"B","wings":"X","pattern":"D","legs":"X"},"bonus":1.660000000000001},{"rt":8054.39999999851,"stimulus":"bees-with-color/bee-B2DM.svg","response":1,"trial_type":"image-button-response","trial_index":33,"time_elapsed":433900,"internal_node_id":"0.0-4.0-0.13","subject_id":"5ed013f88fce6e0d858b732e","study_id":"60edd13110225f80f9f3709b","session_id":"6196c704ba2ac54efa233cdc","condition":"full-information","relevant_dimensions":["antennae","pattern"],"bee_group":{"antennae":"B","wings":"X","pattern":"D","legs":"X"},"action":"avoid","summary":"good-avoid","bonus":1.660000000000001},{"rt":4518.20000000298,"stimulus":"\n                    <p><b>Action: <em>avoid</em></b></p>\n                    <p>This is the bee that you just saw.</p>\n                    <img src=\"bees-with-color/bee-B2DM.svg\" width=\"200\">\n                    <p><span class=\"greenText\">Good choice!</span>  This bee would have stung you.<br>Your bonus pay is unchanged, and remains at $0.66.</p>\n            ","response":0,"trial_type":"html-button-response","trial_index":34,"time_elapsed":438420,"internal_node_id":"0.0-4.0-1.13","subject_id":"5ed013f88fce6e0d858b732e","study_id":"60edd13110225f80f9f3709b","session_id":"6196c704ba2ac54efa233cdc","condition":"full-information","relevant_dimensions":["antennae","pattern"],"bee_group":{"antennae":"B","wings":"X","pattern":"D","legs":"X"},"bonus":1.660000000000001},{"rt":12862.10000000149,"stimulus":"bees-with-color/bee-B2SM.svg","response":1,"trial_type":"image-button-response","trial_index":35,"time_elapsed":451284,"internal_node_id":"0.0-4.0-0.14","subject_id":"5ed013f88fce6e0d858b732e","study_id":"60edd13110225f80f9f3709b","session_id":"6196c704ba2ac54efa233cdc","condition":"full-information","relevant_dimensions":["antennae","pattern"],"bee_group":{"antennae":"B","wings":"X","pattern":"D","legs":"X"},"action":"avoid","summary":"bad-avoid","bonus":1.660000000000001},{"rt":4295,"stimulus":"\n                    <p><b>Action: <em>avoid</em></b></p>\n                    <p>This is the bee that you just saw.</p>\n                    <img src=\"bees-with-color/bee-B2SM.svg\" width=\"200\">\n                    <p><span class=\"redText\">Bad choice,</span> the bee was friendly.<br>Your bonus pay is unchanged, and remains at $0.66.</p>\n            ","response":0,"trial_type":"html-button-response","trial_index":36,"time_elapsed":455580,"internal_node_id":"0.0-4.0-1.14","subject_id":"5ed013f88fce6e0d858b732e","study_id":"60edd13110225f80f9f3709b","session_id":"6196c704ba2ac54efa233cdc","condition":"full-information","relevant_dimensions":["antennae","pattern"],"bee_group":{"antennae":"B","wings":"X","pattern":"D","legs":"X"},"bonus":1.660000000000001},{"rt":15478.20000000298,"stimulus":"bees-with-color/bee-B2SF.svg","response":1,"trial_type":"image-button-response","trial_index":37,"time_elapsed":471060,"internal_node_id":"0.0-4.0-0.15","subject_id":"5ed013f88fce6e0d858b732e","study_id":"60edd13110225f80f9f3709b","session_id":"6196c704ba2ac54efa233cdc","condition":"full-information","relevant_dimensions":["antennae","pattern"],"bee_group":{"antennae":"B","wings":"X","pattern":"D","legs":"X"},"action":"avoid","summary":"bad-avoid","bonus":1.660000000000001},{"rt":3414.5,"stimulus":"\n                    <p><b>Action: <em>avoid</em></b></p>\n                    <p>This is the bee that you just saw.</p>\n                    <img src=\"bees-with-color/bee-B2SF.svg\" width=\"200\">\n                    <p><span class=\"redText\">Bad choice,</span> the bee was friendly.<br>Your bonus pay is unchanged, and remains at $0.66.</p>\n            ","response":0,"trial_type":"html-button-response","trial_index":38,"time_elapsed":474475,"internal_node_id":"0.0-4.0-1.15","subject_id":"5ed013f88fce6e0d858b732e","study_id":"60edd13110225f80f9f3709b","session_id":"6196c704ba2ac54efa233cdc","condition":"full-information","relevant_dimensions":["antennae","pattern"],"bee_group":{"antennae":"B","wings":"X","pattern":"D","legs":"X"},"bonus":1.660000000000001},{"rt":14766.5,"stimulus":"bees-with-color/bee-A1SF.svg","response":0,"trial_type":"image-button-response","trial_index":39,"time_elapsed":489243,"internal_node_id":"0.0-4.0-0.16","subject_id":"5ed013f88fce6e0d858b732e","study_id":"60edd13110225f80f9f3709b","session_id":"6196c704ba2ac54efa233cdc","condition":"full-information","relevant_dimensions":["antennae","pattern"],"bee_group":{"antennae":"B","wings":"X","pattern":"D","legs":"X"},"action":"harvest","summary":"good-harvest","bonus":1.660000000000001},{"rt":1614.4000000059605,"stimulus":"\n                    <p><b>Action: <em>harvest</em></b></p>\n                    <p>This is the bee that you just saw.</p>\n                    <img src=\"bees-with-color/bee-A1SF.svg\" width=\"200\">\n                    <p><span class=\"greenText\"><b>Successful harvest!</b></span><br>Your pay has increased by $0.02. Your bonus pay is now $0.68.</p>\n            ","response":0,"trial_type":"html-button-response","trial_index":40,"time_elapsed":490859,"internal_node_id":"0.0-4.0-1.16","subject_id":"5ed013f88fce6e0d858b732e","study_id":"60edd13110225f80f9f3709b","session_id":"6196c704ba2ac54efa233cdc","condition":"full-information","relevant_dimensions":["antennae","pattern"],"bee_group":{"antennae":"B","wings":"X","pattern":"D","legs":"X"},"bonus":1.660000000000001},{"rt":18190.09999999404,"stimulus":"bees-with-color/bee-A1DM.svg","response":1,"trial_type":"image-button-response","trial_index":41,"time_elapsed":509051,"internal_node_id":"0.0-4.0-0.17","subject_id":"5ed013f88fce6e0d858b732e","study_id":"60edd13110225f80f9f3709b","session_id":"6196c704ba2ac54efa233cdc","condition":"full-information","relevant_dimensions":["antennae","pattern"],"bee_group":{"antennae":"B","wings":"X","pattern":"D","legs":"X"},"action":"avoid","summary":"bad-avoid","bonus":1.660000000000001},{"rt":5086.89999999851,"stimulus":"\n                    <p><b>Action: <em>avoid</em></b></p>\n                    <p>This is the bee that you just saw.</p>\n                    <img src=\"bees-with-color/bee-A1DM.svg\" width=\"200\">\n                    <p><span class=\"redText\">Bad choice,</span> the bee was friendly.<br>Your bonus pay is unchanged, and remains at $0.68.</p>\n            ","response":0,"trial_type":"html-button-response","trial_index":42,"time_elapsed":514139,"internal_node_id":"0.0-4.0-1.17","subject_id":"5ed013f88fce6e0d858b732e","study_id":"60edd13110225f80f9f3709b","session_id":"6196c704ba2ac54efa233cdc","condition":"full-information","relevant_dimensions":["antennae","pattern"],"bee_group":{"antennae":"B","wings":"X","pattern":"D","legs":"X"},"bonus":1.660000000000001},{"rt":13334.39999999851,"stimulus":"bees-with-color/bee-B1DM.svg","response":1,"trial_type":"image-button-response","trial_index":43,"time_elapsed":527475,"internal_node_id":"0.0-4.0-0.18","subject_id":"5ed013f88fce6e0d858b732e","study_id":"60edd13110225f80f9f3709b","session_id":"6196c704ba2ac54efa233cdc","condition":"full-information","relevant_dimensions":["antennae","pattern"],"bee_group":{"antennae":"B","wings":"X","pattern":"D","legs":"X"},"action":"avoid","summary":"good-avoid","bonus":1.660000000000001},{"rt":1582.6999999955297,"stimulus":"\n                    <p><b>Action: <em>avoid</em></b></p>\n                    <p>This is the bee that you just saw.</p>\n                    <img src=\"bees-with-color/bee-B1DM.svg\" width=\"200\">\n                    <p><span class=\"greenText\">Good choice!</span>  This bee would have stung you.<br>Your bonus pay is unchanged, and remains at $0.68.</p>\n            ","response":0,"trial_type":"html-button-response","trial_index":44,"time_elapsed":529059,"internal_node_id":"0.0-4.0-1.18","subject_id":"5ed013f88fce6e0d858b732e","study_id":"60edd13110225f80f9f3709b","session_id":"6196c704ba2ac54efa233cdc","condition":"full-information","relevant_dimensions":["antennae","pattern"],"bee_group":{"antennae":"B","wings":"X","pattern":"D","legs":"X"},"bonus":1.660000000000001},{"rt":20366.10000000149,"stimulus":"bees-with-color/bee-A2SF.svg","response":0,"trial_type":"image-button-response","trial_index":45,"time_elapsed":549426,"internal_node_id":"0.0-4.0-0.19","subject_id":"5ed013f88fce6e0d858b732e","study_id":"60edd13110225f80f9f3709b","session_id":"6196c704ba2ac54efa233cdc","condition":"full-information","relevant_dimensions":["antennae","pattern"],"bee_group":{"antennae":"B","wings":"X","pattern":"D","legs":"X"},"action":"harvest","summary":"good-harvest","bonus":1.660000000000001},{"rt":1399.0999999940395,"stimulus":"\n                    <p><b>Action: <em>harvest</em></b></p>\n                    <p>This is the bee that you just saw.</p>\n                    <img src=\"bees-with-color/bee-A2SF.svg\" width=\"200\">\n                    <p><span class=\"greenText\"><b>Successful harvest!</b></span><br>Your pay has increased by $0.02. Your bonus pay is now $0.70.</p>\n            ","response":0,"trial_type":"html-button-response","trial_index":46,"time_elapsed":550827,"internal_node_id":"0.0-4.0-1.19","subject_id":"5ed013f88fce6e0d858b732e","study_id":"60edd13110225f80f9f3709b","session_id":"6196c704ba2ac54efa233cdc","condition":"full-information","relevant_dimensions":["antennae","pattern"],"bee_group":{"antennae":"B","wings":"X","pattern":"D","legs":"X"},"bonus":1.660000000000001},{"rt":8198.30000000447,"stimulus":"bees-with-color/bee-A2SM.svg","response":0,"trial_type":"image-button-response","trial_index":47,"time_elapsed":559027,"internal_node_id":"0.0-4.0-0.20","subject_id":"5ed013f88fce6e0d858b732e","study_id":"60edd13110225f80f9f3709b","session_id":"6196c704ba2ac54efa233cdc","condition":"full-information","relevant_dimensions":["antennae","pattern"],"bee_group":{"antennae":"B","wings":"X","pattern":"D","legs":"X"},"action":"harvest","summary":"good-harvest","bonus":1.660000000000001},{"rt":838.5,"stimulus":"\n                    <p><b>Action: <em>harvest</em></b></p>\n                    <p>This is the bee that you just saw.</p>\n                    <img src=\"bees-with-color/bee-A2SM.svg\" width=\"200\">\n                    <p><span class=\"greenText\"><b>Successful harvest!</b></span><br>Your pay has increased by $0.02. Your bonus pay is now $0.72.</p>\n            ","response":0,"trial_type":"html-button-response","trial_index":48,"time_elapsed":559867,"internal_node_id":"0.0-4.0-1.20","subject_id":"5ed013f88fce6e0d858b732e","study_id":"60edd13110225f80f9f3709b","session_id":"6196c704ba2ac54efa233cdc","condition":"full-information","relevant_dimensions":["antennae","pattern"],"bee_group":{"antennae":"B","wings":"X","pattern":"D","legs":"X"},"bonus":1.660000000000001},{"rt":11318.29999999702,"stimulus":"bees-with-color/bee-B2DM.svg","response":1,"trial_type":"image-button-response","trial_index":49,"time_elapsed":571186,"internal_node_id":"0.0-4.0-0.21","subject_id":"5ed013f88fce6e0d858b732e","study_id":"60edd13110225f80f9f3709b","session_id":"6196c704ba2ac54efa233cdc","condition":"full-information","relevant_dimensions":["antennae","pattern"],"bee_group":{"antennae":"B","wings":"X","pattern":"D","legs":"X"},"action":"avoid","summary":"good-avoid","bonus":1.660000000000001},{"rt":1142.3000000044703,"stimulus":"\n                    <p><b>Action: <em>avoid</em></b></p>\n                    <p>This is the bee that you just saw.</p>\n                    <img src=\"bees-with-color/bee-B2DM.svg\" width=\"200\">\n                    <p><span class=\"greenText\">Good choice!</span>  This bee would have stung you.<br>Your bonus pay is unchanged, and remains at $0.72.</p>\n            ","response":0,"trial_type":"html-button-response","trial_index":50,"time_elapsed":572330,"internal_node_id":"0.0-4.0-1.21","subject_id":"5ed013f88fce6e0d858b732e","study_id":"60edd13110225f80f9f3709b","session_id":"6196c704ba2ac54efa233cdc","condition":"full-information","relevant_dimensions":["antennae","pattern"],"bee_group":{"antennae":"B","wings":"X","pattern":"D","legs":"X"},"bonus":1.660000000000001},{"rt":10638.29999999702,"stimulus":"bees-with-color/bee-B1SM.svg","response":0,"trial_type":"image-button-response","trial_index":51,"time_elapsed":582970,"internal_node_id":"0.0-4.0-0.22","subject_id":"5ed013f88fce6e0d858b732e","study_id":"60edd13110225f80f9f3709b","session_id":"6196c704ba2ac54efa233cdc","condition":"full-information","relevant_dimensions":["antennae","pattern"],"bee_group":{"antennae":"B","wings":"X","pattern":"D","legs":"X"},"action":"harvest","summary":"good-harvest","bonus":1.660000000000001},{"rt":1374.7000000029802,"stimulus":"\n                    <p><b>Action: <em>harvest</em></b></p>\n                    <p>This is the bee that you just saw.</p>\n                    <img src=\"bees-with-color/bee-B1SM.svg\" width=\"200\">\n                    <p><span class=\"greenText\"><b>Successful harvest!</b></span><br>Your pay has increased by $0.02. Your bonus pay is now $0.74.</p>\n            ","response":0,"trial_type":"html-button-response","trial_index":52,"time_elapsed":584346,"internal_node_id":"0.0-4.0-1.22","subject_id":"5ed013f88fce6e0d858b732e","study_id":"60edd13110225f80f9f3709b","session_id":"6196c704ba2ac54efa233cdc","condition":"full-information","relevant_dimensions":["antennae","pattern"],"bee_group":{"antennae":"B","wings":"X","pattern":"D","legs":"X"},"bonus":1.660000000000001},{"rt":12366.5,"stimulus":"bees-with-color/bee-A1DF.svg","response":0,"trial_type":"image-button-response","trial_index":53,"time_elapsed":596714,"internal_node_id":"0.0-4.0-0.23","subject_id":"5ed013f88fce6e0d858b732e","study_id":"60edd13110225f80f9f3709b","session_id":"6196c704ba2ac54efa233cdc","condition":"full-information","relevant_dimensions":["antennae","pattern"],"bee_group":{"antennae":"B","wings":"X","pattern":"D","legs":"X"},"action":"harvest","summary":"good-harvest","bonus":1.660000000000001},{"rt":998.2999999970198,"stimulus":"\n                    <p><b>Action: <em>harvest</em></b></p>\n                    <p>This is the bee that you just saw.</p>\n                    <img src=\"bees-with-color/bee-A1DF.svg\" width=\"200\">\n                    <p><span class=\"greenText\"><b>Successful harvest!</b></span><br>Your pay has increased by $0.02. Your bonus pay is now $0.76.</p>\n            ","response":0,"trial_type":"html-button-response","trial_index":54,"time_elapsed":597714,"internal_node_id":"0.0-4.0-1.23","subject_id":"5ed013f88fce6e0d858b732e","study_id":"60edd13110225f80f9f3709b","session_id":"6196c704ba2ac54efa233cdc","condition":"full-information","relevant_dimensions":["antennae","pattern"],"bee_group":{"antennae":"B","wings":"X","pattern":"D","legs":"X"},"bonus":1.660000000000001},{"rt":5406.39999999851,"stimulus":"bees-with-color/bee-B2SM.svg","response":0,"trial_type":"image-button-response","trial_index":55,"time_elapsed":603122,"internal_node_id":"0.0-4.0-0.24","subject_id":"5ed013f88fce6e0d858b732e","study_id":"60edd13110225f80f9f3709b","session_id":"6196c704ba2ac54efa233cdc","condition":"full-information","relevant_dimensions":["antennae","pattern"],"bee_group":{"antennae":"B","wings":"X","pattern":"D","legs":"X"},"action":"harvest","summary":"good-harvest","bonus":1.660000000000001},{"rt":1142.4000000059605,"stimulus":"\n                    <p><b>Action: <em>harvest</em></b></p>\n                    <p>This is the bee that you just saw.</p>\n                    <img src=\"bees-with-color/bee-B2SM.svg\" width=\"200\">\n                    <p><span class=\"greenText\"><b>Successful harvest!</b></span><br>Your pay has increased by $0.02. Your bonus pay is now $0.78.</p>\n            ","response":0,"trial_type":"html-button-response","trial_index":56,"time_elapsed":604266,"internal_node_id":"0.0-4.0-1.24","subject_id":"5ed013f88fce6e0d858b732e","study_id":"60edd13110225f80f9f3709b","session_id":"6196c704ba2ac54efa233cdc","condition":"full-information","relevant_dimensions":["antennae","pattern"],"bee_group":{"antennae":"B","wings":"X","pattern":"D","legs":"X"},"bonus":1.660000000000001},{"rt":5102.69999999553,"stimulus":"bees-with-color/bee-B2SF.svg","response":0,"trial_type":"image-button-response","trial_index":57,"time_elapsed":609370,"internal_node_id":"0.0-4.0-0.25","subject_id":"5ed013f88fce6e0d858b732e","study_id":"60edd13110225f80f9f3709b","session_id":"6196c704ba2ac54efa233cdc","condition":"full-information","relevant_dimensions":["antennae","pattern"],"bee_group":{"antennae":"B","wings":"X","pattern":"D","legs":"X"},"action":"harvest","summary":"good-harvest","bonus":1.660000000000001},{"rt":1334.6000000014901,"stimulus":"\n                    <p><b>Action: <em>harvest</em></b></p>\n                    <p>This is the bee that you just saw.</p>\n                    <img src=\"bees-with-color/bee-B2SF.svg\" width=\"200\">\n                    <p><span class=\"greenText\"><b>Successful harvest!</b></span><br>Your pay has increased by $0.02. Your bonus pay is now $0.80.</p>\n            ","response":0,"trial_type":"html-button-response","trial_index":58,"time_elapsed":610706,"internal_node_id":"0.0-4.0-1.25","subject_id":"5ed013f88fce6e0d858b732e","study_id":"60edd13110225f80f9f3709b","session_id":"6196c704ba2ac54efa233cdc","condition":"full-information","relevant_dimensions":["antennae","pattern"],"bee_group":{"antennae":"B","wings":"X","pattern":"D","legs":"X"},"bonus":1.660000000000001},{"rt":26453.89999999851,"stimulus":"bees-with-color/bee-A2DF.svg","response":1,"trial_type":"image-button-response","trial_index":59,"time_elapsed":637162,"internal_node_id":"0.0-4.0-0.26","subject_id":"5ed013f88fce6e0d858b732e","study_id":"60edd13110225f80f9f3709b","session_id":"6196c704ba2ac54efa233cdc","condition":"full-information","relevant_dimensions":["antennae","pattern"],"bee_group":{"antennae":"B","wings":"X","pattern":"D","legs":"X"},"action":"avoid","summary":"bad-avoid","bonus":1.660000000000001},{"rt":3806.5,"stimulus":"\n                    <p><b>Action: <em>avoid</em></b></p>\n                    <p>This is the bee that you just saw.</p>\n                    <img src=\"bees-with-color/bee-A2DF.svg\" width=\"200\">\n                    <p><span class=\"redText\">Bad choice,</span> the bee was friendly.<br>Your bonus pay is unchanged, and remains at $0.80.</p>\n            ","response":0,"trial_type":"html-button-response","trial_index":60,"time_elapsed":640970,"internal_node_id":"0.0-4.0-1.26","subject_id":"5ed013f88fce6e0d858b732e","study_id":"60edd13110225f80f9f3709b","session_id":"6196c704ba2ac54efa233cdc","condition":"full-information","relevant_dimensions":["antennae","pattern"],"bee_group":{"antennae":"B","wings":"X","pattern":"D","legs":"X"},"bonus":1.660000000000001},{"rt":14582.80000000447,"stimulus":"bees-with-color/bee-A1SM.svg","response":0,"trial_type":"image-button-response","trial_index":61,"time_elapsed":655554,"internal_node_id":"0.0-4.0-0.27","subject_id":"5ed013f88fce6e0d858b732e","study_id":"60edd13110225f80f9f3709b","session_id":"6196c704ba2ac54efa233cdc","condition":"full-information","relevant_dimensions":["antennae","pattern"],"bee_group":{"antennae":"B","wings":"X","pattern":"D","legs":"X"},"action":"harvest","summary":"good-harvest","bonus":1.660000000000001},{"rt":1174.3999999985099,"stimulus":"\n                    <p><b>Action: <em>harvest</em></b></p>\n                    <p>This is the bee that you just saw.</p>\n                    <img src=\"bees-with-color/bee-A1SM.svg\" width=\"200\">\n                    <p><span class=\"greenText\"><b>Successful harvest!</b></span><br>Your pay has increased by $0.02. Your bonus pay is now $0.82.</p>\n            ","response":0,"trial_type":"html-button-response","trial_index":62,"time_elapsed":656730,"internal_node_id":"0.0-4.0-1.27","subject_id":"5ed013f88fce6e0d858b732e","study_id":"60edd13110225f80f9f3709b","session_id":"6196c704ba2ac54efa233cdc","condition":"full-information","relevant_dimensions":["antennae","pattern"],"bee_group":{"antennae":"B","wings":"X","pattern":"D","legs":"X"},"bonus":1.660000000000001},{"rt":19821.80000000447,"stimulus":"bees-with-color/bee-B2DF.svg","response":1,"trial_type":"image-button-response","trial_index":63,"time_elapsed":676553,"internal_node_id":"0.0-4.0-0.28","subject_id":"5ed013f88fce6e0d858b732e","study_id":"60edd13110225f80f9f3709b","session_id":"6196c704ba2ac54efa233cdc","condition":"full-information","relevant_dimensions":["antennae","pattern"],"bee_group":{"antennae":"B","wings":"X","pattern":"D","legs":"X"},"action":"avoid","summary":"good-avoid","bonus":1.660000000000001},{"rt":5863.10000000149,"stimulus":"\n                    <p><b>Action: <em>avoid</em></b></p>\n                    <p>This is the bee that you just saw.</p>\n                    <img src=\"bees-with-color/bee-B2DF.svg\" width=\"200\">\n                    <p><span class=\"greenText\">Good choice!</span>  This bee would have stung you.<br>Your bonus pay is unchanged, and remains at $0.82.</p>\n            ","response":0,"trial_type":"html-button-response","trial_index":64,"time_elapsed":682417,"internal_node_id":"0.0-4.0-1.28","subject_id":"5ed013f88fce6e0d858b732e","study_id":"60edd13110225f80f9f3709b","session_id":"6196c704ba2ac54efa233cdc","condition":"full-information","relevant_dimensions":["antennae","pattern"],"bee_group":{"antennae":"B","wings":"X","pattern":"D","legs":"X"},"bonus":1.660000000000001},{"rt":15197.60000000149,"stimulus":"bees-with-color/bee-A2DM.svg","response":0,"trial_type":"image-button-response","trial_index":65,"time_elapsed":697616,"internal_node_id":"0.0-4.0-0.29","subject_id":"5ed013f88fce6e0d858b732e","study_id":"60edd13110225f80f9f3709b","session_id":"6196c704ba2ac54efa233cdc","condition":"full-information","relevant_dimensions":["antennae","pattern"],"bee_group":{"antennae":"B","wings":"X","pattern":"D","legs":"X"},"action":"harvest","summary":"good-harvest","bonus":1.660000000000001},{"rt":1150.8999999985099,"stimulus":"\n                    <p><b>Action: <em>harvest</em></b></p>\n                    <p>This is the bee that you just saw.</p>\n                    <img src=\"bees-with-color/bee-A2DM.svg\" width=\"200\">\n                    <p><span class=\"greenText\"><b>Successful harvest!</b></span><br>Your pay has increased by $0.02. Your bonus pay is now $0.84.</p>\n            ","response":0,"trial_type":"html-button-response","trial_index":66,"time_elapsed":698768,"internal_node_id":"0.0-4.0-1.29","subject_id":"5ed013f88fce6e0d858b732e","study_id":"60edd13110225f80f9f3709b","session_id":"6196c704ba2ac54efa233cdc","condition":"full-information","relevant_dimensions":["antennae","pattern"],"bee_group":{"antennae":"B","wings":"X","pattern":"D","legs":"X"},"bonus":1.660000000000001},{"rt":22102.10000000149,"stimulus":"bees-with-color/bee-B1DF.svg","response":1,"trial_type":"image-button-response","trial_index":67,"time_elapsed":720872,"internal_node_id":"0.0-4.0-0.30","subject_id":"5ed013f88fce6e0d858b732e","study_id":"60edd13110225f80f9f3709b","session_id":"6196c704ba2ac54efa233cdc","condition":"full-information","relevant_dimensions":["antennae","pattern"],"bee_group":{"antennae":"B","wings":"X","pattern":"D","legs":"X"},"action":"avoid","summary":"good-avoid","bonus":1.660000000000001},{"rt":3070.3000000044703,"stimulus":"\n                    <p><b>Action: <em>avoid</em></b></p>\n                    <p>This is the bee that you just saw.</p>\n                    <img src=\"bees-with-color/bee-B1DF.svg\" width=\"200\">\n                    <p><span class=\"greenText\">Good choice!</span>  This bee would have stung you.<br>Your bonus pay is unchanged, and remains at $0.84.</p>\n            ","response":0,"trial_type":"html-button-response","trial_index":68,"time_elapsed":723944,"internal_node_id":"0.0-4.0-1.30","subject_id":"5ed013f88fce6e0d858b732e","study_id":"60edd13110225f80f9f3709b","session_id":"6196c704ba2ac54efa233cdc","condition":"full-information","relevant_dimensions":["antennae","pattern"],"bee_group":{"antennae":"B","wings":"X","pattern":"D","legs":"X"},"bonus":1.660000000000001},{"rt":21493.89999999851,"stimulus":"bees-with-color/bee-B1SF.svg","response":1,"trial_type":"image-button-response","trial_index":69,"time_elapsed":745440,"internal_node_id":"0.0-4.0-0.31","subject_id":"5ed013f88fce6e0d858b732e","study_id":"60edd13110225f80f9f3709b","session_id":"6196c704ba2ac54efa233cdc","condition":"full-information","relevant_dimensions":["antennae","pattern"],"bee_group":{"antennae":"B","wings":"X","pattern":"D","legs":"X"},"action":"avoid","summary":"bad-avoid","bonus":1.660000000000001},{"rt":2774.9000000059605,"stimulus":"\n                    <p><b>Action: <em>avoid</em></b></p>\n                    <p>This is the bee that you just saw.</p>\n                    <img src=\"bees-with-color/bee-B1SF.svg\" width=\"200\">\n                    <p><span class=\"redText\">Bad choice,</span> the bee was friendly.<br>Your bonus pay is unchanged, and remains at $0.84.</p>\n            ","response":0,"trial_type":"html-button-response","trial_index":70,"time_elapsed":748216,"internal_node_id":"0.0-4.0-1.31","subject_id":"5ed013f88fce6e0d858b732e","study_id":"60edd13110225f80f9f3709b","session_id":"6196c704ba2ac54efa233cdc","condition":"full-information","relevant_dimensions":["antennae","pattern"],"bee_group":{"antennae":"B","wings":"X","pattern":"D","legs":"X"},"bonus":1.660000000000001},{"rt":7853.80000000447,"stimulus":"bees-with-color/bee-A1DM.svg","response":0,"trial_type":"image-button-response","trial_index":71,"time_elapsed":756071,"internal_node_id":"0.0-4.0-0.32","subject_id":"5ed013f88fce6e0d858b732e","study_id":"60edd13110225f80f9f3709b","session_id":"6196c704ba2ac54efa233cdc","condition":"full-information","relevant_dimensions":["antennae","pattern"],"bee_group":{"antennae":"B","wings":"X","pattern":"D","legs":"X"},"action":"harvest","summary":"good-harvest","bonus":1.660000000000001},{"rt":1119,"stimulus":"\n                    <p><b>Action: <em>harvest</em></b></p>\n                    <p>This is the bee that you just saw.</p>\n                    <img src=\"bees-with-color/bee-A1DM.svg\" width=\"200\">\n                    <p><span class=\"greenText\"><b>Successful harvest!</b></span><br>Your pay has increased by $0.02. Your bonus pay is now $0.86.</p>\n            ","response":0,"trial_type":"html-button-response","trial_index":72,"time_elapsed":757192,"internal_node_id":"0.0-4.0-1.32","subject_id":"5ed013f88fce6e0d858b732e","study_id":"60edd13110225f80f9f3709b","session_id":"6196c704ba2ac54efa233cdc","condition":"full-information","relevant_dimensions":["antennae","pattern"],"bee_group":{"antennae":"B","wings":"X","pattern":"D","legs":"X"},"bonus":1.660000000000001},{"rt":6054,"stimulus":"bees-with-color/bee-B2DF.svg","response":1,"trial_type":"image-button-response","trial_index":73,"time_elapsed":763248,"internal_node_id":"0.0-4.0-0.33","subject_id":"5ed013f88fce6e0d858b732e","study_id":"60edd13110225f80f9f3709b","session_id":"6196c704ba2ac54efa233cdc","condition":"full-information","relevant_dimensions":["antennae","pattern"],"bee_group":{"antennae":"B","wings":"X","pattern":"D","legs":"X"},"action":"avoid","summary":"good-avoid","bonus":1.660000000000001},{"rt":878.2000000029802,"stimulus":"\n                    <p><b>Action: <em>avoid</em></b></p>\n                    <p>This is the bee that you just saw.</p>\n                    <img src=\"bees-with-color/bee-B2DF.svg\" width=\"200\">\n                    <p><span class=\"greenText\">Good choice!</span>  This bee would have stung you.<br>Your bonus pay is unchanged, and remains at $0.86.</p>\n            ","response":0,"trial_type":"html-button-response","trial_index":74,"time_elapsed":764127,"internal_node_id":"0.0-4.0-1.33","subject_id":"5ed013f88fce6e0d858b732e","study_id":"60edd13110225f80f9f3709b","session_id":"6196c704ba2ac54efa233cdc","condition":"full-information","relevant_dimensions":["antennae","pattern"],"bee_group":{"antennae":"B","wings":"X","pattern":"D","legs":"X"},"bonus":1.660000000000001},{"rt":14822.20000000298,"stimulus":"bees-with-color/bee-A2SM.svg","response":0,"trial_type":"image-button-response","trial_index":75,"time_elapsed":778951,"internal_node_id":"0.0-4.0-0.34","subject_id":"5ed013f88fce6e0d858b732e","study_id":"60edd13110225f80f9f3709b","session_id":"6196c704ba2ac54efa233cdc","condition":"full-information","relevant_dimensions":["antennae","pattern"],"bee_group":{"antennae":"B","wings":"X","pattern":"D","legs":"X"},"action":"harvest","summary":"good-harvest","bonus":1.660000000000001},{"rt":966.5,"stimulus":"\n                    <p><b>Action: <em>harvest</em></b></p>\n                    <p>This is the bee that you just saw.</p>\n                    <img src=\"bees-with-color/bee-A2SM.svg\" width=\"200\">\n                    <p><span class=\"greenText\"><b>Successful harvest!</b></span><br>Your pay has increased by $0.02. Your bonus pay is now $0.88.</p>\n            ","response":0,"trial_type":"html-button-response","trial_index":76,"time_elapsed":779919,"internal_node_id":"0.0-4.0-1.34","subject_id":"5ed013f88fce6e0d858b732e","study_id":"60edd13110225f80f9f3709b","session_id":"6196c704ba2ac54efa233cdc","condition":"full-information","relevant_dimensions":["antennae","pattern"],"bee_group":{"antennae":"B","wings":"X","pattern":"D","legs":"X"},"bonus":1.660000000000001},{"rt":12357.89999999851,"stimulus":"bees-with-color/bee-B2DM.svg","response":1,"trial_type":"image-button-response","trial_index":77,"time_elapsed":792279,"internal_node_id":"0.0-4.0-0.35","subject_id":"5ed013f88fce6e0d858b732e","study_id":"60edd13110225f80f9f3709b","session_id":"6196c704ba2ac54efa233cdc","condition":"full-information","relevant_dimensions":["antennae","pattern"],"bee_group":{"antennae":"B","wings":"X","pattern":"D","legs":"X"},"action":"avoid","summary":"good-avoid","bonus":1.660000000000001},{"rt":982.6999999955297,"stimulus":"\n                    <p><b>Action: <em>avoid</em></b></p>\n                    <p>This is the bee that you just saw.</p>\n                    <img src=\"bees-with-color/bee-B2DM.svg\" width=\"200\">\n                    <p><span class=\"greenText\">Good choice!</span>  This bee would have stung you.<br>Your bonus pay is unchanged, and remains at $0.88.</p>\n            ","response":0,"trial_type":"html-button-response","trial_index":78,"time_elapsed":793263,"internal_node_id":"0.0-4.0-1.35","subject_id":"5ed013f88fce6e0d858b732e","study_id":"60edd13110225f80f9f3709b","session_id":"6196c704ba2ac54efa233cdc","condition":"full-information","relevant_dimensions":["antennae","pattern"],"bee_group":{"antennae":"B","wings":"X","pattern":"D","legs":"X"},"bonus":1.660000000000001},{"rt":20901.69999999553,"stimulus":"bees-with-color/bee-A2SF.svg","response":0,"trial_type":"image-button-response","trial_index":79,"time_elapsed":814167,"internal_node_id":"0.0-4.0-0.36","subject_id":"5ed013f88fce6e0d858b732e","study_id":"60edd13110225f80f9f3709b","session_id":"6196c704ba2ac54efa233cdc","condition":"full-information","relevant_dimensions":["antennae","pattern"],"bee_group":{"antennae":"B","wings":"X","pattern":"D","legs":"X"},"action":"harvest","summary":"good-harvest","bonus":1.660000000000001},{"rt":574.5,"stimulus":"\n                    <p><b>Action: <em>harvest</em></b></p>\n                    <p>This is the bee that you just saw.</p>\n                    <img src=\"bees-with-color/bee-A2SF.svg\" width=\"200\">\n                    <p><span class=\"greenText\"><b>Successful harvest!</b></span><br>Your pay has increased by $0.02. Your bonus pay is now $0.90.</p>\n            ","response":0,"trial_type":"html-button-response","trial_index":80,"time_elapsed":814743,"internal_node_id":"0.0-4.0-1.36","subject_id":"5ed013f88fce6e0d858b732e","study_id":"60edd13110225f80f9f3709b","session_id":"6196c704ba2ac54efa233cdc","condition":"full-information","relevant_dimensions":["antennae","pattern"],"bee_group":{"antennae":"B","wings":"X","pattern":"D","legs":"X"},"bonus":1.660000000000001},{"rt":10590.40000000596,"stimulus":"bees-with-color/bee-B1SM.svg","response":0,"trial_type":"image-button-response","trial_index":81,"time_elapsed":825335,"internal_node_id":"0.0-4.0-0.37","subject_id":"5ed013f88fce6e0d858b732e","study_id":"60edd13110225f80f9f3709b","session_id":"6196c704ba2ac54efa233cdc","condition":"full-information","relevant_dimensions":["antennae","pattern"],"bee_group":{"antennae":"B","wings":"X","pattern":"D","legs":"X"},"action":"harvest","summary":"good-harvest","bonus":1.660000000000001},{"rt":1142.6000000014901,"stimulus":"\n                    <p><b>Action: <em>harvest</em></b></p>\n                    <p>This is the bee that you just saw.</p>\n                    <img src=\"bees-with-color/bee-B1SM.svg\" width=\"200\">\n                    <p><span class=\"greenText\"><b>Successful harvest!</b></span><br>Your pay has increased by $0.02. Your bonus pay is now $0.92.</p>\n            ","response":0,"trial_type":"html-button-response","trial_index":82,"time_elapsed":826479,"internal_node_id":"0.0-4.0-1.37","subject_id":"5ed013f88fce6e0d858b732e","study_id":"60edd13110225f80f9f3709b","session_id":"6196c704ba2ac54efa233cdc","condition":"full-information","relevant_dimensions":["antennae","pattern"],"bee_group":{"antennae":"B","wings":"X","pattern":"D","legs":"X"},"bonus":1.660000000000001},{"rt":13366,"stimulus":"bees-with-color/bee-B1SF.svg","response":0,"trial_type":"image-button-response","trial_index":83,"time_elapsed":839847,"internal_node_id":"0.0-4.0-0.38","subject_id":"5ed013f88fce6e0d858b732e","study_id":"60edd13110225f80f9f3709b","session_id":"6196c704ba2ac54efa233cdc","condition":"full-information","relevant_dimensions":["antennae","pattern"],"bee_group":{"antennae":"B","wings":"X","pattern":"D","legs":"X"},"action":"harvest","summary":"good-harvest","bonus":1.660000000000001},{"rt":910.5,"stimulus":"\n                    <p><b>Action: <em>harvest</em></b></p>\n                    <p>This is the bee that you just saw.</p>\n                    <img src=\"bees-with-color/bee-B1SF.svg\" width=\"200\">\n                    <p><span class=\"greenText\"><b>Successful harvest!</b></span><br>Your pay has increased by $0.02. Your bonus pay is now $0.94.</p>\n            ","response":0,"trial_type":"html-button-response","trial_index":84,"time_elapsed":840759,"internal_node_id":"0.0-4.0-1.38","subject_id":"5ed013f88fce6e0d858b732e","study_id":"60edd13110225f80f9f3709b","session_id":"6196c704ba2ac54efa233cdc","condition":"full-information","relevant_dimensions":["antennae","pattern"],"bee_group":{"antennae":"B","wings":"X","pattern":"D","legs":"X"},"bonus":1.660000000000001},{"rt":9982,"stimulus":"bees-with-color/bee-B2SM.svg","response":0,"trial_type":"image-button-response","trial_index":85,"time_elapsed":850743,"internal_node_id":"0.0-4.0-0.39","subject_id":"5ed013f88fce6e0d858b732e","study_id":"60edd13110225f80f9f3709b","session_id":"6196c704ba2ac54efa233cdc","condition":"full-information","relevant_dimensions":["antennae","pattern"],"bee_group":{"antennae":"B","wings":"X","pattern":"D","legs":"X"},"action":"harvest","summary":"good-harvest","bonus":1.660000000000001},{"rt":710.1000000014901,"stimulus":"\n                    <p><b>Action: <em>harvest</em></b></p>\n                    <p>This is the bee that you just saw.</p>\n                    <img src=\"bees-with-color/bee-B2SM.svg\" width=\"200\">\n                    <p><span class=\"greenText\"><b>Successful harvest!</b></span><br>Your pay has increased by $0.02. Your bonus pay is now $0.96.</p>\n            ","response":0,"trial_type":"html-button-response","trial_index":86,"time_elapsed":851454,"internal_node_id":"0.0-4.0-1.39","subject_id":"5ed013f88fce6e0d858b732e","study_id":"60edd13110225f80f9f3709b","session_id":"6196c704ba2ac54efa233cdc","condition":"full-information","relevant_dimensions":["antennae","pattern"],"bee_group":{"antennae":"B","wings":"X","pattern":"D","legs":"X"},"bonus":1.660000000000001},{"rt":9686.40000000596,"stimulus":"bees-with-color/bee-A1SM.svg","response":0,"trial_type":"image-button-response","trial_index":87,"time_elapsed":861143,"internal_node_id":"0.0-4.0-0.40","subject_id":"5ed013f88fce6e0d858b732e","study_id":"60edd13110225f80f9f3709b","session_id":"6196c704ba2ac54efa233cdc","condition":"full-information","relevant_dimensions":["antennae","pattern"],"bee_group":{"antennae":"B","wings":"X","pattern":"D","legs":"X"},"action":"harvest","summary":"good-harvest","bonus":1.660000000000001},{"rt":1262.5999999940395,"stimulus":"\n                    <p><b>Action: <em>harvest</em></b></p>\n                    <p>This is the bee that you just saw.</p>\n                    <img src=\"bees-with-color/bee-A1SM.svg\" width=\"200\">\n                    <p><span class=\"greenText\"><b>Successful harvest!</b></span><br>Your pay has increased by $0.02. Your bonus pay is now $0.98.</p>\n            ","response":0,"trial_type":"html-button-response","trial_index":88,"time_elapsed":862407,"internal_node_id":"0.0-4.0-1.40","subject_id":"5ed013f88fce6e0d858b732e","study_id":"60edd13110225f80f9f3709b","session_id":"6196c704ba2ac54efa233cdc","condition":"full-information","relevant_dimensions":["antennae","pattern"],"bee_group":{"antennae":"B","wings":"X","pattern":"D","legs":"X"},"bonus":1.660000000000001},{"rt":14893.60000000149,"stimulus":"bees-with-color/bee-A1DF.svg","response":0,"trial_type":"image-button-response","trial_index":89,"time_elapsed":877303,"internal_node_id":"0.0-4.0-0.41","subject_id":"5ed013f88fce6e0d858b732e","study_id":"60edd13110225f80f9f3709b","session_id":"6196c704ba2ac54efa233cdc","condition":"full-information","relevant_dimensions":["antennae","pattern"],"bee_group":{"antennae":"B","wings":"X","pattern":"D","legs":"X"},"action":"harvest","summary":"good-harvest","bonus":1.660000000000001},{"rt":814,"stimulus":"\n                    <p><b>Action: <em>harvest</em></b></p>\n                    <p>This is the bee that you just saw.</p>\n                    <img src=\"bees-with-color/bee-A1DF.svg\" width=\"200\">\n                    <p><span class=\"greenText\"><b>Successful harvest!</b></span><br>Your pay has increased by $0.02. Your bonus pay is now $1.00.</p>\n            ","response":0,"trial_type":"html-button-response","trial_index":90,"time_elapsed":878119,"internal_node_id":"0.0-4.0-1.41","subject_id":"5ed013f88fce6e0d858b732e","study_id":"60edd13110225f80f9f3709b","session_id":"6196c704ba2ac54efa233cdc","condition":"full-information","relevant_dimensions":["antennae","pattern"],"bee_group":{"antennae":"B","wings":"X","pattern":"D","legs":"X"},"bonus":1.660000000000001},{"rt":19157.89999999851,"stimulus":"bees-with-color/bee-A1SF.svg","response":0,"trial_type":"image-button-response","trial_index":91,"time_elapsed":897278,"internal_node_id":"0.0-4.0-0.42","subject_id":"5ed013f88fce6e0d858b732e","study_id":"60edd13110225f80f9f3709b","session_id":"6196c704ba2ac54efa233cdc","condition":"full-information","relevant_dimensions":["antennae","pattern"],"bee_group":{"antennae":"B","wings":"X","pattern":"D","legs":"X"},"action":"harvest","summary":"good-harvest","bonus":1.660000000000001},{"rt":766.1000000014901,"stimulus":"\n                    <p><b>Action: <em>harvest</em></b></p>\n                    <p>This is the bee that you just saw.</p>\n                    <img src=\"bees-with-color/bee-A1SF.svg\" width=\"200\">\n                    <p><span class=\"greenText\"><b>Successful harvest!</b></span><br>Your pay has increased by $0.02. Your bonus pay is now $1.02.</p>\n            ","response":0,"trial_type":"html-button-response","trial_index":92,"time_elapsed":898046,"internal_node_id":"0.0-4.0-1.42","subject_id":"5ed013f88fce6e0d858b732e","study_id":"60edd13110225f80f9f3709b","session_id":"6196c704ba2ac54efa233cdc","condition":"full-information","relevant_dimensions":["antennae","pattern"],"bee_group":{"antennae":"B","wings":"X","pattern":"D","legs":"X"},"bonus":1.660000000000001},{"rt":7342,"stimulus":"bees-with-color/bee-A2DM.svg","response":0,"trial_type":"image-button-response","trial_index":93,"time_elapsed":905390,"internal_node_id":"0.0-4.0-0.43","subject_id":"5ed013f88fce6e0d858b732e","study_id":"60edd13110225f80f9f3709b","session_id":"6196c704ba2ac54efa233cdc","condition":"full-information","relevant_dimensions":["antennae","pattern"],"bee_group":{"antennae":"B","wings":"X","pattern":"D","legs":"X"},"action":"harvest","summary":"good-harvest","bonus":1.660000000000001},{"rt":838,"stimulus":"\n                    <p><b>Action: <em>harvest</em></b></p>\n                    <p>This is the bee that you just saw.</p>\n                    <img src=\"bees-with-color/bee-A2DM.svg\" width=\"200\">\n                    <p><span class=\"greenText\"><b>Successful harvest!</b></span><br>Your pay has increased by $0.02. Your bonus pay is now $1.04.</p>\n            ","response":0,"trial_type":"html-button-response","trial_index":94,"time_elapsed":906230,"internal_node_id":"0.0-4.0-1.43","subject_id":"5ed013f88fce6e0d858b732e","study_id":"60edd13110225f80f9f3709b","session_id":"6196c704ba2ac54efa233cdc","condition":"full-information","relevant_dimensions":["antennae","pattern"],"bee_group":{"antennae":"B","wings":"X","pattern":"D","legs":"X"},"bonus":1.660000000000001},{"rt":20005.70000000298,"stimulus":"bees-with-color/bee-A2DF.svg","response":0,"trial_type":"image-button-response","trial_index":95,"time_elapsed":926237,"internal_node_id":"0.0-4.0-0.44","subject_id":"5ed013f88fce6e0d858b732e","study_id":"60edd13110225f80f9f3709b","session_id":"6196c704ba2ac54efa233cdc","condition":"full-information","relevant_dimensions":["antennae","pattern"],"bee_group":{"antennae":"B","wings":"X","pattern":"D","legs":"X"},"action":"harvest","summary":"good-harvest","bonus":1.660000000000001},{"rt":790.9000000059605,"stimulus":"\n                    <p><b>Action: <em>harvest</em></b></p>\n                    <p>This is the bee that you just saw.</p>\n                    <img src=\"bees-with-color/bee-A2DF.svg\" width=\"200\">\n                    <p><span class=\"greenText\"><b>Successful harvest!</b></span><br>Your pay has increased by $0.02. Your bonus pay is now $1.06.</p>\n            ","response":0,"trial_type":"html-button-response","trial_index":96,"time_elapsed":927030,"internal_node_id":"0.0-4.0-1.44","subject_id":"5ed013f88fce6e0d858b732e","study_id":"60edd13110225f80f9f3709b","session_id":"6196c704ba2ac54efa233cdc","condition":"full-information","relevant_dimensions":["antennae","pattern"],"bee_group":{"antennae":"B","wings":"X","pattern":"D","legs":"X"},"bonus":1.660000000000001},{"rt":11238.19999999553,"stimulus":"bees-with-color/bee-B2SF.svg","response":0,"trial_type":"image-button-response","trial_index":97,"time_elapsed":938269,"internal_node_id":"0.0-4.0-0.45","subject_id":"5ed013f88fce6e0d858b732e","study_id":"60edd13110225f80f9f3709b","session_id":"6196c704ba2ac54efa233cdc","condition":"full-information","relevant_dimensions":["antennae","pattern"],"bee_group":{"antennae":"B","wings":"X","pattern":"D","legs":"X"},"action":"harvest","summary":"good-harvest","bonus":1.660000000000001},{"rt":551.1999999955297,"stimulus":"\n                    <p><b>Action: <em>harvest</em></b></p>\n                    <p>This is the bee that you just saw.</p>\n                    <img src=\"bees-with-color/bee-B2SF.svg\" width=\"200\">\n                    <p><span class=\"greenText\"><b>Successful harvest!</b></span><br>Your pay has increased by $0.02. Your bonus pay is now $1.08.</p>\n            ","response":0,"trial_type":"html-button-response","trial_index":98,"time_elapsed":938821,"internal_node_id":"0.0-4.0-1.45","subject_id":"5ed013f88fce6e0d858b732e","study_id":"60edd13110225f80f9f3709b","session_id":"6196c704ba2ac54efa233cdc","condition":"full-information","relevant_dimensions":["antennae","pattern"],"bee_group":{"antennae":"B","wings":"X","pattern":"D","legs":"X"},"bonus":1.660000000000001},{"rt":9014.10000000149,"stimulus":"bees-with-color/bee-B1DM.svg","response":1,"trial_type":"image-button-response","trial_index":99,"time_elapsed":947837,"internal_node_id":"0.0-4.0-0.46","subject_id":"5ed013f88fce6e0d858b732e","study_id":"60edd13110225f80f9f3709b","session_id":"6196c704ba2ac54efa233cdc","condition":"full-information","relevant_dimensions":["antennae","pattern"],"bee_group":{"antennae":"B","wings":"X","pattern":"D","legs":"X"},"action":"avoid","summary":"good-avoid","bonus":1.660000000000001},{"rt":710.5999999940395,"stimulus":"\n                    <p><b>Action: <em>avoid</em></b></p>\n                    <p>This is the bee that you just saw.</p>\n                    <img src=\"bees-with-color/bee-B1DM.svg\" width=\"200\">\n                    <p><span class=\"greenText\">Good choice!</span>  This bee would have stung you.<br>Your bonus pay is unchanged, and remains at $1.08.</p>\n            ","response":0,"trial_type":"html-button-response","trial_index":100,"time_elapsed":948549,"internal_node_id":"0.0-4.0-1.46","subject_id":"5ed013f88fce6e0d858b732e","study_id":"60edd13110225f80f9f3709b","session_id":"6196c704ba2ac54efa233cdc","condition":"full-information","relevant_dimensions":["antennae","pattern"],"bee_group":{"antennae":"B","wings":"X","pattern":"D","legs":"X"},"bonus":1.660000000000001},{"rt":23222.10000000149,"stimulus":"bees-with-color/bee-B1DF.svg","response":1,"trial_type":"image-button-response","trial_index":101,"time_elapsed":971773,"internal_node_id":"0.0-4.0-0.47","subject_id":"5ed013f88fce6e0d858b732e","study_id":"60edd13110225f80f9f3709b","session_id":"6196c704ba2ac54efa233cdc","condition":"full-information","relevant_dimensions":["antennae","pattern"],"bee_group":{"antennae":"B","wings":"X","pattern":"D","legs":"X"},"action":"avoid","summary":"good-avoid","bonus":1.660000000000001},{"rt":5910.60000000149,"stimulus":"\n                    <p><b>Action: <em>avoid</em></b></p>\n                    <p>This is the bee that you just saw.</p>\n                    <img src=\"bees-with-color/bee-B1DF.svg\" width=\"200\">\n                    <p><span class=\"greenText\">Good choice!</span>  This bee would have stung you.<br>Your bonus pay is unchanged, and remains at $1.08.</p>\n            ","response":0,"trial_type":"html-button-response","trial_index":102,"time_elapsed":977684,"internal_node_id":"0.0-4.0-1.47","subject_id":"5ed013f88fce6e0d858b732e","study_id":"60edd13110225f80f9f3709b","session_id":"6196c704ba2ac54efa233cdc","condition":"full-information","relevant_dimensions":["antennae","pattern"],"bee_group":{"antennae":"B","wings":"X","pattern":"D","legs":"X"},"bonus":1.660000000000001},{"rt":4310.5,"stimulus":"bees-with-color/bee-B1SF.svg","response":0,"trial_type":"image-button-response","trial_index":103,"time_elapsed":981997,"internal_node_id":"0.0-4.0-0.48","subject_id":"5ed013f88fce6e0d858b732e","study_id":"60edd13110225f80f9f3709b","session_id":"6196c704ba2ac54efa233cdc","condition":"full-information","relevant_dimensions":["antennae","pattern"],"bee_group":{"antennae":"B","wings":"X","pattern":"D","legs":"X"},"action":"harvest","summary":"good-harvest","bonus":1.660000000000001},{"rt":703,"stimulus":"\n                    <p><b>Action: <em>harvest</em></b></p>\n                    <p>This is the bee that you just saw.</p>\n                    <img src=\"bees-with-color/bee-B1SF.svg\" width=\"200\">\n                    <p><span class=\"greenText\"><b>Successful harvest!</b></span><br>Your pay has increased by $0.02. Your bonus pay is now $1.10.</p>\n            ","response":0,"trial_type":"html-button-response","trial_index":104,"time_elapsed":982701,"internal_node_id":"0.0-4.0-1.48","subject_id":"5ed013f88fce6e0d858b732e","study_id":"60edd13110225f80f9f3709b","session_id":"6196c704ba2ac54efa233cdc","condition":"full-information","relevant_dimensions":["antennae","pattern"],"bee_group":{"antennae":"B","wings":"X","pattern":"D","legs":"X"},"bonus":1.660000000000001},{"rt":11421.90000000596,"stimulus":"bees-with-color/bee-B1DM.svg","response":1,"trial_type":"image-button-response","trial_index":105,"time_elapsed":994124,"internal_node_id":"0.0-4.0-0.49","subject_id":"5ed013f88fce6e0d858b732e","study_id":"60edd13110225f80f9f3709b","session_id":"6196c704ba2ac54efa233cdc","condition":"full-information","relevant_dimensions":["antennae","pattern"],"bee_group":{"antennae":"B","wings":"X","pattern":"D","legs":"X"},"action":"avoid","summary":"good-avoid","bonus":1.660000000000001},{"rt":598.8999999985099,"stimulus":"\n                    <p><b>Action: <em>avoid</em></b></p>\n                    <p>This is the bee that you just saw.</p>\n                    <img src=\"bees-with-color/bee-B1DM.svg\" width=\"200\">\n                    <p><span class=\"greenText\">Good choice!</span>  This bee would have stung you.<br>Your bonus pay is unchanged, and remains at $1.10.</p>\n            ","response":0,"trial_type":"html-button-response","trial_index":106,"time_elapsed":994725,"internal_node_id":"0.0-4.0-1.49","subject_id":"5ed013f88fce6e0d858b732e","study_id":"60edd13110225f80f9f3709b","session_id":"6196c704ba2ac54efa233cdc","condition":"full-information","relevant_dimensions":["antennae","pattern"],"bee_group":{"antennae":"B","wings":"X","pattern":"D","legs":"X"},"bonus":1.660000000000001},{"rt":8774.09999999404,"stimulus":"bees-with-color/bee-A2SF.svg","response":0,"trial_type":"image-button-response","trial_index":107,"time_elapsed":1003501,"internal_node_id":"0.0-4.0-0.50","subject_id":"5ed013f88fce6e0d858b732e","study_id":"60edd13110225f80f9f3709b","session_id":"6196c704ba2ac54efa233cdc","condition":"full-information","relevant_dimensions":["antennae","pattern"],"bee_group":{"antennae":"B","wings":"X","pattern":"D","legs":"X"},"action":"harvest","summary":"good-harvest","bonus":1.660000000000001},{"rt":470.3999999985099,"stimulus":"\n                    <p><b>Action: <em>harvest</em></b></p>\n                    <p>This is the bee that you just saw.</p>\n                    <img src=\"bees-with-color/bee-A2SF.svg\" width=\"200\">\n                    <p><span class=\"greenText\"><b>Successful harvest!</b></span><br>Your pay has increased by $0.02. Your bonus pay is now $1.12.</p>\n            ","response":0,"trial_type":"html-button-response","trial_index":108,"time_elapsed":1003973,"internal_node_id":"0.0-4.0-1.50","subject_id":"5ed013f88fce6e0d858b732e","study_id":"60edd13110225f80f9f3709b","session_id":"6196c704ba2ac54efa233cdc","condition":"full-information","relevant_dimensions":["antennae","pattern"],"bee_group":{"antennae":"B","wings":"X","pattern":"D","legs":"X"},"bonus":1.660000000000001},{"rt":13414.40000000596,"stimulus":"bees-with-color/bee-B2SM.svg","response":0,"trial_type":"image-button-response","trial_index":109,"time_elapsed":1017389,"internal_node_id":"0.0-4.0-0.51","subject_id":"5ed013f88fce6e0d858b732e","study_id":"60edd13110225f80f9f3709b","session_id":"6196c704ba2ac54efa233cdc","condition":"full-information","relevant_dimensions":["antennae","pattern"],"bee_group":{"antennae":"B","wings":"X","pattern":"D","legs":"X"},"action":"harvest","summary":"good-harvest","bonus":1.660000000000001},{"rt":822.5,"stimulus":"\n                    <p><b>Action: <em>harvest</em></b></p>\n                    <p>This is the bee that you just saw.</p>\n                    <img src=\"bees-with-color/bee-B2SM.svg\" width=\"200\">\n                    <p><span class=\"greenText\"><b>Successful harvest!</b></span><br>Your pay has increased by $0.02. Your bonus pay is now $1.14.</p>\n            ","response":0,"trial_type":"html-button-response","trial_index":110,"time_elapsed":1018213,"internal_node_id":"0.0-4.0-1.51","subject_id":"5ed013f88fce6e0d858b732e","study_id":"60edd13110225f80f9f3709b","session_id":"6196c704ba2ac54efa233cdc","condition":"full-information","relevant_dimensions":["antennae","pattern"],"bee_group":{"antennae":"B","wings":"X","pattern":"D","legs":"X"},"bonus":1.660000000000001},{"rt":11053.90000000596,"stimulus":"bees-with-color/bee-A2SM.svg","response":0,"trial_type":"image-button-response","trial_index":111,"time_elapsed":1029268,"internal_node_id":"0.0-4.0-0.52","subject_id":"5ed013f88fce6e0d858b732e","study_id":"60edd13110225f80f9f3709b","session_id":"6196c704ba2ac54efa233cdc","condition":"full-information","relevant_dimensions":["antennae","pattern"],"bee_group":{"antennae":"B","wings":"X","pattern":"D","legs":"X"},"action":"harvest","summary":"good-harvest","bonus":1.660000000000001},{"rt":574.5999999940395,"stimulus":"\n                    <p><b>Action: <em>harvest</em></b></p>\n                    <p>This is the bee that you just saw.</p>\n                    <img src=\"bees-with-color/bee-A2SM.svg\" width=\"200\">\n                    <p><span class=\"greenText\"><b>Successful harvest!</b></span><br>Your pay has increased by $0.02. Your bonus pay is now $1.16.</p>\n            ","response":0,"trial_type":"html-button-response","trial_index":112,"time_elapsed":1029844,"internal_node_id":"0.0-4.0-1.52","subject_id":"5ed013f88fce6e0d858b732e","study_id":"60edd13110225f80f9f3709b","session_id":"6196c704ba2ac54efa233cdc","condition":"full-information","relevant_dimensions":["antennae","pattern"],"bee_group":{"antennae":"B","wings":"X","pattern":"D","legs":"X"},"bonus":1.660000000000001},{"rt":18494.10000000149,"stimulus":"bees-with-color/bee-A1DM.svg","response":0,"trial_type":"image-button-response","trial_index":113,"time_elapsed":1048340,"internal_node_id":"0.0-4.0-0.53","subject_id":"5ed013f88fce6e0d858b732e","study_id":"60edd13110225f80f9f3709b","session_id":"6196c704ba2ac54efa233cdc","condition":"full-information","relevant_dimensions":["antennae","pattern"],"bee_group":{"antennae":"B","wings":"X","pattern":"D","legs":"X"},"action":"harvest","summary":"good-harvest","bonus":1.660000000000001},{"rt":1022.5999999940395,"stimulus":"\n                    <p><b>Action: <em>harvest</em></b></p>\n                    <p>This is the bee that you just saw.</p>\n                    <img src=\"bees-with-color/bee-A1DM.svg\" width=\"200\">\n                    <p><span class=\"greenText\"><b>Successful harvest!</b></span><br>Your pay has increased by $0.02. Your bonus pay is now $1.18.</p>\n            ","response":0,"trial_type":"html-button-response","trial_index":114,"time_elapsed":1049364,"internal_node_id":"0.0-4.0-1.53","subject_id":"5ed013f88fce6e0d858b732e","study_id":"60edd13110225f80f9f3709b","session_id":"6196c704ba2ac54efa233cdc","condition":"full-information","relevant_dimensions":["antennae","pattern"],"bee_group":{"antennae":"B","wings":"X","pattern":"D","legs":"X"},"bonus":1.660000000000001},{"rt":17101.60000000149,"stimulus":"bees-with-color/bee-A1SM.svg","response":0,"trial_type":"image-button-response","trial_index":115,"time_elapsed":1066467,"internal_node_id":"0.0-4.0-0.54","subject_id":"5ed013f88fce6e0d858b732e","study_id":"60edd13110225f80f9f3709b","session_id":"6196c704ba2ac54efa233cdc","condition":"full-information","relevant_dimensions":["antennae","pattern"],"bee_group":{"antennae":"B","wings":"X","pattern":"D","legs":"X"},"action":"harvest","summary":"good-harvest","bonus":1.660000000000001},{"rt":582.5999999940395,"stimulus":"\n                    <p><b>Action: <em>harvest</em></b></p>\n                    <p>This is the bee that you just saw.</p>\n                    <img src=\"bees-with-color/bee-A1SM.svg\" width=\"200\">\n                    <p><span class=\"greenText\"><b>Successful harvest!</b></span><br>Your pay has increased by $0.02. Your bonus pay is now $1.20.</p>\n            ","response":0,"trial_type":"html-button-response","trial_index":116,"time_elapsed":1067052,"internal_node_id":"0.0-4.0-1.54","subject_id":"5ed013f88fce6e0d858b732e","study_id":"60edd13110225f80f9f3709b","session_id":"6196c704ba2ac54efa233cdc","condition":"full-information","relevant_dimensions":["antennae","pattern"],"bee_group":{"antennae":"B","wings":"X","pattern":"D","legs":"X"},"bonus":1.660000000000001},{"rt":18814.19999999553,"stimulus":"bees-with-color/bee-B2DF.svg","response":1,"trial_type":"image-button-response","trial_index":117,"time_elapsed":1085868,"internal_node_id":"0.0-4.0-0.55","subject_id":"5ed013f88fce6e0d858b732e","study_id":"60edd13110225f80f9f3709b","session_id":"6196c704ba2ac54efa233cdc","condition":"full-information","relevant_dimensions":["antennae","pattern"],"bee_group":{"antennae":"B","wings":"X","pattern":"D","legs":"X"},"action":"avoid","summary":"good-avoid","bonus":1.660000000000001},{"rt":654,"stimulus":"\n                    <p><b>Action: <em>avoid</em></b></p>\n                    <p>This is the bee that you just saw.</p>\n                    <img src=\"bees-with-color/bee-B2DF.svg\" width=\"200\">\n                    <p><span class=\"greenText\">Good choice!</span>  This bee would have stung you.<br>Your bonus pay is unchanged, and remains at $1.20.</p>\n            ","response":0,"trial_type":"html-button-response","trial_index":118,"time_elapsed":1086523,"internal_node_id":"0.0-4.0-1.55","subject_id":"5ed013f88fce6e0d858b732e","study_id":"60edd13110225f80f9f3709b","session_id":"6196c704ba2ac54efa233cdc","condition":"full-information","relevant_dimensions":["antennae","pattern"],"bee_group":{"antennae":"B","wings":"X","pattern":"D","legs":"X"},"bonus":1.660000000000001},{"rt":17374.29999999702,"stimulus":"bees-with-color/bee-A1SF.svg","response":0,"trial_type":"image-button-response","trial_index":119,"time_elapsed":1103899,"internal_node_id":"0.0-4.0-0.56","subject_id":"5ed013f88fce6e0d858b732e","study_id":"60edd13110225f80f9f3709b","session_id":"6196c704ba2ac54efa233cdc","condition":"full-information","relevant_dimensions":["antennae","pattern"],"bee_group":{"antennae":"B","wings":"X","pattern":"D","legs":"X"},"action":"harvest","summary":"good-harvest","bonus":1.660000000000001},{"rt":542.3999999985099,"stimulus":"\n                    <p><b>Action: <em>harvest</em></b></p>\n                    <p>This is the bee that you just saw.</p>\n                    <img src=\"bees-with-color/bee-A1SF.svg\" width=\"200\">\n                    <p><span class=\"greenText\"><b>Successful harvest!</b></span><br>Your pay has increased by $0.02. Your bonus pay is now $1.22.</p>\n            ","response":0,"trial_type":"html-button-response","trial_index":120,"time_elapsed":1104443,"internal_node_id":"0.0-4.0-1.56","subject_id":"5ed013f88fce6e0d858b732e","study_id":"60edd13110225f80f9f3709b","session_id":"6196c704ba2ac54efa233cdc","condition":"full-information","relevant_dimensions":["antennae","pattern"],"bee_group":{"antennae":"B","wings":"X","pattern":"D","legs":"X"},"bonus":1.660000000000001},{"rt":6894,"stimulus":"bees-with-color/bee-B1SM.svg","response":0,"trial_type":"image-button-response","trial_index":121,"time_elapsed":1111339,"internal_node_id":"0.0-4.0-0.57","subject_id":"5ed013f88fce6e0d858b732e","study_id":"60edd13110225f80f9f3709b","session_id":"6196c704ba2ac54efa233cdc","condition":"full-information","relevant_dimensions":["antennae","pattern"],"bee_group":{"antennae":"B","wings":"X","pattern":"D","legs":"X"},"action":"harvest","summary":"good-harvest","bonus":1.660000000000001},{"rt":662.7000000029802,"stimulus":"\n                    <p><b>Action: <em>harvest</em></b></p>\n                    <p>This is the bee that you just saw.</p>\n                    <img src=\"bees-with-color/bee-B1SM.svg\" width=\"200\">\n                    <p><span class=\"greenText\"><b>Successful harvest!</b></span><br>Your pay has increased by $0.02. Your bonus pay is now $1.24.</p>\n            ","response":0,"trial_type":"html-button-response","trial_index":122,"time_elapsed":1112003,"internal_node_id":"0.0-4.0-1.57","subject_id":"5ed013f88fce6e0d858b732e","study_id":"60edd13110225f80f9f3709b","session_id":"6196c704ba2ac54efa233cdc","condition":"full-information","relevant_dimensions":["antennae","pattern"],"bee_group":{"antennae":"B","wings":"X","pattern":"D","legs":"X"},"bonus":1.660000000000001},{"rt":5765.89999999851,"stimulus":"bees-with-color/bee-A2DM.svg","response":0,"trial_type":"image-button-response","trial_index":123,"time_elapsed":1117771,"internal_node_id":"0.0-4.0-0.58","subject_id":"5ed013f88fce6e0d858b732e","study_id":"60edd13110225f80f9f3709b","session_id":"6196c704ba2ac54efa233cdc","condition":"full-information","relevant_dimensions":["antennae","pattern"],"bee_group":{"antennae":"B","wings":"X","pattern":"D","legs":"X"},"action":"harvest","summary":"good-harvest","bonus":1.660000000000001},{"rt":654.1000000014901,"stimulus":"\n                    <p><b>Action: <em>harvest</em></b></p>\n                    <p>This is the bee that you just saw.</p>\n                    <img src=\"bees-with-color/bee-A2DM.svg\" width=\"200\">\n                    <p><span class=\"greenText\"><b>Successful harvest!</b></span><br>Your pay has increased by $0.02. Your bonus pay is now $1.26.</p>\n            ","response":0,"trial_type":"html-button-response","trial_index":124,"time_elapsed":1118427,"internal_node_id":"0.0-4.0-1.58","subject_id":"5ed013f88fce6e0d858b732e","study_id":"60edd13110225f80f9f3709b","session_id":"6196c704ba2ac54efa233cdc","condition":"full-information","relevant_dimensions":["antennae","pattern"],"bee_group":{"antennae":"B","wings":"X","pattern":"D","legs":"X"},"bonus":1.660000000000001},{"rt":13958.60000000149,"stimulus":"bees-with-color/bee-A2DF.svg","response":0,"trial_type":"image-button-response","trial_index":125,"time_elapsed":1132387,"internal_node_id":"0.0-4.0-0.59","subject_id":"5ed013f88fce6e0d858b732e","study_id":"60edd13110225f80f9f3709b","session_id":"6196c704ba2ac54efa233cdc","condition":"full-information","relevant_dimensions":["antennae","pattern"],"bee_group":{"antennae":"B","wings":"X","pattern":"D","legs":"X"},"action":"harvest","summary":"good-harvest","bonus":1.660000000000001},{"rt":518.3000000044703,"stimulus":"\n                    <p><b>Action: <em>harvest</em></b></p>\n                    <p>This is the bee that you just saw.</p>\n                    <img src=\"bees-with-color/bee-A2DF.svg\" width=\"200\">\n                    <p><span class=\"greenText\"><b>Successful harvest!</b></span><br>Your pay has increased by $0.02. Your bonus pay is now $1.28.</p>\n            ","response":0,"trial_type":"html-button-response","trial_index":126,"time_elapsed":1132907,"internal_node_id":"0.0-4.0-1.59","subject_id":"5ed013f88fce6e0d858b732e","study_id":"60edd13110225f80f9f3709b","session_id":"6196c704ba2ac54efa233cdc","condition":"full-information","relevant_dimensions":["antennae","pattern"],"bee_group":{"antennae":"B","wings":"X","pattern":"D","legs":"X"},"bonus":1.660000000000001},{"rt":12917.89999999851,"stimulus":"bees-with-color/bee-B2SF.svg","response":0,"trial_type":"image-button-response","trial_index":127,"time_elapsed":1145827,"internal_node_id":"0.0-4.0-0.60","subject_id":"5ed013f88fce6e0d858b732e","study_id":"60edd13110225f80f9f3709b","session_id":"6196c704ba2ac54efa233cdc","condition":"full-information","relevant_dimensions":["antennae","pattern"],"bee_group":{"antennae":"B","wings":"X","pattern":"D","legs":"X"},"action":"harvest","summary":"good-harvest","bonus":1.660000000000001},{"rt":566.1999999955297,"stimulus":"\n                    <p><b>Action: <em>harvest</em></b></p>\n                    <p>This is the bee that you just saw.</p>\n                    <img src=\"bees-with-color/bee-B2SF.svg\" width=\"200\">\n                    <p><span class=\"greenText\"><b>Successful harvest!</b></span><br>Your pay has increased by $0.02. Your bonus pay is now $1.30.</p>\n            ","response":0,"trial_type":"html-button-response","trial_index":128,"time_elapsed":1146394,"internal_node_id":"0.0-4.0-1.60","subject_id":"5ed013f88fce6e0d858b732e","study_id":"60edd13110225f80f9f3709b","session_id":"6196c704ba2ac54efa233cdc","condition":"full-information","relevant_dimensions":["antennae","pattern"],"bee_group":{"antennae":"B","wings":"X","pattern":"D","legs":"X"},"bonus":1.660000000000001},{"rt":19093.89999999851,"stimulus":"bees-with-color/bee-A1DF.svg","response":0,"trial_type":"image-button-response","trial_index":129,"time_elapsed":1165490,"internal_node_id":"0.0-4.0-0.61","subject_id":"5ed013f88fce6e0d858b732e","study_id":"60edd13110225f80f9f3709b","session_id":"6196c704ba2ac54efa233cdc","condition":"full-information","relevant_dimensions":["antennae","pattern"],"bee_group":{"antennae":"B","wings":"X","pattern":"D","legs":"X"},"action":"harvest","summary":"good-harvest","bonus":1.660000000000001},{"rt":742.3999999985099,"stimulus":"\n                    <p><b>Action: <em>harvest</em></b></p>\n                    <p>This is the bee that you just saw.</p>\n                    <img src=\"bees-with-color/bee-A1DF.svg\" width=\"200\">\n                    <p><span class=\"greenText\"><b>Successful harvest!</b></span><br>Your pay has increased by $0.02. Your bonus pay is now $1.32.</p>\n            ","response":0,"trial_type":"html-button-response","trial_index":130,"time_elapsed":1166234,"internal_node_id":"0.0-4.0-1.61","subject_id":"5ed013f88fce6e0d858b732e","study_id":"60edd13110225f80f9f3709b","session_id":"6196c704ba2ac54efa233cdc","condition":"full-information","relevant_dimensions":["antennae","pattern"],"bee_group":{"antennae":"B","wings":"X","pattern":"D","legs":"X"},"bonus":1.660000000000001},{"rt":15270,"stimulus":"bees-with-color/bee-B2DM.svg","response":1,"trial_type":"image-button-response","trial_index":131,"time_elapsed":1181506,"internal_node_id":"0.0-4.0-0.62","subject_id":"5ed013f88fce6e0d858b732e","study_id":"60edd13110225f80f9f3709b","session_id":"6196c704ba2ac54efa233cdc","condition":"full-information","relevant_dimensions":["antennae","pattern"],"bee_group":{"antennae":"B","wings":"X","pattern":"D","legs":"X"},"action":"avoid","summary":"good-avoid","bonus":1.660000000000001},{"rt":542.3999999985099,"stimulus":"\n                    <p><b>Action: <em>avoid</em></b></p>\n                    <p>This is the bee that you just saw.</p>\n                    <img src=\"bees-with-color/bee-B2DM.svg\" width=\"200\">\n                    <p><span class=\"greenText\">Good choice!</span>  This bee would have stung you.<br>Your bonus pay is unchanged, and remains at $1.32.</p>\n            ","response":0,"trial_type":"html-button-response","trial_index":132,"time_elapsed":1182050,"internal_node_id":"0.0-4.0-1.62","subject_id":"5ed013f88fce6e0d858b732e","study_id":"60edd13110225f80f9f3709b","session_id":"6196c704ba2ac54efa233cdc","condition":"full-information","relevant_dimensions":["antennae","pattern"],"bee_group":{"antennae":"B","wings":"X","pattern":"D","legs":"X"},"bonus":1.660000000000001},{"rt":9558.20000000298,"stimulus":"bees-with-color/bee-B1DF.svg","response":0,"trial_type":"image-button-response","trial_index":133,"time_elapsed":1191611,"internal_node_id":"0.0-4.0-0.63","subject_id":"5ed013f88fce6e0d858b732e","study_id":"60edd13110225f80f9f3709b","session_id":"6196c704ba2ac54efa233cdc","condition":"full-information","relevant_dimensions":["antennae","pattern"],"bee_group":{"antennae":"B","wings":"X","pattern":"D","legs":"X"},"action":"harvest","summary":"bad-harvest","bonus":1.660000000000001},{"rt":1358.2000000029802,"stimulus":"\n                    <p><b>Action: <em>harvest</em></b></p>\n                    <p>This is the bee that you just saw.</p>\n                    <img src=\"bees-with-color/bee-B1DF.svg\" width=\"200\">\n                    <p><span class=\"redText\">Bad choice, the bee was angry.</span><br><b>You have been stung!</b><br>Your pay has been decreased by $0.10. Your bonus pay is now $1.22.</p>\n            ","response":0,"trial_type":"html-button-response","trial_index":134,"time_elapsed":1192970,"internal_node_id":"0.0-4.0-1.63","subject_id":"5ed013f88fce6e0d858b732e","study_id":"60edd13110225f80f9f3709b","session_id":"6196c704ba2ac54efa233cdc","condition":"full-information","relevant_dimensions":["antennae","pattern"],"bee_group":{"antennae":"B","wings":"X","pattern":"D","legs":"X"},"bonus":1.660000000000001},{"rt":14780.70000000298,"stimulus":"You have completed the first part of this experiment.<br><br>You will now begin a shorter second part, in which you will receive no feedback.<br>The same rules regarding bonus pay apply.<br><br>Press any key to begin.","response":" ","trial_type":"html-keyboard-response","trial_index":135,"time_elapsed":1207752,"internal_node_id":"0.0-5.0","subject_id":"5ed013f88fce6e0d858b732e","study_id":"60edd13110225f80f9f3709b","session_id":"6196c704ba2ac54efa233cdc","condition":"full-information","relevant_dimensions":["antennae","pattern"],"bee_group":{"antennae":"B","wings":"X","pattern":"D","legs":"X"},"bonus":1.660000000000001},{"rt":18217.29999999702,"stimulus":"bees-with-color/bee-A2DF.svg","response":0,"trial_type":"image-button-response","trial_index":136,"time_elapsed":1225978,"internal_node_id":"0.0-6.0-0.0","subject_id":"5ed013f88fce6e0d858b732e","study_id":"60edd13110225f80f9f3709b","session_id":"6196c704ba2ac54efa233cdc","condition":"full-information","relevant_dimensions":["antennae","pattern"],"bee_group":{"antennae":"B","wings":"X","pattern":"D","legs":"X"},"bonus":1.660000000000001},{"rt":12245.39999999851,"stimulus":"bees-with-color/bee-A1SF.svg","response":0,"trial_type":"image-button-response","trial_index":137,"time_elapsed":1238226,"internal_node_id":"0.0-6.0-0.1","subject_id":"5ed013f88fce6e0d858b732e","study_id":"60edd13110225f80f9f3709b","session_id":"6196c704ba2ac54efa233cdc","condition":"full-information","relevant_dimensions":["antennae","pattern"],"bee_group":{"antennae":"B","wings":"X","pattern":"D","legs":"X"},"bonus":1.660000000000001},{"rt":6821.89999999851,"stimulus":"bees-with-color/bee-A2DM.svg","response":0,"trial_type":"image-button-response","trial_index":138,"time_elapsed":1245050,"internal_node_id":"0.0-6.0-0.2","subject_id":"5ed013f88fce6e0d858b732e","study_id":"60edd13110225f80f9f3709b","session_id":"6196c704ba2ac54efa233cdc","condition":"full-information","relevant_dimensions":["antennae","pattern"],"bee_group":{"antennae":"B","wings":"X","pattern":"D","legs":"X"},"bonus":1.660000000000001},{"rt":12325.5,"stimulus":"bees-with-color/bee-B1DM.svg","response":1,"trial_type":"image-button-response","trial_index":139,"time_elapsed":1257378,"internal_node_id":"0.0-6.0-0.3","subject_id":"5ed013f88fce6e0d858b732e","study_id":"60edd13110225f80f9f3709b","session_id":"6196c704ba2ac54efa233cdc","condition":"full-information","relevant_dimensions":["antennae","pattern"],"bee_group":{"antennae":"B","wings":"X","pattern":"D","legs":"X"},"bonus":1.660000000000001},{"rt":12685.29999999702,"stimulus":"bees-with-color/bee-A2SM.svg","response":0,"trial_type":"image-button-response","trial_index":140,"time_elapsed":1270065,"internal_node_id":"0.0-6.0-0.4","subject_id":"5ed013f88fce6e0d858b732e","study_id":"60edd13110225f80f9f3709b","session_id":"6196c704ba2ac54efa233cdc","condition":"full-information","relevant_dimensions":["antennae","pattern"],"bee_group":{"antennae":"B","wings":"X","pattern":"D","legs":"X"},"bonus":1.660000000000001},{"rt":9557.69999999553,"stimulus":"bees-with-color/bee-A1SM.svg","response":0,"trial_type":"image-button-response","trial_index":141,"time_elapsed":1279625,"internal_node_id":"0.0-6.0-0.5","subject_id":"5ed013f88fce6e0d858b732e","study_id":"60edd13110225f80f9f3709b","session_id":"6196c704ba2ac54efa233cdc","condition":"full-information","relevant_dimensions":["antennae","pattern"],"bee_group":{"antennae":"B","wings":"X","pattern":"D","legs":"X"},"bonus":1.660000000000001},{"rt":13701.40000000596,"stimulus":"bees-with-color/bee-B2DM.svg","response":1,"trial_type":"image-button-response","trial_index":142,"time_elapsed":1293329,"internal_node_id":"0.0-6.0-0.6","subject_id":"5ed013f88fce6e0d858b732e","study_id":"60edd13110225f80f9f3709b","session_id":"6196c704ba2ac54efa233cdc","condition":"full-information","relevant_dimensions":["antennae","pattern"],"bee_group":{"antennae":"B","wings":"X","pattern":"D","legs":"X"},"bonus":1.660000000000001},{"rt":10189.09999999404,"stimulus":"bees-with-color/bee-A2SF.svg","response":0,"trial_type":"image-button-response","trial_index":143,"time_elapsed":1303521,"internal_node_id":"0.0-6.0-0.7","subject_id":"5ed013f88fce6e0d858b732e","study_id":"60edd13110225f80f9f3709b","session_id":"6196c704ba2ac54efa233cdc","condition":"full-information","relevant_dimensions":["antennae","pattern"],"bee_group":{"antennae":"B","wings":"X","pattern":"D","legs":"X"},"bonus":1.660000000000001},{"rt":13382,"stimulus":"bees-with-color/bee-B2DF.svg","response":1,"trial_type":"image-button-response","trial_index":144,"time_elapsed":1316905,"internal_node_id":"0.0-6.0-0.8","subject_id":"5ed013f88fce6e0d858b732e","study_id":"60edd13110225f80f9f3709b","session_id":"6196c704ba2ac54efa233cdc","condition":"full-information","relevant_dimensions":["antennae","pattern"],"bee_group":{"antennae":"B","wings":"X","pattern":"D","legs":"X"},"bonus":1.660000000000001},{"rt":18805,"stimulus":"bees-with-color/bee-A1DF.svg","response":0,"trial_type":"image-button-response","trial_index":145,"time_elapsed":1335712,"internal_node_id":"0.0-6.0-0.9","subject_id":"5ed013f88fce6e0d858b732e","study_id":"60edd13110225f80f9f3709b","session_id":"6196c704ba2ac54efa233cdc","condition":"full-information","relevant_dimensions":["antennae","pattern"],"bee_group":{"antennae":"B","wings":"X","pattern":"D","legs":"X"},"bonus":1.660000000000001},{"rt":20421.39999999851,"stimulus":"bees-with-color/bee-B1DF.svg","response":1,"trial_type":"image-button-response","trial_index":146,"time_elapsed":1356136,"internal_node_id":"0.0-6.0-0.10","subject_id":"5ed013f88fce6e0d858b732e","study_id":"60edd13110225f80f9f3709b","session_id":"6196c704ba2ac54efa233cdc","condition":"full-information","relevant_dimensions":["antennae","pattern"],"bee_group":{"antennae":"B","wings":"X","pattern":"D","legs":"X"},"bonus":1.660000000000001},{"rt":5717.5999999940395,"stimulus":"bees-with-color/bee-B1SF.svg","response":0,"trial_type":"image-button-response","trial_index":147,"time_elapsed":1361856,"internal_node_id":"0.0-6.0-0.11","subject_id":"5ed013f88fce6e0d858b732e","study_id":"60edd13110225f80f9f3709b","session_id":"6196c704ba2ac54efa233cdc","condition":"full-information","relevant_dimensions":["antennae","pattern"],"bee_group":{"antennae":"B","wings":"X","pattern":"D","legs":"X"},"bonus":1.660000000000001},{"rt":11653.39999999851,"stimulus":"bees-with-color/bee-B2SF.svg","response":0,"trial_type":"image-button-response","trial_index":148,"time_elapsed":1373512,"internal_node_id":"0.0-6.0-0.12","subject_id":"5ed013f88fce6e0d858b732e","study_id":"60edd13110225f80f9f3709b","session_id":"6196c704ba2ac54efa233cdc","condition":"full-information","relevant_dimensions":["antennae","pattern"],"bee_group":{"antennae":"B","wings":"X","pattern":"D","legs":"X"},"bonus":1.660000000000001},{"rt":6533.70000000298,"stimulus":"bees-with-color/bee-B2SM.svg","response":0,"trial_type":"image-button-response","trial_index":149,"time_elapsed":1380048,"internal_node_id":"0.0-6.0-0.13","subject_id":"5ed013f88fce6e0d858b732e","study_id":"60edd13110225f80f9f3709b","session_id":"6196c704ba2ac54efa233cdc","condition":"full-information","relevant_dimensions":["antennae","pattern"],"bee_group":{"antennae":"B","wings":"X","pattern":"D","legs":"X"},"bonus":1.660000000000001},{"rt":23516.79999999702,"stimulus":"bees-with-color/bee-A1DM.svg","response":0,"trial_type":"image-button-response","trial_index":150,"time_elapsed":1403568,"internal_node_id":"0.0-6.0-0.14","subject_id":"5ed013f88fce6e0d858b732e","study_id":"60edd13110225f80f9f3709b","session_id":"6196c704ba2ac54efa233cdc","condition":"full-information","relevant_dimensions":["antennae","pattern"],"bee_group":{"antennae":"B","wings":"X","pattern":"D","legs":"X"},"bonus":1.660000000000001},{"rt":17005.60000000149,"stimulus":"bees-with-color/bee-B1SM.svg","response":0,"trial_type":"image-button-response","trial_index":151,"time_elapsed":1420576,"internal_node_id":"0.0-6.0-0.15","subject_id":"5ed013f88fce6e0d858b732e","study_id":"60edd13110225f80f9f3709b","session_id":"6196c704ba2ac54efa233cdc","condition":"full-information","relevant_dimensions":["antennae","pattern"],"bee_group":{"antennae":"B","wings":"X","pattern":"D","legs":"X"},"bonus":1.660000000000001},{"rt":8405.79999999702,"stimulus":"bees-with-color/bee-A1DM.svg","response":1,"trial_type":"image-button-response","trial_index":152,"time_elapsed":1428984,"internal_node_id":"0.0-6.0-0.16","subject_id":"5ed013f88fce6e0d858b732e","study_id":"60edd13110225f80f9f3709b","session_id":"6196c704ba2ac54efa233cdc","condition":"full-information","relevant_dimensions":["antennae","pattern"],"bee_group":{"antennae":"B","wings":"X","pattern":"D","legs":"X"},"bonus":1.660000000000001},{"rt":17237.60000000149,"stimulus":"bees-with-color/bee-A2SM.svg","response":0,"trial_type":"image-button-response","trial_index":153,"time_elapsed":1446223,"internal_node_id":"0.0-6.0-0.17","subject_id":"5ed013f88fce6e0d858b732e","study_id":"60edd13110225f80f9f3709b","session_id":"6196c704ba2ac54efa233cdc","condition":"full-information","relevant_dimensions":["antennae","pattern"],"bee_group":{"antennae":"B","wings":"X","pattern":"D","legs":"X"},"bonus":1.660000000000001},{"rt":19398,"stimulus":"bees-with-color/bee-B2DF.svg","response":1,"trial_type":"image-button-response","trial_index":154,"time_elapsed":1465623,"internal_node_id":"0.0-6.0-0.18","subject_id":"5ed013f88fce6e0d858b732e","study_id":"60edd13110225f80f9f3709b","session_id":"6196c704ba2ac54efa233cdc","condition":"full-information","relevant_dimensions":["antennae","pattern"],"bee_group":{"antennae":"B","wings":"X","pattern":"D","legs":"X"},"bonus":1.660000000000001},{"rt":9901.29999999702,"stimulus":"bees-with-color/bee-B2SF.svg","response":0,"trial_type":"image-button-response","trial_index":155,"time_elapsed":1475527,"internal_node_id":"0.0-6.0-0.19","subject_id":"5ed013f88fce6e0d858b732e","study_id":"60