[{"success":true,"trial_type":"fullscreen","trial_index":0,"time_elapsed":140784,"internal_node_id":"0.0-0.0","subject_id":"5ba988cc4a16920001d48564","study_id":"6197b3f67c2b5cd3b6d9596a","session_id":"6197b9e9435f87700d731787","condition":"contingent","relevant_dimensions":["antennae","legs"],"bee_group":{"antennae":"B","wings":"X","pattern":"X","legs":"F"},"bonus":0.820000000000001},{"success":true,"timeout":false,"failed_images":[],"failed_audio":[],"failed_video":[],"trial_type":"preload","trial_index":1,"time_elapsed":142957,"internal_node_id":"0.0-1.0","subject_id":"5ba988cc4a16920001d48564","study_id":"6197b3f67c2b5cd3b6d9596a","session_id":"6197b9e9435f87700d731787","condition":"contingent","relevant_dimensions":["antennae","legs"],"bee_group":{"antennae":"B","wings":"X","pattern":"X","legs":"F"},"bonus":0.820000000000001},{"rt":2950,"stimulus":"Welcome! Press any key to begin.","response":"enter","trial_type":"html-keyboard-response","trial_index":2,"time_elapsed":145907,"internal_node_id":"0.0-2.0","subject_id":"5ba988cc4a16920001d48564","study_id":"6197b3f67c2b5cd3b6d9596a","session_id":"6197b9e9435f87700d731787","condition":"contingent","relevant_dimensions":["antennae","legs"],"bee_group":{"antennae":"B","wings":"X","pattern":"X","legs":"F"},"bonus":0.820000000000001},{"view_history":[{"page_index":0,"viewing_time":5018},{"page_index":1,"viewing_time":13039},{"page_index":2,"viewing_time":12112},{"page_index":3,"viewing_time":14240},{"page_index":4,"viewing_time":6464},{"page_index":5,"viewing_time":13615},{"page_index":6,"viewing_time":15353},{"page_index":7,"viewing_time":6256},{"page_index":8,"viewing_time":4504},{"page_index":9,"viewing_time":3336},{"page_index":10,"viewing_time":2481},{"page_index":11,"viewing_time":10070},{"page_index":12,"viewing_time":8961},{"page_index":13,"viewing_time":1992},{"page_index":14,"viewing_time":4248}],"rt":121689,"trial_type":"instructions","trial_index":3,"time_elapsed":267597,"internal_node_id":"0.0-3.0-0.0","subject_id":"5ba988cc4a16920001d48564","study_id":"6197b3f67c2b5cd3b6d9596a","session_id":"6197b9e9435f87700d731787","condition":"contingent","relevant_dimensions":["antennae","legs"],"bee_group":{"antennae":"B","wings":"X","pattern":"X","legs":"F"},"bonus":0.820000000000001},{"rt":12016,"response":{"Q0":["Two or six legs","Stripes or spots on body","Single or double wings","Antennae or no antennae"]},"question_order":[0],"trial_type":"survey-multi-select","trial_index":4,"time_elapsed":279617,"internal_node_id":"0.0-3.0-1.0","subject_id":"5ba988cc4a16920001d48564","study_id":"6197b3f67c2b5cd3b6d9596a","session_id":"6197b9e9435f87700d731787","condition":"contingent","relevant_dimensions":["antennae","legs"],"bee_group":{"antennae":"B","wings":"X","pattern":"X","legs":"F"},"correct":true,"bonus":0.820000000000001},{"rt":23851,"response":{"Q1":"No.","Q2":"Based on the four features of the bee.","Q3":"You do not learn if it was friendly or dangerous, and do not alter your bonus."},"question_order":[0,1,2],"trial_type":"survey-multi-choice","trial_index":5,"time_elapsed":303470,"internal_node_id":"0.0-3.0-2.0","subject_id":"5ba988cc4a16920001d48564","study_id":"6197b3f67c2b5cd3b6d9596a","session_id":"6197b9e9435f87700d731787","condition":"contingent","relevant_dimensions":["antennae","legs"],"bee_group":{"antennae":"B","wings":"X","pattern":"X","legs":"F"},"correct":true,"bonus":0.820000000000001},{"rt":4831,"stimulus":"<p>Congrats, you got everything right<br>When you're ready, click the button below to continue to the experiment.</p>","response":0,"trial_type":"html-button-response","trial_index":6,"time_elapsed":308302,"internal_node_id":"0.0-3.0-3.0","subject_id":"5ba988cc4a16920001d48564","study_id":"6197b3f67c2b5cd3b6d9596a","session_id":"6197b9e9435f87700d731787","condition":"contingent","relevant_dimensions":["antennae","legs"],"bee_group":{"antennae":"B","wings":"X","pattern":"X","legs":"F"},"bonus":0.820000000000001},{"rt":7599,"stimulus":"bees-with-color/bee-A1DF.svg","response":0,"trial_type":"image-button-response","trial_index":7,"time_elapsed":315901,"internal_node_id":"0.0-4.0-0.0","subject_id":"5ba988cc4a16920001d48564","study_id":"6197b3f67c2b5cd3b6d9596a","session_id":"6197b9e9435f87700d731787","condition":"contingent","relevant_dimensions":["antennae","legs"],"bee_group":{"antennae":"B","wings":"X","pattern":"X","legs":"F"},"action":"harvest","summary":"good-harvest","bonus":0.820000000000001},{"rt":12967,"stimulus":"\n                    <p><b>Action: <em>harvest</em></b></p>\n                    <p>This is the bee that you just saw.</p>\n                    <img src=\"bees-with-color/bee-A1DF.svg\" width=\"200\">\n                    <p><span class=\"greenText\"><b>Successful harvest!</b></span><br>Your pay has increased by $0.02. Your bonus pay is now $0.56.</p>\n            ","response":0,"trial_type":"html-button-response","trial_index":8,"time_elapsed":328869,"internal_node_id":"0.0-4.0-1.0","subject_id":"5ba988cc4a16920001d48564","study_id":"6197b3f67c2b5cd3b6d9596a","session_id":"6197b9e9435f87700d731787","condition":"contingent","relevant_dimensions":["antennae","legs"],"bee_group":{"antennae":"B","wings":"X","pattern":"X","legs":"F"},"bonus":0.820000000000001},{"rt":5655,"stimulus":"bees-with-color/bee-A1SM.svg","response":0,"trial_type":"image-button-response","trial_index":9,"time_elapsed":334525,"internal_node_id":"0.0-4.0-0.1","subject_id":"5ba988cc4a16920001d48564","study_id":"6197b3f67c2b5cd3b6d9596a","session_id":"6197b9e9435f87700d731787","condition":"contingent","relevant_dimensions":["antennae","legs"],"bee_group":{"antennae":"B","wings":"X","pattern":"X","legs":"F"},"action":"harvest","summary":"good-harvest","bonus":0.820000000000001},{"rt":11172,"stimulus":"\n                    <p><b>Action: <em>harvest</em></b></p>\n                    <p>This is the bee that you just saw.</p>\n                    <img src=\"bees-with-color/bee-A1SM.svg\" width=\"200\">\n                    <p><span class=\"greenText\"><b>Successful harvest!</b></span><br>Your pay has increased by $0.02. Your bonus pay is now $0.58.</p>\n            ","response":0,"trial_type":"html-button-response","trial_index":10,"time_elapsed":345701,"internal_node_id":"0.0-4.0-1.1","subject_id":"5ba988cc4a16920001d48564","study_id":"6197b3f67c2b5cd3b6d9596a","session_id":"6197b9e9435f87700d731787","condition":"contingent","relevant_dimensions":["antennae","legs"],"bee_group":{"antennae":"B","wings":"X","pattern":"X","legs":"F"},"bonus":0.820000000000001},{"rt":1904,"stimulus":"bees-with-color/bee-A1SF.svg","response":0,"trial_type":"image-button-response","trial_index":11,"time_elapsed":347605,"internal_node_id":"0.0-4.0-0.2","subject_id":"5ba988cc4a16920001d48564","study_id":"6197b3f67c2b5cd3b6d9596a","session_id":"6197b9e9435f87700d731787","condition":"contingent","relevant_dimensions":["antennae","legs"],"bee_group":{"antennae":"B","wings":"X","pattern":"X","legs":"F"},"action":"harvest","summary":"good-harvest","bonus":0.820000000000001},{"rt":6183,"stimulus":"\n                    <p><b>Action: <em>harvest</em></b></p>\n                    <p>This is the bee that you just saw.</p>\n                    <img src=\"bees-with-color/bee-A1SF.svg\" width=\"200\">\n                    <p><span class=\"greenText\"><b>Successful harvest!</b></span><br>Your pay has increased by $0.02. Your bonus pay is now $0.60.</p>\n            ","response":0,"trial_type":"html-button-response","trial_index":12,"time_elapsed":353790,"internal_node_id":"0.0-4.0-1.2","subject_id":"5ba988cc4a16920001d48564","study_id":"6197b3f67c2b5cd3b6d9596a","session_id":"6197b9e9435f87700d731787","condition":"contingent","relevant_dimensions":["antennae","legs"],"bee_group":{"antennae":"B","wings":"X","pattern":"X","legs":"F"},"bonus":0.820000000000001},{"rt":2382,"stimulus":"bees-with-color/bee-B2DF.svg","response":1,"trial_type":"image-button-response","trial_index":13,"time_elapsed":356173,"internal_node_id":"0.0-4.0-0.3","subject_id":"5ba988cc4a16920001d48564","study_id":"6197b3f67c2b5cd3b6d9596a","session_id":"6197b9e9435f87700d731787","condition":"contingent","relevant_dimensions":["antennae","legs"],"bee_group":{"antennae":"B","wings":"X","pattern":"X","legs":"F"},"action":"avoid","summary":"good-avoid","bonus":0.820000000000001},{"rt":3496,"stimulus":"\n                    <p><b>Action: <em>avoid</em></b></p>\n                    <p>This is the bee that you just saw.</p>\n                    <img src=\"bees-with-color/bee-B2DF.svg\" width=\"200\">\n                    <p><br>Your bonus pay is unchanged, and remains at $0.60.</p>\n            ","response":0,"trial_type":"html-button-response","trial_index":14,"time_elapsed":359670,"internal_node_id":"0.0-4.0-1.3","subject_id":"5ba988cc4a16920001d48564","study_id":"6197b3f67c2b5cd3b6d9596a","session_id":"6197b9e9435f87700d731787","condition":"contingent","relevant_dimensions":["antennae","legs"],"bee_group":{"antennae":"B","wings":"X","pattern":"X","legs":"F"},"bonus":0.820000000000001},{"rt":1735,"stimulus":"bees-with-color/bee-B1SF.svg","response":1,"trial_type":"image-button-response","trial_index":15,"time_elapsed":361405,"internal_node_id":"0.0-4.0-0.4","subject_id":"5ba988cc4a16920001d48564","study_id":"6197b3f67c2b5cd3b6d9596a","session_id":"6197b9e9435f87700d731787","condition":"contingent","relevant_dimensions":["antennae","legs"],"bee_group":{"antennae":"B","wings":"X","pattern":"X","legs":"F"},"action":"avoid","summary":"good-avoid","bonus":0.820000000000001},{"rt":2150,"stimulus":"\n                    <p><b>Action: <em>avoid</em></b></p>\n                    <p>This is the bee that you just saw.</p>\n                    <img src=\"bees-with-color/bee-B1SF.svg\" width=\"200\">\n                    <p><br>Your bonus pay is unchanged, and remains at $0.60.</p>\n            ","response":0,"trial_type":"html-button-response","trial_index":16,"time_elapsed":363557,"internal_node_id":"0.0-4.0-1.4","subject_id":"5ba988cc4a16920001d48564","study_id":"6197b3f67c2b5cd3b6d9596a","session_id":"6197b9e9435f87700d731787","condition":"contingent","relevant_dimensions":["antennae","legs"],"bee_group":{"antennae":"B","wings":"X","pattern":"X","legs":"F"},"bonus":0.820000000000001},{"rt":3368,"stimulus":"bees-with-color/bee-B2DM.svg","response":0,"trial_type":"image-button-response","trial_index":17,"time_elapsed":366926,"internal_node_id":"0.0-4.0-0.5","subject_id":"5ba988cc4a16920001d48564","study_id":"6197b3f67c2b5cd3b6d9596a","session_id":"6197b9e9435f87700d731787","condition":"contingent","relevant_dimensions":["antennae","legs"],"bee_group":{"antennae":"B","wings":"X","pattern":"X","legs":"F"},"action":"harvest","summary":"good-harvest","bonus":0.820000000000001},{"rt":3214,"stimulus":"\n                    <p><b>Action: <em>harvest</em></b></p>\n                    <p>This is the bee that you just saw.</p>\n                    <img src=\"bees-with-color/bee-B2DM.svg\" width=\"200\">\n                    <p><span class=\"greenText\"><b>Successful harvest!</b></span><br>Your pay has increased by $0.02. Your bonus pay is now $0.62.</p>\n            ","response":0,"trial_type":"html-button-response","trial_index":18,"time_elapsed":370142,"internal_node_id":"0.0-4.0-1.5","subject_id":"5ba988cc4a16920001d48564","study_id":"6197b3f67c2b5cd3b6d9596a","session_id":"6197b9e9435f87700d731787","condition":"contingent","relevant_dimensions":["antennae","legs"],"bee_group":{"antennae":"B","wings":"X","pattern":"X","legs":"F"},"bonus":0.820000000000001},{"rt":1919,"stimulus":"bees-with-color/bee-B2SM.svg","response":0,"trial_type":"image-button-response","trial_index":19,"time_elapsed":372061,"internal_node_id":"0.0-4.0-0.6","subject_id":"5ba988cc4a16920001d48564","study_id":"6197b3f67c2b5cd3b6d9596a","session_id":"6197b9e9435f87700d731787","condition":"contingent","relevant_dimensions":["antennae","legs"],"bee_group":{"antennae":"B","wings":"X","pattern":"X","legs":"F"},"action":"harvest","summary":"good-harvest","bonus":0.820000000000001},{"rt":3023,"stimulus":"\n                    <p><b>Action: <em>harvest</em></b></p>\n                    <p>This is the bee that you just saw.</p>\n                    <img src=\"bees-with-color/bee-B2SM.svg\" width=\"200\">\n                    <p><span class=\"greenText\"><b>Successful harvest!</b></span><br>Your pay has increased by $0.02. Your bonus pay is now $0.64.</p>\n            ","response":0,"trial_type":"html-button-response","trial_index":20,"time_elapsed":375086,"internal_node_id":"0.0-4.0-1.6","subject_id":"5ba988cc4a16920001d48564","study_id":"6197b3f67c2b5cd3b6d9596a","session_id":"6197b9e9435f87700d731787","condition":"contingent","relevant_dimensions":["antennae","legs"],"bee_group":{"antennae":"B","wings":"X","pattern":"X","legs":"F"},"bonus":0.820000000000001},{"rt":1319,"stimulus":"bees-with-color/bee-A1DM.svg","response":0,"trial_type":"image-button-response","trial_index":21,"time_elapsed":376406,"internal_node_id":"0.0-4.0-0.7","subject_id":"5ba988cc4a16920001d48564","study_id":"6197b3f67c2b5cd3b6d9596a","session_id":"6197b9e9435f87700d731787","condition":"contingent","relevant_dimensions":["antennae","legs"],"bee_group":{"antennae":"B","wings":"X","pattern":"X","legs":"F"},"action":"harvest","summary":"good-harvest","bonus":0.820000000000001},{"rt":1495,"stimulus":"\n                    <p><b>Action: <em>harvest</em></b></p>\n                    <p>This is the bee that you just saw.</p>\n                    <img src=\"bees-with-color/bee-A1DM.svg\" width=\"200\">\n                    <p><span class=\"greenText\"><b>Successful harvest!</b></span><br>Your pay has increased by $0.02. Your bonus pay is now $0.66.</p>\n            ","response":0,"trial_type":"html-button-response","trial_index":22,"time_elapsed":377901,"internal_node_id":"0.0-4.0-1.7","subject_id":"5ba988cc4a16920001d48564","study_id":"6197b3f67c2b5cd3b6d9596a","session_id":"6197b9e9435f87700d731787","condition":"contingent","relevant_dimensions":["antennae","legs"],"bee_group":{"antennae":"B","wings":"X","pattern":"X","legs":"F"},"bonus":0.820000000000001},{"rt":1928,"stimulus":"bees-with-color/bee-B1SM.svg","response":1,"trial_type":"image-button-response","trial_index":23,"time_elapsed":379829,"internal_node_id":"0.0-4.0-0.8","subject_id":"5ba988cc4a16920001d48564","study_id":"6197b3f67c2b5cd3b6d9596a","session_id":"6197b9e9435f87700d731787","condition":"contingent","relevant_dimensions":["antennae","legs"],"bee_group":{"antennae":"B","wings":"X","pattern":"X","legs":"F"},"action":"avoid","summary":"bad-avoid","bonus":0.820000000000001},{"rt":1415,"stimulus":"\n                    <p><b>Action: <em>avoid</em></b></p>\n                    <p>This is the bee that you just saw.</p>\n                    <img src=\"bees-with-color/bee-B1SM.svg\" width=\"200\">\n                    <p><br>Your bonus pay is unchanged, and remains at $0.66.</p>\n            ","response":0,"trial_type":"html-button-response","trial_index":24,"time_elapsed":381245,"internal_node_id":"0.0-4.0-1.8","subject_id":"5ba988cc4a16920001d48564","study_id":"6197b3f67c2b5cd3b6d9596a","session_id":"6197b9e9435f87700d731787","condition":"contingent","relevant_dimensions":["antennae","legs"],"bee_group":{"antennae":"B","wings":"X","pattern":"X","legs":"F"},"bonus":0.820000000000001},{"rt":1503,"stimulus":"bees-with-color/bee-B1DM.svg","response":0,"trial_type":"image-button-response","trial_index":25,"time_elapsed":382749,"internal_node_id":"0.0-4.0-0.9","subject_id":"5ba988cc4a16920001d48564","study_id":"6197b3f67c2b5cd3b6d9596a","session_id":"6197b9e9435f87700d731787","condition":"contingent","relevant_dimensions":["antennae","legs"],"bee_group":{"antennae":"B","wings":"X","pattern":"X","legs":"F"},"action":"harvest","summary":"good-harvest","bonus":0.820000000000001},{"rt":1582,"stimulus":"\n                    <p><b>Action: <em>harvest</em></b></p>\n                    <p>This is the bee that you just saw.</p>\n                    <img src=\"bees-with-color/bee-B1DM.svg\" width=\"200\">\n                    <p><span class=\"greenText\"><b>Successful harvest!</b></span><br>Your pay has increased by $0.02. Your bonus pay is now $0.68.</p>\n            ","response":0,"trial_type":"html-button-response","trial_index":26,"time_elapsed":384333,"internal_node_id":"0.0-4.0-1.9","subject_id":"5ba988cc4a16920001d48564","study_id":"6197b3f67c2b5cd3b6d9596a","session_id":"6197b9e9435f87700d731787","condition":"contingent","relevant_dimensions":["antennae","legs"],"bee_group":{"antennae":"B","wings":"X","pattern":"X","legs":"F"},"bonus":0.820000000000001},{"rt":2527,"stimulus":"bees-with-color/bee-B2SF.svg","response":0,"trial_type":"image-button-response","trial_index":27,"time_elapsed":386861,"internal_node_id":"0.0-4.0-0.10","subject_id":"5ba988cc4a16920001d48564","study_id":"6197b3f67c2b5cd3b6d9596a","session_id":"6197b9e9435f87700d731787","condition":"contingent","relevant_dimensions":["antennae","legs"],"bee_group":{"antennae":"B","wings":"X","pattern":"X","legs":"F"},"action":"harvest","summary":"bad-harvest","bonus":0.820000000000001},{"rt":17942,"stimulus":"\n                    <p><b>Action: <em>harvest</em></b></p>\n                    <p>This is the bee that you just saw.</p>\n                    <img src=\"bees-with-color/bee-B2SF.svg\" width=\"200\">\n                    <p><span class=\"redText\">Bad choice, the bee was angry.</span><br><b>You have been stung!</b><br>Your pay has been decreased by $0.10. Your bonus pay is now $0.58.</p>\n            ","response":0,"trial_type":"html-button-response","trial_index":28,"time_elapsed":404805,"internal_node_id":"0.0-4.0-1.10","subject_id":"5ba988cc4a16920001d48564","study_id":"6197b3f67c2b5cd3b6d9596a","session_id":"6197b9e9435f87700d731787","condition":"contingent","relevant_dimensions":["antennae","legs"],"bee_group":{"antennae":"B","wings":"X","pattern":"X","legs":"F"},"bonus":0.820000000000001},{"rt":2920,"stimulus":"bees-with-color/bee-A2DM.svg","response":0,"trial_type":"image-button-response","trial_index":29,"time_elapsed":407725,"internal_node_id":"0.0-4.0-0.11","subject_id":"5ba988cc4a16920001d48564","study_id":"6197b3f67c2b5cd3b6d9596a","session_id":"6197b9e9435f87700d731787","condition":"contingent","relevant_dimensions":["antennae","legs"],"bee_group":{"antennae":"B","wings":"X","pattern":"X","legs":"F"},"action":"harvest","summary":"good-harvest","bonus":0.820000000000001},{"rt":824,"stimulus":"\n                    <p><b>Action: <em>harvest</em></b></p>\n                    <p>This is the bee that you just saw.</p>\n                    <img src=\"bees-with-color/bee-A2DM.svg\" width=\"200\">\n                    <p><span class=\"greenText\"><b>Successful harvest!</b></span><br>Your pay has increased by $0.02. Your bonus pay is now $0.60.</p>\n            ","response":0,"trial_type":"html-button-response","trial_index":30,"time_elapsed":408549,"internal_node_id":"0.0-4.0-1.11","subject_id":"5ba988cc4a16920001d48564","study_id":"6197b3f67c2b5cd3b6d9596a","session_id":"6197b9e9435f87700d731787","condition":"contingent","relevant_dimensions":["antennae","legs"],"bee_group":{"antennae":"B","wings":"X","pattern":"X","legs":"F"},"bonus":0.820000000000001},{"rt":1703,"stimulus":"bees-with-color/bee-A2SM.svg","response":0,"trial_type":"image-button-response","trial_index":31,"time_elapsed":410253,"internal_node_id":"0.0-4.0-0.12","subject_id":"5ba988cc4a16920001d48564","study_id":"6197b3f67c2b5cd3b6d9596a","session_id":"6197b9e9435f87700d731787","condition":"contingent","relevant_dimensions":["antennae","legs"],"bee_group":{"antennae":"B","wings":"X","pattern":"X","legs":"F"},"action":"harvest","summary":"good-harvest","bonus":0.820000000000001},{"rt":959,"stimulus":"\n                    <p><b>Action: <em>harvest</em></b></p>\n                    <p>This is the bee that you just saw.</p>\n                    <img src=\"bees-with-color/bee-A2SM.svg\" width=\"200\">\n                    <p><span class=\"greenText\"><b>Successful harvest!</b></span><br>Your pay has increased by $0.02. Your bonus pay is now $0.62.</p>\n            ","response":0,"trial_type":"html-button-response","trial_index":32,"time_elapsed":411214,"internal_node_id":"0.0-4.0-1.12","subject_id":"5ba988cc4a16920001d48564","study_id":"6197b3f67c2b5cd3b6d9596a","session_id":"6197b9e9435f87700d731787","condition":"contingent","relevant_dimensions":["antennae","legs"],"bee_group":{"antennae":"B","wings":"X","pattern":"X","legs":"F"},"bonus":0.820000000000001},{"rt":2214,"stimulus":"bees-with-color/bee-A2DF.svg","response":0,"trial_type":"image-button-response","trial_index":33,"time_elapsed":413430,"internal_node_id":"0.0-4.0-0.13","subject_id":"5ba988cc4a16920001d48564","study_id":"6197b3f67c2b5cd3b6d9596a","session_id":"6197b9e9435f87700d731787","condition":"contingent","relevant_dimensions":["antennae","legs"],"bee_group":{"antennae":"B","wings":"X","pattern":"X","legs":"F"},"action":"harvest","summary":"good-harvest","bonus":0.820000000000001},{"rt":1088,"stimulus":"\n                    <p><b>Action: <em>harvest</em></b></p>\n                    <p>This is the bee that you just saw.</p>\n                    <img src=\"bees-with-color/bee-A2DF.svg\" width=\"200\">\n                    <p><span class=\"greenText\"><b>Successful harvest!</b></span><br>Your pay has increased by $0.02. Your bonus pay is now $0.64.</p>\n            ","response":0,"trial_type":"html-button-response","trial_index":34,"time_elapsed":414517,"internal_node_id":"0.0-4.0-1.13","subject_id":"5ba988cc4a16920001d48564","study_id":"6197b3f67c2b5cd3b6d9596a","session_id":"6197b9e9435f87700d731787","condition":"contingent","relevant_dimensions":["antennae","legs"],"bee_group":{"antennae":"B","wings":"X","pattern":"X","legs":"F"},"bonus":0.820000000000001},{"rt":2096,"stimulus":"bees-with-color/bee-B1DF.svg","response":0,"trial_type":"image-button-response","trial_index":35,"time_elapsed":416613,"internal_node_id":"0.0-4.0-0.14","subject_id":"5ba988cc4a16920001d48564","study_id":"6197b3f67c2b5cd3b6d9596a","session_id":"6197b9e9435f87700d731787","condition":"contingent","relevant_dimensions":["antennae","legs"],"bee_group":{"antennae":"B","wings":"X","pattern":"X","legs":"F"},"action":"harvest","summary":"bad-harvest","bonus":0.820000000000001},{"rt":8327,"stimulus":"\n                    <p><b>Action: <em>harvest</em></b></p>\n                    <p>This is the bee that you just saw.</p>\n                    <img src=\"bees-with-color/bee-B1DF.svg\" width=\"200\">\n                    <p><span class=\"redText\">Bad choice, the bee was angry.</span><br><b>You have been stung!</b><br>Your pay has been decreased by $0.10. Your bonus pay is now $0.54.</p>\n            ","response":0,"trial_type":"html-button-response","trial_index":36,"time_elapsed":424941,"internal_node_id":"0.0-4.0-1.14","subject_id":"5ba988cc4a16920001d48564","study_id":"6197b3f67c2b5cd3b6d9596a","session_id":"6197b9e9435f87700d731787","condition":"contingent","relevant_dimensions":["antennae","legs"],"bee_group":{"antennae":"B","wings":"X","pattern":"X","legs":"F"},"bonus":0.820000000000001},{"rt":1758,"stimulus":"bees-with-color/bee-A2SF.svg","response":0,"trial_type":"image-button-response","trial_index":37,"time_elapsed":426701,"internal_node_id":"0.0-4.0-0.15","subject_id":"5ba988cc4a16920001d48564","study_id":"6197b3f67c2b5cd3b6d9596a","session_id":"6197b9e9435f87700d731787","condition":"contingent","relevant_dimensions":["antennae","legs"],"bee_group":{"antennae":"B","wings":"X","pattern":"X","legs":"F"},"action":"harvest","summary":"good-harvest","bonus":0.820000000000001},{"rt":808,"stimulus":"\n                    <p><b>Action: <em>harvest</em></b></p>\n                    <p>This is the bee that you just saw.</p>\n                    <img src=\"bees-with-color/bee-A2SF.svg\" width=\"200\">\n                    <p><span class=\"greenText\"><b>Successful harvest!</b></span><br>Your pay has increased by $0.02. Your bonus pay is now $0.56.</p>\n            ","response":0,"trial_type":"html-button-response","trial_index":38,"time_elapsed":427509,"internal_node_id":"0.0-4.0-1.15","subject_id":"5ba988cc4a16920001d48564","study_id":"6197b3f67c2b5cd3b6d9596a","session_id":"6197b9e9435f87700d731787","condition":"contingent","relevant_dimensions":["antennae","legs"],"bee_group":{"antennae":"B","wings":"X","pattern":"X","legs":"F"},"bonus":0.820000000000001},{"rt":1647,"stimulus":"bees-with-color/bee-A2SM.svg","response":0,"trial_type":"image-button-response","trial_index":39,"time_elapsed":429157,"internal_node_id":"0.0-4.0-0.16","subject_id":"5ba988cc4a16920001d48564","study_id":"6197b3f67c2b5cd3b6d9596a","session_id":"6197b9e9435f87700d731787","condition":"contingent","relevant_dimensions":["antennae","legs"],"bee_group":{"antennae":"B","wings":"X","pattern":"X","legs":"F"},"action":"harvest","summary":"good-harvest","bonus":0.820000000000001},{"rt":751,"stimulus":"\n                    <p><b>Action: <em>harvest</em></b></p>\n                    <p>This is the bee that you just saw.</p>\n                    <img src=\"bees-with-color/bee-A2SM.svg\" width=\"200\">\n                    <p><span class=\"greenText\"><b>Successful harvest!</b></span><br>Your pay has increased by $0.02. Your bonus pay is now $0.58.</p>\n            ","response":0,"trial_type":"html-button-response","trial_index":40,"time_elapsed":429909,"internal_node_id":"0.0-4.0-1.16","subject_id":"5ba988cc4a16920001d48564","study_id":"6197b3f67c2b5cd3b6d9596a","session_id":"6197b9e9435f87700d731787","condition":"contingent","relevant_dimensions":["antennae","legs"],"bee_group":{"antennae":"B","wings":"X","pattern":"X","legs":"F"},"bonus":0.820000000000001},{"rt":1408,"stimulus":"bees-with-color/bee-A1SM.svg","response":0,"trial_type":"image-button-response","trial_index":41,"time_elapsed":431317,"internal_node_id":"0.0-4.0-0.17","subject_id":"5ba988cc4a16920001d48564","study_id":"6197b3f67c2b5cd3b6d9596a","session_id":"6197b9e9435f87700d731787","condition":"contingent","relevant_dimensions":["antennae","legs"],"bee_group":{"antennae":"B","wings":"X","pattern":"X","legs":"F"},"action":"harvest","summary":"good-harvest","bonus":0.820000000000001},{"rt":624,"stimulus":"\n                    <p><b>Action: <em>harvest</em></b></p>\n                    <p>This is the bee that you just saw.</p>\n                    <img src=\"bees-with-color/bee-A1SM.svg\" width=\"200\">\n                    <p><span class=\"greenText\"><b>Successful harvest!</b></span><br>Your pay has increased by $0.02. Your bonus pay is now $0.60.</p>\n            ","response":0,"trial_type":"html-button-response","trial_index":42,"time_elapsed":431941,"internal_node_id":"0.0-4.0-1.17","subject_id":"5ba988cc4a16920001d48564","study_id":"6197b3f67c2b5cd3b6d9596a","session_id":"6197b9e9435f87700d731787","condition":"contingent","relevant_dimensions":["antennae","legs"],"bee_group":{"antennae":"B","wings":"X","pattern":"X","legs":"F"},"bonus":0.820000000000001},{"rt":1616,"stimulus":"bees-with-color/bee-B1SF.svg","response":1,"trial_type":"image-button-response","trial_index":43,"time_elapsed":433558,"internal_node_id":"0.0-4.0-0.18","subject_id":"5ba988cc4a16920001d48564","study_id":"6197b3f67c2b5cd3b6d9596a","session_id":"6197b9e9435f87700d731787","condition":"contingent","relevant_dimensions":["antennae","legs"],"bee_group":{"antennae":"B","wings":"X","pattern":"X","legs":"F"},"action":"avoid","summary":"good-avoid","bonus":0.820000000000001},{"rt":942,"stimulus":"\n                    <p><b>Action: <em>avoid</em></b></p>\n                    <p>This is the bee that you just saw.</p>\n                    <img src=\"bees-with-color/bee-B1SF.svg\" width=\"200\">\n                    <p><br>Your bonus pay is unchanged, and remains at $0.60.</p>\n            ","response":0,"trial_type":"html-button-response","trial_index":44,"time_elapsed":434500,"internal_node_id":"0.0-4.0-1.18","subject_id":"5ba988cc4a16920001d48564","study_id":"6197b3f67c2b5cd3b6d9596a","session_id":"6197b9e9435f87700d731787","condition":"contingent","relevant_dimensions":["antennae","legs"],"bee_group":{"antennae":"B","wings":"X","pattern":"X","legs":"F"},"bonus":0.820000000000001},{"rt":2992,"stimulus":"bees-with-color/bee-A2SF.svg","response":0,"trial_type":"image-button-response","trial_index":45,"time_elapsed":437493,"internal_node_id":"0.0-4.0-0.19","subject_id":"5ba988cc4a16920001d48564","study_id":"6197b3f67c2b5cd3b6d9596a","session_id":"6197b9e9435f87700d731787","condition":"contingent","relevant_dimensions":["antennae","legs"],"bee_group":{"antennae":"B","wings":"X","pattern":"X","legs":"F"},"action":"harvest","summary":"good-harvest","bonus":0.820000000000001},{"rt":710,"stimulus":"\n                    <p><b>Action: <em>harvest</em></b></p>\n                    <p>This is the bee that you just saw.</p>\n                    <img src=\"bees-with-color/bee-A2SF.svg\" width=\"200\">\n                    <p><span class=\"greenText\"><b>Successful harvest!</b></span><br>Your pay has increased by $0.02. Your bonus pay is now $0.62.</p>\n            ","response":0,"trial_type":"html-button-response","trial_index":46,"time_elapsed":438205,"internal_node_id":"0.0-4.0-1.19","subject_id":"5ba988cc4a16920001d48564","study_id":"6197b3f67c2b5cd3b6d9596a","session_id":"6197b9e9435f87700d731787","condition":"contingent","relevant_dimensions":["antennae","legs"],"bee_group":{"antennae":"B","wings":"X","pattern":"X","legs":"F"},"bonus":0.820000000000001},{"rt":1808,"stimulus":"bees-with-color/bee-A1DM.svg","response":0,"trial_type":"image-button-response","trial_index":47,"time_elapsed":440014,"internal_node_id":"0.0-4.0-0.20","subject_id":"5ba988cc4a16920001d48564","study_id":"6197b3f67c2b5cd3b6d9596a","session_id":"6197b9e9435f87700d731787","condition":"contingent","relevant_dimensions":["antennae","legs"],"bee_group":{"antennae":"B","wings":"X","pattern":"X","legs":"F"},"action":"harvest","summary":"good-harvest","bonus":0.820000000000001},{"rt":735,"stimulus":"\n                    <p><b>Action: <em>harvest</em></b></p>\n                    <p>This is the bee that you just saw.</p>\n                    <img src=\"bees-with-color/bee-A1DM.svg\" width=\"200\">\n                    <p><span class=\"greenText\"><b>Successful harvest!</b></span><br>Your pay has increased by $0.02. Your bonus pay is now $0.64.</p>\n            ","response":0,"trial_type":"html-button-response","trial_index":48,"time_elapsed":440750,"internal_node_id":"0.0-4.0-1.20","subject_id":"5ba988cc4a16920001d48564","study_id":"6197b3f67c2b5cd3b6d9596a","session_id":"6197b9e9435f87700d731787","condition":"contingent","relevant_dimensions":["antennae","legs"],"bee_group":{"antennae":"B","wings":"X","pattern":"X","legs":"F"},"bonus":0.820000000000001},{"rt":1702,"stimulus":"bees-with-color/bee-B2DM.svg","response":0,"trial_type":"image-button-response","trial_index":49,"time_elapsed":442453,"internal_node_id":"0.0-4.0-0.21","subject_id":"5ba988cc4a16920001d48564","study_id":"6197b3f67c2b5cd3b6d9596a","session_id":"6197b9e9435f87700d731787","condition":"contingent","relevant_dimensions":["antennae","legs"],"bee_group":{"antennae":"B","wings":"X","pattern":"X","legs":"F"},"action":"harvest","summary":"good-harvest","bonus":0.820000000000001},{"rt":728,"stimulus":"\n                    <p><b>Action: <em>harvest</em></b></p>\n                    <p>This is the bee that you just saw.</p>\n                    <img src=\"bees-with-color/bee-B2DM.svg\" width=\"200\">\n                    <p><span class=\"greenText\"><b>Successful harvest!</b></span><br>Your pay has increased by $0.02. Your bonus pay is now $0.66.</p>\n            ","response":0,"trial_type":"html-button-response","trial_index":50,"time_elapsed":443181,"internal_node_id":"0.0-4.0-1.21","subject_id":"5ba988cc4a16920001d48564","study_id":"6197b3f67c2b5cd3b6d9596a","session_id":"6197b9e9435f87700d731787","condition":"contingent","relevant_dimensions":["antennae","legs"],"bee_group":{"antennae":"B","wings":"X","pattern":"X","legs":"F"},"bonus":0.820000000000001},{"rt":4832,"stimulus":"bees-with-color/bee-B2DF.svg","response":0,"trial_type":"image-button-response","trial_index":51,"time_elapsed":448013,"internal_node_id":"0.0-4.0-0.22","subject_id":"5ba988cc4a16920001d48564","study_id":"6197b3f67c2b5cd3b6d9596a","session_id":"6197b9e9435f87700d731787","condition":"contingent","relevant_dimensions":["antennae","legs"],"bee_group":{"antennae":"B","wings":"X","pattern":"X","legs":"F"},"action":"harvest","summary":"bad-harvest","bonus":0.820000000000001},{"rt":2918,"stimulus":"\n                    <p><b>Action: <em>harvest</em></b></p>\n                    <p>This is the bee that you just saw.</p>\n                    <img src=\"bees-with-color/bee-B2DF.svg\" width=\"200\">\n                    <p><span class=\"redText\">Bad choice, the bee was angry.</span><br><b>You have been stung!</b><br>Your pay has been decreased by $0.10. Your bonus pay is now $0.56.</p>\n            ","response":0,"trial_type":"html-button-response","trial_index":52,"time_elapsed":450933,"internal_node_id":"0.0-4.0-1.22","subject_id":"5ba988cc4a16920001d48564","study_id":"6197b3f67c2b5cd3b6d9596a","session_id":"6197b9e9435f87700d731787","condition":"contingent","relevant_dimensions":["antennae","legs"],"bee_group":{"antennae":"B","wings":"X","pattern":"X","legs":"F"},"bonus":0.820000000000001},{"rt":1600,"stimulus":"bees-with-color/bee-B1DM.svg","response":0,"trial_type":"image-button-response","trial_index":53,"time_elapsed":452533,"internal_node_id":"0.0-4.0-0.23","subject_id":"5ba988cc4a16920001d48564","study_id":"6197b3f67c2b5cd3b6d9596a","session_id":"6197b9e9435f87700d731787","condition":"contingent","relevant_dimensions":["antennae","legs"],"bee_group":{"antennae":"B","wings":"X","pattern":"X","legs":"F"},"action":"harvest","summary":"good-harvest","bonus":0.820000000000001},{"rt":694,"stimulus":"\n                    <p><b>Action: <em>harvest</em></b></p>\n                    <p>This is the bee that you just saw.</p>\n                    <img src=\"bees-with-color/bee-B1DM.svg\" width=\"200\">\n                    <p><span class=\"greenText\"><b>Successful harvest!</b></span><br>Your pay has increased by $0.02. Your bonus pay is now $0.58.</p>\n            ","response":0,"trial_type":"html-button-response","trial_index":54,"time_elapsed":453229,"internal_node_id":"0.0-4.0-1.23","subject_id":"5ba988cc4a16920001d48564","study_id":"6197b3f67c2b5cd3b6d9596a","session_id":"6197b9e9435f87700d731787","condition":"contingent","relevant_dimensions":["antennae","legs"],"bee_group":{"antennae":"B","wings":"X","pattern":"X","legs":"F"},"bonus":0.820000000000001},{"rt":3224,"stimulus":"bees-with-color/bee-A1SF.svg","response":0,"trial_type":"image-button-response","trial_index":55,"time_elapsed":456454,"internal_node_id":"0.0-4.0-0.24","subject_id":"5ba988cc4a16920001d48564","study_id":"6197b3f67c2b5cd3b6d9596a","session_id":"6197b9e9435f87700d731787","condition":"contingent","relevant_dimensions":["antennae","legs"],"bee_group":{"antennae":"B","wings":"X","pattern":"X","legs":"F"},"action":"harvest","summary":"good-harvest","bonus":0.820000000000001},{"rt":727,"stimulus":"\n                    <p><b>Action: <em>harvest</em></b></p>\n                    <p>This is the bee that you just saw.</p>\n                    <img src=\"bees-with-color/bee-A1SF.svg\" width=\"200\">\n                    <p><span class=\"greenText\"><b>Successful harvest!</b></span><br>Your pay has increased by $0.02. Your bonus pay is now $0.60.</p>\n            ","response":0,"trial_type":"html-button-response","trial_index":56,"time_elapsed":457181,"internal_node_id":"0.0-4.0-1.24","subject_id":"5ba988cc4a16920001d48564","study_id":"6197b3f67c2b5cd3b6d9596a","session_id":"6197b9e9435f87700d731787","condition":"contingent","relevant_dimensions":["antennae","legs"],"bee_group":{"antennae":"B","wings":"X","pattern":"X","legs":"F"},"bonus":0.820000000000001},{"rt":3663,"stimulus":"bees-with-color/bee-A1DF.svg","response":0,"trial_type":"image-button-response","trial_index":57,"time_elapsed":460845,"internal_node_id":"0.0-4.0-0.25","subject_id":"5ba988cc4a16920001d48564","study_id":"6197b3f67c2b5cd3b6d9596a","session_id":"6197b9e9435f87700d731787","condition":"contingent","relevant_dimensions":["antennae","legs"],"bee_group":{"antennae":"B","wings":"X","pattern":"X","legs":"F"},"action":"harvest","summary":"good-harvest","bonus":0.820000000000001},{"rt":871,"stimulus":"\n                    <p><b>Action: <em>harvest</em></b></p>\n                    <p>This is the bee that you just saw.</p>\n                    <img src=\"bees-with-color/bee-A1DF.svg\" width=\"200\">\n                    <p><span class=\"greenText\"><b>Successful harvest!</b></span><br>Your pay has increased by $0.02. Your bonus pay is now $0.62.</p>\n            ","response":0,"trial_type":"html-button-response","trial_index":58,"time_elapsed":461717,"internal_node_id":"0.0-4.0-1.25","subject_id":"5ba988cc4a16920001d48564","study_id":"6197b3f67c2b5cd3b6d9596a","session_id":"6197b9e9435f87700d731787","condition":"contingent","relevant_dimensions":["antennae","legs"],"bee_group":{"antennae":"B","wings":"X","pattern":"X","legs":"F"},"bonus":0.820000000000001},{"rt":2310,"stimulus":"bees-with-color/bee-B2SF.svg","response":1,"trial_type":"image-button-response","trial_index":59,"time_elapsed":464029,"internal_node_id":"0.0-4.0-0.26","subject_id":"5ba988cc4a16920001d48564","study_id":"6197b3f67c2b5cd3b6d9596a","session_id":"6197b9e9435f87700d731787","condition":"contingent","relevant_dimensions":["antennae","legs"],"bee_group":{"antennae":"B","wings":"X","pattern":"X","legs":"F"},"action":"avoid","summary":"good-avoid","bonus":0.820000000000001},{"rt":720,"stimulus":"\n                    <p><b>Action: <em>avoid</em></b></p>\n                    <p>This is the bee that you just saw.</p>\n                    <img src=\"bees-with-color/bee-B2SF.svg\" width=\"200\">\n                    <p><br>Your bonus pay is unchanged, and remains at $0.62.</p>\n            ","response":0,"trial_type":"html-button-response","trial_index":60,"time_elapsed":464749,"internal_node_id":"0.0-4.0-1.26","subject_id":"5ba988cc4a16920001d48564","study_id":"6197b3f67c2b5cd3b6d9596a","session_id":"6197b9e9435f87700d731787","condition":"contingent","relevant_dimensions":["antennae","legs"],"bee_group":{"antennae":"B","wings":"X","pattern":"X","legs":"F"},"bonus":0.820000000000001},{"rt":1990,"stimulus":"bees-with-color/bee-B1DF.svg","response":1,"trial_type":"image-button-response","trial_index":61,"time_elapsed":466741,"internal_node_id":"0.0-4.0-0.27","subject_id":"5ba988cc4a16920001d48564","study_id":"6197b3f67c2b5cd3b6d9596a","session_id":"6197b9e9435f87700d731787","condition":"contingent","relevant_dimensions":["antennae","legs"],"bee_group":{"antennae":"B","wings":"X","pattern":"X","legs":"F"},"action":"avoid","summary":"good-avoid","bonus":0.820000000000001},{"rt":952,"stimulus":"\n                    <p><b>Action: <em>avoid</em></b></p>\n                    <p>This is the bee that you just saw.</p>\n                    <img src=\"bees-with-color/bee-B1DF.svg\" width=\"200\">\n                    <p><br>Your bonus pay is unchanged, and remains at $0.62.</p>\n            ","response":0,"trial_type":"html-button-response","trial_index":62,"time_elapsed":467694,"internal_node_id":"0.0-4.0-1.27","subject_id":"5ba988cc4a16920001d48564","study_id":"6197b3f67c2b5cd3b6d9596a","session_id":"6197b9e9435f87700d731787","condition":"contingent","relevant_dimensions":["antennae","legs"],"bee_group":{"antennae":"B","wings":"X","pattern":"X","legs":"F"},"bonus":0.820000000000001},{"rt":1039,"stimulus":"bees-with-color/bee-A2DF.svg","response":0,"trial_type":"image-button-response","trial_index":63,"time_elapsed":468734,"internal_node_id":"0.0-4.0-0.28","subject_id":"5ba988cc4a16920001d48564","study_id":"6197b3f67c2b5cd3b6d9596a","session_id":"6197b9e9435f87700d731787","condition":"contingent","relevant_dimensions":["antennae","legs"],"bee_group":{"antennae":"B","wings":"X","pattern":"X","legs":"F"},"action":"harvest","summary":"good-harvest","bonus":0.820000000000001},{"rt":887,"stimulus":"\n                    <p><b>Action: <em>harvest</em></b></p>\n                    <p>This is the bee that you just saw.</p>\n                    <img src=\"bees-with-color/bee-A2DF.svg\" width=\"200\">\n                    <p><span class=\"greenText\"><b>Successful harvest!</b></span><br>Your pay has increased by $0.02. Your bonus pay is now $0.64.</p>\n            ","response":0,"trial_type":"html-button-response","trial_index":64,"time_elapsed":469621,"internal_node_id":"0.0-4.0-1.28","subject_id":"5ba988cc4a16920001d48564","study_id":"6197b3f67c2b5cd3b6d9596a","session_id":"6197b9e9435f87700d731787","condition":"contingent","relevant_dimensions":["antennae","legs"],"bee_group":{"antennae":"B","wings":"X","pattern":"X","legs":"F"},"bonus":0.820000000000001},{"rt":1336,"stimulus":"bees-with-color/bee-B2SM.svg","response":0,"trial_type":"image-button-response","trial_index":65,"time_elapsed":470957,"internal_node_id":"0.0-4.0-0.29","subject_id":"5ba988cc4a16920001d48564","study_id":"6197b3f67c2b5cd3b6d9596a","session_id":"6197b9e9435f87700d731787","condition":"contingent","relevant_dimensions":["antennae","legs"],"bee_group":{"antennae":"B","wings":"X","pattern":"X","legs":"F"},"action":"harvest","summary":"good-harvest","bonus":0.820000000000001},{"rt":607,"stimulus":"\n                    <p><b>Action: <em>harvest</em></b></p>\n                    <p>This is the bee that you just saw.</p>\n                    <img src=\"bees-with-color/bee-B2SM.svg\" width=\"200\">\n                    <p><span class=\"greenText\"><b>Successful harvest!</b></span><br>Your pay has increased by $0.02. Your bonus pay is now $0.66.</p>\n            ","response":0,"trial_type":"html-button-response","trial_index":66,"time_elapsed":471565,"internal_node_id":"0.0-4.0-1.29","subject_id":"5ba988cc4a16920001d48564","study_id":"6197b3f67c2b5cd3b6d9596a","session_id":"6197b9e9435f87700d731787","condition":"contingent","relevant_dimensions":["antennae","legs"],"bee_group":{"antennae":"B","wings":"X","pattern":"X","legs":"F"},"bonus":0.820000000000001},{"rt":1695,"stimulus":"bees-with-color/bee-A2DM.svg","response":0,"trial_type":"image-button-response","trial_index":67,"time_elapsed":473261,"internal_node_id":"0.0-4.0-0.30","subject_id":"5ba988cc4a16920001d48564","study_id":"6197b3f67c2b5cd3b6d9596a","session_id":"6197b9e9435f87700d731787","condition":"contingent","relevant_dimensions":["antennae","legs"],"bee_group":{"antennae":"B","wings":"X","pattern":"X","legs":"F"},"action":"harvest","summary":"good-harvest","bonus":0.820000000000001},{"rt":695,"stimulus":"\n                    <p><b>Action: <em>harvest</em></b></p>\n                    <p>This is the bee that you just saw.</p>\n                    <img src=\"bees-with-color/bee-A2DM.svg\" width=\"200\">\n                    <p><span class=\"greenText\"><b>Successful harvest!</b></span><br>Your pay has increased by $0.02. Your bonus pay is now $0.68.</p>\n            ","response":0,"trial_type":"html-button-response","trial_index":68,"time_elapsed":473957,"internal_node_id":"0.0-4.0-1.30","subject_id":"5ba988cc4a16920001d48564","study_id":"6197b3f67c2b5cd3b6d9596a","session_id":"6197b9e9435f87700d731787","condition":"contingent","relevant_dimensions":["antennae","legs"],"bee_group":{"antennae":"B","wings":"X","pattern":"X","legs":"F"},"bonus":0.820000000000001},{"rt":1920,"stimulus":"bees-with-color/bee-B1SM.svg","response":0,"trial_type":"image-button-response","trial_index":69,"time_elapsed":475877,"internal_node_id":"0.0-4.0-0.31","subject_id":"5ba988cc4a16920001d48564","study_id":"6197b3f67c2b5cd3b6d9596a","session_id":"6197b9e9435f87700d731787","condition":"contingent","relevant_dimensions":["antennae","legs"],"bee_group":{"antennae":"B","wings":"X","pattern":"X","legs":"F"},"action":"harvest","summary":"good-harvest","bonus":0.820000000000001},{"rt":583,"stimulus":"\n                    <p><b>Action: <em>harvest</em></b></p>\n                    <p>This is the bee that you just saw.</p>\n                    <img src=\"bees-with-color/bee-B1SM.svg\" width=\"200\">\n                    <p><span class=\"greenText\"><b>Successful harvest!</b></span><br>Your pay has increased by $0.02. Your bonus pay is now $0.70.</p>\n            ","response":0,"trial_type":"html-button-response","trial_index":70,"time_elapsed":476461,"internal_node_id":"0.0-4.0-1.31","subject_id":"5ba988cc4a16920001d48564","study_id":"6197b3f67c2b5cd3b6d9596a","session_id":"6197b9e9435f87700d731787","condition":"contingent","relevant_dimensions":["antennae","legs"],"bee_group":{"antennae":"B","wings":"X","pattern":"X","legs":"F"},"bonus":0.820000000000001},{"rt":2271,"stimulus":"bees-with-color/bee-B1DF.svg","response":1,"trial_type":"image-button-response","trial_index":71,"time_elapsed":478734,"internal_node_id":"0.0-4.0-0.32","subject_id":"5ba988cc4a16920001d48564","study_id":"6197b3f67c2b5cd3b6d9596a","session_id":"6197b9e9435f87700d731787","condition":"contingent","relevant_dimensions":["antennae","legs"],"bee_group":{"antennae":"B","wings":"X","pattern":"X","legs":"F"},"action":"avoid","summary":"good-avoid","bonus":0.820000000000001},{"rt":888,"stimulus":"\n                    <p><b>Action: <em>avoid</em></b></p>\n                    <p>This is the bee that you just saw.</p>\n                    <img src=\"bees-with-color/bee-B1DF.svg\" width=\"200\">\n                    <p><br>Your bonus pay is unchanged, and remains at $0.70.</p>\n            ","response":0,"trial_type":"html-button-response","trial_index":72,"time_elapsed":479621,"internal_node_id":"0.0-4.0-1.32","subject_id":"5ba988cc4a16920001d48564","study_id":"6197b3f67c2b5cd3b6d9596a","session_id":"6197b9e9435f87700d731787","condition":"contingent","relevant_dimensions":["antennae","legs"],"bee_group":{"antennae":"B","wings":"X","pattern":"X","legs":"F"},"bonus":0.820000000000001},{"rt":1919,"stimulus":"bees-with-color/bee-B2SM.svg","response":0,"trial_type":"image-button-response","trial_index":73,"time_elapsed":481541,"internal_node_id":"0.0-4.0-0.33","subject_id":"5ba988cc4a16920001d48564","study_id":"6197b3f67c2b5cd3b6d9596a","session_id":"6197b9e9435f87700d731787","condition":"contingent","relevant_dimensions":["antennae","legs"],"bee_group":{"antennae":"B","wings":"X","pattern":"X","legs":"F"},"action":"harvest","summary":"good-harvest","bonus":0.820000000000001},{"rt":640,"stimulus":"\n                    <p><b>Action: <em>harvest</em></b></p>\n                    <p>This is the bee that you just saw.</p>\n                    <img src=\"bees-with-color/bee-B2SM.svg\" width=\"200\">\n                    <p><span class=\"greenText\"><b>Successful harvest!</b></span><br>Your pay has increased by $0.02. Your bonus pay is now $0.72.</p>\n            ","response":0,"trial_type":"html-button-response","trial_index":74,"time_elapsed":482181,"internal_node_id":"0.0-4.0-1.33","subject_id":"5ba988cc4a16920001d48564","study_id":"6197b3f67c2b5cd3b6d9596a","session_id":"6197b9e9435f87700d731787","condition":"contingent","relevant_dimensions":["antennae","legs"],"bee_group":{"antennae":"B","wings":"X","pattern":"X","legs":"F"},"bonus":0.820000000000001},{"rt":1438,"stimulus":"bees-with-color/bee-A1DM.svg","response":0,"trial_type":"image-button-response","trial_index":75,"time_elapsed":483620,"internal_node_id":"0.0-4.0-0.34","subject_id":"5ba988cc4a16920001d48564","study_id":"6197b3f67c2b5cd3b6d9596a","session_id":"6197b9e9435f87700d731787","condition":"contingent","relevant_dimensions":["antennae","legs"],"bee_group":{"antennae":"B","wings":"X","pattern":"X","legs":"F"},"action":"harvest","summary":"good-harvest","bonus":0.820000000000001},{"rt":735,"stimulus":"\n                    <p><b>Action: <em>harvest</em></b></p>\n                    <p>This is the bee that you just saw.</p>\n                    <img src=\"bees-with-color/bee-A1DM.svg\" width=\"200\">\n                    <p><span class=\"greenText\"><b>Successful harvest!</b></span><br>Your pay has increased by $0.02. Your bonus pay is now $0.74.</p>\n            ","response":0,"trial_type":"html-button-response","trial_index":76,"time_elapsed":484357,"internal_node_id":"0.0-4.0-1.34","subject_id":"5ba988cc4a16920001d48564","study_id":"6197b3f67c2b5cd3b6d9596a","session_id":"6197b9e9435f87700d731787","condition":"contingent","relevant_dimensions":["antennae","legs"],"bee_group":{"antennae":"B","wings":"X","pattern":"X","legs":"F"},"bonus":0.820000000000001},{"rt":1559,"stimulus":"bees-with-color/bee-A1SM.svg","response":0,"trial_type":"image-button-response","trial_index":77,"time_elapsed":485917,"internal_node_id":"0.0-4.0-0.35","subject_id":"5ba988cc4a16920001d48564","study_id":"6197b3f67c2b5cd3b6d9596a","session_id":"6197b9e9435f87700d731787","condition":"contingent","relevant_dimensions":["antennae","legs"],"bee_group":{"antennae":"B","wings":"X","pattern":"X","legs":"F"},"action":"harvest","summary":"good-harvest","bonus":0.820000000000001},{"rt":648,"stimulus":"\n                    <p><b>Action: <em>harvest</em></b></p>\n                    <p>This is the bee that you just saw.</p>\n                    <img src=\"bees-with-color/bee-A1SM.svg\" width=\"200\">\n                    <p><span class=\"greenText\"><b>Successful harvest!</b></span><br>Your pay has increased by $0.02. Your bonus pay is now $0.76.</p>\n            ","response":0,"trial_type":"html-button-response","trial_index":78,"time_elapsed":486565,"internal_node_id":"0.0-4.0-1.35","subject_id":"5ba988cc4a16920001d48564","study_id":"6197b3f67c2b5cd3b6d9596a","session_id":"6197b9e9435f87700d731787","condition":"contingent","relevant_dimensions":["antennae","legs"],"bee_group":{"antennae":"B","wings":"X","pattern":"X","legs":"F"},"bonus":0.820000000000001},{"rt":2111,"stimulus":"bees-with-color/bee-B1DM.svg","response":0,"trial_type":"image-button-response","trial_index":79,"time_elapsed":488677,"internal_node_id":"0.0-4.0-0.36","subject_id":"5ba988cc4a16920001d48564","study_id":"6197b3f67c2b5cd3b6d9596a","session_id":"6197b9e9435f87700d731787","condition":"contingent","relevant_dimensions":["antennae","legs"],"bee_group":{"antennae":"B","wings":"X","pattern":"X","legs":"F"},"action":"harvest","summary":"good-harvest","bonus":0.820000000000001},{"rt":679,"stimulus":"\n                    <p><b>Action: <em>harvest</em></b></p>\n                    <p>This is the bee that you just saw.</p>\n                    <img src=\"bees-with-color/bee-B1DM.svg\" width=\"200\">\n                    <p><span class=\"greenText\"><b>Successful harvest!</b></span><br>Your pay has increased by $0.02. Your bonus pay is now $0.78.</p>\n            ","response":0,"trial_type":"html-button-response","trial_index":80,"time_elapsed":489357,"internal_node_id":"0.0-4.0-1.36","subject_id":"5ba988cc4a16920001d48564","study_id":"6197b3f67c2b5cd3b6d9596a","session_id":"6197b9e9435f87700d731787","condition":"contingent","relevant_dimensions":["antennae","legs"],"bee_group":{"antennae":"B","wings":"X","pattern":"X","legs":"F"},"bonus":0.820000000000001},{"rt":1592,"stimulus":"bees-with-color/bee-B1SM.svg","response":0,"trial_type":"image-button-response","trial_index":81,"time_elapsed":490949,"internal_node_id":"0.0-4.0-0.37","subject_id":"5ba988cc4a16920001d48564","study_id":"6197b3f67c2b5cd3b6d9596a","session_id":"6197b9e9435f87700d731787","condition":"contingent","relevant_dimensions":["antennae","legs"],"bee_group":{"antennae":"B","wings":"X","pattern":"X","legs":"F"},"action":"harvest","summary":"good-harvest","bonus":0.820000000000001},{"rt":688,"stimulus":"\n                    <p><b>Action: <em>harvest</em></b></p>\n                    <p>This is the bee that you just saw.</p>\n                    <img src=\"bees-with-color/bee-B1SM.svg\" width=\"200\">\n                    <p><span class=\"greenText\"><b>Successful harvest!</b></span><br>Your pay has increased by $0.02. Your bonus pay is now $0.80.</p>\n            ","response":0,"trial_type":"html-button-response","trial_index":82,"time_elapsed":491636,"internal_node_id":"0.0-4.0-1.37","subject_id":"5ba988cc4a16920001d48564","study_id":"6197b3f67c2b5cd3b6d9596a","session_id":"6197b9e9435f87700d731787","condition":"contingent","relevant_dimensions":["antennae","legs"],"bee_group":{"antennae":"B","wings":"X","pattern":"X","legs":"F"},"bonus":0.820000000000001},{"rt":1806,"stimulus":"bees-with-color/bee-B2SF.svg","response":1,"trial_type":"image-button-response","trial_index":83,"time_elapsed":493445,"internal_node_id":"0.0-4.0-0.38","subject_id":"5ba988cc4a16920001d48564","study_id":"6197b3f67c2b5cd3b6d9596a","session_id":"6197b9e9435f87700d731787","condition":"contingent","relevant_dimensions":["antennae","legs"],"bee_group":{"antennae":"B","wings":"X","pattern":"X","legs":"F"},"action":"avoid","summary":"good-avoid","bonus":0.820000000000001},{"rt":807,"stimulus":"\n                    <p><b>Action: <em>avoid</em></b></p>\n                    <p>This is the bee that you just saw.</p>\n                    <img src=\"bees-with-color/bee-B2SF.svg\" width=\"200\">\n                    <p><br>Your bonus pay is unchanged, and remains at $0.80.</p>\n            ","response":0,"trial_type":"html-button-response","trial_index":84,"time_elapsed":494253,"internal_node_id":"0.0-4.0-1.38","subject_id":"5ba988cc4a16920001d48564","study_id":"6197b3f67c2b5cd3b6d9596a","session_id":"6197b9e9435f87700d731787","condition":"contingent","relevant_dimensions":["antennae","legs"],"bee_group":{"antennae":"B","wings":"X","pattern":"X","legs":"F"},"bonus":0.820000000000001},{"rt":2246,"stimulus":"bees-with-color/bee-A2SM.svg","response":0,"trial_type":"image-button-response","trial_index":85,"time_elapsed":496501,"internal_node_id":"0.0-4.0-0.39","subject_id":"5ba988cc4a16920001d48564","study_id":"6197b3f67c2b5cd3b6d9596a","session_id":"6197b9e9435f87700d731787","condition":"contingent","relevant_dimensions":["antennae","legs"],"bee_group":{"antennae":"B","wings":"X","pattern":"X","legs":"F"},"action":"harvest","summary":"good-harvest","bonus":0.820000000000001},{"rt":599,"stimulus":"\n                    <p><b>Action: <em>harvest</em></b></p>\n                    <p>This is the bee that you just saw.</p>\n                    <img src=\"bees-with-color/bee-A2SM.svg\" width=\"200\">\n                    <p><span class=\"greenText\"><b>Successful harvest!</b></span><br>Your pay has increased by $0.02. Your bonus pay is now $0.82.</p>\n            ","response":0,"trial_type":"html-button-response","trial_index":86,"time_elapsed":497101,"internal_node_id":"0.0-4.0-1.39","subject_id":"5ba988cc4a16920001d48564","study_id":"6197b3f67c2b5cd3b6d9596a","session_id":"6197b9e9435f87700d731787","condition":"contingent","relevant_dimensions":["antennae","legs"],"bee_group":{"antennae":"B","wings":"X","pattern":"X","legs":"F"},"bonus":0.820000000000001},{"rt":1383,"stimulus":"bees-with-color/bee-A2DM.svg","response":0,"trial_type":"image-button-response","trial_index":87,"time_elapsed":498485,"internal_node_id":"0.0-4.0-0.40","subject_id":"5ba988cc4a16920001d48564","study_id":"6197b3f67c2b5cd3b6d9596a","session_id":"6197b9e9435f87700d731787","condition":"contingent","relevant_dimensions":["antennae","legs"],"bee_group":{"antennae":"B","wings":"X","pattern":"X","legs":"F"},"action":"harvest","summary":"good-harvest","bonus":0.820000000000001},{"rt":696,"stimulus":"\n                    <p><b>Action: <em>harvest</em></b></p>\n                    <p>This is the bee that you just saw.</p>\n                    <img src=\"bees-with-color/bee-A2DM.svg\" width=\"200\">\n                    <p><span class=\"greenText\"><b>Successful harvest!</b></span><br>Your pay has increased by $0.02. Your bonus pay is now $0.84.</p>\n            ","response":0,"trial_type":"html-button-response","trial_index":88,"time_elapsed":499181,"internal_node_id":"0.0-4.0-1.40","subject_id":"5ba988cc4a16920001d48564","study_id":"6197b3f67c2b5cd3b6d9596a","session_id":"6197b9e9435f87700d731787","condition":"contingent","relevant_dimensions":["antennae","legs"],"bee_group":{"antennae":"B","wings":"X","pattern":"X","legs":"F"},"bonus":0.820000000000001},{"rt":2670,"stimulus":"bees-with-color/bee-B2DM.svg","response":0,"trial_type":"image-button-response","trial_index":89,"time_elapsed":501853,"internal_node_id":"0.0-4.0-0.41","subject_id":"5ba988cc4a16920001d48564","study_id":"6197b3f67c2b5cd3b6d9596a","session_id":"6197b9e9435f87700d731787","condition":"contingent","relevant_dimensions":["antennae","legs"],"bee_group":{"antennae":"B","wings":"X","pattern":"X","legs":"F"},"action":"harvest","summary":"good-harvest","bonus":0.820000000000001},{"rt":671,"stimulus":"\n                    <p><b>Action: <em>harvest</em></b></p>\n                    <p>This is the bee that you just saw.</p>\n                    <img src=\"bees-with-color/bee-B2DM.svg\" width=\"200\">\n                    <p><span class=\"greenText\"><b>Successful harvest!</b></span><br>Your pay has increased by $0.02. Your bonus pay is now $0.86.</p>\n            ","response":0,"trial_type":"html-button-response","trial_index":90,"time_elapsed":502526,"internal_node_id":"0.0-4.0-1.41","subject_id":"5ba988cc4a16920001d48564","study_id":"6197b3f67c2b5cd3b6d9596a","session_id":"6197b9e9435f87700d731787","condition":"contingent","relevant_dimensions":["antennae","legs"],"bee_group":{"antennae":"B","wings":"X","pattern":"X","legs":"F"},"bonus":0.820000000000001},{"rt":4111,"stimulus":"bees-with-color/bee-A1DF.svg","response":1,"trial_type":"image-button-response","trial_index":91,"time_elapsed":506637,"internal_node_id":"0.0-4.0-0.42","subject_id":"5ba988cc4a16920001d48564","study_id":"6197b3f67c2b5cd3b6d9596a","session_id":"6197b9e9435f87700d731787","condition":"contingent","relevant_dimensions":["antennae","legs"],"bee_group":{"antennae":"B","wings":"X","pattern":"X","legs":"F"},"action":"avoid","summary":"bad-avoid","bonus":0.820000000000001},{"rt":934,"stimulus":"\n                    <p><b>Action: <em>avoid</em></b></p>\n                    <p>This is the bee that you just saw.</p>\n                    <img src=\"bees-with-color/bee-A1DF.svg\" width=\"200\">\n                    <p><br>Your bonus pay is unchanged, and remains at $0.86.</p>\n            ","response":0,"trial_type":"html-button-response","trial_index":92,"time_elapsed":507573,"internal_node_id":"0.0-4.0-1.42","subject_id":"5ba988cc4a16920001d48564","study_id":"6197b3f67c2b5cd3b6d9596a","session_id":"6197b9e9435f87700d731787","condition":"contingent","relevant_dimensions":["antennae","legs"],"bee_group":{"antennae":"B","wings":"X","pattern":"X","legs":"F"},"bonus":0.820000000000001},{"rt":2272,"stimulus":"bees-with-color/bee-B2DF.svg","response":1,"trial_type":"image-button-response","trial_index":93,"time_elapsed":509845,"internal_node_id":"0.0-4.0-0.43","subject_id":"5ba988cc4a16920001d48564","study_id":"6197b3f67c2b5cd3b6d9596a","session_id":"6197b9e9435f87700d731787","condition":"contingent","relevant_dimensions":["antennae","legs"],"bee_group":{"antennae":"B","wings":"X","pattern":"X","legs":"F"},"action":"avoid","summary":"good-avoid","bonus":0.820000000000001},{"rt":654,"stimulus":"\n                    <p><b>Action: <em>avoid</em></b></p>\n                    <p>This is the bee that you just saw.</p>\n                    <img src=\"bees-with-color/bee-B2DF.svg\" width=\"200\">\n                    <p><br>Your bonus pay is unchanged, and remains at $0.86.</p>\n            ","response":0,"trial_type":"html-button-response","trial_index":94,"time_elapsed":510501,"internal_node_id":"0.0-4.0-1.43","subject_id":"5ba988cc4a16920001d48564","study_id":"6197b3f67c2b5cd3b6d9596a","session_id":"6197b9e9435f87700d731787","condition":"contingent","relevant_dimensions":["antennae","legs"],"bee_group":{"antennae":"B","wings":"X","pattern":"X","legs":"F"},"bonus":0.820000000000001},{"rt":3112,"stimulus":"bees-with-color/bee-A1SF.svg","response":0,"trial_type":"image-button-response","trial_index":95,"time_elapsed":513613,"internal_node_id":"0.0-4.0-0.44","subject_id":"5ba988cc4a16920001d48564","study_id":"6197b3f67c2b5cd3b6d9596a","session_id":"6197b9e9435f87700d731787","condition":"contingent","relevant_dimensions":["antennae","legs"],"bee_group":{"antennae":"B","wings":"X","pattern":"X","legs":"F"},"action":"harvest","summary":"good-harvest","bonus":0.820000000000001},{"rt":647,"stimulus":"\n                    <p><b>Action: <em>harvest</em></b></p>\n                    <p>This is the bee that you just saw.</p>\n                    <img src=\"bees-with-color/bee-A1SF.svg\" width=\"200\">\n                    <p><span class=\"greenText\"><b>Successful harvest!</b></span><br>Your pay has increased by $0.02. Your bonus pay is now $0.88.</p>\n            ","response":0,"trial_type":"html-button-response","trial_index":96,"time_elapsed":514262,"internal_node_id":"0.0-4.0-1.44","subject_id":"5ba988cc4a16920001d48564","study_id":"6197b3f67c2b5cd3b6d9596a","session_id":"6197b9e9435f87700d731787","condition":"contingent","relevant_dimensions":["antennae","legs"],"bee_group":{"antennae":"B","wings":"X","pattern":"X","legs":"F"},"bonus":0.820000000000001},{"rt":2199,"stimulus":"bees-with-color/bee-A2DF.svg","response":0,"trial_type":"image-button-response","trial_index":97,"time_elapsed":516461,"internal_node_id":"0.0-4.0-0.45","subject_id":"5ba988cc4a16920001d48564","study_id":"6197b3f67c2b5cd3b6d9596a","session_id":"6197b9e9435f87700d731787","condition":"contingent","relevant_dimensions":["antennae","legs"],"bee_group":{"antennae":"B","wings":"X","pattern":"X","legs":"F"},"action":"harvest","summary":"good-harvest","bonus":0.820000000000001},{"rt":559,"stimulus":"\n                    <p><b>Action: <em>harvest</em></b></p>\n                    <p>This is the bee that you just saw.</p>\n                    <img src=\"bees-with-color/bee-A2DF.svg\" width=\"200\">\n                    <p><span class=\"greenText\"><b>Successful harvest!</b></span><br>Your pay has increased by $0.02. Your bonus pay is now $0.90.</p>\n            ","response":0,"trial_type":"html-button-response","trial_index":98,"time_elapsed":517021,"internal_node_id":"0.0-4.0-1.45","subject_id":"5ba988cc4a16920001d48564","study_id":"6197b3f67c2b5cd3b6d9596a","session_id":"6197b9e9435f87700d731787","condition":"contingent","relevant_dimensions":["antennae","legs"],"bee_group":{"antennae":"B","wings":"X","pattern":"X","legs":"F"},"bonus":0.820000000000001},{"rt":2055,"stimulus":"bees-with-color/bee-A2SF.svg","response":0,"trial_type":"image-button-response","trial_index":99,"time_elapsed":519077,"internal_node_id":"0.0-4.0-0.46","subject_id":"5ba988cc4a16920001d48564","study_id":"6197b3f67c2b5cd3b6d9596a","session_id":"6197b9e9435f87700d731787","condition":"contingent","relevant_dimensions":["antennae","legs"],"bee_group":{"antennae":"B","wings":"X","pattern":"X","legs":"F"},"action":"harvest","summary":"good-harvest","bonus":0.820000000000001},{"rt":567,"stimulus":"\n                    <p><b>Action: <em>harvest</em></b></p>\n                    <p>This is the bee that you just saw.</p>\n                    <img src=\"bees-with-color/bee-A2SF.svg\" width=\"200\">\n                    <p><span class=\"greenText\"><b>Successful harvest!</b></span><br>Your pay has increased by $0.02. Your bonus pay is now $0.92.</p>\n            ","response":0,"trial_type":"html-button-response","trial_index":100,"time_elapsed":519645,"internal_node_id":"0.0-4.0-1.46","subject_id":"5ba988cc4a16920001d48564","study_id":"6197b3f67c2b5cd3b6d9596a","session_id":"6197b9e9435f87700d731787","condition":"contingent","relevant_dimensions":["antennae","legs"],"bee_group":{"antennae":"B","wings":"X","pattern":"X","legs":"F"},"bonus":0.820000000000001},{"rt":1143,"stimulus":"bees-with-color/bee-B1SF.svg","response":1,"trial_type":"image-button-response","trial_index":101,"time_elapsed":520789,"internal_node_id":"0.0-4.0-0.47","subject_id":"5ba988cc4a16920001d48564","study_id":"6197b3f67c2b5cd3b6d9596a","session_id":"6197b9e9435f87700d731787","condition":"contingent","relevant_dimensions":["antennae","legs"],"bee_group":{"antennae":"B","wings":"X","pattern":"X","legs":"F"},"action":"avoid","summary":"good-avoid","bonus":0.820000000000001},{"rt":671,"stimulus":"\n                    <p><b>Action: <em>avoid</em></b></p>\n                    <p>This is the bee that you just saw.</p>\n                    <img src=\"bees-with-color/bee-B1SF.svg\" width=\"200\">\n                    <p><br>Your bonus pay is unchanged, and remains at $0.92.</p>\n            ","response":0,"trial_type":"html-button-response","trial_index":102,"time_elapsed":521462,"internal_node_id":"0.0-4.0-1.47","subject_id":"5ba988cc4a16920001d48564","study_id":"6197b3f67c2b5cd3b6d9596a","session_id":"6197b9e9435f87700d731787","condition":"contingent","relevant_dimensions":["antennae","legs"],"bee_group":{"antennae":"B","wings":"X","pattern":"X","legs":"F"},"bonus":0.820000000000001},{"rt":1359,"stimulus":"bees-with-color/bee-B2SM.svg","response":0,"trial_type":"image-button-response","trial_index":103,"time_elapsed":522822,"internal_node_id":"0.0-4.0-0.48","subject_id":"5ba988cc4a16920001d48564","study_id":"6197b3f67c2b5cd3b6d9596a","session_id":"6197b9e9435f87700d731787","condition":"contingent","relevant_dimensions":["antennae","legs"],"bee_group":{"antennae":"B","wings":"X","pattern":"X","legs":"F"},"action":"harvest","summary":"good-harvest","bonus":0.820000000000001},{"rt":543,"stimulus":"\n                    <p><b>Action: <em>harvest</em></b></p>\n                    <p>This is the bee that you just saw.</p>\n                    <img src=\"bees-with-color/bee-B2SM.svg\" width=\"200\">\n                    <p><span class=\"greenText\"><b>Successful harvest!</b></span><br>Your pay has increased by $0.02. Your bonus pay is now $0.94.</p>\n            ","response":0,"trial_type":"html-button-response","trial_index":104,"time_elapsed":523365,"internal_node_id":"0.0-4.0-1.48","subject_id":"5ba988cc4a16920001d48564","study_id":"6197b3f67c2b5cd3b6d9596a","session_id":"6197b9e9435f87700d731787","condition":"contingent","relevant_dimensions":["antennae","legs"],"bee_group":{"antennae":"B","wings":"X","pattern":"X","legs":"F"},"bonus":0.820000000000001},{"rt":2431,"stimulus":"bees-with-color/bee-B2DM.svg","response":0,"trial_type":"image-button-response","trial_index":105,"time_elapsed":525797,"internal_node_id":"0.0-4.0-0.49","subject_id":"5ba988cc4a16920001d48564","study_id":"6197b3f67c2b5cd3b6d9596a","session_id":"6197b9e9435f87700d731787","condition":"contingent","relevant_dimensions":["antennae","legs"],"bee_group":{"antennae":"B","wings":"X","pattern":"X","legs":"F"},"action":"harvest","summary":"good-harvest","bonus":0.820000000000001},{"rt":614,"stimulus":"\n                    <p><b>Action: <em>harvest</em></b></p>\n                    <p>This is the bee that you just saw.</p>\n                    <img src=\"bees-with-color/bee-B2DM.svg\" width=\"200\">\n                    <p><span class=\"greenText\"><b>Successful harvest!</b></span><br>Your pay has increased by $0.02. Your bonus pay is now $0.96.</p>\n            ","response":0,"trial_type":"html-button-response","trial_index":106,"time_elapsed":526413,"internal_node_id":"0.0-4.0-1.49","subject_id":"5ba988cc4a16920001d48564","study_id":"6197b3f67c2b5cd3b6d9596a","session_id":"6197b9e9435f87700d731787","condition":"contingent","relevant_dimensions":["antennae","legs"],"bee_group":{"antennae":"B","wings":"X","pattern":"X","legs":"F"},"bonus":0.820000000000001},{"rt":1135,"stimulus":"bees-with-color/bee-B1DF.svg","response":1,"trial_type":"image-button-response","trial_index":107,"time_elapsed":527549,"internal_node_id":"0.0-4.0-0.50","subject_id":"5ba988cc4a16920001d48564","study_id":"6197b3f67c2b5cd3b6d9596a","session_id":"6197b9e9435f87700d731787","condition":"contingent","relevant_dimensions":["antennae","legs"],"bee_group":{"antennae":"B","wings":"X","pattern":"X","legs":"F"},"action":"avoid","summary":"good-avoid","bonus":0.820000000000001},{"rt":640,"stimulus":"\n                    <p><b>Action: <em>avoid</em></b></p>\n                    <p>This is the bee that you just saw.</p>\n                    <img src=\"bees-with-color/bee-B1DF.svg\" width=\"200\">\n                    <p><br>Your bonus pay is unchanged, and remains at $0.96.</p>\n            ","response":0,"trial_type":"html-button-response","trial_index":108,"time_elapsed":528190,"internal_node_id":"0.0-4.0-1.50","subject_id":"5ba988cc4a16920001d48564","study_id":"6197b3f67c2b5cd3b6d9596a","session_id":"6197b9e9435f87700d731787","condition":"contingent","relevant_dimensions":["antennae","legs"],"bee_group":{"antennae":"B","wings":"X","pattern":"X","legs":"F"},"bonus":0.820000000000001},{"rt":2327,"stimulus":"bees-with-color/bee-A1DF.svg","response":0,"trial_type":"image-button-response","trial_index":109,"time_elapsed":530516,"internal_node_id":"0.0-4.0-0.51","subject_id":"5ba988cc4a16920001d48564","study_id":"6197b3f67c2b5cd3b6d9596a","session_id":"6197b9e9435f87700d731787","condition":"contingent","relevant_dimensions":["antennae","legs"],"bee_group":{"antennae":"B","wings":"X","pattern":"X","legs":"F"},"action":"harvest","summary":"good-harvest","bonus":0.820000000000001},{"rt":728,"stimulus":"\n                    <p><b>Action: <em>harvest</em></b></p>\n                    <p>This is the bee that you just saw.</p>\n                    <img src=\"bees-with-color/bee-A1DF.svg\" width=\"200\">\n                    <p><span class=\"greenText\"><b>Successful harvest!</b></span><br>Your pay has increased by $0.02. Your bonus pay is now $0.98.</p>\n            ","response":0,"trial_type":"html-button-response","trial_index":110,"time_elapsed":531246,"internal_node_id":"0.0-4.0-1.51","subject_id":"5ba988cc4a16920001d48564","study_id":"6197b3f67c2b5cd3b6d9596a","session_id":"6197b9e9435f87700d731787","condition":"contingent","relevant_dimensions":["antennae","legs"],"bee_group":{"antennae":"B","wings":"X","pattern":"X","legs":"F"},"bonus":0.820000000000001},{"rt":6262,"stimulus":"bees-with-color/bee-B1DM.svg","response":0,"trial_type":"image-button-response","trial_index":111,"time_elapsed":537509,"internal_node_id":"0.0-4.0-0.52","subject_id":"5ba988cc4a16920001d48564","study_id":"6197b3f67c2b5cd3b6d9596a","session_id":"6197b9e9435f87700d731787","condition":"contingent","relevant_dimensions":["antennae","legs"],"bee_group":{"antennae":"B","wings":"X","pattern":"X","legs":"F"},"action":"harvest","summary":"good-harvest","bonus":0.820000000000001},{"rt":544,"stimulus":"\n                    <p><b>Action: <em>harvest</em></b></p>\n                    <p>This is the bee that you just saw.</p>\n                    <img src=\"bees-with-color/bee-B1DM.svg\" width=\"200\">\n                    <p><span class=\"greenText\"><b>Successful harvest!</b></span><br>Your pay has increased by $0.02. Your bonus pay is now $1.00.</p>\n            ","response":0,"trial_type":"html-button-response","trial_index":112,"time_elapsed":538053,"internal_node_id":"0.0-4.0-1.52","subject_id":"5ba988cc4a16920001d48564","study_id":"6197b3f67c2b5cd3b6d9596a","session_id":"6197b9e9435f87700d731787","condition":"contingent","relevant_dimensions":["antennae","legs"],"bee_group":{"antennae":"B","wings":"X","pattern":"X","legs":"F"},"bonus":0.820000000000001},{"rt":3335,"stimulus":"bees-with-color/bee-A2DF.svg","response":0,"trial_type":"image-button-response","trial_index":113,"time_elapsed":541389,"internal_node_id":"0.0-4.0-0.53","subject_id":"5ba988cc4a16920001d48564","study_id":"6197b3f67c2b5cd3b6d9596a","session_id":"6197b9e9435f87700d731787","condition":"contingent","relevant_dimensions":["antennae","legs"],"bee_group":{"antennae":"B","wings":"X","pattern":"X","legs":"F"},"action":"harvest","summary":"good-harvest","bonus":0.820000000000001},{"rt":702,"stimulus":"\n                    <p><b>Action: <em>harvest</em></b></p>\n                    <p>This is the bee that you just saw.</p>\n                    <img src=\"bees-with-color/bee-A2DF.svg\" width=\"200\">\n                    <p><span class=\"greenText\"><b>Successful harvest!</b></span><br>Your pay has increased by $0.02. Your bonus pay is now $1.02.</p>\n            ","response":0,"trial_type":"html-button-response","trial_index":114,"time_elapsed":542093,"internal_node_id":"0.0-4.0-1.53","subject_id":"5ba988cc4a16920001d48564","study_id":"6197b3f67c2b5cd3b6d9596a","session_id":"6197b9e9435f87700d731787","condition":"contingent","relevant_dimensions":["antennae","legs"],"bee_group":{"antennae":"B","wings":"X","pattern":"X","legs":"F"},"bonus":0.820000000000001},{"rt":2056,"stimulus":"bees-with-color/bee-A1SF.svg","response":0,"trial_type":"image-button-response","trial_index":115,"time_elapsed":544148,"internal_node_id":"0.0-4.0-0.54","subject_id":"5ba988cc4a16920001d48564","study_id":"6197b3f67c2b5cd3b6d9596a","session_id":"6197b9e9435f87700d731787","condition":"contingent","relevant_dimensions":["antennae","legs"],"bee_group":{"antennae":"B","wings":"X","pattern":"X","legs":"F"},"action":"harvest","summary":"good-harvest","bonus":0.820000000000001},{"rt":679,"stimulus":"\n                    <p><b>Action: <em>harvest</em></b></p>\n                    <p>This is the bee that you just saw.</p>\n                    <img src=\"bees-with-color/bee-A1SF.svg\" width=\"200\">\n                    <p><span class=\"greenText\"><b>Successful harvest!</b></span><br>Your pay has increased by $0.02. Your bonus pay is now $1.04.</p>\n            ","response":0,"trial_type":"html-button-response","trial_index":116,"time_elapsed":544830,"internal_node_id":"0.0-4.0-1.54","subject_id":"5ba988cc4a16920001d48564","study_id":"6197b3f67c2b5cd3b6d9596a","session_id":"6197b9e9435f87700d731787","condition":"contingent","relevant_dimensions":["antennae","legs"],"bee_group":{"antennae":"B","wings":"X","pattern":"X","legs":"F"},"bonus":0.820000000000001},{"rt":1304,"stimulus":"bees-with-color/bee-B1SF.svg","response":1,"trial_type":"image-button-response","trial_index":117,"time_elapsed":546132,"internal_node_id":"0.0-4.0-0.55","subject_id":"5ba988cc4a16920001d48564","study_id":"6197b3f67c2b5cd3b6d9596a","session_id":"6197b9e9435f87700d731787","condition":"contingent","relevant_dimensions":["antennae","legs"],"bee_group":{"antennae":"B","wings":"X","pattern":"X","legs":"F"},"action":"avoid","summary":"good-avoid","bonus":0.820000000000001},{"rt":648,"stimulus":"\n                    <p><b>Action: <em>avoid</em></b></p>\n                    <p>This is the bee that you just saw.</p>\n                    <img src=\"bees-with-color/bee-B1SF.svg\" width=\"200\">\n                    <p><br>Your bonus pay is unchanged, and remains at $1.04.</p>\n            ","response":0,"trial_type":"html-button-response","trial_index":118,"time_elapsed":546781,"internal_node_id":"0.0-4.0-1.55","subject_id":"5ba988cc4a16920001d48564","study_id":"6197b3f67c2b5cd3b6d9596a","session_id":"6197b9e9435f87700d731787","condition":"contingent","relevant_dimensions":["antennae","legs"],"bee_group":{"antennae":"B","wings":"X","pattern":"X","legs":"F"},"bonus":0.820000000000001},{"rt":1559,"stimulus":"bees-with-color/bee-A2SM.svg","response":0,"trial_type":"image-button-response","trial_index":119,"time_elapsed":548341,"internal_node_id":"0.0-4.0-0.56","subject_id":"5ba988cc4a16920001d48564","study_id":"6197b3f67c2b5cd3b6d9596a","session_id":"6197b9e9435f87700d731787","condition":"contingent","relevant_dimensions":["antennae","legs"],"bee_group":{"antennae":"B","wings":"X","pattern":"X","legs":"F"},"action":"harvest","summary":"good-harvest","bonus":0.820000000000001},{"rt":887,"stimulus":"\n                    <p><b>Action: <em>harvest</em></b></p>\n                    <p>This is the bee that you just saw.</p>\n                    <img src=\"bees-with-color/bee-A2SM.svg\" width=\"200\">\n                    <p><span class=\"greenText\"><b>Successful harvest!</b></span><br>Your pay has increased by $0.02. Your bonus pay is now $1.06.</p>\n            ","response":0,"trial_type":"html-button-response","trial_index":120,"time_elapsed":549228,"internal_node_id":"0.0-4.0-1.56","subject_id":"5ba988cc4a16920001d48564","study_id":"6197b3f67c2b5cd3b6d9596a","session_id":"6197b9e9435f87700d731787","condition":"contingent","relevant_dimensions":["antennae","legs"],"bee_group":{"antennae":"B","wings":"X","pattern":"X","legs":"F"},"bonus":0.820000000000001},{"rt":2535,"stimulus":"bees-with-color/bee-A2DM.svg","response":0,"trial_type":"image-button-response","trial_index":121,"time_elapsed":551766,"internal_node_id":"0.0-4.0-0.57","subject_id":"5ba988cc4a16920001d48564","study_id":"6197b3f67c2b5cd3b6d9596a","session_id":"6197b9e9435f87700d731787","condition":"contingent","relevant_dimensions":["antennae","legs"],"bee_group":{"antennae":"B","wings":"X","pattern":"X","legs":"F"},"action":"harvest","summary":"good-harvest","bonus":0.820000000000001},{"rt":614,"stimulus":"\n                    <p><b>Action: <em>harvest</em></b></p>\n                    <p>This is the bee that you just saw.</p>\n                    <img src=\"bees-with-color/bee-A2DM.svg\" width=\"200\">\n                    <p><span class=\"greenText\"><b>Successful harvest!</b></span><br>Your pay has increased by $0.02. Your bonus pay is now $1.08.</p>\n            ","response":0,"trial_type":"html-button-response","trial_index":122,"time_elapsed":552380,"internal_node_id":"0.0-4.0-1.57","subject_id":"5ba988cc4a16920001d48564","study_id":"6197b3f67c2b5cd3b6d9596a","session_id":"6197b9e9435f87700d731787","condition":"contingent","relevant_dimensions":["antennae","legs"],"bee_group":{"antennae":"B","wings":"X","pattern":"X","legs":"F"},"bonus":0.820000000000001},{"rt":1840,"stimulus":"bees-with-color/bee-A2SF.svg","response":0,"trial_type":"image-button-response","trial_index":123,"time_elapsed":554221,"internal_node_id":"0.0-4.0-0.58","subject_id":"5ba988cc4a16920001d48564","study_id":"6197b3f67c2b5cd3b6d9596a","session_id":"6197b9e9435f87700d731787","condition":"contingent","relevant_dimensions":["antennae","legs"],"bee_group":{"antennae":"B","wings":"X","pattern":"X","legs":"F"},"action":"harvest","summary":"good-harvest","bonus":0.820000000000001},{"rt":558,"stimulus":"\n                    <p><b>Action: <em>harvest</em></b></p>\n                    <p>This is the bee that you just saw.</p>\n                    <img src=\"bees-with-color/bee-A2SF.svg\" width=\"200\">\n                    <p><span class=\"greenText\"><b>Successful harvest!</b></span><br>Your pay has increased by $0.02. Your bonus pay is now $1.10.</p>\n            ","response":0,"trial_type":"html-button-response","trial_index":124,"time_elapsed":554781,"internal_node_id":"0.0-4.0-1.58","subject_id":"5ba988cc4a16920001d48564","study_id":"6197b3f67c2b5cd3b6d9596a","session_id":"6197b9e9435f87700d731787","condition":"contingent","relevant_dimensions":["antennae","legs"],"bee_group":{"antennae":"B","wings":"X","pattern":"X","legs":"F"},"bonus":0.820000000000001},{"rt":1359,"stimulus":"bees-with-color/bee-B2SF.svg","response":1,"trial_type":"image-button-response","trial_index":125,"time_elapsed":556141,"internal_node_id":"0.0-4.0-0.59","subject_id":"5ba988cc4a16920001d48564","study_id":"6197b3f67c2b5cd3b6d9596a","session_id":"6197b9e9435f87700d731787","condition":"contingent","relevant_dimensions":["antennae","legs"],"bee_group":{"antennae":"B","wings":"X","pattern":"X","legs":"F"},"action":"avoid","summary":"good-avoid","bonus":0.820000000000001},{"rt":488,"stimulus":"\n                    <p><b>Action: <em>avoid</em></b></p>\n                    <p>This is the bee that you just saw.</p>\n                    <img src=\"bees-with-color/bee-B2SF.svg\" width=\"200\">\n                    <p><br>Your bonus pay is unchanged, and remains at $1.10.</p>\n            ","response":0,"trial_type":"html-button-response","trial_index":126,"time_elapsed":556629,"internal_node_id":"0.0-4.0-1.59","subject_id":"5ba988cc4a16920001d48564","study_id":"6197b3f67c2b5cd3b6d9596a","session_id":"6197b9e9435f87700d731787","condition":"contingent","relevant_dimensions":["antennae","legs"],"bee_group":{"antennae":"B","wings":"X","pattern":"X","legs":"F"},"bonus":0.820000000000001},{"rt":2335,"stimulus":"bees-with-color/bee-A1DM.svg","response":0,"trial_type":"image-button-response","trial_index":127,"time_elapsed":558965,"internal_node_id":"0.0-4.0-0.60","subject_id":"5ba988cc4a16920001d48564","study_id":"6197b3f67c2b5cd3b6d9596a","session_id":"6197b9e9435f87700d731787","condition":"contingent","relevant_dimensions":["antennae","legs"],"bee_group":{"antennae":"B","wings":"X","pattern":"X","legs":"F"},"action":"harvest","summary":"good-harvest","bonus":0.820000000000001},{"rt":1263,"stimulus":"\n                    <p><b>Action: <em>harvest</em></b></p>\n                    <p>This is the bee that you just saw.</p>\n                    <img src=\"bees-with-color/bee-A1DM.svg\" width=\"200\">\n                    <p><span class=\"greenText\"><b>Successful harvest!</b></span><br>Your pay has increased by $0.02. Your bonus pay is now $1.12.</p>\n            ","response":0,"trial_type":"html-button-response","trial_index":128,"time_elapsed":560229,"internal_node_id":"0.0-4.0-1.60","subject_id":"5ba988cc4a16920001d48564","study_id":"6197b3f67c2b5cd3b6d9596a","session_id":"6197b9e9435f87700d731787","condition":"contingent","relevant_dimensions":["antennae","legs"],"bee_group":{"antennae":"B","wings":"X","pattern":"X","legs":"F"},"bonus":0.820000000000001},{"rt":1198,"stimulus":"bees-with-color/bee-B1SM.svg","response":1,"trial_type":"image-button-response","trial_index":129,"time_elapsed":561429,"internal_node_id":"0.0-4.0-0.61","subject_id":"5ba988cc4a16920001d48564","study_id":"6197b3f67c2b5cd3b6d9596a","session_id":"6197b9e9435f87700d731787","condition":"contingent","relevant_dimensions":["antennae","legs"],"bee_group":{"antennae":"B","wings":"X","pattern":"X","legs":"F"},"action":"avoid","summary":"bad-avoid","bonus":0.820000000000001},{"rt":568,"stimulus":"\n                    <p><b>Action: <em>avoid</em></b></p>\n                    <p>This is the bee that you just saw.</p>\n                    <img src=\"bees-with-color/bee-B1SM.svg\" width=\"200\">\n                    <p><br>Your bonus pay is unchanged, and remains at $1.12.</p>\n            ","response":0,"trial_type":"html-button-response","trial_index":130,"time_elapsed":561997,"internal_node_id":"0.0-4.0-1.61","subject_id":"5ba988cc4a16920001d48564","study_id":"6197b3f67c2b5cd3b6d9596a","session_id":"6197b9e9435f87700d731787","condition":"contingent","relevant_dimensions":["antennae","legs"],"bee_group":{"antennae":"B","wings":"X","pattern":"X","legs":"F"},"bonus":0.820000000000001},{"rt":1728,"stimulus":"bees-with-color/bee-B2DF.svg","response":1,"trial_type":"image-button-response","trial_index":131,"time_elapsed":563726,"internal_node_id":"0.0-4.0-0.62","subject_id":"5ba988cc4a16920001d48564","study_id":"6197b3f67c2b5cd3b6d9596a","session_id":"6197b9e9435f87700d731787","condition":"contingent","relevant_dimensions":["antennae","legs"],"bee_group":{"antennae":"B","wings":"X","pattern":"X","legs":"F"},"action":"avoid","summary":"good-avoid","bonus":0.820000000000001},{"rt":494,"stimulus":"\n                    <p><b>Action: <em>avoid</em></b></p>\n                    <p>This is the bee that you just saw.</p>\n                    <img src=\"bees-with-color/bee-B2DF.svg\" width=\"200\">\n                    <p><br>Your bonus pay is unchanged, and remains at $1.12.</p>\n            ","response":0,"trial_type":"html-button-response","trial_index":132,"time_elapsed":564221,"internal_node_id":"0.0-4.0-1.62","subject_id":"5ba988cc4a16920001d48564","study_id":"6197b3f67c2b5cd3b6d9596a","session_id":"6197b9e9435f87700d731787","condition":"contingent","relevant_dimensions":["antennae","legs"],"bee_group":{"antennae":"B","wings":"X","pattern":"X","legs":"F"},"bonus":0.820000000000001},{"rt":1047,"stimulus":"bees-with-color/bee-A1SM.svg","response":0,"trial_type":"image-button-response","trial_index":133,"time_elapsed":565269,"internal_node_id":"0.0-4.0-0.63","subject_id":"5ba988cc4a16920001d48564","study_id":"6197b3f67c2b5cd3b6d9596a","session_id":"6197b9e9435f87700d731787","condition":"contingent","relevant_dimensions":["antennae","legs"],"bee_group":{"antennae":"B","wings":"X","pattern":"X","legs":"F"},"action":"harvest","summary":"good-harvest","bonus":0.820000000000001},{"rt":624,"stimulus":"\n                    <p><b>Action: <em>harvest</em></b></p>\n                    <p>This is the bee that you just saw.</p>\n                    <img src=\"bees-with-color/bee-A1SM.svg\" width=\"200\">\n                    <p><span class=\"greenText\"><b>Successful harvest!</b></span><br>Your pay has increased by $0.02. Your bonus pay is now $1.14.</p>\n            ","response":0,"trial_type":"html-button-response","trial_index":134,"time_elapsed":565894,"internal_node_id":"0.0-4.0-1.63","subject_id":"5ba988cc4a16920001d48564","study_id":"6197b3f67c2b5cd3b6d9596a","session_id":"6197b9e9435f87700d731787","condition":"contingent","relevant_dimensions":["antennae","legs"],"bee_group":{"antennae":"B","wings":"X","pattern":"X","legs":"F"},"bonus":0.820000000000001},{"rt":10722,"stimulus":"You have completed the first part of this experiment.<br><br>You will now begin a shorter second part, in which you will receive no feedback.<br>The same rules regarding bonus pay apply.<br><br>Press any key to begin.","response":"enter","trial_type":"html-keyboard-response","trial_index":135,"time_elapsed":576615,"internal_node_id":"0.0-5.0","subject_id":"5ba988cc4a16920001d48564","study_id":"6197b3f67c2b5cd3b6d9596a","session_id":"6197b9e9435f87700d731787","condition":"contingent","relevant_dimensions":["antennae","legs"],"bee_group":{"antennae":"B","wings":"X","pattern":"X","legs":"F"},"bonus":0.820000000000001},{"rt":5604,"stimulus":"bees-with-color/bee-A2DM.svg","response":0,"trial_type":"image-button-response","trial_index":136,"time_elapsed":582221,"internal_node_id":"0.0-6.0-0.0","subject_id":"5ba988cc4a16920001d48564","study_id":"6197b3f67c2b5cd3b6d9596a","session_id":"6197b9e9435f87700d731787","condition":"contingent","relevant_dimensions":["antennae","legs"],"bee_group":{"antennae":"B","wings":"X","pattern":"X","legs":"F"},"bonus":0.820000000000001},{"rt":11969,"stimulus":"bees-with-color/bee-A1DF.svg","response":0,"trial_type":"image-button-response","trial_index":137,"time_elapsed":594190,"internal_node_id":"0.0-6.0-0.1","subject_id":"5ba988cc4a16920001d48564","study_id":"6197b3f67c2b5cd3b6d9596a","session_id":"6197b9e9435f87700d731787","condition":"contingent","relevant_dimensions":["antennae","legs"],"bee_group":{"antennae":"B","wings":"X","pattern":"X","legs":"F"},"bonus":0.820000000000001},{"rt":2398,"stimulus":"bees-with-color/bee-B2DM.svg","response":1,"trial_type":"image-button-response","trial_index":138,"time_elapsed":596589,"internal_node_id":"0.0-6.0-0.2","subject_id":"5ba988cc4a16920001d48564","study_id":"6197b3f67c2b5cd3b6d9596a","session_id":"6197b9e9435f87700d731787","condition":"contingent","relevant_dimensions":["antennae","legs"],"bee_group":{"antennae":"B","wings":"X","pattern":"X","legs":"F"},"bonus":0.820000000000001},{"rt":1375,"stimulus":"bees-with-color/bee-B2DF.svg","response":0,"trial_type":"image-button-response","trial_index":139,"time_elapsed":597965,"internal_node_id":"0.0-6.0-0.3","subject_id":"5ba988cc4a16920001d48564","study_id":"6197b3f67c2b5cd3b6d9596a","session_id":"6197b9e9435f87700d731787","condition":"contingent","relevant_dimensions":["antennae","legs"],"bee_group":{"antennae":"B","wings":"X","pattern":"X","legs":"F"},"bonus":0.820000000000001},{"rt":1038,"stimulus":"bees-with-color/bee-B1DF.svg","response":1,"trial_type":"image-button-response","trial_index":140,"time_elapsed":599005,"internal_node_id":"0.0-6.0-0.4","subject_id":"5ba988cc4a16920001d48564","study_id":"6197b3f67c2b5cd3b6d9596a","session_id":"6197b9e9435f87700d731787","condition":"contingent","relevant_dimensions":["antennae","legs"],"bee_group":{"antennae":"B","wings":"X","pattern":"X","legs":"F"},"bonus":0.820000000000001},{"rt":1958,"stimulus":"bees-with-color/bee-A1SM.svg","response":0,"trial_type":"image-button-response","trial_index":141,"time_elapsed":600965,"internal_node_id":"0.0-6.0-0.5","subject_id":"5ba988cc4a16920001d48564","study_id":"6197b3f67c2b5cd3b6d9596a","session_id":"6197b9e9435f87700d731787","condition":"contingent","relevant_dimensions":["antennae","legs"],"bee_group":{"antennae":"B","wings":"X","pattern":"X","legs":"F"},"bonus":0.820000000000001},{"rt":2111,"stimulus":"bees-with-color/bee-B2SM.svg","response":1,"trial_type":"image-button-response","trial_index":142,"time_elapsed":603077,"internal_node_id":"0.0-6.0-0.6","subject_id":"5ba988cc4a16920001d48564","study_id":"6197b3f67c2b5cd3b6d9596a","session_id":"6197b9e9435f87700d731787","condition":"contingent","relevant_dimensions":["antennae","legs"],"bee_group":{"antennae":"B","wings":"X","pattern":"X","legs":"F"},"bonus":0.820000000000001},{"rt":1248,"stimulus":"bees-with-color/bee-A2DF.svg","response":0,"trial_type":"image-button-response","trial_index":143,"time_elapsed":604325,"internal_node_id":"0.0-6.0-0.7","subject_id":"5ba988cc4a16920001d48564","study_id":"6197b3f67c2b5cd3b6d9596a","session_id":"6197b9e9435f87700d731787","condition":"contingent","relevant_dimensions":["antennae","legs"],"bee_group":{"antennae":"B","wings":"X","pattern":"X","legs":"F"},"bonus":0.820000000000001},{"rt":695,"stimulus":"bees-with-color/bee-B1SM.svg","response":0,"trial_type":"image-button-response","trial_index":144,"time_elapsed":605021,"internal_node_id":"0.0-6.0-0.8","subject_id":"5ba988cc4a16920001d48564","study_id":"6197b3f67c2b5cd3b6d9596a","session_id":"6197b9e9435f87700d731787","condition":"contingent","relevant_dimensions":["antennae","legs"],"bee_group":{"antennae":"B","wings":"X","pattern":"X","legs":"F"},"bonus":0.820000000000001},{"rt":1255,"stimulus":"bees-with-color/bee-A1DM.svg","response":0,"trial_type":"image-button-response","trial_index":145,"time_elapsed":606277,"internal_node_id":"0.0-6.0-0.9","subject_id":"5ba988cc4a16920001d48564","study_id":"6197b3f67c2b5cd3b6d9596a","session_id":"6197b9e9435f87700d731787","condition":"contingent","relevant_dimensions":["antennae","legs"],"bee_group":{"antennae":"B","wings":"X","pattern":"X","legs":"F"},"bonus":0.820000000000001},{"rt":1559,"stimulus":"bees-with-color/bee-A2SM.svg","response":0,"trial_type":"image-button-response","trial_index":146,"time_elapsed":607837,"internal_node_id":"0.0-6.0-0.10","subject_id":"5ba988cc4a16920001d48564","study_id":"6197b3f67c2b5cd3b6d9596a","session_id":"6197b9e9435f87700d731787","condition":"contingent","relevant_dimensions":["antennae","legs"],"bee_group":{"antennae":"B","wings":"X","pattern":"X","legs":"F"},"bonus":0.820000000000001},{"rt":1175,"stimulus":"bees-with-color/bee-B1SF.svg","response":0,"trial_type":"image-button-response","trial_index":147,"time_elapsed":609013,"internal_node_id":"0.0-6.0-0.11","subject_id":"5ba988cc4a16920001d48564","study_id":"6197b3f67c2b5cd3b6d9596a","session_id":"6197b9e9435f87700d731787","condition":"contingent","relevant_dimensions":["antennae","legs"],"bee_group":{"antennae":"B","wings":"X","pattern":"X","legs":"F"},"bonus":0.820000000000001},{"rt":1422,"stimulus":"bees-with-color/bee-B2SF.svg","response":0,"trial_type":"image-button-response","trial_index":148,"time_elapsed":610437,"internal_node_id":"0.0-6.0-0.12","subject_id":"5ba988cc4a16920001d48564","study_id":"6197b3f67c2b5cd3b6d9596a","session_id":"6197b9e9435f87700d731787","condition":"contingent","relevant_dimensions":["antennae","legs"],"bee_group":{"antennae":"B","wings":"X","pattern":"X","legs":"F"},"bonus":0.820000000000001},{"rt":799,"stimulus":"bees-with-color/bee-B1DM.svg","response":0,"trial_type":"image-button-response","trial_index":149,"time_elapsed":611237,"internal_node_id":"0.0-6.0-0.13","subject_id":"5ba988cc4a16920001d48564","study_id":"6197b3f67c2b5cd3b6d9596a","session_id":"6197b9e9435f87700d731787","condition":"contingent","relevant_dimensions":["antennae","legs"],"bee_group":{"antennae":"B","wings":"X","pattern":"X","legs":"F"},"bonus":0.820000000000001},{"rt":808,"stimulus":"bees-with-color/bee-A1SF.svg","response":0,"trial_type":"image-button-response","trial_index":150,"time_elapsed":612045,"internal_node_id":"0.0-6.0-0.14","subject_id":"5ba988cc4a16920001d48564","study_id":"6197b3f67c2b5cd3b6d9596a","session_id":"6197b9e9435f87700d731787","condition":"contingent","relevant_dimensions":["antennae","legs"],"bee_group":{"antennae":"B","wings":"X","pattern":"X","legs":"F"},"bonus":0.820000000000001},{"rt":863,"stimulus":"bees-with-color/bee-A2SF.svg","response":0,"trial_type":"image-button-response","trial_index":151,"time_elapsed":612909,"internal_node_id":"0.0-6.0-0.15","subject_id":"5ba988cc4a16920001d48564","study_id":"6197b3f67c2b5cd3b6d9596a","session_id":"6197b9e9435f87700d731787","condition":"contingent","relevant_dimensions":["antennae","legs"],"bee_group":{"antennae":"B","wings":"X","pattern":"X","legs":"F"},"bonus":0.820000000000001},{"rt":814,"stimulus":"bees-with-color/bee-B1SF.svg","response":0,"trial_type":"image-button-response","trial_index":152,"time_elapsed":613725,"internal_node_id":"0.0-6.0-0.16","subject_id":"5ba988cc4a16920001d48564","study_id":"6197b3f67c2b5cd3b6d9596a","session_id":"6197b9e9435f87700d731787","condition":"contingent","relevant_dimensions":["antennae","legs"],"bee_group":{"antennae":"B","wings":"X","pattern":"X","legs":"F"},"bonus":0.820000000000001},{"rt":760,"stimulus":"bees-with-color/bee-A1DM.svg","response":0,"trial_type":"image-button-response","trial_index":153,"time_elapsed":614485,"internal_node_id":"0.0-6.0-0.17","subject_id":"5ba988cc4a16920001d48564","study_id":"6197b3f67c2b5cd3b6d9596a","session_id":"6197b9e9435f87700d731787","condition":"contingent","relevant_dimensions":["antennae","legs"],"bee_group":{"antennae":"B","wings":"X","pattern":"X","legs":"F"},"bonus":0.820000000000001},{"rt":815,"stimulus":"bees-with-color/bee-B2SF.svg","response":0,"trial_type":"image-button-response","trial_index":154,"time_elapsed":615302,"internal_node_id":"0.0-6.0-0.18","subject_id":"5ba988cc4a16920001d48564","study_id":"6197b3f67c2b5cd3b6d9596a","session_id":"6197b9e9435f87700d731787","condition":"contingent","relevant_dimensions":["antennae","legs"],"bee_group":{"antennae":"B","wings":"X","pattern":"X","legs":"F"},"bonus":0.820000000000001},{"rt":975,"stimulus":"bees-with-color/bee-B1SM.svg","response":1,"trial_type":"image-button-response","trial_index":155,"time_elapsed":616277,"internal_node_id":"0.0-6.0-0.19","subject_id":"5ba988cc4a16920001d48564","study_id":"6197b3f67c2b5cd3b6d9596a","session_id":"6197b9e9435f87700d731787","condition":"contingent","relevant_dimensions":["antennae","legs"],"bee_group":{"antennae":"B","wings":"X","pattern":"X","legs":"F"},"bonus":0.820000000000001},{"rt":711,"stimulus":"bees-with-color/bee-A1DF.svg","response":0,"trial_type":"image-button-response","trial_index":156,"time_elapsed":616988,"internal_node_id":"0.0-6.0-0.20","subject_id":"5ba988cc4a16920001d48564","study_id":"6197b3f67c2b5cd3b6d9596a","session_id":"6197b9e9435f87700d731787","condition":"contingent","relevant_dimensions":["antennae","legs"],"bee_group":{"antennae":"B","wings":"X","pattern":"X","legs":"F"},"bonus":0.820000000000001},{"rt":776,"stimulus":"bees-with-color/bee-A2SF.svg","response":0,"trial_type":"image-button-response","trial_index":157,"time_elapsed":617765,"internal_node_id":"0.0-6.0-0.21","subject_id":"5ba988cc4a16920001d48564","study_id":"6197b3f67c2b5cd3b6d9596a","session_id":"6197b9e9435f87700d731787","condition":"contingent","relevant_dimensions":["antennae","legs"],"bee_group":{"antennae":"B","wings":"X","pattern":"X","legs":"F"},"bonus":0.820000000000001},{"rt":710,"stimulus":"bees-with-color/bee-B2SM.svg","response":0,"trial_type":"image-button-response","trial_index":158,"time_elapsed":618477,"internal_node_id":"0.0-6.0-0.22","subject_id":"5ba988cc4a16920001d48564","study_id":"6197b3f67c2b5cd3b6d9596a","session_id":"6197b9e9435f87700d731787","condition":"contingent","relevant_dimensions":["antennae","legs"],"bee_group":{"antennae":"B","wings":"X","pattern":"X","legs":"F"},"bonus":0.820000000000001},{"rt":671,"stimulus":"bees-with-color/bee-A1SM.svg","response":0,"trial_type":"image-button-response","trial_index":159,"time_elapsed":619149,"internal_node_id":"0.0-6.0-0.23","subject_id":"5ba988cc4a16920001d48564","study_id":"6197b3f67c2b5cd3b6d9596a","session_id":"6197b9e9435f87700d731787","condition":"contingent","relevant_dimensions":["antennae","legs"],"bee_group":{"antennae":"B","wings":"X","pattern":"X","legs":"F"},"bonus":0.820000000000001},{"rt":816,"stimulus":"bees-with-color/bee-B1DM.svg","response":1,"trial_type":"image-button-response","trial_index":160,"time_elapsed":619965,"internal_node_id":"0.0-6.0-0.24","subject_id":"5ba988cc4a16920001d48564","study_id":"6197b3f67c2b5cd3b6d9596a","session_id":"6197b9e9435f87700d731787","condition":"contingent","relevant_dimensions":["antennae","legs"],"bee_group":{"antennae":"B","wings":"X","pattern":"X","legs":"F"},"bonus":0.820000000000001},{"rt":695,"stimulus":"bees-with-color/bee-B2DF.svg","response":0,"trial_type":"image-button-response","trial_index":161,"time_elapsed":620661,"internal_node_id":"0.0-6.0-0.25","subject_id":"5ba988cc4a16920001d48564","study_id":"6197b3f67c2b5cd3b6d9596a","session_id":"6197b9e9435f87700d731787","condition":"contingent","relevant_dimensions":["antennae","legs"],"bee_group":{"antennae":"B","wings":"X","pattern":"X","legs":"F"},"bonus":0.820000000000001},{"rt":759,"stimulus":"bees-with-color/bee-B2DM.svg","response":0,"trial_type":"image-button-response","trial_index":162,"time_elapsed":621421,"internal_node_id":"0.0-6.0-0.26","subject_id":"5ba988cc4a16920001d48564","study_id":"6197b3f67c2b5cd3b6d9596a","session_id":"6197b9e9435f87700d731787","condition":"contingent","relevant_dimensions":["antennae","legs"],"bee_group":{"antennae":"B","wings":"X","pattern":"X","legs":"F"},"bonus":0.820000000000001},{"rt":639,"stimulus":"bees-with-color/bee-A2DM.svg","response":0,"trial_type":"image-button-response","trial_index":163,"time_elapsed":622062,"internal_node_id":"0.0-6.0-0.27","subject_id":"5ba988cc4a16920001d48564","study_id":"6197b3f67c2b5cd3b6d9596a","session_id":"6197b9e9435f87700d731787","condition":"contingent","relevant_dimensions":["antennae","legs"],"bee_group":{"antennae":"B","wings":"X","pattern":"X","legs":"F"},"bonus":0.820000000000001},{"rt":670,"stimulus":"bees-with-color/bee-B1DF.svg","response":0,"trial_type":"image-button-response","trial_index":164,"time_elapsed":622733,"internal_node_id":"0.0-6.0-0.28","subject_id":"5ba988cc4a16920001d48564","study_id":"6197b3f67c2b5cd3b6d9596a","session_id":"6197b9e9435f87700d731787","condition":"contingent","relevant_dimensions":["antennae","legs"],"bee_group":{"antennae":"B","wings":"X","pattern":"X","legs":"F"},"bonus":0.820000000000001},{"rt":688,"stimulus":"bees-with-color/bee-A2DF.svg","response":1,"trial_type":"image-button-response","trial_index":165,"time_elapsed":623421,"internal_node_id":"0.0-6.0-0.29","subject_id":"5ba988cc4a16920001d48564","study_id":"6197b3f67c2b5cd3b6d9596a","session_id":"6197b9e9435f87700d731787","condition":"contingent","relevant_dimensions":["antennae","legs"],"bee_group":{"antennae":"B","wings":"X","pattern":"X","legs":"F"},"bonus":0.820000000000001},{"rt":3855,"stimulus":"bees-with-color/bee-A1SF.svg","response":0,"trial_type":"image-button-response","trial_index":166,"time_elapsed":627277,"internal_node_id":"0.0-6.0-0.30","subject_id":"5ba988cc4a16920001d48564","study_id":"6197b3f67c2b5cd3b6d9596a","session_id":"6197b9e9435f87700d731787