[{"success":true,"trial_type":"fullscreen","trial_index":0,"time_elapsed":10527,"internal_node_id":"0.0-0.0","subject_id":"615a395e37b6993b6049d202","study_id":"6197b3f67c2b5cd3b6d9596a","session_id":"6197b891ce8258cd1857ae24","condition":"contingent","relevant_dimensions":["antennae","wings"],"bee_group":{"antennae":"B","wings":"2","pattern":"X","legs":"X"},"bonus":0.020000000000000236},{"success":true,"timeout":false,"failed_images":[],"failed_audio":[],"failed_video":[],"trial_type":"preload","trial_index":1,"time_elapsed":14978,"internal_node_id":"0.0-1.0","subject_id":"615a395e37b6993b6049d202","study_id":"6197b3f67c2b5cd3b6d9596a","session_id":"6197b891ce8258cd1857ae24","condition":"contingent","relevant_dimensions":["antennae","wings"],"bee_group":{"antennae":"B","wings":"2","pattern":"X","legs":"X"},"bonus":0.020000000000000236},{"rt":2129.300000000745,"stimulus":"Welcome! Press any key to begin.","response":" ","trial_type":"html-keyboard-response","trial_index":2,"time_elapsed":17112,"internal_node_id":"0.0-2.0","subject_id":"615a395e37b6993b6049d202","study_id":"6197b3f67c2b5cd3b6d9596a","session_id":"6197b891ce8258cd1857ae24","condition":"contingent","relevant_dimensions":["antennae","wings"],"bee_group":{"antennae":"B","wings":"2","pattern":"X","legs":"X"},"bonus":0.020000000000000236},{"view_history":[{"page_index":0,"viewing_time":3256},{"page_index":1,"viewing_time":3422},{"page_index":2,"viewing_time":15937.299999999814},{"page_index":3,"viewing_time":28527.700000000186},{"page_index":4,"viewing_time":25813.89999999944},{"page_index":5,"viewing_time":14686.400000000373},{"page_index":6,"viewing_time":14104.400000000373},{"page_index":7,"viewing_time":11499.399999999441},{"page_index":8,"viewing_time":9066.600000000559},{"page_index":9,"viewing_time":4966.199999999255},{"page_index":10,"viewing_time":8263.700000000186},{"page_index":11,"viewing_time":18292.299999999814},{"page_index":12,"viewing_time":22679.200000000186},{"page_index":13,"viewing_time":2773.600000000559},{"page_index":14,"viewing_time":4313}],"rt":187603,"trial_type":"instructions","trial_index":3,"time_elapsed":204717,"internal_node_id":"0.0-3.0-0.0","subject_id":"615a395e37b6993b6049d202","study_id":"6197b3f67c2b5cd3b6d9596a","session_id":"6197b891ce8258cd1857ae24","condition":"contingent","relevant_dimensions":["antennae","wings"],"bee_group":{"antennae":"B","wings":"2","pattern":"X","legs":"X"},"bonus":0.020000000000000236},{"rt":43245.60000000056,"response":{"Q0":["Two or six legs","Stripes or spots on body","Single or double wings","Antennae or no antennae"]},"question_order":[0],"trial_type":"survey-multi-select","trial_index":4,"time_elapsed":247989,"internal_node_id":"0.0-3.0-1.0","subject_id":"615a395e37b6993b6049d202","study_id":"6197b3f67c2b5cd3b6d9596a","session_id":"6197b891ce8258cd1857ae24","condition":"contingent","relevant_dimensions":["antennae","wings"],"bee_group":{"antennae":"B","wings":"2","pattern":"X","legs":"X"},"correct":true,"bonus":0.020000000000000236},{"rt":47524,"response":{"Q1":"Yes.","Q2":"Based on the four features of the bee.","Q3":"You do not learn if it was friendly or dangerous, and do not alter your bonus."},"question_order":[0,1,2],"trial_type":"survey-multi-choice","trial_index":5,"time_elapsed":295524,"internal_node_id":"0.0-3.0-2.0","subject_id":"615a395e37b6993b6049d202","study_id":"6197b3f67c2b5cd3b6d9596a","session_id":"6197b891ce8258cd1857ae24","condition":"contingent","relevant_dimensions":["antennae","wings"],"bee_group":{"antennae":"B","wings":"2","pattern":"X","legs":"X"},"correct":false,"bonus":0.020000000000000236},{"rt":6930.600000000559,"stimulus":"<p>You did not answer all comprehension questions correctly.<br>Press <b>continue</b> to review the instructions again.</p>","response":0,"trial_type":"html-button-response","trial_index":6,"time_elapsed":302462,"internal_node_id":"0.0-3.0-3.0","subject_id":"615a395e37b6993b6049d202","study_id":"6197b3f67c2b5cd3b6d9596a","session_id":"6197b891ce8258cd1857ae24","condition":"contingent","relevant_dimensions":["antennae","wings"],"bee_group":{"antennae":"B","wings":"2","pattern":"X","legs":"X"},"bonus":0.020000000000000236},{"view_history":[{"page_index":0,"viewing_time":2977.7999999998137},{"page_index":1,"viewing_time":32184.900000000373},{"page_index":2,"viewing_time":13006.299999999814},{"page_index":3,"viewing_time":36898.89999999944},{"page_index":4,"viewing_time":14464.800000000745},{"page_index":5,"viewing_time":3037},{"page_index":6,"viewing_time":10738.699999999255},{"page_index":7,"viewing_time":4403.200000000186},{"page_index":8,"viewing_time":2527.100000000559},{"page_index":9,"viewing_time":1951.699999999255},{"page_index":10,"viewing_time":2592.2000000001863},{"page_index":11,"viewing_time":12368.799999999814},{"page_index":12,"viewing_time":11576.800000000745},{"page_index":13,"viewing_time":1803.699999999255},{"page_index":14,"viewing_time":1417}],"rt":151950.7000000002,"trial_type":"instructions","trial_index":7,"time_elapsed":454418,"internal_node_id":"0.0-3.0-4.0-0.0","subject_id":"615a395e37b6993b6049d202","study_id":"6197b3f67c2b5cd3b6d9596a","session_id":"6197b891ce8258cd1857ae24","condition":"contingent","relevant_dimensions":["antennae","wings"],"bee_group":{"antennae":"B","wings":"2","pattern":"X","legs":"X"},"bonus":0.020000000000000236},{"rt":8907.700000000186,"response":{"Q0":["Two or six legs","Stripes or spots on body","Single or double wings","Antennae or no antennae"]},"question_order":[0],"trial_type":"survey-multi-select","trial_index":8,"time_elapsed":463361,"internal_node_id":"0.0-3.0-4.0-1.0","subject_id":"615a395e37b6993b6049d202","study_id":"6197b3f67c2b5cd3b6d9596a","session_id":"6197b891ce8258cd1857ae24","condition":"contingent","relevant_dimensions":["antennae","wings"],"bee_group":{"antennae":"B","wings":"2","pattern":"X","legs":"X"},"correct":true,"bonus":0.020000000000000236},{"rt":41237.799999999814,"response":{"Q1":"No.","Q2":"Based on the four features of the bee.","Q3":"You do not learn if it was friendly or dangerous, and do not alter your bonus."},"question_order":[0,1,2],"trial_type":"survey-multi-choice","trial_index":9,"time_elapsed":504606,"internal_node_id":"0.0-3.0-4.0-2.0","subject_id":"615a395e37b6993b6049d202","study_id":"6197b3f67c2b5cd3b6d9596a","session_id":"6197b891ce8258cd1857ae24","condition":"contingent","relevant_dimensions":["antennae","wings"],"bee_group":{"antennae":"B","wings":"2","pattern":"X","legs":"X"},"correct":true,"bonus":0.020000000000000236},{"rt":3551.9000000003725,"stimulus":"<p>Congrats, you got everything right<br>When you're ready, click the button below to continue to the experiment.</p>","response":0,"trial_type":"html-button-response","trial_index":10,"time_elapsed":508162,"internal_node_id":"0.0-3.0-4.0-3.0","subject_id":"615a395e37b6993b6049d202","study_id":"6197b3f67c2b5cd3b6d9596a","session_id":"6197b891ce8258cd1857ae24","condition":"contingent","relevant_dimensions":["antennae","wings"],"bee_group":{"antennae":"B","wings":"2","pattern":"X","legs":"X"},"bonus":0.020000000000000236},{"rt":42993.09999999963,"stimulus":"bees-with-color/bee-A1DM.svg","response":0,"trial_type":"image-button-response","trial_index":11,"time_elapsed":551169,"internal_node_id":"0.0-4.0-0.0","subject_id":"615a395e37b6993b6049d202","study_id":"6197b3f67c2b5cd3b6d9596a","session_id":"6197b891ce8258cd1857ae24","condition":"contingent","relevant_dimensions":["antennae","wings"],"bee_group":{"antennae":"B","wings":"2","pattern":"X","legs":"X"},"action":"harvest","summary":"good-harvest","bonus":0.020000000000000236},{"rt":5048.200000000186,"stimulus":"\n                    <p><b>Action: <em>harvest</em></b></p>\n                    <p>This is the bee that you just saw.</p>\n                    <img src=\"bees-with-color/bee-A1DM.svg\" width=\"200\">\n                    <p><span class=\"greenText\"><b>Successful harvest!</b></span><br>Your pay has increased by $0.02. Your bonus pay is now $0.56.</p>\n            ","response":0,"trial_type":"html-button-response","trial_index":12,"time_elapsed":556230,"internal_node_id":"0.0-4.0-1.0","subject_id":"615a395e37b6993b6049d202","study_id":"6197b3f67c2b5cd3b6d9596a","session_id":"6197b891ce8258cd1857ae24","condition":"contingent","relevant_dimensions":["antennae","wings"],"bee_group":{"antennae":"B","wings":"2","pattern":"X","legs":"X"},"bonus":0.020000000000000236},{"rt":31483.900000000373,"stimulus":"bees-with-color/bee-A2SM.svg","response":0,"trial_type":"image-button-response","trial_index":13,"time_elapsed":587722,"internal_node_id":"0.0-4.0-0.1","subject_id":"615a395e37b6993b6049d202","study_id":"6197b3f67c2b5cd3b6d9596a","session_id":"6197b891ce8258cd1857ae24","condition":"contingent","relevant_dimensions":["antennae","wings"],"bee_group":{"antennae":"B","wings":"2","pattern":"X","legs":"X"},"action":"harvest","summary":"good-harvest","bonus":0.020000000000000236},{"rt":3213.5999999996275,"stimulus":"\n                    <p><b>Action: <em>harvest</em></b></p>\n                    <p>This is the bee that you just saw.</p>\n                    <img src=\"bees-with-color/bee-A2SM.svg\" width=\"200\">\n                    <p><span class=\"greenText\"><b>Successful harvest!</b></span><br>Your pay has increased by $0.02. Your bonus pay is now $0.58.</p>\n            ","response":0,"trial_type":"html-button-response","trial_index":14,"time_elapsed":590944,"internal_node_id":"0.0-4.0-1.1","subject_id":"615a395e37b6993b6049d202","study_id":"6197b3f67c2b5cd3b6d9596a","session_id":"6197b891ce8258cd1857ae24","condition":"contingent","relevant_dimensions":["antennae","wings"],"bee_group":{"antennae":"B","wings":"2","pattern":"X","legs":"X"},"bonus":0.020000000000000236},{"rt":21593.60000000056,"stimulus":"bees-with-color/bee-B2DF.svg","response":1,"trial_type":"image-button-response","trial_index":15,"time_elapsed":612546,"internal_node_id":"0.0-4.0-0.2","subject_id":"615a395e37b6993b6049d202","study_id":"6197b3f67c2b5cd3b6d9596a","session_id":"6197b891ce8258cd1857ae24","condition":"contingent","relevant_dimensions":["antennae","wings"],"bee_group":{"antennae":"B","wings":"2","pattern":"X","legs":"X"},"action":"avoid","summary":"good-avoid","bonus":0.020000000000000236},{"rt":3768.2000000001863,"stimulus":"\n                    <p><b>Action: <em>avoid</em></b></p>\n                    <p>This is the bee that you just saw.</p>\n                    <img src=\"bees-with-color/bee-B2DF.svg\" width=\"200\">\n                    <p><br>Your bonus pay is unchanged, and remains at $0.58.</p>\n            ","response":0,"trial_type":"html-button-response","trial_index":16,"time_elapsed":616320,"internal_node_id":"0.0-4.0-1.2","subject_id":"615a395e37b6993b6049d202","study_id":"6197b3f67c2b5cd3b6d9596a","session_id":"6197b891ce8258cd1857ae24","condition":"contingent","relevant_dimensions":["antennae","wings"],"bee_group":{"antennae":"B","wings":"2","pattern":"X","legs":"X"},"bonus":0.020000000000000236},{"rt":14563.299999999814,"stimulus":"bees-with-color/bee-A1SF.svg","response":0,"trial_type":"image-button-response","trial_index":17,"time_elapsed":630890,"internal_node_id":"0.0-4.0-0.3","subject_id":"615a395e37b6993b6049d202","study_id":"6197b3f67c2b5cd3b6d9596a","session_id":"6197b891ce8258cd1857ae24","condition":"contingent","relevant_dimensions":["antennae","wings"],"bee_group":{"antennae":"B","wings":"2","pattern":"X","legs":"X"},"action":"harvest","summary":"good-harvest","bonus":0.020000000000000236},{"rt":4481,"stimulus":"\n                    <p><b>Action: <em>harvest</em></b></p>\n                    <p>This is the bee that you just saw.</p>\n                    <img src=\"bees-with-color/bee-A1SF.svg\" width=\"200\">\n                    <p><span class=\"greenText\"><b>Successful harvest!</b></span><br>Your pay has increased by $0.02. Your bonus pay is now $0.60.</p>\n            ","response":0,"trial_type":"html-button-response","trial_index":18,"time_elapsed":635377,"internal_node_id":"0.0-4.0-1.3","subject_id":"615a395e37b6993b6049d202","study_id":"6197b3f67c2b5cd3b6d9596a","session_id":"6197b891ce8258cd1857ae24","condition":"contingent","relevant_dimensions":["antennae","wings"],"bee_group":{"antennae":"B","wings":"2","pattern":"X","legs":"X"},"bonus":0.020000000000000236},{"rt":10439.899999999441,"stimulus":"bees-with-color/bee-A2SF.svg","response":0,"trial_type":"image-button-response","trial_index":19,"time_elapsed":645824,"internal_node_id":"0.0-4.0-0.4","subject_id":"615a395e37b6993b6049d202","study_id":"6197b3f67c2b5cd3b6d9596a","session_id":"6197b891ce8258cd1857ae24","condition":"contingent","relevant_dimensions":["antennae","wings"],"bee_group":{"antennae":"B","wings":"2","pattern":"X","legs":"X"},"action":"harvest","summary":"good-harvest","bonus":0.020000000000000236},{"rt":3762.2000000001863,"stimulus":"\n                    <p><b>Action: <em>harvest</em></b></p>\n                    <p>This is the bee that you just saw.</p>\n                    <img src=\"bees-with-color/bee-A2SF.svg\" width=\"200\">\n                    <p><span class=\"greenText\"><b>Successful harvest!</b></span><br>Your pay has increased by $0.02. Your bonus pay is now $0.62.</p>\n            ","response":0,"trial_type":"html-button-response","trial_index":20,"time_elapsed":649593,"internal_node_id":"0.0-4.0-1.4","subject_id":"615a395e37b6993b6049d202","study_id":"6197b3f67c2b5cd3b6d9596a","session_id":"6197b891ce8258cd1857ae24","condition":"contingent","relevant_dimensions":["antennae","wings"],"bee_group":{"antennae":"B","wings":"2","pattern":"X","legs":"X"},"bonus":0.020000000000000236},{"rt":9652.299999999814,"stimulus":"bees-with-color/bee-B1DM.svg","response":0,"trial_type":"image-button-response","trial_index":21,"time_elapsed":659254,"internal_node_id":"0.0-4.0-0.5","subject_id":"615a395e37b6993b6049d202","study_id":"6197b3f67c2b5cd3b6d9596a","session_id":"6197b891ce8258cd1857ae24","condition":"contingent","relevant_dimensions":["antennae","wings"],"bee_group":{"antennae":"B","wings":"2","pattern":"X","legs":"X"},"action":"harvest","summary":"good-harvest","bonus":0.020000000000000236},{"rt":2606.100000000559,"stimulus":"\n                    <p><b>Action: <em>harvest</em></b></p>\n                    <p>This is the bee that you just saw.</p>\n                    <img src=\"bees-with-color/bee-B1DM.svg\" width=\"200\">\n                    <p><span class=\"greenText\"><b>Successful harvest!</b></span><br>Your pay has increased by $0.02. Your bonus pay is now $0.64.</p>\n            ","response":0,"trial_type":"html-button-response","trial_index":22,"time_elapsed":661866,"internal_node_id":"0.0-4.0-1.5","subject_id":"615a395e37b6993b6049d202","study_id":"6197b3f67c2b5cd3b6d9596a","session_id":"6197b891ce8258cd1857ae24","condition":"contingent","relevant_dimensions":["antennae","wings"],"bee_group":{"antennae":"B","wings":"2","pattern":"X","legs":"X"},"bonus":0.020000000000000236},{"rt":20551.200000000186,"stimulus":"bees-with-color/bee-A2DM.svg","response":0,"trial_type":"image-button-response","trial_index":23,"time_elapsed":682425,"internal_node_id":"0.0-4.0-0.6","subject_id":"615a395e37b6993b6049d202","study_id":"6197b3f67c2b5cd3b6d9596a","session_id":"6197b891ce8258cd1857ae24","condition":"contingent","relevant_dimensions":["antennae","wings"],"bee_group":{"antennae":"B","wings":"2","pattern":"X","legs":"X"},"action":"harvest","summary":"good-harvest","bonus":0.020000000000000236},{"rt":3964.5,"stimulus":"\n                    <p><b>Action: <em>harvest</em></b></p>\n                    <p>This is the bee that you just saw.</p>\n                    <img src=\"bees-with-color/bee-A2DM.svg\" width=\"200\">\n                    <p><span class=\"greenText\"><b>Successful harvest!</b></span><br>Your pay has increased by $0.02. Your bonus pay is now $0.66.</p>\n            ","response":0,"trial_type":"html-button-response","trial_index":24,"time_elapsed":686396,"internal_node_id":"0.0-4.0-1.6","subject_id":"615a395e37b6993b6049d202","study_id":"6197b3f67c2b5cd3b6d9596a","session_id":"6197b891ce8258cd1857ae24","condition":"contingent","relevant_dimensions":["antennae","wings"],"bee_group":{"antennae":"B","wings":"2","pattern":"X","legs":"X"},"bonus":0.020000000000000236},{"rt":7745.200000000186,"stimulus":"bees-with-color/bee-B2SM.svg","response":0,"trial_type":"image-button-response","trial_index":25,"time_elapsed":694149,"internal_node_id":"0.0-4.0-0.7","subject_id":"615a395e37b6993b6049d202","study_id":"6197b3f67c2b5cd3b6d9596a","session_id":"6197b891ce8258cd1857ae24","condition":"contingent","relevant_dimensions":["antennae","wings"],"bee_group":{"antennae":"B","wings":"2","pattern":"X","legs":"X"},"action":"harvest","summary":"bad-harvest","bonus":0.020000000000000236},{"rt":3311.9000000003725,"stimulus":"\n                    <p><b>Action: <em>harvest</em></b></p>\n                    <p>This is the bee that you just saw.</p>\n                    <img src=\"bees-with-color/bee-B2SM.svg\" width=\"200\">\n                    <p><span class=\"redText\">Bad choice, the bee was angry.</span><br><b>You have been stung!</b><br>Your pay has been decreased by $0.10. Your bonus pay is now $0.56.</p>\n            ","response":0,"trial_type":"html-button-response","trial_index":26,"time_elapsed":697468,"internal_node_id":"0.0-4.0-1.7","subject_id":"615a395e37b6993b6049d202","study_id":"6197b3f67c2b5cd3b6d9596a","session_id":"6197b891ce8258cd1857ae24","condition":"contingent","relevant_dimensions":["antennae","wings"],"bee_group":{"antennae":"B","wings":"2","pattern":"X","legs":"X"},"bonus":0.020000000000000236},{"rt":1884.300000000745,"stimulus":"bees-with-color/bee-B2DM.svg","response":0,"trial_type":"image-button-response","trial_index":27,"time_elapsed":699362,"internal_node_id":"0.0-4.0-0.8","subject_id":"615a395e37b6993b6049d202","study_id":"6197b3f67c2b5cd3b6d9596a","session_id":"6197b891ce8258cd1857ae24","condition":"contingent","relevant_dimensions":["antennae","wings"],"bee_group":{"antennae":"B","wings":"2","pattern":"X","legs":"X"},"action":"harvest","summary":"bad-harvest","bonus":0.020000000000000236},{"rt":3940.2999999998137,"stimulus":"\n                    <p><b>Action: <em>harvest</em></b></p>\n                    <p>This is the bee that you just saw.</p>\n                    <img src=\"bees-with-color/bee-B2DM.svg\" width=\"200\">\n                    <p><span class=\"redText\">Bad choice, the bee was angry.</span><br><b>You have been stung!</b><br>Your pay has been decreased by $0.10. Your bonus pay is now $0.46.</p>\n            ","response":0,"trial_type":"html-button-response","trial_index":28,"time_elapsed":703309,"internal_node_id":"0.0-4.0-1.8","subject_id":"615a395e37b6993b6049d202","study_id":"6197b3f67c2b5cd3b6d9596a","session_id":"6197b891ce8258cd1857ae24","condition":"contingent","relevant_dimensions":["antennae","wings"],"bee_group":{"antennae":"B","wings":"2","pattern":"X","legs":"X"},"bonus":0.020000000000000236},{"rt":1572.7000000001863,"stimulus":"bees-with-color/bee-B1DF.svg","response":1,"trial_type":"image-button-response","trial_index":29,"time_elapsed":704890,"internal_node_id":"0.0-4.0-0.9","subject_id":"615a395e37b6993b6049d202","study_id":"6197b3f67c2b5cd3b6d9596a","session_id":"6197b891ce8258cd1857ae24","condition":"contingent","relevant_dimensions":["antennae","wings"],"bee_group":{"antennae":"B","wings":"2","pattern":"X","legs":"X"},"action":"avoid","summary":"bad-avoid","bonus":0.020000000000000236},{"rt":3438.0999999996275,"stimulus":"\n                    <p><b>Action: <em>avoid</em></b></p>\n                    <p>This is the bee that you just saw.</p>\n                    <img src=\"bees-with-color/bee-B1DF.svg\" width=\"200\">\n                    <p><br>Your bonus pay is unchanged, and remains at $0.46.</p>\n            ","response":0,"trial_type":"html-button-response","trial_index":30,"time_elapsed":708335,"internal_node_id":"0.0-4.0-1.9","subject_id":"615a395e37b6993b6049d202","study_id":"6197b3f67c2b5cd3b6d9596a","session_id":"6197b891ce8258cd1857ae24","condition":"contingent","relevant_dimensions":["antennae","wings"],"bee_group":{"antennae":"B","wings":"2","pattern":"X","legs":"X"},"bonus":0.020000000000000236},{"rt":3935.600000000559,"stimulus":"bees-with-color/bee-A2DF.svg","response":1,"trial_type":"image-button-response","trial_index":31,"time_elapsed":712278,"internal_node_id":"0.0-4.0-0.10","subject_id":"615a395e37b6993b6049d202","study_id":"6197b3f67c2b5cd3b6d9596a","session_id":"6197b891ce8258cd1857ae24","condition":"contingent","relevant_dimensions":["antennae","wings"],"bee_group":{"antennae":"B","wings":"2","pattern":"X","legs":"X"},"action":"avoid","summary":"bad-avoid","bonus":0.020000000000000236},{"rt":2740.4000000003725,"stimulus":"\n                    <p><b>Action: <em>avoid</em></b></p>\n                    <p>This is the bee that you just saw.</p>\n                    <img src=\"bees-with-color/bee-A2DF.svg\" width=\"200\">\n                    <p><br>Your bonus pay is unchanged, and remains at $0.46.</p>\n            ","response":0,"trial_type":"html-button-response","trial_index":32,"time_elapsed":715026,"internal_node_id":"0.0-4.0-1.10","subject_id":"615a395e37b6993b6049d202","study_id":"6197b3f67c2b5cd3b6d9596a","session_id":"6197b891ce8258cd1857ae24","condition":"contingent","relevant_dimensions":["antennae","wings"],"bee_group":{"antennae":"B","wings":"2","pattern":"X","legs":"X"},"bonus":0.020000000000000236},{"rt":2180.2999999998137,"stimulus":"bees-with-color/bee-B1SF.svg","response":1,"trial_type":"image-button-response","trial_index":33,"time_elapsed":717215,"internal_node_id":"0.0-4.0-0.11","subject_id":"615a395e37b6993b6049d202","study_id":"6197b3f67c2b5cd3b6d9596a","session_id":"6197b891ce8258cd1857ae24","condition":"contingent","relevant_dimensions":["antennae","wings"],"bee_group":{"antennae":"B","wings":"2","pattern":"X","legs":"X"},"action":"avoid","summary":"bad-avoid","bonus":0.020000000000000236},{"rt":2007.7000000001863,"stimulus":"\n                    <p><b>Action: <em>avoid</em></b></p>\n                    <p>This is the bee that you just saw.</p>\n                    <img src=\"bees-with-color/bee-B1SF.svg\" width=\"200\">\n                    <p><br>Your bonus pay is unchanged, and remains at $0.46.</p>\n            ","response":0,"trial_type":"html-button-response","trial_index":34,"time_elapsed":719230,"internal_node_id":"0.0-4.0-1.11","subject_id":"615a395e37b6993b6049d202","study_id":"6197b3f67c2b5cd3b6d9596a","session_id":"6197b891ce8258cd1857ae24","condition":"contingent","relevant_dimensions":["antennae","wings"],"bee_group":{"antennae":"B","wings":"2","pattern":"X","legs":"X"},"bonus":0.020000000000000236},{"rt":1843.5,"stimulus":"bees-with-color/bee-B2SF.svg","response":0,"trial_type":"image-button-response","trial_index":35,"time_elapsed":721085,"internal_node_id":"0.0-4.0-0.12","subject_id":"615a395e37b6993b6049d202","study_id":"6197b3f67c2b5cd3b6d9596a","session_id":"6197b891ce8258cd1857ae24","condition":"contingent","relevant_dimensions":["antennae","wings"],"bee_group":{"antennae":"B","wings":"2","pattern":"X","legs":"X"},"action":"harvest","summary":"bad-harvest","bonus":0.020000000000000236},{"rt":1783.699999999255,"stimulus":"\n                    <p><b>Action: <em>harvest</em></b></p>\n                    <p>This is the bee that you just saw.</p>\n                    <img src=\"bees-with-color/bee-B2SF.svg\" width=\"200\">\n                    <p><span class=\"redText\">Bad choice, the bee was angry.</span><br><b>You have been stung!</b><br>Your pay has been decreased by $0.10. Your bonus pay is now $0.36.</p>\n            ","response":0,"trial_type":"html-button-response","trial_index":36,"time_elapsed":722877,"internal_node_id":"0.0-4.0-1.12","subject_id":"615a395e37b6993b6049d202","study_id":"6197b3f67c2b5cd3b6d9596a","session_id":"6197b891ce8258cd1857ae24","condition":"contingent","relevant_dimensions":["antennae","wings"],"bee_group":{"antennae":"B","wings":"2","pattern":"X","legs":"X"},"bonus":0.020000000000000236},{"rt":1396.2000000001863,"stimulus":"bees-with-color/bee-B1SM.svg","response":1,"trial_type":"image-button-response","trial_index":37,"time_elapsed":724281,"internal_node_id":"0.0-4.0-0.13","subject_id":"615a395e37b6993b6049d202","study_id":"6197b3f67c2b5cd3b6d9596a","session_id":"6197b891ce8258cd1857ae24","condition":"contingent","relevant_dimensions":["antennae","wings"],"bee_group":{"antennae":"B","wings":"2","pattern":"X","legs":"X"},"action":"avoid","summary":"bad-avoid","bonus":0.020000000000000236},{"rt":1722,"stimulus":"\n                    <p><b>Action: <em>avoid</em></b></p>\n                    <p>This is the bee that you just saw.</p>\n                    <img src=\"bees-with-color/bee-B1SM.svg\" width=\"200\">\n                    <p><br>Your bonus pay is unchanged, and remains at $0.36.</p>\n            ","response":0,"trial_type":"html-button-response","trial_index":38,"time_elapsed":726010,"internal_node_id":"0.0-4.0-1.13","subject_id":"615a395e37b6993b6049d202","study_id":"6197b3f67c2b5cd3b6d9596a","session_id":"6197b891ce8258cd1857ae24","condition":"contingent","relevant_dimensions":["antennae","wings"],"bee_group":{"antennae":"B","wings":"2","pattern":"X","legs":"X"},"bonus":0.020000000000000236},{"rt":2179.5,"stimulus":"bees-with-color/bee-A1DF.svg","response":1,"trial_type":"image-button-response","trial_index":39,"time_elapsed":728199,"internal_node_id":"0.0-4.0-0.14","subject_id":"615a395e37b6993b6049d202","study_id":"6197b3f67c2b5cd3b6d9596a","session_id":"6197b891ce8258cd1857ae24","condition":"contingent","relevant_dimensions":["antennae","wings"],"bee_group":{"antennae":"B","wings":"2","pattern":"X","legs":"X"},"action":"avoid","summary":"bad-avoid","bonus":0.020000000000000236},{"rt":1945.5,"stimulus":"\n                    <p><b>Action: <em>avoid</em></b></p>\n                    <p>This is the bee that you just saw.</p>\n                    <img src=\"bees-with-color/bee-A1DF.svg\" width=\"200\">\n                    <p><br>Your bonus pay is unchanged, and remains at $0.36.</p>\n            ","response":0,"trial_type":"html-button-response","trial_index":40,"time_elapsed":730153,"internal_node_id":"0.0-4.0-1.14","subject_id":"615a395e37b6993b6049d202","study_id":"6197b3f67c2b5cd3b6d9596a","session_id":"6197b891ce8258cd1857ae24","condition":"contingent","relevant_dimensions":["antennae","wings"],"bee_group":{"antennae":"B","wings":"2","pattern":"X","legs":"X"},"bonus":0.020000000000000236},{"rt":1918,"stimulus":"bees-with-color/bee-A1SM.svg","response":1,"trial_type":"image-button-response","trial_index":41,"time_elapsed":732080,"internal_node_id":"0.0-4.0-0.15","subject_id":"615a395e37b6993b6049d202","study_id":"6197b3f67c2b5cd3b6d9596a","session_id":"6197b891ce8258cd1857ae24","condition":"contingent","relevant_dimensions":["antennae","wings"],"bee_group":{"antennae":"B","wings":"2","pattern":"X","legs":"X"},"action":"avoid","summary":"bad-avoid","bonus":0.020000000000000236},{"rt":1510,"stimulus":"\n                    <p><b>Action: <em>avoid</em></b></p>\n                    <p>This is the bee that you just saw.</p>\n                    <img src=\"bees-with-color/bee-A1SM.svg\" width=\"200\">\n                    <p><br>Your bonus pay is unchanged, and remains at $0.36.</p>\n            ","response":0,"trial_type":"html-button-response","trial_index":42,"time_elapsed":733597,"internal_node_id":"0.0-4.0-1.15","subject_id":"615a395e37b6993b6049d202","study_id":"6197b3f67c2b5cd3b6d9596a","session_id":"6197b891ce8258cd1857ae24","condition":"contingent","relevant_dimensions":["antennae","wings"],"bee_group":{"antennae":"B","wings":"2","pattern":"X","legs":"X"},"bonus":0.020000000000000236},{"rt":1259.3999999994412,"stimulus":"bees-with-color/bee-B1SF.svg","response":1,"trial_type":"image-button-response","trial_index":43,"time_elapsed":734866,"internal_node_id":"0.0-4.0-0.16","subject_id":"615a395e37b6993b6049d202","study_id":"6197b3f67c2b5cd3b6d9596a","session_id":"6197b891ce8258cd1857ae24","condition":"contingent","relevant_dimensions":["antennae","wings"],"bee_group":{"antennae":"B","wings":"2","pattern":"X","legs":"X"},"action":"avoid","summary":"bad-avoid","bonus":0.020000000000000236},{"rt":1510,"stimulus":"\n                    <p><b>Action: <em>avoid</em></b></p>\n                    <p>This is the bee that you just saw.</p>\n                    <img src=\"bees-with-color/bee-B1SF.svg\" width=\"200\">\n                    <p><br>Your bonus pay is unchanged, and remains at $0.36.</p>\n            ","response":0,"trial_type":"html-button-response","trial_index":44,"time_elapsed":736382,"internal_node_id":"0.0-4.0-1.16","subject_id":"615a395e37b6993b6049d202","study_id":"6197b3f67c2b5cd3b6d9596a","session_id":"6197b891ce8258cd1857ae24","condition":"contingent","relevant_dimensions":["antennae","wings"],"bee_group":{"antennae":"B","wings":"2","pattern":"X","legs":"X"},"bonus":0.020000000000000236},{"rt":1760.5,"stimulus":"bees-with-color/bee-B1SM.svg","response":1,"trial_type":"image-button-response","trial_index":45,"time_elapsed":738150,"internal_node_id":"0.0-4.0-0.17","subject_id":"615a395e37b6993b6049d202","study_id":"6197b3f67c2b5cd3b6d9596a","session_id":"6197b891ce8258cd1857ae24","condition":"contingent","relevant_dimensions":["antennae","wings"],"bee_group":{"antennae":"B","wings":"2","pattern":"X","legs":"X"},"action":"avoid","summary":"bad-avoid","bonus":0.020000000000000236},{"rt":1721.5,"stimulus":"\n                    <p><b>Action: <em>avoid</em></b></p>\n                    <p>This is the bee that you just saw.</p>\n                    <img src=\"bees-with-color/bee-B1SM.svg\" width=\"200\">\n                    <p><br>Your bonus pay is unchanged, and remains at $0.36.</p>\n            ","response":0,"trial_type":"html-button-response","trial_index":46,"time_elapsed":739878,"internal_node_id":"0.0-4.0-1.17","subject_id":"615a395e37b6993b6049d202","study_id":"6197b3f67c2b5cd3b6d9596a","session_id":"6197b891ce8258cd1857ae24","condition":"contingent","relevant_dimensions":["antennae","wings"],"bee_group":{"antennae":"B","wings":"2","pattern":"X","legs":"X"},"bonus":0.020000000000000236},{"rt":1447.1000000005588,"stimulus":"bees-with-color/bee-A1SM.svg","response":1,"trial_type":"image-button-response","trial_index":47,"time_elapsed":741335,"internal_node_id":"0.0-4.0-0.18","subject_id":"615a395e37b6993b6049d202","study_id":"6197b3f67c2b5cd3b6d9596a","session_id":"6197b891ce8258cd1857ae24","condition":"contingent","relevant_dimensions":["antennae","wings"],"bee_group":{"antennae":"B","wings":"2","pattern":"X","legs":"X"},"action":"avoid","summary":"bad-avoid","bonus":0.020000000000000236},{"rt":1369.5,"stimulus":"\n                    <p><b>Action: <em>avoid</em></b></p>\n                    <p>This is the bee that you just saw.</p>\n                    <img src=\"bees-with-color/bee-A1SM.svg\" width=\"200\">\n                    <p><br>Your bonus pay is unchanged, and remains at $0.36.</p>\n            ","response":0,"trial_type":"html-button-response","trial_index":48,"time_elapsed":742714,"internal_node_id":"0.0-4.0-1.18","subject_id":"615a395e37b6993b6049d202","study_id":"6197b3f67c2b5cd3b6d9596a","session_id":"6197b891ce8258cd1857ae24","condition":"contingent","relevant_dimensions":["antennae","wings"],"bee_group":{"antennae":"B","wings":"2","pattern":"X","legs":"X"},"bonus":0.020000000000000236},{"rt":1175.6000000005588,"stimulus":"bees-with-color/bee-B2DF.svg","response":1,"trial_type":"image-button-response","trial_index":49,"time_elapsed":743897,"internal_node_id":"0.0-4.0-0.19","subject_id":"615a395e37b6993b6049d202","study_id":"6197b3f67c2b5cd3b6d9596a","session_id":"6197b891ce8258cd1857ae24","condition":"contingent","relevant_dimensions":["antennae","wings"],"bee_group":{"antennae":"B","wings":"2","pattern":"X","legs":"X"},"action":"avoid","summary":"good-avoid","bonus":0.020000000000000236},{"rt":1359.5,"stimulus":"\n                    <p><b>Action: <em>avoid</em></b></p>\n                    <p>This is the bee that you just saw.</p>\n                    <img src=\"bees-with-color/bee-B2DF.svg\" width=\"200\">\n                    <p><br>Your bonus pay is unchanged, and remains at $0.36.</p>\n            ","response":0,"trial_type":"html-button-response","trial_index":50,"time_elapsed":745265,"internal_node_id":"0.0-4.0-1.19","subject_id":"615a395e37b6993b6049d202","study_id":"6197b3f67c2b5cd3b6d9596a","session_id":"6197b891ce8258cd1857ae24","condition":"contingent","relevant_dimensions":["antennae","wings"],"bee_group":{"antennae":"B","wings":"2","pattern":"X","legs":"X"},"bonus":0.020000000000000236},{"rt":1137.6000000005588,"stimulus":"bees-with-color/bee-A2DM.svg","response":1,"trial_type":"image-button-response","trial_index":51,"time_elapsed":746410,"internal_node_id":"0.0-4.0-0.20","subject_id":"615a395e37b6993b6049d202","study_id":"6197b3f67c2b5cd3b6d9596a","session_id":"6197b891ce8258cd1857ae24","condition":"contingent","relevant_dimensions":["antennae","wings"],"bee_group":{"antennae":"B","wings":"2","pattern":"X","legs":"X"},"action":"avoid","summary":"bad-avoid","bonus":0.020000000000000236},{"rt":1496.2000000001863,"stimulus":"\n                    <p><b>Action: <em>avoid</em></b></p>\n                    <p>This is the bee that you just saw.</p>\n                    <img src=\"bees-with-color/bee-A2DM.svg\" width=\"200\">\n                    <p><br>Your bonus pay is unchanged, and remains at $0.36.</p>\n            ","response":0,"trial_type":"html-button-response","trial_index":52,"time_elapsed":747914,"internal_node_id":"0.0-4.0-1.20","subject_id":"615a395e37b6993b6049d202","study_id":"6197b3f67c2b5cd3b6d9596a","session_id":"6197b891ce8258cd1857ae24","condition":"contingent","relevant_dimensions":["antennae","wings"],"bee_group":{"antennae":"B","wings":"2","pattern":"X","legs":"X"},"bonus":0.020000000000000236},{"rt":1247.2000000001863,"stimulus":"bees-with-color/bee-B2SF.svg","response":1,"trial_type":"image-button-response","trial_index":53,"time_elapsed":749169,"internal_node_id":"0.0-4.0-0.21","subject_id":"615a395e37b6993b6049d202","study_id":"6197b3f67c2b5cd3b6d9596a","session_id":"6197b891ce8258cd1857ae24","condition":"contingent","relevant_dimensions":["antennae","wings"],"bee_group":{"antennae":"B","wings":"2","pattern":"X","legs":"X"},"action":"avoid","summary":"good-avoid","bonus":0.020000000000000236},{"rt":1759.6000000005588,"stimulus":"\n                    <p><b>Action: <em>avoid</em></b></p>\n                    <p>This is the bee that you just saw.</p>\n                    <img src=\"bees-with-color/bee-B2SF.svg\" width=\"200\">\n                    <p><br>Your bonus pay is unchanged, and remains at $0.36.</p>\n            ","response":0,"trial_type":"html-button-response","trial_index":54,"time_elapsed":750937,"internal_node_id":"0.0-4.0-1.21","subject_id":"615a395e37b6993b6049d202","study_id":"6197b3f67c2b5cd3b6d9596a","session_id":"6197b891ce8258cd1857ae24","condition":"contingent","relevant_dimensions":["antennae","wings"],"bee_group":{"antennae":"B","wings":"2","pattern":"X","legs":"X"},"bonus":0.020000000000000236},{"rt":1110.2999999998137,"stimulus":"bees-with-color/bee-A2DF.svg","response":1,"trial_type":"image-button-response","trial_index":55,"time_elapsed":752055,"internal_node_id":"0.0-4.0-0.22","subject_id":"615a395e37b6993b6049d202","study_id":"6197b3f67c2b5cd3b6d9596a","session_id":"6197b891ce8258cd1857ae24","condition":"contingent","relevant_dimensions":["antennae","wings"],"bee_group":{"antennae":"B","wings":"2","pattern":"X","legs":"X"},"action":"avoid","summary":"bad-avoid","bonus":0.020000000000000236},{"rt":1322.5,"stimulus":"\n                    <p><b>Action: <em>avoid</em></b></p>\n                    <p>This is the bee that you just saw.</p>\n                    <img src=\"bees-with-color/bee-A2DF.svg\" width=\"200\">\n                    <p><br>Your bonus pay is unchanged, and remains at $0.36.</p>\n            ","response":0,"trial_type":"html-button-response","trial_index":56,"time_elapsed":753386,"internal_node_id":"0.0-4.0-1.22","subject_id":"615a395e37b6993b6049d202","study_id":"6197b3f67c2b5cd3b6d9596a","session_id":"6197b891ce8258cd1857ae24","condition":"contingent","relevant_dimensions":["antennae","wings"],"bee_group":{"antennae":"B","wings":"2","pattern":"X","legs":"X"},"bonus":0.020000000000000236},{"rt":1211.5,"stimulus":"bees-with-color/bee-A2SM.svg","response":1,"trial_type":"image-button-response","trial_index":57,"time_elapsed":754604,"internal_node_id":"0.0-4.0-0.23","subject_id":"615a395e37b6993b6049d202","study_id":"6197b3f67c2b5cd3b6d9596a","session_id":"6197b891ce8258cd1857ae24","condition":"contingent","relevant_dimensions":["antennae","wings"],"bee_group":{"antennae":"B","wings":"2","pattern":"X","legs":"X"},"action":"avoid","summary":"bad-avoid","bonus":0.020000000000000236},{"rt":1213.7999999998137,"stimulus":"\n                    <p><b>Action: <em>avoid</em></b></p>\n                    <p>This is the bee that you just saw.</p>\n                    <img src=\"bees-with-color/bee-A2SM.svg\" width=\"200\">\n                    <p><br>Your bonus pay is unchanged, and remains at $0.36.</p>\n            ","response":0,"trial_type":"html-button-response","trial_index":58,"time_elapsed":755823,"internal_node_id":"0.0-4.0-1.23","subject_id":"615a395e37b6993b6049d202","study_id":"6197b3f67c2b5cd3b6d9596a","session_id":"6197b891ce8258cd1857ae24","condition":"contingent","relevant_dimensions":["antennae","wings"],"bee_group":{"antennae":"B","wings":"2","pattern":"X","legs":"X"},"bonus":0.020000000000000236},{"rt":1237,"stimulus":"bees-with-color/bee-B2DM.svg","response":1,"trial_type":"image-button-response","trial_index":59,"time_elapsed":757067,"internal_node_id":"0.0-4.0-0.24","subject_id":"615a395e37b6993b6049d202","study_id":"6197b3f67c2b5cd3b6d9596a","session_id":"6197b891ce8258cd1857ae24","condition":"contingent","relevant_dimensions":["antennae","wings"],"bee_group":{"antennae":"B","wings":"2","pattern":"X","legs":"X"},"action":"avoid","summary":"good-avoid","bonus":0.020000000000000236},{"rt":1201.2999999998137,"stimulus":"\n                    <p><b>Action: <em>avoid</em></b></p>\n                    <p>This is the bee that you just saw.</p>\n                    <img src=\"bees-with-color/bee-B2DM.svg\" width=\"200\">\n                    <p><br>Your bonus pay is unchanged, and remains at $0.36.</p>\n            ","response":0,"trial_type":"html-button-response","trial_index":60,"time_elapsed":758273,"internal_node_id":"0.0-4.0-1.24","subject_id":"615a395e37b6993b6049d202","study_id":"6197b3f67c2b5cd3b6d9596a","session_id":"6197b891ce8258cd1857ae24","condition":"contingent","relevant_dimensions":["antennae","wings"],"bee_group":{"antennae":"B","wings":"2","pattern":"X","legs":"X"},"bonus":0.020000000000000236},{"rt":1103.1000000005588,"stimulus":"bees-with-color/bee-A1SF.svg","response":1,"trial_type":"image-button-response","trial_index":61,"time_elapsed":759381,"internal_node_id":"0.0-4.0-0.25","subject_id":"615a395e37b6993b6049d202","study_id":"6197b3f67c2b5cd3b6d9596a","session_id":"6197b891ce8258cd1857ae24","condition":"contingent","relevant_dimensions":["antennae","wings"],"bee_group":{"antennae":"B","wings":"2","pattern":"X","legs":"X"},"action":"avoid","summary":"bad-avoid","bonus":0.020000000000000236},{"rt":1227.8999999994412,"stimulus":"\n                    <p><b>Action: <em>avoid</em></b></p>\n                    <p>This is the bee that you just saw.</p>\n                    <img src=\"bees-with-color/bee-A1SF.svg\" width=\"200\">\n                    <p><br>Your bonus pay is unchanged, and remains at $0.36.</p>\n            ","response":0,"trial_type":"html-button-response","trial_index":62,"time_elapsed":760613,"internal_node_id":"0.0-4.0-1.25","subject_id":"615a395e37b6993b6049d202","study_id":"6197b3f67c2b5cd3b6d9596a","session_id":"6197b891ce8258cd1857ae24","condition":"contingent","relevant_dimensions":["antennae","wings"],"bee_group":{"antennae":"B","wings":"2","pattern":"X","legs":"X"},"bonus":0.020000000000000236},{"rt":1238.5,"stimulus":"bees-with-color/bee-B2SM.svg","response":1,"trial_type":"image-button-response","trial_index":63,"time_elapsed":761856,"internal_node_id":"0.0-4.0-0.26","subject_id":"615a395e37b6993b6049d202","study_id":"6197b3f67c2b5cd3b6d9596a","session_id":"6197b891ce8258cd1857ae24","condition":"contingent","relevant_dimensions":["antennae","wings"],"bee_group":{"antennae":"B","wings":"2","pattern":"X","legs":"X"},"action":"avoid","summary":"good-avoid","bonus":0.020000000000000236},{"rt":1338.4000000003725,"stimulus":"\n                    <p><b>Action: <em>avoid</em></b></p>\n                    <p>This is the bee that you just saw.</p>\n                    <img src=\"bees-with-color/bee-B2SM.svg\" width=\"200\">\n                    <p><br>Your bonus pay is unchanged, and remains at $0.36.</p>\n            ","response":0,"trial_type":"html-button-response","trial_index":64,"time_elapsed":763200,"internal_node_id":"0.0-4.0-1.26","subject_id":"615a395e37b6993b6049d202","study_id":"6197b3f67c2b5cd3b6d9596a","session_id":"6197b891ce8258cd1857ae24","condition":"contingent","relevant_dimensions":["antennae","wings"],"bee_group":{"antennae":"B","wings":"2","pattern":"X","legs":"X"},"bonus":0.020000000000000236},{"rt":28382.700000000186,"stimulus":"bees-with-color/bee-B1DM.svg","response":1,"trial_type":"image-button-response","trial_index":65,"time_elapsed":791588,"internal_node_id":"0.0-4.0-0.27","subject_id":"615a395e37b6993b6049d202","study_id":"6197b3f67c2b5cd3b6d9596a","session_id":"6197b891ce8258cd1857ae24","condition":"contingent","relevant_dimensions":["antennae","wings"],"bee_group":{"antennae":"B","wings":"2","pattern":"X","legs":"X"},"action":"avoid","summary":"bad-avoid","bonus":0.020000000000000236},{"rt":2046,"stimulus":"\n                    <p><b>Action: <em>avoid</em></b></p>\n                    <p>This is the bee that you just saw.</p>\n                    <img src=\"bees-with-color/bee-B1DM.svg\" width=\"200\">\n                    <p><br>Your bonus pay is unchanged, and remains at $0.36.</p>\n            ","response":0,"trial_type":"html-button-response","trial_index":66,"time_elapsed":793641,"internal_node_id":"0.0-4.0-1.27","subject_id":"615a395e37b6993b6049d202","study_id":"6197b3f67c2b5cd3b6d9596a","session_id":"6197b891ce8258cd1857ae24","condition":"contingent","relevant_dimensions":["antennae","wings"],"bee_group":{"antennae":"B","wings":"2","pattern":"X","legs":"X"},"bonus":0.020000000000000236},{"rt":1434.7999999998137,"stimulus":"bees-with-color/bee-A1DM.svg","response":1,"trial_type":"image-button-response","trial_index":67,"time_elapsed":795083,"internal_node_id":"0.0-4.0-0.28","subject_id":"615a395e37b6993b6049d202","study_id":"6197b3f67c2b5cd3b6d9596a","session_id":"6197b891ce8258cd1857ae24","condition":"contingent","relevant_dimensions":["antennae","wings"],"bee_group":{"antennae":"B","wings":"2","pattern":"X","legs":"X"},"action":"avoid","summary":"bad-avoid","bonus":0.020000000000000236},{"rt":1340.2000000001863,"stimulus":"\n                    <p><b>Action: <em>avoid</em></b></p>\n                    <p>This is the bee that you just saw.</p>\n                    <img src=\"bees-with-color/bee-A1DM.svg\" width=\"200\">\n                    <p><br>Your bonus pay is unchanged, and remains at $0.36.</p>\n            ","response":0,"trial_type":"html-button-response","trial_index":68,"time_elapsed":796430,"internal_node_id":"0.0-4.0-1.28","subject_id":"615a395e37b6993b6049d202","study_id":"6197b3f67c2b5cd3b6d9596a","session_id":"6197b891ce8258cd1857ae24","condition":"contingent","relevant_dimensions":["antennae","wings"],"bee_group":{"antennae":"B","wings":"2","pattern":"X","legs":"X"},"bonus":0.020000000000000236},{"rt":1320,"stimulus":"bees-with-color/bee-B1DF.svg","response":1,"trial_type":"image-button-response","trial_index":69,"time_elapsed":797757,"internal_node_id":"0.0-4.0-0.29","subject_id":"615a395e37b6993b6049d202","study_id":"6197b3f67c2b5cd3b6d9596a","session_id":"6197b891ce8258cd1857ae24","condition":"contingent","relevant_dimensions":["antennae","wings"],"bee_group":{"antennae":"B","wings":"2","pattern":"X","legs":"X"},"action":"avoid","summary":"bad-avoid","bonus":0.020000000000000236},{"rt":1251,"stimulus":"\n                    <p><b>Action: <em>avoid</em></b></p>\n                    <p>This is the bee that you just saw.</p>\n                    <img src=\"bees-with-color/bee-B1DF.svg\" width=\"200\">\n                    <p><br>Your bonus pay is unchanged, and remains at $0.36.</p>\n            ","response":0,"trial_type":"html-button-response","trial_index":70,"time_elapsed":799014,"internal_node_id":"0.0-4.0-1.29","subject_id":"615a395e37b6993b6049d202","study_id":"6197b3f67c2b5cd3b6d9596a","session_id":"6197b891ce8258cd1857ae24","condition":"contingent","relevant_dimensions":["antennae","wings"],"bee_group":{"antennae":"B","wings":"2","pattern":"X","legs":"X"},"bonus":0.020000000000000236},{"rt":1151.1000000005588,"stimulus":"bees-with-color/bee-A1DF.svg","response":1,"trial_type":"image-button-response","trial_index":71,"time_elapsed":800171,"internal_node_id":"0.0-4.0-0.30","subject_id":"615a395e37b6993b6049d202","study_id":"6197b3f67c2b5cd3b6d9596a","session_id":"6197b891ce8258cd1857ae24","condition":"contingent","relevant_dimensions":["antennae","wings"],"bee_group":{"antennae":"B","wings":"2","pattern":"X","legs":"X"},"action":"avoid","summary":"bad-avoid","bonus":0.020000000000000236},{"rt":1150.1000000005588,"stimulus":"\n                    <p><b>Action: <em>avoid</em></b></p>\n                    <p>This is the bee that you just saw.</p>\n                    <img src=\"bees-with-color/bee-A1DF.svg\" width=\"200\">\n                    <p><br>Your bonus pay is unchanged, and remains at $0.36.</p>\n            ","response":0,"trial_type":"html-button-response","trial_index":72,"time_elapsed":801327,"internal_node_id":"0.0-4.0-1.30","subject_id":"615a395e37b6993b6049d202","study_id":"6197b3f67c2b5cd3b6d9596a","session_id":"6197b891ce8258cd1857ae24","condition":"contingent","relevant_dimensions":["antennae","wings"],"bee_group":{"antennae":"B","wings":"2","pattern":"X","legs":"X"},"bonus":0.020000000000000236},{"rt":1050.2999999998137,"stimulus":"bees-with-color/bee-A2SF.svg","response":1,"trial_type":"image-button-response","trial_index":73,"time_elapsed":802384,"internal_node_id":"0.0-4.0-0.31","subject_id":"615a395e37b6993b6049d202","study_id":"6197b3f67c2b5cd3b6d9596a","session_id":"6197b891ce8258cd1857ae24","condition":"contingent","relevant_dimensions":["antennae","wings"],"bee_group":{"antennae":"B","wings":"2","pattern":"X","legs":"X"},"action":"avoid","summary":"bad-avoid","bonus":0.020000000000000236},{"rt":1076.800000000745,"stimulus":"\n                    <p><b>Action: <em>avoid</em></b></p>\n                    <p>This is the bee that you just saw.</p>\n                    <img src=\"bees-with-color/bee-A2SF.svg\" width=\"200\">\n                    <p><br>Your bonus pay is unchanged, and remains at $0.36.</p>\n            ","response":0,"trial_type":"html-button-response","trial_index":74,"time_elapsed":803466,"internal_node_id":"0.0-4.0-1.31","subject_id":"615a395e37b6993b6049d202","study_id":"6197b3f67c2b5cd3b6d9596a","session_id":"6197b891ce8258cd1857ae24","condition":"contingent","relevant_dimensions":["antennae","wings"],"bee_group":{"antennae":"B","wings":"2","pattern":"X","legs":"X"},"bonus":0.020000000000000236},{"rt":1263.300000000745,"stimulus":"bees-with-color/bee-B2SM.svg","response":1,"trial_type":"image-button-response","trial_index":75,"time_elapsed":804735,"internal_node_id":"0.0-4.0-0.32","subject_id":"615a395e37b6993b6049d202","study_id":"6197b3f67c2b5cd3b6d9596a","session_id":"6197b891ce8258cd1857ae24","condition":"contingent","relevant_dimensions":["antennae","wings"],"bee_group":{"antennae":"B","wings":"2","pattern":"X","legs":"X"},"action":"avoid","summary":"good-avoid","bonus":0.020000000000000236},{"rt":1114.6000000005588,"stimulus":"\n                    <p><b>Action: <em>avoid</em></b></p>\n                    <p>This is the bee that you just saw.</p>\n                    <img src=\"bees-with-color/bee-B2SM.svg\" width=\"200\">\n                    <p><br>Your bonus pay is unchanged, and remains at $0.36.</p>\n            ","response":0,"trial_type":"html-button-response","trial_index":76,"time_elapsed":805855,"internal_node_id":"0.0-4.0-1.32","subject_id":"615a395e37b6993b6049d202","study_id":"6197b3f67c2b5cd3b6d9596a","session_id":"6197b891ce8258cd1857ae24","condition":"contingent","relevant_dimensions":["antennae","wings"],"bee_group":{"antennae":"B","wings":"2","pattern":"X","legs":"X"},"bonus":0.020000000000000236},{"rt":1360.4000000003725,"stimulus":"bees-with-color/bee-B1SM.svg","response":1,"trial_type":"image-button-response","trial_index":77,"time_elapsed":807223,"internal_node_id":"0.0-4.0-0.33","subject_id":"615a395e37b6993b6049d202","study_id":"6197b3f67c2b5cd3b6d9596a","session_id":"6197b891ce8258cd1857ae24","condition":"contingent","relevant_dimensions":["antennae","wings"],"bee_group":{"antennae":"B","wings":"2","pattern":"X","legs":"X"},"action":"avoid","summary":"bad-avoid","bonus":0.020000000000000236},{"rt":1201.2000000001863,"stimulus":"\n                    <p><b>Action: <em>avoid</em></b></p>\n                    <p>This is the bee that you just saw.</p>\n                    <img src=\"bees-with-color/bee-B1SM.svg\" width=\"200\">\n                    <p><br>Your bonus pay is unchanged, and remains at $0.36.</p>\n            ","response":0,"trial_type":"html-button-response","trial_index":78,"time_elapsed":808430,"internal_node_id":"0.0-4.0-1.33","subject_id":"615a395e37b6993b6049d202","study_id":"6197b3f67c2b5cd3b6d9596a","session_id":"6197b891ce8258cd1857ae24","condition":"contingent","relevant_dimensions":["antennae","wings"],"bee_group":{"antennae":"B","wings":"2","pattern":"X","legs":"X"},"bonus":0.020000000000000236},{"rt":1126.5999999996275,"stimulus":"bees-with-color/bee-A1DM.svg","response":1,"trial_type":"image-button-response","trial_index":79,"time_elapsed":809562,"internal_node_id":"0.0-4.0-0.34","subject_id":"615a395e37b6993b6049d202","study_id":"6197b3f67c2b5cd3b6d9596a","session_id":"6197b891ce8258cd1857ae24","condition":"contingent","relevant_dimensions":["antennae","wings"],"bee_group":{"antennae":"B","wings":"2","pattern":"X","legs":"X"},"action":"avoid","summary":"bad-avoid","bonus":0.020000000000000236},{"rt":1238.2000000001863,"stimulus":"\n                    <p><b>Action: <em>avoid</em></b></p>\n                    <p>This is the bee that you just saw.</p>\n                    <img src=\"bees-with-color/bee-A1DM.svg\" width=\"200\">\n                    <p><br>Your bonus pay is unchanged, and remains at $0.36.</p>\n            ","response":0,"trial_type":"html-button-response","trial_index":80,"time_elapsed":810805,"internal_node_id":"0.0-4.0-1.34","subject_id":"615a395e37b6993b6049d202","study_id":"6197b3f67c2b5cd3b6d9596a","session_id":"6197b891ce8258cd1857ae24","condition":"contingent","relevant_dimensions":["antennae","wings"],"bee_group":{"antennae":"B","wings":"2","pattern":"X","legs":"X"},"bonus":0.020000000000000236},{"rt":1126.7000000001863,"stimulus":"bees-with-color/bee-B1DF.svg","response":1,"trial_type":"image-button-response","trial_index":81,"time_elapsed":811939,"internal_node_id":"0.0-4.0-0.35","subject_id":"615a395e37b6993b6049d202","study_id":"6197b3f67c2b5cd3b6d9596a","session_id":"6197b891ce8258cd1857ae24","condition":"contingent","relevant_dimensions":["antennae","wings"],"bee_group":{"antennae":"B","wings":"2","pattern":"X","legs":"X"},"action":"avoid","summary":"bad-avoid","bonus":0.020000000000000236},{"rt":1496.7999999998137,"stimulus":"\n                    <p><b>Action: <em>avoid</em></b></p>\n                    <p>This is the bee that you just saw.</p>\n                    <img src=\"bees-with-color/bee-B1DF.svg\" width=\"200\">\n                    <p><br>Your bonus pay is unchanged, and remains at $0.36.</p>\n            ","response":0,"trial_type":"html-button-response","trial_index":82,"time_elapsed":813442,"internal_node_id":"0.0-4.0-1.35","subject_id":"615a395e37b6993b6049d202","study_id":"6197b3f67c2b5cd3b6d9596a","session_id":"6197b891ce8258cd1857ae24","condition":"contingent","relevant_dimensions":["antennae","wings"],"bee_group":{"antennae":"B","wings":"2","pattern":"X","legs":"X"},"bonus":0.020000000000000236},{"rt":1375.4000000003725,"stimulus":"bees-with-color/bee-A2SF.svg","response":1,"trial_type":"image-button-response","trial_index":83,"time_elapsed":814823,"internal_node_id":"0.0-4.0-0.36","subject_id":"615a395e37b6993b6049d202","study_id":"6197b3f67c2b5cd3b6d9596a","session_id":"6197b891ce8258cd1857ae24","condition":"contingent","relevant_dimensions":["antennae","wings"],"bee_group":{"antennae":"B","wings":"2","pattern":"X","legs":"X"},"action":"avoid","summary":"bad-avoid","bonus":0.020000000000000236},{"rt":1212.7999999998137,"stimulus":"\n                    <p><b>Action: <em>avoid</em></b></p>\n                    <p>This is the bee that you just saw.</p>\n                    <img src=\"bees-with-color/bee-A2SF.svg\" width=\"200\">\n                    <p><br>Your bonus pay is unchanged, and remains at $0.36.</p>\n            ","response":0,"trial_type":"html-button-response","trial_index":84,"time_elapsed":816042,"internal_node_id":"0.0-4.0-1.36","subject_id":"615a395e37b6993b6049d202","study_id":"6197b3f67c2b5cd3b6d9596a","session_id":"6197b891ce8258cd1857ae24","condition":"contingent","relevant_dimensions":["antennae","wings"],"bee_group":{"antennae":"B","wings":"2","pattern":"X","legs":"X"},"bonus":0.020000000000000236},{"rt":1397.5,"stimulus":"bees-with-color/bee-B2SF.svg","response":1,"trial_type":"image-button-response","trial_index":85,"time_elapsed":817447,"internal_node_id":"0.0-4.0-0.37","subject_id":"615a395e37b6993b6049d202","study_id":"6197b3f67c2b5cd3b6d9596a","session_id":"6197b891ce8258cd1857ae24","condition":"contingent","relevant_dimensions":["antennae","wings"],"bee_group":{"antennae":"B","wings":"2","pattern":"X","legs":"X"},"action":"avoid","summary":"good-avoid","bonus":0.020000000000000236},{"rt":1150.0999999996275,"stimulus":"\n                    <p><b>Action: <em>avoid</em></b></p>\n                    <p>This is the bee that you just saw.</p>\n                    <img src=\"bees-with-color/bee-B2SF.svg\" width=\"200\">\n                    <p><br>Your bonus pay is unchanged, and remains at $0.36.</p>\n            ","response":0,"trial_type":"html-button-response","trial_index":86,"time_elapsed":818604,"internal_node_id":"0.0-4.0-1.37","subject_id":"615a395e37b6993b6049d202","study_id":"6197b3f67c2b5cd3b6d9596a","session_id":"6197b891ce8258cd1857ae24","condition":"contingent","relevant_dimensions":["antennae","wings"],"bee_group":{"antennae":"B","wings":"2","pattern":"X","legs":"X"},"bonus":0.020000000000000236},{"rt":1126.5,"stimulus":"bees-with-color/bee-A1DF.svg","response":1,"trial_type":"image-button-response","trial_index":87,"time_elapsed":819736,"internal_node_id":"0.0-4.0-0.38","subject_id":"615a395e37b6993b6049d202","study_id":"6197b3f67c2b5cd3b6d9596a","session_id":"6197b891ce8258cd1857ae24","condition":"contingent","relevant_dimensions":["antennae","wings"],"bee_group":{"antennae":"B","wings":"2","pattern":"X","legs":"X"},"action":"avoid","summary":"bad-avoid","bonus":0.020000000000000236},{"rt":1112.7999999998137,"stimulus":"\n                    <p><b>Action: <em>avoid</em></b></p>\n                    <p>This is the bee that you just saw.</p>\n                    <img src=\"bees-with-color/bee-A1DF.svg\" width=\"200\">\n                    <p><br>Your bonus pay is unchanged, and remains at $0.36.</p>\n            ","response":0,"trial_type":"html-button-response","trial_index":88,"time_elapsed":820856,"internal_node_id":"0.0-4.0-1.38","subject_id":"615a395e37b6993b6049d202","study_id":"6197b3f67c2b5cd3b6d9596a","session_id":"6197b891ce8258cd1857ae24","condition":"contingent","relevant_dimensions":["antennae","wings"],"bee_group":{"antennae":"B","wings":"2","pattern":"X","legs":"X"},"bonus":0.020000000000000236},{"rt":1187.5,"stimulus":"bees-with-color/bee-A2DF.svg","response":1,"trial_type":"image-button-response","trial_index":89,"time_elapsed":822050,"internal_node_id":"0.0-4.0-0.39","subject_id":"615a395e37b6993b6049d202","study_id":"6197b3f67c2b5cd3b6d9596a","session_id":"6197b891ce8258cd1857ae24","condition":"contingent","relevant_dimensions":["antennae","wings"],"bee_group":{"antennae":"B","wings":"2","pattern":"X","legs":"X"},"action":"avoid","summary":"bad-avoid","bonus":0.020000000000000236},{"rt":1180.0999999996275,"stimulus":"\n                    <p><b>Action: <em>avoid</em></b></p>\n                    <p>This is the bee that you just saw.</p>\n                    <img src=\"bees-with-color/bee-A2DF.svg\" width=\"200\">\n                    <p><br>Your bonus pay is unchanged, and remains at $0.36.</p>\n            ","response":0,"trial_type":"html-button-response","trial_index":90,"time_elapsed":823245,"internal_node_id":"0.0-4.0-1.39","subject_id":"615a395e37b6993b6049d202","study_id":"6197b3f67c2b5cd3b6d9596a","session_id":"6197b891ce8258cd1857ae24","condition":"contingent","relevant_dimensions":["antennae","wings"],"bee_group":{"antennae":"B","wings":"2","pattern":"X","legs":"X"},"bonus":0.020000000000000236},{"rt":1185.3999999994412,"stimulus":"bees-with-color/bee-A1SF.svg","response":1,"trial_type":"image-button-response","trial_index":91,"time_elapsed":824438,"internal_node_id":"0.0-4.0-0.40","subject_id":"615a395e37b6993b6049d202","study_id":"6197b3f67c2b5cd3b6d9596a","session_id":"6197b891ce8258cd1857ae24","condition":"contingent","relevant_dimensions":["antennae","wings"],"bee_group":{"antennae":"B","wings":"2","pattern":"X","legs":"X"},"action":"avoid","summary":"bad-avoid","bonus":0.020000000000000236},{"rt":1125.4000000003725,"stimulus":"\n                    <p><b>Action: <em>avoid</em></b></p>\n                    <p>This is the bee that you just saw.</p>\n                    <img src=\"bees-with-color/bee-A1SF.svg\" width=\"200\">\n                    <p><br>Your bonus pay is unchanged, and remains at $0.36.</p>\n            ","response":0,"trial_type":"html-button-response","trial_index":92,"time_elapsed":825569,"internal_node_id":"0.0-4.0-1.40","subject_id":"615a395e37b6993b6049d202","study_id":"6197b3f67c2b5cd3b6d9596a","session_id":"6197b891ce8258cd1857ae24","condition":"contingent","relevant_dimensions":["antennae","wings"],"bee_group":{"antennae":"B","wings":"2","pattern":"X","legs":"X"},"bonus":0.020000000000000236},{"rt":1251.5999999996275,"stimulus":"bees-with-color/bee-B1SF.svg","response":1,"trial_type":"image-button-response","trial_index":93,"time_elapsed":826826,"internal_node_id":"0.0-4.0-0.41","subject_id":"615a395e37b6993b6049d202","study_id":"6197b3f67c2b5cd3b6d9596a","session_id":"6197b891ce8258cd1857ae24","condition":"contingent","relevant_dimensions":["antennae","wings"],"bee_group":{"antennae":"B","wings":"2","pattern":"X","legs":"X"},"action":"avoid","summary":"bad-avoid","bonus":0.020000000000000236},{"rt":1175,"stimulus":"\n                    <p><b>Action: <em>avoid</em></b></p>\n                    <p>This is the bee that you just saw.</p>\n                    <img src=\"bees-with-color/bee-B1SF.svg\" width=\"200\">\n                    <p><br>Your bonus pay is unchanged, and remains at $0.36.</p>\n            ","response":0,"trial_type":"html-button-response","trial_index":94,"time_elapsed":828007,"internal_node_id":"0.0-4.0-1.41","subject_id":"615a395e37b6993b6049d202","study_id":"6197b3f67c2b5cd3b6d9596a","session_id":"6197b891ce8258cd1857ae24","condition":"contingent","relevant_dimensions":["antennae","wings"],"bee_group":{"antennae":"B","wings":"2","pattern":"X","legs":"X"},"bonus":0.020000000000000236},{"rt":1450.199999999255,"stimulus":"bees-with-color/bee-A2SM.svg","response":1,"trial_type":"image-button-response","trial_index":95,"time_elapsed":829464,"internal_node_id":"0.0-4.0-0.42","subject_id":"615a395e37b6993b6049d202","study_id":"6197b3f67c2b5cd3b6d9596a","session_id":"6197b891ce8258cd1857ae24","condition":"contingent","relevant_dimensions":["antennae","wings"],"bee_group":{"antennae":"B","wings":"2","pattern":"X","legs":"X"},"action":"avoid","summary":"bad-avoid","bonus":0.020000000000000236},{"rt":1174.0999999996275,"stimulus":"\n                    <p><b>Action: <em>avoid</em></b></p>\n                    <p>This is the bee that you just saw.</p>\n                    <img src=\"bees-with-color/bee-A2SM.svg\" width=\"200\">\n                    <p><br>Your bonus pay is unchanged, and remains at $0.36.</p>\n            ","response":0,"trial_type":"html-button-response","trial_index":96,"time_elapsed":830645,"internal_node_id":"0.0-4.0-1.42","subject_id":"615a395e37b6993b6049d202","study_id":"6197b3f67c2b5cd3b6d9596a","session_id":"6197b891ce8258cd1857ae24","condition":"contingent","relevant_dimensions":["antennae","wings"],"bee_group":{"antennae":"B","wings":"2","pattern":"X","legs":"X"},"bonus":0.020000000000000236},{"rt":1249.7000000001863,"stimulus":"bees-with-color/bee-B2DM.svg","response":1,"trial_type":"image-button-response","trial_index":97,"time_elapsed":831901,"internal_node_id":"0.0-4.0-0.43","subject_id":"615a395e37b6993b6049d202","study_id":"6197b3f67c2b5cd3b6d9596a","session_id":"6197b891ce8258cd1857ae24","condition":"contingent","relevant_dimensions":["antennae","wings"],"bee_group":{"antennae":"B","wings":"2","pattern":"X","legs":"X"},"action":"avoid","summary":"good-avoid","bonus":0.020000000000000236},{"rt":1064,"stimulus":"\n                    <p><b>Action: <em>avoid</em></b></p>\n                    <p>This is the bee that you just saw.</p>\n                    <img src=\"bees-with-color/bee-B2DM.svg\" width=\"200\">\n                    <p><br>Your bonus pay is unchanged, and remains at $0.36.</p>\n            ","response":0,"trial_type":"html-button-response","trial_index":98,"time_elapsed":832971,"internal_node_id":"0.0-4.0-1.43","subject_id":"615a395e37b6993b6049d202","study_id":"6197b3f67c2b5cd3b6d9596a","session_id":"6197b891ce8258cd1857ae24","condition":"contingent","relevant_dimensions":["antennae","wings"],"bee_group":{"antennae":"B","wings":"2","pattern":"X","legs":"X"},"bonus":0.020000000000000236},{"rt":1076.0999999996275,"stimulus":"bees-with-color/bee-A2DM.svg","response":1,"trial_type":"image-button-response","trial_index":99,"time_elapsed":834053,"internal_node_id":"0.0-4.0-0.44","subject_id":"615a395e37b6993b6049d202","study_id":"6197b3f67c2b5cd3b6d9596a","session_id":"6197b891ce8258cd1857ae24","condition":"contingent","relevant_dimensions":["antennae","wings"],"bee_group":{"antennae":"B","wings":"2","pattern":"X","legs":"X"},"action":"avoid","summary":"bad-avoid","bonus":0.020000000000000236},{"rt":1186.3999999994412,"stimulus":"\n                    <p><b>Action: <em>avoid</em></b></p>\n                    <p>This is the bee that you just saw.</p>\n                    <img src=\"bees-with-color/bee-A2DM.svg\" width=\"200\">\n                    <p><br>Your bonus pay is unchanged, and remains at $0.36.</p>\n            ","response":0,"trial_type":"html-button-response","trial_index":100,"time_elapsed":835246,"internal_node_id":"0.0-4.0-1.44","subject_id":"615a395e37b6993b6049d202","study_id":"6197b3f67c2b5cd3b6d9596a","session_id":"6197b891ce8258cd1857ae24","condition":"contingent","relevant_dimensions":["antennae","wings"],"bee_group":{"antennae":"B","wings":"2","pattern":"X","legs":"X"},"bonus":0.020000000000000236},{"rt":1151,"stimulus":"bees-with-color/bee-A1SM.svg","response":1,"trial_type":"image-button-response","trial_index":101,"time_elapsed":836404,"internal_node_id":"0.0-4.0-0.45","subject_id":"615a395e37b6993b6049d202","study_id":"6197b3f67c2b5cd3b6d9596a","session_id":"6197b891ce8258cd1857ae24","condition":"contingent","relevant_dimensions":["antennae","wings"],"bee_group":{"antennae":"B","wings":"2","pattern":"X","legs":"X"},"action":"avoid","summary":"bad-avoid","bonus":0.020000000000000236},{"rt":1235.0999999996275,"stimulus":"\n                    <p><b>Action: <em>avoid</em></b></p>\n                    <p>This is the bee that you just saw.</p>\n                    <img src=\"bees-with-color/bee-A1SM.svg\" width=\"200\">\n                    <p><br>Your bonus pay is unchanged, and remains at $0.36.</p>\n            ","response":0,"trial_type":"html-button-response","trial_index":102,"time_elapsed":837647,"internal_node_id":"0.0-4.0-1.45","subject_id":"615a395e37b6993b6049d202","study_id":"6197b3f67c2b5cd3b6d9596a","session_id":"6197b891ce8258cd1857ae24","condition":"contingent","relevant_dimensions":["antennae","wings"],"bee_group":{"antennae":"B","wings":"2","pattern":"X","legs":"X"},"bonus":0.020000000000000236},{"rt":1152.300000000745,"stimulus":"bees-with-color/bee-B2DF.svg","response":1,"trial_type":"image-button-response","trial_index":103,"time_elapsed":838805,"internal_node_id":"0.0-4.0-0.46","subject_id":"615a395e37b6993b6049d202","study_id":"6197b3f67c2b5cd3b6d9596a","session_id":"6197b891ce8258cd1857ae24","condition":"contingent","relevant_dimensions":["antennae","wings"],"bee_group":{"antennae":"B","wings":"2","pattern":"X","legs":"X"},"action":"avoid","summary":"good-avoid","bonus":0.020000000000000236},{"rt":1163.699999999255,"stimulus":"\n                    <p><b>Action: <em>avoid</em></b></p>\n                    <p>This is the bee that you just saw.</p>\n                    <img src=\"bees-with-color/bee-B2DF.svg\" width=\"200\">\n                    <p><br>Your bonus pay is unchanged, and remains at $0.36.</p>\n            ","response":0,"trial_type":"html-button-response","trial_index":104,"time_elapsed":839975,"internal_node_id":"0.0-4.0-1.46","subject_id":"615a395e37b6993b6049d202","study_id":"6197b3f67c2b5cd3b6d9596a","session_id":"6197b891ce8258cd1857ae24","condition":"contingent","relevant_dimensions":["antennae","wings"],"bee_group":{"antennae":"B","wings":"2","pattern":"X","legs":"X"},"bonus":0.020000000000000236},{"rt":1259.2999999998137,"stimulus":"bees-with-color/bee-B1DM.svg","response":1,"trial_type":"image-button-response","trial_index":105,"time_elapsed":841241,"internal_node_id":"0.0-4.0-0.47","subject_id":"615a395e37b6993b6049d202","study_id":"6197b3f67c2b5cd3b6d9596a","session_id":"6197b891ce8258cd1857ae24","condition":"contingent","relevant_dimensions":["antennae","wings"],"bee_group":{"antennae":"B","wings":"2","pattern":"X","legs":"X"},"action":"avoid","summary":"bad-avoid","bonus":0.020000000000000236},{"rt":1089.5,"stimulus":"\n                    <p><b>Action: <em>avoid</em></b></p>\n                    <p>This is the bee that you just saw.</p>\n                    <img src=\"bees-with-color/bee-B1DM.svg\" width=\"200\">\n                    <p><br>Your bonus pay is unchanged, and remains at $0.36.</p>\n            ","response":0,"trial_type":"html-button-response","trial_index":106,"time_elapsed":842338,"internal_node_id":"0.0-4.0-1.47","subject_id":"615a395e37b6993b6049d202","study_id":"6197b3f67c2b5cd3b6d9596a","session_id":"6197b891ce8258cd1857ae24","condition":"contingent","relevant_dimensions":["antennae","wings"],"bee_group":{"antennae":"B","wings":"2","pattern":"X","legs":"X"},"bonus":0.020000000000000236},{"rt":1159.4000000003725,"stimulus":"bees-with-color/bee-B2SM.svg","response":1,"trial_type":"image-button-response","trial_index":107,"time_elapsed":843505,"internal_node_id":"0.0-4.0-0.48","subject_id":"615a395e37b6993b6049d202","study_id":"6197b3f67c2b5cd3b6d9596a","session_id":"6197b891ce8258cd1857ae24","condition":"contingent","relevant_dimensions":["antennae","wings"],"bee_group":{"antennae":"B","wings":"2","pattern":"X","legs":"X"},"action":"avoid","summary":"good-avoid","bonus":0.020000000000000236},{"rt":1150,"stimulus":"\n                    <p><b>Action: <em>avoid</em></b></p>\n                    <p>This is the bee that you just saw.</p>\n                    <img src=\"bees-with-color/bee-B2SM.svg\" width=\"200\">\n                    <p><br>Your bonus pay is unchanged, and remains at $0.36.</p>\n            ","response":0,"trial_type":"html-button-response","trial_index":108,"time_elapsed":844662,"internal_node_id":"0.0-4.0-1.48","subject_id":"615a395e37b6993b6049d202","study_id":"6197b3f67c2b5cd3b6d9596a","session_id":"6197b891ce8258cd1857ae24","condition":"contingent","relevant_dimensions":["antennae","wings"],"bee_group":{"antennae":"B","wings":"2","pattern":"X","legs":"X"},"bonus":0.020000000000000236},{"rt":1139.2000000001863,"stimulus":"bees-with-color/bee-B2DM.svg","response":1,"trial_type":"image-button-response","trial_index":109,"time_elapsed":845807,"internal_node_id":"0.0-4.0-0.49","subject_id":"615a395e37b6993b6049d202","study_id":"6197b3f67c2b5cd3b6d9596a","session_id":"6197b891ce8258cd1857ae24","condition":"contingent","relevant_dimensions":["antennae","wings"],"bee_group":{"antennae":"B","wings":"2","pattern":"X","legs":"X"},"action":"avoid","summary":"good-avoid","bonus":0.020000000000000236},{"rt":1111.0999999996275,"stimulus":"\n                    <p><b>Action: <em>avoid</em></b></p>\n                    <p>This is the bee that you just saw.</p>\n                    <img src=\"bees-with-color/bee-B2DM.svg\" width=\"200\">\n                    <p><br>Your bonus pay is unchanged, and remains at $0.36.</p>\n            ","response":0,"trial_type":"html-button-response","trial_index":110,"time_elapsed":846926,"internal_node_id":"0.0-4.0-1.49","subject_id":"615a395e37b6993b6049d202","study_id":"6197b3f67c2b5cd3b6d9596a","session_id":"6197b891ce8258cd1857ae24","condition":"contingent","relevant_dimensions":["antennae","wings"],"bee_group":{"antennae":"B","wings":"2","pattern":"X","legs":"X"},"bonus":0.020000000000000236},{"rt":1017.7000000001863,"stimulus":"bees-with-color/bee-A2SM.svg","response":1,"trial_type":"image-button-response","trial_index":111,"time_elapsed":847951,"internal_node_id":"0.0-4.0-0.50","subject_id":"615a395e37b6993b6049d202","study_id":"6197b3f67c2b5cd3b6d9596a","session_id":"6197b891ce8258cd1857ae24","condition":"contingent","relevant_dimensions":["antennae","wings"],"bee_group":{"antennae":"B","wings":"2","pattern":"X","legs":"X"},"action":"avoid","summary":"bad-avoid","bonus":0.020000000000000236},{"rt":1030.7999999998137,"stimulus":"\n                    <p><b>Action: <em>avoid</em></b></p>\n                    <p>This is the bee that you just saw.</p>\n                    <img src=\"bees-with-color/bee-A2SM.svg\" width=\"200\">\n                    <p><br>Your bonus pay is unchanged, and remains at $0.36.</p>\n            ","response":0,"trial_type":"html-button-response","trial_index":112,"time_elapsed":848991,"internal_node_id":"0.0-4.0-1.50","subject_id":"615a395e37b6993b6049d202","study_id":"6197b3f67c2b5cd3b6d9596a","session_id":"6197b891ce8258cd1857ae24","condition":"contingent","relevant_dimensions":["antennae","wings"],"bee_group":{"antennae":"B","wings":"2","pattern":"X","legs":"X"},"bonus":0.020000000000000236},{"rt":1199.3999999994412,"stimulus":"bees-with-color/bee-A1SF.svg","response":1,"trial_type":"image-button-response","trial_index":113,"time_elapsed":850197,"internal_node_id":"0.0-4.0-0.51","subject_id":"615a395e37b6993b6049d202","study_id":"6197b3f67c2b5cd3b6d9596a","session_id":"6197b891ce8258cd1857ae24","condition":"contingent","relevant_dimensions":["antennae","wings"],"bee_group":{"antennae":"B","wings":"2","pattern":"X","legs":"X"},"action":"avoid","summary":"bad-avoid","bonus":0.020000000000000236},{"rt":1150.2000000001863,"stimulus":"\n                    <p><b>Action: <em>avoid</em></b></p>\n                    <p>This is the bee that you just saw.</p>\n                    <img src=\"bees-with-color/bee-A1SF.svg\" width=\"200\">\n                    <p><br>Your bonus pay is unchanged, and remains at $0.36.</p>\n            ","response":0,"trial_type":"html-button-response","trial_index":114,"time_elapsed":851354,"internal_node_id":"0.0-4.0-1.51","subject_id":"615a395e37b6993b6049d202","study_id":"6197b3f67c2b5cd3b6d9596a","session_id":"6197b891ce8258cd1857ae24","condition":"contingent","relevant_dimensions":["antennae","wings"],"bee_group":{"antennae":"B","wings":"2","pattern":"X","legs":"X"},"bonus":0.020000000000000236},{"rt":1014.7999999998137,"stimulus":"bees-with-color/bee-A1SM.svg","response":1,"trial_type":"image-button-response","trial_index":115,"time_elapsed":852376,"internal_node_id":"0.0-4.0-0.52","subject_id":"615a395e37b6993b6049d202","study_id":"6197b3f67c2b5cd3b6d9596a","session_id":"6197b891ce8258cd1857ae24","condition":"contingent","relevant_dimensions":["antennae","wings"],"bee_group":{"antennae":"B","wings":"2","pattern":"X","legs":"X"},"action":"avoid","summary":"bad-avoid","bonus":0.020000000000000236},{"rt":1073.8999999994412,"stimulus":"\n                    <p><b>Action: <em>avoid</em></b></p>\n                    <p>This is the bee that you just saw.</p>\n                    <img src=\"bees-with-color/bee-A1SM.svg\" width=\"200\">\n                    <p><br>Your bonus pay is unchanged, and remains at $0.36.</p>\n            ","response":0,"trial_type":"html-button-response","trial_index":116,"time_elapsed":853457,"internal_node_id":"0.0-4.0-1.52","subject_id":"615a395e37b6993b6049d202","study_id":"6197b3f67c2b5cd3b6d9596a","session_id":"6197b891ce8258cd1857ae24","condition":"contingent","relevant_dimensions":["antennae","wings"],"bee_group":{"antennae":"B","wings":"2","pattern":"X","legs":"X"},"bonus":0.020000000000000236},{"rt":1187.0999999996275,"stimulus":"bees-with-color/bee-A1DM.svg","response":1,"trial_type":"image-button-response","trial_index":117,"time_elapsed":854650,"internal_node_id":"0.0-4.0-0.53","subject_id":"615a395e37b6993b6049d202","study_id":"6197b3f67c2b5cd3b6d9596a","session_id":"6197b891ce8258cd1857ae24","condition":"contingent","relevant_dimensions":["antennae","wings"],"bee_group":{"antennae":"B","wings":"2","pattern":"X","legs":"X"},"action":"avoid","summary":"bad-avoid","bonus":0.020000000000000236},{"rt":1013.5,"stimulus":"\n                    <p><b>Action: <em>avoid</em></b></p>\n                    <p>This is the bee that you just saw.</p>\n                    <img src=\"bees-with-color/bee-A1DM.svg\" width=\"200\">\n                    <p><br>Your bonus pay is unchanged, and remains at $0.36.</p>\n            ","response":0,"trial_type":"html-button-response","trial_index":118,"time_elapsed":855672,"internal_node_id":"0.0-4.0-1.53","subject_id":"615a395e37b6993b6049d202","study_id":"6197b3f67c2b5cd3b6d9596a","session_id":"6197b891ce8258cd1857ae24","condition":"contingent","relevant_dimensions":["antennae","wings"],"bee_group":{"antennae":"B","wings":"2","pattern":"X","legs":"X"},"bonus":0.020000000000000236},{"rt":1259.2000000001863,"stimulus":"bees-with-color/bee-B1DF.svg","response":1,"trial_type":"image-button-response","trial_index":119,"time_elapsed":856940,"internal_node_id":"0.0-4.0-0.54","subject_id":"615a395e37b6993b6049d202","study_id":"6197b3f67c2b5cd3b6d9596a","session_id":"6197b891ce8258cd1857ae24","condition":"contingent","relevant_dimensions":["antennae","wings"],"bee_group":{"antennae":"B","wings":"2","pattern":"X","legs":"X"},"action":"avoid","summary":"bad-avoid","bonus":0.020000000000000236},{"rt":1185.8999999994412,"stimulus":"\n                    <p><b>Action: <em>avoid</em></b></p>\n                    <p>This is the bee that you just saw.</p>\n                    <img src=\"bees-with-color/bee-B1DF.svg\" width=\"200\">\n                    <p><br>Your bonus pay is unchanged, and remains at $0.36.</p>\n            ","response":0,"trial_type":"html-button-response","trial_index":120,"time_elapsed":858133,"internal_node_id":"0.0-4.0-1.54","subject_id":"615a395e37b6993b6049d202","study_id":"6197b3f67c2b5cd3b6d9596a","session_id":"6197b891ce8258cd1857ae24","condition":"contingent","relevant_dimensions":["antennae","wings"],"bee_group":{"antennae":"B","wings":"2","pattern":"X","legs":"X"},"bonus":0.020000000000000236},{"rt":1046.4000000003725,"stimulus":"bees-with-color/bee-A2DM.svg","response":1,"trial_type":"image-button-response","trial_index":121,"time_elapsed":859191,"internal_node_id":"0.0-4.0-0.55","subject_id":"615a395e37b6993b6049d202","study_id":"6197b3f67c2b5cd3b6d9596a","session_id":"6197b891ce8258cd1857ae24","condition":"contingent","relevant_dimensions":["antennae","wings"],"bee_group":{"antennae":"B","wings":"2","pattern":"X","legs":"X"},"action":"avoid","summary":"bad-avoid","bonus":0.020000000000000236},{"rt":1050.2000000001863,"stimulus":"\n                    <p><b>Action: <em>avoid</em></b></p>\n                    <p>This is the bee that you just saw.</p>\n                    <img src=\"bees-with-color/bee-A2DM.svg\" width=\"200\">\n                    <p><br>Your bonus pay is unchanged, and remains at $0.36.</p>\n            ","response":0,"trial_type":"html-button-response","trial_index":122,"time_elapsed":860248,"internal_node_id":"0.0-4.0-1.55","subject_id":"615a395e37b6993b6049d202","study_id":"6197b3f67c2b5cd3b6d9596a","session_id":"6197b891ce8258cd1857ae24","condition":"contingent","relevant_dimensions":["antennae","wings"],"bee_group":{"antennae":"B","wings":"2","pattern":"X","legs":"X"},"bonus":0.020000000000000236},{"rt":1074.2999999998137,"stimulus":"bees-with-color/bee-B2SF.svg","response":1,"trial_type":"image-button-response","trial_index":123,"time_elapsed":861330,"internal_node_id":"0.0-4.0-0.56","subject_id":"615a395e37b6993b6049d202","study_id":"6197b3f67c2b5cd3b6d9596a","session_id":"6197b891ce8258cd1857ae24","condition":"contingent","relevant_dimensions":["antennae","wings"],"bee_group":{"antennae":"B","wings":"2","pattern":"X","legs":"X"},"action":"avoid","summary":"good-avoid","bonus":0.020000000000000236},{"rt":1099.7999999998137,"stimulus":"\n                    <p><b>Action: <em>avoid</em></b></p>\n                    <p>This is the bee that you just saw.</p>\n                    <img src=\"bees-with-color/bee-B2SF.svg\" width=\"200\">\n                    <p><br>Your bonus pay is unchanged, and remains at $0.36.</p>\n            ","response":0,"trial_type":"html-button-response","trial_index":124,"time_elapsed":862436,"internal_node_id":"0.0-4.0-1.56","subject_id":"615a395e37b6993b6049d202","study_id":"6197b3f67c2b5cd3b6d9596a","session_id":"6197b891ce8258cd1857ae24","condition":"contingent","relevant_dimensions":["antennae","wings"],"bee_group":{"antennae":"B","wings":"2","pattern":"X","legs":"X"},"bonus":0.020000000000000236},{"rt":1112.5,"stimulus":"bees-with-color/bee-A2SF.svg","response":1,"trial_type":"image-button-response","trial_index":125,"time_elapsed":863556,"internal_node_id":"0.0-4.0-0.57","subject_id":"615a395e37b6993b6049d202","study_id":"6197b3f67c2b5cd3b6d9596a","session_id":"6197b891ce8258cd1857ae24","condition":"contingent","relevant_dimensions":["antennae","wings"],"bee_group":{"antennae":"B","wings":"2","pattern":"X","legs":"X"},"action":"avoid","summary":"bad-avoid","bonus":0.020000000000000236},{"rt":1344.0999999996275,"stimulus":"\n                    <p><b>Action: <em>avoid</em></b></p>\n                    <p>This is the bee that you just saw.</p>\n                    <img src=\"bees-with-color/bee-A2SF.svg\" width=\"200\">\n                    <p><br>Your bonus pay is unchanged, and remains at $0.36.</p>\n            ","response":0,"trial_type":"html-button-response","trial_index":126,"time_elapsed":864912,"internal_node_id":"0.0-4.0-1.57","subject_id":"615a395e37b6993b6049d202","study_id":"6197b3f67c2b5cd3b6d9596a","session_id":"6197b891ce8258cd1857ae24","condition":"contingent","relevant_dimensions":["antennae","wings"],"bee_group":{"antennae":"B","wings":"2","pattern":"X","legs":"X"},"bonus":0.020000000000000236},{"rt":1225.5999999996275,"stimulus":"bees-with-color/bee-B2DF.svg","response":1,"trial_type":"image-button-response","trial_index":127,"time_elapsed":866144,"internal_node_id":"0.0-4.0-0.58","subject_id":"615a395e37b6993b6049d202","study_id":"6197b3f67c2b5cd3b6d9596a","session_id":"6197b891ce8258cd1857ae24","condition":"contingent","relevant_dimensions":["antennae","wings"],"bee_group":{"antennae":"B","wings":"2","pattern":"X","legs":"X"},"action":"avoid","summary":"good-avoid","bonus":0.020000000000000236},{"rt":1269.7000000001863,"stimulus":"\n                    <p><b>Action: <em>avoid</em></b></p>\n                    <p>This is the bee that you just saw.</p>\n                    <img src=\"bees-with-color/bee-B2DF.svg\" width=\"200\">\n                    <p><br>Your bonus pay is unchanged, and remains at $0.36.</p>\n            ","response":0,"trial_type":"html-button-response","trial_index":128,"time_elapsed":867424,"internal_node_id":"0.0-4.0-1.58","subject_id":"615a395e37b6993b6049d202","study_id":"6197b3f67c2b5cd3b6d9596a","session_id":"6197b891ce8258cd1857ae24","condition":"contingent","relevant_dimensions":["antennae","wings"],"bee_group":{"antennae":"B","wings":"2","pattern":"X","legs":"X"},"bonus":0.020000000000000236},{"rt":1101.2999999998137,"stimulus":"bees-with-color/bee-B1DM.svg","response":1,"trial_type":"image-button-response","trial_index":129,"time_elapsed":868532,"internal_node_id":"0.0-4.0-0.59","subject_id":"615a395e37b6993b6049d202","study_id":"6197b3f67c2b5cd3b6d9596a","session_id":"6197b891ce8258cd1857ae24","condition":"contingent","relevant_dimensions":["antennae","wings"],"bee_group":{"antennae":"B","wings":"2","pattern":"X","legs":"X"},"action":"avoid","summary":"bad-avoid","bonus":0.020000000000000236},{"rt":1222.2000000001863,"stimulus":"\n                    <p><b>Action: <em>avoid</em></b></p>\n                    <p>This is the bee that you just saw.</p>\n                    <img src=\"bees-with-color/bee-B1DM.svg\" width=\"200\">\n                    <p><br>Your bonus pay is unchanged, and remains at $0.36.</p>\n            ","response":0,"trial_type":"html-button-response","trial_index":130,"time_elapsed":869762,"internal_node_id":"0.0-4.0-1.59","subject_id":"615a395e37b6993b6049d202","study_id":"6197b3f67c2b5cd3b6d9596a","session_id":"6197b891ce8258cd1857ae24","condition":"contingent","relevant_dimensions":["antennae","wings"],"bee_group":{"antennae":"B","wings":"2","pattern":"X","legs":"X"},"bonus":0.020000000000000236},{"rt":1211.7000000001863,"stimulus":"bees-with-color/bee-B1SM.svg","response":1,"trial_type":"image-button-response","trial_index":131,"time_elapsed":870980,"internal_node_id":"0.0-4.0-0.60","subject_id":"615a395e37b6993b6049d202","study_id":"6197b3f67c2b5cd3b6d9596a","session_id":"6197b891ce8258cd1857ae24","condition":"contingent","relevant_dimensions":["antennae","wings"],"bee_group":{"antennae":"B","wings":"2","pattern":"X","legs":"X"},"action":"avoid","summary":"bad-avoid","bonus":0.020000000000000236},{"rt":1412.8999999994412,"stimulus":"\n                    <p><b>Action: <em>avoid</em></b></p>\n                    <p>This is the bee that you just saw.</p>\n                    <img src=\"bees-with-color/bee-B1SM.svg\" width=\"200\">\n                    <p><br>Your bonus pay is unchanged, and remains at $0.36.</p>\n            ","response":0,"trial_type":"html-button-response","trial_index":132,"time_elapsed":872398,"internal_node_id":"0.0-4.0-1.60","subject_id":"615a395e37b6993b6049d202","study_id":"6197b3f67c2b5cd3b6d9596a","session_id":"6197b891ce8258cd1857ae24","condition":"contingent","relevant_dimensions":["antennae","wings"],"bee_group":{"antennae":"B","wings":"2","pattern":"X","legs":"X"},"bonus":0.020000000000000236},{"rt":1489.2999999998137,"stimulus":"bees-with-color/bee-B1SF.svg","response":1,"trial_type":"image-button-response","trial_index":133,"time_elapsed":873892,"internal_node_id":"0.0-4.0-0.61","subject_id":"615a395e37b6993b6049d202","study_id":"6197b3f67c2b5cd3b6d9596a","session_id":"6197b891ce8258cd1857ae24","condition":"contingent","relevant_dimensions":["antennae","wings"],"bee_group":{"antennae":"B","wings":"2","pattern":"X","legs":"X"},"action":"avoid","summary":"bad-avoid","bonus":0.020000000000000236},{"rt":2619.5,"stimulus":"\n                    <p><b>Action: <em>avoid</em></b></p>\n                    <p>This is the bee that you just saw.</p>\n                    <img src=\"bees-with-color/bee-B1SF.svg\" width=\"200\">\n                    <p><br>Your bonus pay is unchanged, and remains at $0.36.</p>\n            ","response":0,"trial_type":"html-button-response","trial_index":134,"time_elapsed":876516,"internal_node_id":"0.0-4.0-1.61","subject_id":"615a395e37b6993b6049d202","study_id":"6197b3f67c2b5cd3b6d9596a","session_id":"6197b891ce8258cd1857ae24","condition":"contingent","relevant_dimensions":["antennae","wings"],"bee_group":{"antennae":"B","wings":"2","pattern":"X","legs":"X"},"bonus":0.020000000000000236},{"rt":1238.3999999994412,"stimulus":"bees-with-color/bee-A1DF.svg","response":1,"trial_type":"image-button-response","trial_index":135,"time_elapsed":877761,"internal_node_id":"0.0-4.0-0.62","subject_id":"615a395e37b6993b6049d202","study_id":"6197b3f67c2b5cd3b6d9596a","session_id":"6197b891ce8258cd1857ae24","condition":"contingent","relevant_dimensions":["antennae","wings"],"bee_group":{"antennae":"B","wings":"2","pattern":"X","legs":"X"},"action":"avoid","summary":"bad-avoid","bonus":0.020000000000000236},{"rt":1425.4000000003725,"stimulus":"\n                    <p><b>Action: <em>avoid</em></b></p>\n                    <p>This is the bee that you just saw.</p>\n                    <img src=\"bees-with-color/bee-A1DF.svg\" width=\"200\">\n                    <p><br>Your bonus pay is unchanged, and remains at $0.36.</p>\n            ","response":0,"trial_type":"html-button-response","trial_index":136,"time_elapsed":879191,"internal_node_id":"0.0-4.0-1.62","subject_id":"615a395e37b6993b6049d202","study_id":"6197b3f67c2b5cd3b6d9596a","session_id":"6197b891ce8258cd1857ae24","condition":"contingent","relevant_dimensions":["antennae","wings"],"bee_group":{"antennae":"B","wings":"2","pattern":"X","legs":"X"},"bonus":0.020000000000000236},{"rt":3414.0999999996275,"stimulus":"bees-with-color/bee-A2DF.svg","response":1,"trial_type":"image-button-response","trial_index":137,"time_elapsed":882610,"internal_node_id":"0.0-4.0-0.63","subject_id":"615a395e37b6993b6049d202","study_id":"6197b3f67c2b5cd3b6d9596a","session_id":"6197b891ce8258cd1857ae24","condition":"contingent","relevant_dimensions":["antennae","wings"],"bee_group":{"antennae":"B","wings":"2","pattern":"X","legs":"X"},"action":"avoid","summary":"bad-avoid","bonus":0.020000000000000236},{"rt":4112.5999999996275,"stimulus":"\n                    <p><b>Action: <em>avoid</em></b></p>\n                    <p>This is the bee that you just saw.</p>\n                    <img src=\"bees-with-color/bee-A2DF.svg\" width=\"200\">\n                    <p><br>Your bonus pay is unchanged, and remains at $0.36.</p>\n            ","response":0,"trial_type":"html-button-response","trial_index":138,"time_elapsed":886728,"internal_node_id":"0.0-4.0-1.63","subject_id":"615a395e37b6993b6049d202","study_id":"6197b3f67c2b5cd3b6d9596a","session_id":"6197b891ce8258cd1857ae24","condition":"contingent","relevant_dimensions":["antennae","wings"],"bee_group":{"antennae":"B","wings":"2","pattern":"X","legs":"X"},"bonus":0.020000000000000236},{"rt":3381.7999999998137,"stimulus":"You have completed the first part of this experiment.<br><br>You will now begin a shorter second part, in which you will receive no feedback.<br>The same rules regarding bonus pay apply.<br><br>Press any key to begin.","response":" ","trial_type":"html-keyboard-response","trial_index":139,"time_elapsed":890113,"internal_node_id":"0.0-5.0","subject_id":"615a395e37b6993b6049d202","study_id":"6197b3f67c2b5cd3b6d9596a","session_id":"6197b891ce8258cd1857ae24","condition":"contingent","relevant_dimensions":["antennae","wings"],"bee_group":{"antennae":"B","wings":"2","pattern":"X","legs":"X"},"bonus":0.020000000000000236},{"rt":11714.100000000559,"stimulus":"bees-with-color/bee-B1DF.svg","response":1,"trial_type":"image-button-response","trial_index":140,"time_elapsed":901859,"internal_node_id":"0.0-6.0-0.0","subject_id":"615a395e37b6993b6049d202","study_id":"6197b3f67c2b5cd3b6d9596a","session_id":"6197b891ce8258cd1857ae24","condition":"contingent","relevant_dimensions":["antennae","wings"],"bee_group":{"antennae":"B","wings":"2","pattern":"X","legs":"X"},"bonus":0.020000000000000236},{"rt":1296.5999999996275,"stimulus":"bees-with-color/bee-A2SF.svg","response":1,"trial_type":"image-button-response","trial_index":141,"time_elapsed":903165,"internal_node_id":"0.0-6.0-0.1","subject_id":"615a395e37b6993b6049d202","study_id":"6197b3f67c2b5cd3b6d9596a","session_id":"6197b891ce8258cd1857ae24","condition":"contingent","relevant_dimensions":["antennae","wings"],"bee_group":{"antennae":"B","wings":"2","pattern":"X","legs":"X"},"bonus":0.020000000000000236},{"rt":6943.800000000745,"stimulus":"bees-with-color/bee-B2SM.svg","response":0,"trial_type":"image-button-response","trial_index":142,"time_elapsed":910117,"internal_node_id":"0.0-6.0-0.2","subject_id":"615a395e37b6993b6049d202","study_id":"6197b3f67c2b5cd3b6d9596a","session_id":"6197b891ce8258cd1857ae24","condition":"contingent","relevant_dimensions":["antennae","wings"],"bee_group":{"antennae":"B","wings":"2","pattern":"X","legs":"X"},"bonus":0.020000000000000236},{"rt":3077.7000000001863,"stimulus":"bees-with-color/bee-A1DM.svg","response":0,"trial_type":"image-button-response","trial_index":143,"time_elapsed":913208,"internal_node_id":"0.0-6.0-0.3","subject_id":"615a395e37b6993b6049d202","study_id":"6197b3f67c2b5cd3b6d9596a","session_id":"6197b891ce8258cd1857ae24","condition":"contingent","relevant_dimensions":["antennae","wings"],"bee_group":{"antennae":"B","wings":"2","pattern":"X","legs":"X"},"bonus":0.020000000000000236},{"rt":2094.2000000001863,"stimulus":"bees-with-color/bee-B1SM.svg","response":0,"trial_type":"image-button-response","trial_index":144,"time_elapsed":915309,"internal_node_id":"0.0-6.0-0.4","subject_id":"615a395e37b6993b6049d202","study_id":"6197b3f67c2b5cd3b6d9596a","session_id":"6197b891ce8258cd1857ae24","condition":"contingent","relevant_dimensions":["antennae","wings"],"bee_group":{"antennae":"B","wings":"2","pattern":"X","legs":"X"},"bonus":0.020000000000000236},{"rt":3372.2000000001863,"stimulus":"bees-with-color/bee-A1DF.svg","response":0,"trial_type":"image-button-response","trial_index":145,"time_elapsed":918689,"internal_node_id":"0.0-6.0-0.5","subject_id":"615a395e37b6993b6049d202","study_id":"6197b3f67c2b5cd3b6d9596a","session_id":"6197b891ce8258cd1857ae24","condition":"contingent","relevant_dimensions":["antennae","wings"],"bee_group":{"antennae":"B","wings":"2","pattern":"X","legs":"X"},"bonus":0.020000000000000236},{"rt":1182.2999999998137,"stimulus":"bees-with-color/bee-A2DF.svg","response":0,"trial_type":"image-button-response","trial_index":146,"time_elapsed":919884,"internal_node_id":"0.0-6.0-0.6","subject_id":"615a395e37b6993b6049d202","study_id":"6197b3f67c2b5cd3b6d9596a","session_id":"6197b891ce8258cd1857ae24","condition":"contingent","relevant_dimensions":["antennae","wings"],"bee_group":{"antennae":"B","wings":"2","pattern":"X","legs":"X"},"bonus":0.020000000000000236},{"rt":1020.7999999998137,"stimulus":"bees-with-color/bee-B2SF.svg","response":0,"trial_type":"image-button-response","trial_index":147,"time_elapsed":920913,"internal_node_id":"0.0-6.0-0.7","subject_id":"615a395e37b6993b6049d202","study_id":"6197b3f67c2b5cd3b6d9596a","session_id":"6197b891ce8258cd1857ae24","condition":"contingent","relevant_dimensions":["antennae","wings"],"bee_group":{"antennae":"B","wings":"2","pattern":"X","legs":"X"},"bonus":0.020000000000000236},{"rt":1212.5,"stimulus":"bees-with-color/bee-B2DM.svg","response":0,"trial_type":"image-button-response","trial_index":148,"time_elapsed":922132,"internal_node_id":"0.0-6.0-0.8","subject_id":"615a395e37b6993b6049d202","study_id":"6197b3f67c2b5cd3b6d9596a","session_id":"6197b891ce8258cd1857ae24","condition":"contingent","relevant_dimensions":["antennae","wings"],"bee_group":{"antennae":"B","wings":"2","pattern":"X","legs":"X"},"bonus":0.020000000000000236},{"rt":1100,"stimulus":"bees-with-color/bee-A1SF.svg","response":0,"trial_type":"image-button-response","trial_index":149,"time_elapsed":923239,"internal_node_id":"0.0-6.0-0.9","subject_id":"615a395e37b6993b6049d202","study_id":"6197b3f67c2b5cd3b6d9596a","session_id":"6197b891ce8258cd1857ae24","condition":"contingent","relevant_dimensions":["antennae","wings"],"bee_group":{"antennae":"B","wings":"2","pattern":"X","legs":"X"},"bonus":0.020000000000000236},{"rt":863.0999999996275,"stimulus":"bees-with-color/bee-B1SF.svg","response":0,"trial_type":"image-button-response","trial_index":150,"time_elapsed":924109,"internal_node_id":"0.0-6.0-0.10","subject_id":"615a395e37b6993b6049d202","study_id":"6197b3f67c2b5cd3b6d9596a","session_id":"6197b891ce8258cd1857ae24","condition":"contingent","relevant_dimensions":["antennae","wings"],"bee_group":{"antennae":"B","wings":"2","pattern":"X","legs":"X"},"bonus":0.020000000000000236},{"rt":1931.2999999998137,"stimulus":"bees-with-color/bee-A1SM.svg","response":0,"trial_type":"image-button-response","trial_index":151,"time_elapsed":926050,"internal_node_id":"0.0-6.0-0.11","subject_id":"615a395e37b6993b6049d202","study_id":"6197b3f67c2b5cd3b6d9596a","session_id":"6197b891ce8258cd1857ae24","condition":"contingent","relevant_dimensions":["antennae","wings"],"bee_group":{"antennae":"B","wings":"2","pattern":"X","legs":"X"},"bonus":0.020000000000000236},{"rt":1374.7999999998137,"stimulus":"bees-with-color/bee-B1DM.svg","response":0,"trial_type":"image-button-response","trial_index":152,"time_elapsed":927432,"internal_node_id":"0.0-6.0-0.12","subject_id":"615a395e37b6993b6049d202","study_id":"6197b3f67c2b5cd3b6d9596a","session_id":"6197b891ce8258cd1857ae24","condition":"contingent","relevant_dimensions":["antennae","wings"],"bee_group":{"antennae":"B","wings":"2","pattern":"X","legs":"X"},"bonus":0.020000000000000236},{"rt":949.7000000001863,"stimulus":"bees-with-color/bee-A2SM.svg","response":0,"trial_type":"image-button-response","trial_index":153,"time_elapsed":928389,"internal_node_id":"0.0-6.0-0.13","subject_id":"615a395e37b6993b6049d202","study_id":"6197b3f67c2b5cd3b6d9596a","session_id":"6197b891ce8258cd1857ae24","condition":"contingent","relevant_dimensions":["antennae","wings"],"bee_group":{"antennae":"B","wings":"2","pattern":"X","legs":"X"},"bonus":0.020000000000000236},{"rt":886.9000000003725,"stimulus":"bees-with-color/bee-A2DM.svg","response":0,"trial_type":"image-button-response","trial_index":154,"time_elapsed":929284,"internal_node_id":"0.0-6.0-0.14","subject_id":"615a395e37b6993b6049d202","study_id":"6197b3f67c2b5cd3b6d9596a","session_id":"6197b891ce8258cd1857ae24","condition":"contingent","relevant_dimensions":["antennae","wings"],"bee_group":{"antennae":"B","wings":"2","pattern":"X","legs":"X"},"bonus":0.020000000000000236},{"rt":1076.8999999994412,"stimulus":"bees-with-color/bee-B2DF.svg","response":0,"trial_type":"image-button-response","trial_index":155,"time_elapsed":930370,"internal_node_id":"0.0-6.0-0.15","subject_id":"615a395e37b6993b6049d202","study_id":"6197b3f67c2b5cd3b6d9596a","session_id":"6197b891ce8258cd1857ae24","condition":"contingent","relevant_dimensions":["antennae","wings"],"bee_group":{"antennae":"B","wings":"2","pattern":"X","legs":"X"},"bonus":0.020000000000000236},{"rt":1792.7000000001863,"stimulus":"bees-with-color/bee-B2DF.svg","response":0,"trial_type":"image-button-response","trial_index":156,"time_elapsed":932169,"internal_node_id":"0.0-6.0-0.16","subject_id":"615a395e37b6993b6049d202","study_id":"6197b3f67c2b5cd3b6d9596a","session_id":"6197b891ce8258cd1857ae24","condition":"contingent","relevant_dimensions":["antennae","wings"],"bee_group":{"antennae":"B","wings":"2","pattern":"X","legs":"X"},"bonus":0.020000000000000236},{"rt":2033.2000000001863,"stimulus":"bees-with-color/bee-A2SM.svg","response":0,"trial_type":"image-button-response","trial_index":157,"time_elapsed":934209,"internal_node_id":"0.0-6.0-0.17","subject_id":"615a395e37b6993b6049d202","study_id":"6197b3f67c2b5cd3b6d9596a","session_id":"6197b891ce8258cd1857ae24","condition":"contingent","relevant_dimensions":["antennae","wings"],"bee_group":{"antennae":"B","wings":"2","pattern":"X","legs":"X"},"bonus":0.020000000000000236},{"rt":2329.600000000559,"stimulus":"bees-with-color/bee-A2DF.svg","response":1,"trial_type":"image-button-response","trial_index":158,"time_elapsed":936546,"internal_node_id":"0.0-6.0-0.18","subject_id":"615a395e37b6993b6049d202","study_id":"6197b3f67c2b5cd3b6d9596a","session_id":"6197b891ce8258cd1857ae24","condition":"contingent","relevant_dimensions":["antennae","wings"],"bee_group":{"antennae":"B","wings":"2","pattern":"X","legs":"X"},"bonus":0.020000000000000236},{"rt":1313,"stimulus":"bees-with-color/bee-B1DF.svg","response":0,"trial_type":"image-button-response","trial_index":159,"time_elapsed":937866,"internal_node_id":"0.0-6.0-0.19","subject_id":"615a395e37b6993b6049d202","study_id":"6197b3f67c2b5cd3b6d9596a","session_id":"6197b891ce8258cd1857ae24","condition":"contingent","relevant_dimensions":["antennae","wings"],"bee_group":{"antennae":"B","wings":"2","pattern":"X","legs":"X"},"bonus":0.020000000000000236},{"rt":2505.100000000559,"stimulus":"bees-with-color/bee-B1DM.svg","response":0,"trial_type":"image-button-response","trial_index":160,"time_elapsed":940378,"internal_node_id":"0.0-6.0-0.20","subject_id":"615a395e37b6993b6049d202","study_id":"6197b3f67c2b5cd3b6d9596a","session_id":"6197b891ce8258cd1857ae24","condition":"contingent","relevant_dimensions":["antennae","wings"],"bee_group":{"antennae":"B","wings":"2","pattern":"X","legs":"X"},"bonus":0.020000000000000236},{"rt":1632.6000000005588,"stimulus":"bees-with-color/bee-B2SM.svg","response":0,"trial_type":"image-button-response","trial_index":161,"time_elapsed":942019,"internal_node_id":"0.0-6.0-0.21","subject_id":"615a395e37b6993b6049d202","study_id":"6197b3f67c2b5cd3b6d9596a","session_id":"6197b891ce8258cd1857ae24","condition":"contingent","relevant_dimensions":["antennae","wings"],"bee_group":{"antennae":"B","wings":"2","pattern":"X","legs":"X"},"bonus":0.020000000000000236},{"rt":1723.2999999998137,"stimulus":"bees-with-color/bee-B1SF.svg","response":1,"trial_type":"image-button-response","trial_index":162,"time_elapsed":943749,"internal_node_id":"0.0-6.0-0.22","subject_id":"615a395e37b6993b6049d202","study_id":"6197b3f67c2b5cd3b6d9596a","session_id":"6197b891ce8258cd1857ae24","condition":"contingent","relevant_dimensions":["antennae","wings"],"bee_group":{"antennae":"B","wings":"2","pattern":"X","legs":"X"},"bonus":0.020000000000000236},{"rt":1536.5999999996275,"stimulus":"bees-with-color/bee-A2DM.svg","response":0,"trial_type":"image-button-response","trial_index":163,"time_elapsed":945294,"internal_node_id":"0.0-6.0-0.23","subject_id":"615a395e37b6993b6049d202","study_id":"6197b3f67c2b5cd3b6d9596a","session_id":"6197b891ce8258cd1857ae24","condition":"contingent","relevant_dimensions":["antennae","wings"],"bee_group":{"antennae":"B","wings":"2","pattern":"X","legs":"X"},"bonus":0.020000000000000236},{"rt":1653.3999999994412,"stimulus":"bees-with-color/bee-A2SF.svg","response":0,"trial_type":"image-button-response","trial_index":164,"time_elapsed":946958,"internal_node_id":"0.0-6.0-0.24","subject_id":"615a395e37b6993b6049d202","study_id":"6197b3f67c2b5cd3b6d9596a","session_id":"6197b891ce8258cd1857ae24","condition":"contingent","relevant_dimensions":["antennae","wings"],"bee_group":{"antennae":"B","wings":"2","pattern":"X","legs":"X"},"bonus":0.020000000000000236},{"rt":1385.2000000001863,"stimulus":"bees-with-color/bee-B2DM