[{"success":true,"trial_type":"fullscreen","trial_index":0,"time_elapsed":408291,"internal_node_id":"0.0-0.0","subject_id":"5ef1245c0171104d6d91d627","study_id":"60edd13110225f80f9f3709b","session_id":"6196c1ec255d3a25c75b54cf","condition":"contingent","relevant_dimensions":["pattern","legs"],"bee_group":{"antennae":"X","wings":"X","pattern":"D","legs":"M"},"bonus":0.6000000000000005},{"success":true,"timeout":false,"failed_images":[],"failed_audio":[],"failed_video":[],"trial_type":"preload","trial_index":1,"time_elapsed":410245,"internal_node_id":"0.0-1.0","subject_id":"5ef1245c0171104d6d91d627","study_id":"60edd13110225f80f9f3709b","session_id":"6196c1ec255d3a25c75b54cf","condition":"contingent","relevant_dimensions":["pattern","legs"],"bee_group":{"antennae":"X","wings":"X","pattern":"D","legs":"M"},"bonus":0.6000000000000005},{"rt":3772,"stimulus":"Welcome! Press any key to begin.","response":"l","trial_type":"html-keyboard-response","trial_index":2,"time_elapsed":414018,"internal_node_id":"0.0-2.0","subject_id":"5ef1245c0171104d6d91d627","study_id":"60edd13110225f80f9f3709b","session_id":"6196c1ec255d3a25c75b54cf","condition":"contingent","relevant_dimensions":["pattern","legs"],"bee_group":{"antennae":"X","wings":"X","pattern":"D","legs":"M"},"bonus":0.6000000000000005},{"view_history":[{"page_index":0,"viewing_time":5846},{"page_index":1,"viewing_time":24939},{"page_index":2,"viewing_time":16837},{"page_index":3,"viewing_time":20011},{"page_index":4,"viewing_time":8103},{"page_index":5,"viewing_time":14173},{"page_index":6,"viewing_time":12945},{"page_index":7,"viewing_time":5761},{"page_index":8,"viewing_time":5864},{"page_index":9,"viewing_time":4374},{"page_index":10,"viewing_time":2865},{"page_index":11,"viewing_time":16110},{"page_index":12,"viewing_time":10332},{"page_index":13,"viewing_time":1266},{"page_index":14,"viewing_time":3009}],"rt":152435,"trial_type":"instructions","trial_index":3,"time_elapsed":566452,"internal_node_id":"0.0-3.0-0.0","subject_id":"5ef1245c0171104d6d91d627","study_id":"60edd13110225f80f9f3709b","session_id":"6196c1ec255d3a25c75b54cf","condition":"contingent","relevant_dimensions":["pattern","legs"],"bee_group":{"antennae":"X","wings":"X","pattern":"D","legs":"M"},"bonus":0.6000000000000005},{"rt":21203,"response":{"Q0":["Two or six legs","Stripes or spots on body","Single or double wings","Antennae or no antennae"]},"question_order":[0],"trial_type":"survey-multi-select","trial_index":4,"time_elapsed":587658,"internal_node_id":"0.0-3.0-1.0","subject_id":"5ef1245c0171104d6d91d627","study_id":"60edd13110225f80f9f3709b","session_id":"6196c1ec255d3a25c75b54cf","condition":"contingent","relevant_dimensions":["pattern","legs"],"bee_group":{"antennae":"X","wings":"X","pattern":"D","legs":"M"},"correct":true,"bonus":0.6000000000000005},{"rt":27184,"response":{"Q1":"No.","Q2":"Based on the four features of the bee.","Q3":"You do not learn if it was friendly or dangerous, and do not alter your bonus."},"question_order":[0,1,2],"trial_type":"survey-multi-choice","trial_index":5,"time_elapsed":614844,"internal_node_id":"0.0-3.0-2.0","subject_id":"5ef1245c0171104d6d91d627","study_id":"60edd13110225f80f9f3709b","session_id":"6196c1ec255d3a25c75b54cf","condition":"contingent","relevant_dimensions":["pattern","legs"],"bee_group":{"antennae":"X","wings":"X","pattern":"D","legs":"M"},"correct":true,"bonus":0.6000000000000005},{"rt":3168,"stimulus":"<p>Congrats, you got everything right<br>When you're ready, click the button below to continue to the experiment.</p>","response":0,"trial_type":"html-button-response","trial_index":6,"time_elapsed":618012,"internal_node_id":"0.0-3.0-3.0","subject_id":"5ef1245c0171104d6d91d627","study_id":"60edd13110225f80f9f3709b","session_id":"6196c1ec255d3a25c75b54cf","condition":"contingent","relevant_dimensions":["pattern","legs"],"bee_group":{"antennae":"X","wings":"X","pattern":"D","legs":"M"},"bonus":0.6000000000000005},{"rt":4996,"stimulus":"bees-with-color/bee-B1SM.svg","response":0,"trial_type":"image-button-response","trial_index":7,"time_elapsed":623011,"internal_node_id":"0.0-4.0-0.0","subject_id":"5ef1245c0171104d6d91d627","study_id":"60edd13110225f80f9f3709b","session_id":"6196c1ec255d3a25c75b54cf","condition":"contingent","relevant_dimensions":["pattern","legs"],"bee_group":{"antennae":"X","wings":"X","pattern":"D","legs":"M"},"action":"harvest","summary":"good-harvest","bonus":0.6000000000000005},{"rt":12321,"stimulus":"\n                    <p><b>Action: <em>harvest</em></b></p>\n                    <p>This is the bee that you just saw.</p>\n                    <img src=\"bees-with-color/bee-B1SM.svg\" width=\"200\">\n                    <p><span class=\"greenText\"><b>Successful harvest!</b></span><br>Your pay has increased by $0.02. Your bonus pay is now $0.56.</p>\n            ","response":0,"trial_type":"html-button-response","trial_index":8,"time_elapsed":635343,"internal_node_id":"0.0-4.0-1.0","subject_id":"5ef1245c0171104d6d91d627","study_id":"60edd13110225f80f9f3709b","session_id":"6196c1ec255d3a25c75b54cf","condition":"contingent","relevant_dimensions":["pattern","legs"],"bee_group":{"antennae":"X","wings":"X","pattern":"D","legs":"M"},"bonus":0.6000000000000005},{"rt":3744,"stimulus":"bees-with-color/bee-A1SF.svg","response":0,"trial_type":"image-button-response","trial_index":9,"time_elapsed":639089,"internal_node_id":"0.0-4.0-0.1","subject_id":"5ef1245c0171104d6d91d627","study_id":"60edd13110225f80f9f3709b","session_id":"6196c1ec255d3a25c75b54cf","condition":"contingent","relevant_dimensions":["pattern","legs"],"bee_group":{"antennae":"X","wings":"X","pattern":"D","legs":"M"},"action":"harvest","summary":"good-harvest","bonus":0.6000000000000005},{"rt":4571,"stimulus":"\n                    <p><b>Action: <em>harvest</em></b></p>\n                    <p>This is the bee that you just saw.</p>\n                    <img src=\"bees-with-color/bee-A1SF.svg\" width=\"200\">\n                    <p><span class=\"greenText\"><b>Successful harvest!</b></span><br>Your pay has increased by $0.02. Your bonus pay is now $0.58.</p>\n            ","response":0,"trial_type":"html-button-response","trial_index":10,"time_elapsed":643660,"internal_node_id":"0.0-4.0-1.1","subject_id":"5ef1245c0171104d6d91d627","study_id":"60edd13110225f80f9f3709b","session_id":"6196c1ec255d3a25c75b54cf","condition":"contingent","relevant_dimensions":["pattern","legs"],"bee_group":{"antennae":"X","wings":"X","pattern":"D","legs":"M"},"bonus":0.6000000000000005},{"rt":6169,"stimulus":"bees-with-color/bee-B2DF.svg","response":0,"trial_type":"image-button-response","trial_index":11,"time_elapsed":649831,"internal_node_id":"0.0-4.0-0.2","subject_id":"5ef1245c0171104d6d91d627","study_id":"60edd13110225f80f9f3709b","session_id":"6196c1ec255d3a25c75b54cf","condition":"contingent","relevant_dimensions":["pattern","legs"],"bee_group":{"antennae":"X","wings":"X","pattern":"D","legs":"M"},"action":"harvest","summary":"good-harvest","bonus":0.6000000000000005},{"rt":2839,"stimulus":"\n                    <p><b>Action: <em>harvest</em></b></p>\n                    <p>This is the bee that you just saw.</p>\n                    <img src=\"bees-with-color/bee-B2DF.svg\" width=\"200\">\n                    <p><span class=\"greenText\"><b>Successful harvest!</b></span><br>Your pay has increased by $0.02. Your bonus pay is now $0.60.</p>\n            ","response":0,"trial_type":"html-button-response","trial_index":12,"time_elapsed":652671,"internal_node_id":"0.0-4.0-1.2","subject_id":"5ef1245c0171104d6d91d627","study_id":"60edd13110225f80f9f3709b","session_id":"6196c1ec255d3a25c75b54cf","condition":"contingent","relevant_dimensions":["pattern","legs"],"bee_group":{"antennae":"X","wings":"X","pattern":"D","legs":"M"},"bonus":0.6000000000000005},{"rt":3997,"stimulus":"bees-with-color/bee-A1SM.svg","response":0,"trial_type":"image-button-response","trial_index":13,"time_elapsed":656669,"internal_node_id":"0.0-4.0-0.3","subject_id":"5ef1245c0171104d6d91d627","study_id":"60edd13110225f80f9f3709b","session_id":"6196c1ec255d3a25c75b54cf","condition":"contingent","relevant_dimensions":["pattern","legs"],"bee_group":{"antennae":"X","wings":"X","pattern":"D","legs":"M"},"action":"harvest","summary":"good-harvest","bonus":0.6000000000000005},{"rt":3313,"stimulus":"\n                    <p><b>Action: <em>harvest</em></b></p>\n                    <p>This is the bee that you just saw.</p>\n                    <img src=\"bees-with-color/bee-A1SM.svg\" width=\"200\">\n                    <p><span class=\"greenText\"><b>Successful harvest!</b></span><br>Your pay has increased by $0.02. Your bonus pay is now $0.62.</p>\n            ","response":0,"trial_type":"html-button-response","trial_index":14,"time_elapsed":659983,"internal_node_id":"0.0-4.0-1.3","subject_id":"5ef1245c0171104d6d91d627","study_id":"60edd13110225f80f9f3709b","session_id":"6196c1ec255d3a25c75b54cf","condition":"contingent","relevant_dimensions":["pattern","legs"],"bee_group":{"antennae":"X","wings":"X","pattern":"D","legs":"M"},"bonus":0.6000000000000005},{"rt":1842,"stimulus":"bees-with-color/bee-B2DM.svg","response":0,"trial_type":"image-button-response","trial_index":15,"time_elapsed":661825,"internal_node_id":"0.0-4.0-0.4","subject_id":"5ef1245c0171104d6d91d627","study_id":"60edd13110225f80f9f3709b","session_id":"6196c1ec255d3a25c75b54cf","condition":"contingent","relevant_dimensions":["pattern","legs"],"bee_group":{"antennae":"X","wings":"X","pattern":"D","legs":"M"},"action":"harvest","summary":"bad-harvest","bonus":0.6000000000000005},{"rt":4177,"stimulus":"\n                    <p><b>Action: <em>harvest</em></b></p>\n                    <p>This is the bee that you just saw.</p>\n                    <img src=\"bees-with-color/bee-B2DM.svg\" width=\"200\">\n                    <p><span class=\"redText\">Bad choice, the bee was angry.</span><br><b>You have been stung!</b><br>Your pay has been decreased by $0.10. Your bonus pay is now $0.52.</p>\n            ","response":0,"trial_type":"html-button-response","trial_index":16,"time_elapsed":666002,"internal_node_id":"0.0-4.0-1.4","subject_id":"5ef1245c0171104d6d91d627","study_id":"60edd13110225f80f9f3709b","session_id":"6196c1ec255d3a25c75b54cf","condition":"contingent","relevant_dimensions":["pattern","legs"],"bee_group":{"antennae":"X","wings":"X","pattern":"D","legs":"M"},"bonus":0.6000000000000005},{"rt":2582,"stimulus":"bees-with-color/bee-A1DM.svg","response":0,"trial_type":"image-button-response","trial_index":17,"time_elapsed":668584,"internal_node_id":"0.0-4.0-0.5","subject_id":"5ef1245c0171104d6d91d627","study_id":"60edd13110225f80f9f3709b","session_id":"6196c1ec255d3a25c75b54cf","condition":"contingent","relevant_dimensions":["pattern","legs"],"bee_group":{"antennae":"X","wings":"X","pattern":"D","legs":"M"},"action":"harvest","summary":"bad-harvest","bonus":0.6000000000000005},{"rt":4760,"stimulus":"\n                    <p><b>Action: <em>harvest</em></b></p>\n                    <p>This is the bee that you just saw.</p>\n                    <img src=\"bees-with-color/bee-A1DM.svg\" width=\"200\">\n                    <p><span class=\"redText\">Bad choice, the bee was angry.</span><br><b>You have been stung!</b><br>Your pay has been decreased by $0.10. Your bonus pay is now $0.42.</p>\n            ","response":0,"trial_type":"html-button-response","trial_index":18,"time_elapsed":673347,"internal_node_id":"0.0-4.0-1.5","subject_id":"5ef1245c0171104d6d91d627","study_id":"60edd13110225f80f9f3709b","session_id":"6196c1ec255d3a25c75b54cf","condition":"contingent","relevant_dimensions":["pattern","legs"],"bee_group":{"antennae":"X","wings":"X","pattern":"D","legs":"M"},"bonus":0.6000000000000005},{"rt":1525,"stimulus":"bees-with-color/bee-B1SF.svg","response":0,"trial_type":"image-button-response","trial_index":19,"time_elapsed":674873,"internal_node_id":"0.0-4.0-0.6","subject_id":"5ef1245c0171104d6d91d627","study_id":"60edd13110225f80f9f3709b","session_id":"6196c1ec255d3a25c75b54cf","condition":"contingent","relevant_dimensions":["pattern","legs"],"bee_group":{"antennae":"X","wings":"X","pattern":"D","legs":"M"},"action":"harvest","summary":"good-harvest","bonus":0.6000000000000005},{"rt":1346,"stimulus":"\n                    <p><b>Action: <em>harvest</em></b></p>\n                    <p>This is the bee that you just saw.</p>\n                    <img src=\"bees-with-color/bee-B1SF.svg\" width=\"200\">\n                    <p><span class=\"greenText\"><b>Successful harvest!</b></span><br>Your pay has increased by $0.02. Your bonus pay is now $0.44.</p>\n            ","response":0,"trial_type":"html-button-response","trial_index":20,"time_elapsed":676218,"internal_node_id":"0.0-4.0-1.6","subject_id":"5ef1245c0171104d6d91d627","study_id":"60edd13110225f80f9f3709b","session_id":"6196c1ec255d3a25c75b54cf","condition":"contingent","relevant_dimensions":["pattern","legs"],"bee_group":{"antennae":"X","wings":"X","pattern":"D","legs":"M"},"bonus":0.6000000000000005},{"rt":2480,"stimulus":"bees-with-color/bee-B1DF.svg","response":0,"trial_type":"image-button-response","trial_index":21,"time_elapsed":678699,"internal_node_id":"0.0-4.0-0.7","subject_id":"5ef1245c0171104d6d91d627","study_id":"60edd13110225f80f9f3709b","session_id":"6196c1ec255d3a25c75b54cf","condition":"contingent","relevant_dimensions":["pattern","legs"],"bee_group":{"antennae":"X","wings":"X","pattern":"D","legs":"M"},"action":"harvest","summary":"good-harvest","bonus":0.6000000000000005},{"rt":3743,"stimulus":"\n                    <p><b>Action: <em>harvest</em></b></p>\n                    <p>This is the bee that you just saw.</p>\n                    <img src=\"bees-with-color/bee-B1DF.svg\" width=\"200\">\n                    <p><span class=\"greenText\"><b>Successful harvest!</b></span><br>Your pay has increased by $0.02. Your bonus pay is now $0.46.</p>\n            ","response":0,"trial_type":"html-button-response","trial_index":22,"time_elapsed":682442,"internal_node_id":"0.0-4.0-1.7","subject_id":"5ef1245c0171104d6d91d627","study_id":"60edd13110225f80f9f3709b","session_id":"6196c1ec255d3a25c75b54cf","condition":"contingent","relevant_dimensions":["pattern","legs"],"bee_group":{"antennae":"X","wings":"X","pattern":"D","legs":"M"},"bonus":0.6000000000000005},{"rt":5636,"stimulus":"bees-with-color/bee-A2SF.svg","response":0,"trial_type":"image-button-response","trial_index":23,"time_elapsed":688078,"internal_node_id":"0.0-4.0-0.8","subject_id":"5ef1245c0171104d6d91d627","study_id":"60edd13110225f80f9f3709b","session_id":"6196c1ec255d3a25c75b54cf","condition":"contingent","relevant_dimensions":["pattern","legs"],"bee_group":{"antennae":"X","wings":"X","pattern":"D","legs":"M"},"action":"harvest","summary":"good-harvest","bonus":0.6000000000000005},{"rt":2493,"stimulus":"\n                    <p><b>Action: <em>harvest</em></b></p>\n                    <p>This is the bee that you just saw.</p>\n                    <img src=\"bees-with-color/bee-A2SF.svg\" width=\"200\">\n                    <p><span class=\"greenText\"><b>Successful harvest!</b></span><br>Your pay has increased by $0.02. Your bonus pay is now $0.48.</p>\n            ","response":0,"trial_type":"html-button-response","trial_index":24,"time_elapsed":690572,"internal_node_id":"0.0-4.0-1.8","subject_id":"5ef1245c0171104d6d91d627","study_id":"60edd13110225f80f9f3709b","session_id":"6196c1ec255d3a25c75b54cf","condition":"contingent","relevant_dimensions":["pattern","legs"],"bee_group":{"antennae":"X","wings":"X","pattern":"D","legs":"M"},"bonus":0.6000000000000005},{"rt":3889,"stimulus":"bees-with-color/bee-A1DF.svg","response":0,"trial_type":"image-button-response","trial_index":25,"time_elapsed":694462,"internal_node_id":"0.0-4.0-0.9","subject_id":"5ef1245c0171104d6d91d627","study_id":"60edd13110225f80f9f3709b","session_id":"6196c1ec255d3a25c75b54cf","condition":"contingent","relevant_dimensions":["pattern","legs"],"bee_group":{"antennae":"X","wings":"X","pattern":"D","legs":"M"},"action":"harvest","summary":"good-harvest","bonus":0.6000000000000005},{"rt":1474,"stimulus":"\n                    <p><b>Action: <em>harvest</em></b></p>\n                    <p>This is the bee that you just saw.</p>\n                    <img src=\"bees-with-color/bee-A1DF.svg\" width=\"200\">\n                    <p><span class=\"greenText\"><b>Successful harvest!</b></span><br>Your pay has increased by $0.02. Your bonus pay is now $0.50.</p>\n            ","response":0,"trial_type":"html-button-response","trial_index":26,"time_elapsed":695939,"internal_node_id":"0.0-4.0-1.9","subject_id":"5ef1245c0171104d6d91d627","study_id":"60edd13110225f80f9f3709b","session_id":"6196c1ec255d3a25c75b54cf","condition":"contingent","relevant_dimensions":["pattern","legs"],"bee_group":{"antennae":"X","wings":"X","pattern":"D","legs":"M"},"bonus":0.6000000000000005},{"rt":2053,"stimulus":"bees-with-color/bee-A2SM.svg","response":0,"trial_type":"image-button-response","trial_index":27,"time_elapsed":697993,"internal_node_id":"0.0-4.0-0.10","subject_id":"5ef1245c0171104d6d91d627","study_id":"60edd13110225f80f9f3709b","session_id":"6196c1ec255d3a25c75b54cf","condition":"contingent","relevant_dimensions":["pattern","legs"],"bee_group":{"antennae":"X","wings":"X","pattern":"D","legs":"M"},"action":"harvest","summary":"good-harvest","bonus":0.6000000000000005},{"rt":1321,"stimulus":"\n                    <p><b>Action: <em>harvest</em></b></p>\n                    <p>This is the bee that you just saw.</p>\n                    <img src=\"bees-with-color/bee-A2SM.svg\" width=\"200\">\n                    <p><span class=\"greenText\"><b>Successful harvest!</b></span><br>Your pay has increased by $0.02. Your bonus pay is now $0.52.</p>\n            ","response":0,"trial_type":"html-button-response","trial_index":28,"time_elapsed":699315,"internal_node_id":"0.0-4.0-1.10","subject_id":"5ef1245c0171104d6d91d627","study_id":"60edd13110225f80f9f3709b","session_id":"6196c1ec255d3a25c75b54cf","condition":"contingent","relevant_dimensions":["pattern","legs"],"bee_group":{"antennae":"X","wings":"X","pattern":"D","legs":"M"},"bonus":0.6000000000000005},{"rt":2894,"stimulus":"bees-with-color/bee-B2SF.svg","response":1,"trial_type":"image-button-response","trial_index":29,"time_elapsed":702210,"internal_node_id":"0.0-4.0-0.11","subject_id":"5ef1245c0171104d6d91d627","study_id":"60edd13110225f80f9f3709b","session_id":"6196c1ec255d3a25c75b54cf","condition":"contingent","relevant_dimensions":["pattern","legs"],"bee_group":{"antennae":"X","wings":"X","pattern":"D","legs":"M"},"action":"avoid","summary":"bad-avoid","bonus":0.6000000000000005},{"rt":1321,"stimulus":"\n                    <p><b>Action: <em>avoid</em></b></p>\n                    <p>This is the bee that you just saw.</p>\n                    <img src=\"bees-with-color/bee-B2SF.svg\" width=\"200\">\n                    <p><br>Your bonus pay is unchanged, and remains at $0.52.</p>\n            ","response":0,"trial_type":"html-button-response","trial_index":30,"time_elapsed":703532,"internal_node_id":"0.0-4.0-1.11","subject_id":"5ef1245c0171104d6d91d627","study_id":"60edd13110225f80f9f3709b","session_id":"6196c1ec255d3a25c75b54cf","condition":"contingent","relevant_dimensions":["pattern","legs"],"bee_group":{"antennae":"X","wings":"X","pattern":"D","legs":"M"},"bonus":0.6000000000000005},{"rt":1927,"stimulus":"bees-with-color/bee-B1DM.svg","response":0,"trial_type":"image-button-response","trial_index":31,"time_elapsed":705460,"internal_node_id":"0.0-4.0-0.12","subject_id":"5ef1245c0171104d6d91d627","study_id":"60edd13110225f80f9f3709b","session_id":"6196c1ec255d3a25c75b54cf","condition":"contingent","relevant_dimensions":["pattern","legs"],"bee_group":{"antennae":"X","wings":"X","pattern":"D","legs":"M"},"action":"harvest","summary":"bad-harvest","bonus":0.6000000000000005},{"rt":1620,"stimulus":"\n                    <p><b>Action: <em>harvest</em></b></p>\n                    <p>This is the bee that you just saw.</p>\n                    <img src=\"bees-with-color/bee-B1DM.svg\" width=\"200\">\n                    <p><span class=\"redText\">Bad choice, the bee was angry.</span><br><b>You have been stung!</b><br>Your pay has been decreased by $0.10. Your bonus pay is now $0.42.</p>\n            ","response":0,"trial_type":"html-button-response","trial_index":32,"time_elapsed":707081,"internal_node_id":"0.0-4.0-1.12","subject_id":"5ef1245c0171104d6d91d627","study_id":"60edd13110225f80f9f3709b","session_id":"6196c1ec255d3a25c75b54cf","condition":"contingent","relevant_dimensions":["pattern","legs"],"bee_group":{"antennae":"X","wings":"X","pattern":"D","legs":"M"},"bonus":0.6000000000000005},{"rt":1276,"stimulus":"bees-with-color/bee-B2SM.svg","response":0,"trial_type":"image-button-response","trial_index":33,"time_elapsed":708356,"internal_node_id":"0.0-4.0-0.13","subject_id":"5ef1245c0171104d6d91d627","study_id":"60edd13110225f80f9f3709b","session_id":"6196c1ec255d3a25c75b54cf","condition":"contingent","relevant_dimensions":["pattern","legs"],"bee_group":{"antennae":"X","wings":"X","pattern":"D","legs":"M"},"action":"harvest","summary":"good-harvest","bonus":0.6000000000000005},{"rt":587,"stimulus":"\n                    <p><b>Action: <em>harvest</em></b></p>\n                    <p>This is the bee that you just saw.</p>\n                    <img src=\"bees-with-color/bee-B2SM.svg\" width=\"200\">\n                    <p><span class=\"greenText\"><b>Successful harvest!</b></span><br>Your pay has increased by $0.02. Your bonus pay is now $0.44.</p>\n            ","response":0,"trial_type":"html-button-response","trial_index":34,"time_elapsed":708945,"internal_node_id":"0.0-4.0-1.13","subject_id":"5ef1245c0171104d6d91d627","study_id":"60edd13110225f80f9f3709b","session_id":"6196c1ec255d3a25c75b54cf","condition":"contingent","relevant_dimensions":["pattern","legs"],"bee_group":{"antennae":"X","wings":"X","pattern":"D","legs":"M"},"bonus":0.6000000000000005},{"rt":1393,"stimulus":"bees-with-color/bee-A2DM.svg","response":0,"trial_type":"image-button-response","trial_index":35,"time_elapsed":710338,"internal_node_id":"0.0-4.0-0.14","subject_id":"5ef1245c0171104d6d91d627","study_id":"60edd13110225f80f9f3709b","session_id":"6196c1ec255d3a25c75b54cf","condition":"contingent","relevant_dimensions":["pattern","legs"],"bee_group":{"antennae":"X","wings":"X","pattern":"D","legs":"M"},"action":"harvest","summary":"bad-harvest","bonus":0.6000000000000005},{"rt":1037,"stimulus":"\n                    <p><b>Action: <em>harvest</em></b></p>\n                    <p>This is the bee that you just saw.</p>\n                    <img src=\"bees-with-color/bee-A2DM.svg\" width=\"200\">\n                    <p><span class=\"redText\">Bad choice, the bee was angry.</span><br><b>You have been stung!</b><br>Your pay has been decreased by $0.10. Your bonus pay is now $0.34.</p>\n            ","response":0,"trial_type":"html-button-response","trial_index":36,"time_elapsed":711377,"internal_node_id":"0.0-4.0-1.14","subject_id":"5ef1245c0171104d6d91d627","study_id":"60edd13110225f80f9f3709b","session_id":"6196c1ec255d3a25c75b54cf","condition":"contingent","relevant_dimensions":["pattern","legs"],"bee_group":{"antennae":"X","wings":"X","pattern":"D","legs":"M"},"bonus":0.6000000000000005},{"rt":1345,"stimulus":"bees-with-color/bee-A2DF.svg","response":0,"trial_type":"image-button-response","trial_index":37,"time_elapsed":712723,"internal_node_id":"0.0-4.0-0.15","subject_id":"5ef1245c0171104d6d91d627","study_id":"60edd13110225f80f9f3709b","session_id":"6196c1ec255d3a25c75b54cf","condition":"contingent","relevant_dimensions":["pattern","legs"],"bee_group":{"antennae":"X","wings":"X","pattern":"D","legs":"M"},"action":"harvest","summary":"good-harvest","bonus":0.6000000000000005},{"rt":1147,"stimulus":"\n                    <p><b>Action: <em>harvest</em></b></p>\n                    <p>This is the bee that you just saw.</p>\n                    <img src=\"bees-with-color/bee-A2DF.svg\" width=\"200\">\n                    <p><span class=\"greenText\"><b>Successful harvest!</b></span><br>Your pay has increased by $0.02. Your bonus pay is now $0.36.</p>\n            ","response":0,"trial_type":"html-button-response","trial_index":38,"time_elapsed":713871,"internal_node_id":"0.0-4.0-1.15","subject_id":"5ef1245c0171104d6d91d627","study_id":"60edd13110225f80f9f3709b","session_id":"6196c1ec255d3a25c75b54cf","condition":"contingent","relevant_dimensions":["pattern","legs"],"bee_group":{"antennae":"X","wings":"X","pattern":"D","legs":"M"},"bonus":0.6000000000000005},{"rt":1967,"stimulus":"bees-with-color/bee-B2DM.svg","response":0,"trial_type":"image-button-response","trial_index":39,"time_elapsed":715838,"internal_node_id":"0.0-4.0-0.16","subject_id":"5ef1245c0171104d6d91d627","study_id":"60edd13110225f80f9f3709b","session_id":"6196c1ec255d3a25c75b54cf","condition":"contingent","relevant_dimensions":["pattern","legs"],"bee_group":{"antennae":"X","wings":"X","pattern":"D","legs":"M"},"action":"harvest","summary":"bad-harvest","bonus":0.6000000000000005},{"rt":1155,"stimulus":"\n                    <p><b>Action: <em>harvest</em></b></p>\n                    <p>This is the bee that you just saw.</p>\n                    <img src=\"bees-with-color/bee-B2DM.svg\" width=\"200\">\n                    <p><span class=\"redText\">Bad choice, the bee was angry.</span><br><b>You have been stung!</b><br>Your pay has been decreased by $0.10. Your bonus pay is now $0.26.</p>\n            ","response":0,"trial_type":"html-button-response","trial_index":40,"time_elapsed":716994,"internal_node_id":"0.0-4.0-1.16","subject_id":"5ef1245c0171104d6d91d627","study_id":"60edd13110225f80f9f3709b","session_id":"6196c1ec255d3a25c75b54cf","condition":"contingent","relevant_dimensions":["pattern","legs"],"bee_group":{"antennae":"X","wings":"X","pattern":"D","legs":"M"},"bonus":0.6000000000000005},{"rt":968,"stimulus":"bees-with-color/bee-A1SF.svg","response":0,"trial_type":"image-button-response","trial_index":41,"time_elapsed":717962,"internal_node_id":"0.0-4.0-0.17","subject_id":"5ef1245c0171104d6d91d627","study_id":"60edd13110225f80f9f3709b","session_id":"6196c1ec255d3a25c75b54cf","condition":"contingent","relevant_dimensions":["pattern","legs"],"bee_group":{"antennae":"X","wings":"X","pattern":"D","legs":"M"},"action":"harvest","summary":"good-harvest","bonus":0.6000000000000005},{"rt":582,"stimulus":"\n                    <p><b>Action: <em>harvest</em></b></p>\n                    <p>This is the bee that you just saw.</p>\n                    <img src=\"bees-with-color/bee-A1SF.svg\" width=\"200\">\n                    <p><span class=\"greenText\"><b>Successful harvest!</b></span><br>Your pay has increased by $0.02. Your bonus pay is now $0.28.</p>\n            ","response":0,"trial_type":"html-button-response","trial_index":42,"time_elapsed":718545,"internal_node_id":"0.0-4.0-1.17","subject_id":"5ef1245c0171104d6d91d627","study_id":"60edd13110225f80f9f3709b","session_id":"6196c1ec255d3a25c75b54cf","condition":"contingent","relevant_dimensions":["pattern","legs"],"bee_group":{"antennae":"X","wings":"X","pattern":"D","legs":"M"},"bonus":0.6000000000000005},{"rt":1077,"stimulus":"bees-with-color/bee-B1DM.svg","response":0,"trial_type":"image-button-response","trial_index":43,"time_elapsed":719623,"internal_node_id":"0.0-4.0-0.18","subject_id":"5ef1245c0171104d6d91d627","study_id":"60edd13110225f80f9f3709b","session_id":"6196c1ec255d3a25c75b54cf","condition":"contingent","relevant_dimensions":["pattern","legs"],"bee_group":{"antennae":"X","wings":"X","pattern":"D","legs":"M"},"action":"harvest","summary":"bad-harvest","bonus":0.6000000000000005},{"rt":903,"stimulus":"\n                    <p><b>Action: <em>harvest</em></b></p>\n                    <p>This is the bee that you just saw.</p>\n                    <img src=\"bees-with-color/bee-B1DM.svg\" width=\"200\">\n                    <p><span class=\"redText\">Bad choice, the bee was angry.</span><br><b>You have been stung!</b><br>Your pay has been decreased by $0.10. Your bonus pay is now $0.18.</p>\n            ","response":0,"trial_type":"html-button-response","trial_index":44,"time_elapsed":720526,"internal_node_id":"0.0-4.0-1.18","subject_id":"5ef1245c0171104d6d91d627","study_id":"60edd13110225f80f9f3709b","session_id":"6196c1ec255d3a25c75b54cf","condition":"contingent","relevant_dimensions":["pattern","legs"],"bee_group":{"antennae":"X","wings":"X","pattern":"D","legs":"M"},"bonus":0.6000000000000005},{"rt":1005,"stimulus":"bees-with-color/bee-A2SF.svg","response":0,"trial_type":"image-button-response","trial_index":45,"time_elapsed":721532,"internal_node_id":"0.0-4.0-0.19","subject_id":"5ef1245c0171104d6d91d627","study_id":"60edd13110225f80f9f3709b","session_id":"6196c1ec255d3a25c75b54cf","condition":"contingent","relevant_dimensions":["pattern","legs"],"bee_group":{"antennae":"X","wings":"X","pattern":"D","legs":"M"},"action":"harvest","summary":"good-harvest","bonus":0.6000000000000005},{"rt":621,"stimulus":"\n                    <p><b>Action: <em>harvest</em></b></p>\n                    <p>This is the bee that you just saw.</p>\n                    <img src=\"bees-with-color/bee-A2SF.svg\" width=\"200\">\n                    <p><span class=\"greenText\"><b>Successful harvest!</b></span><br>Your pay has increased by $0.02. Your bonus pay is now $0.20.</p>\n            ","response":0,"trial_type":"html-button-response","trial_index":46,"time_elapsed":722155,"internal_node_id":"0.0-4.0-1.19","subject_id":"5ef1245c0171104d6d91d627","study_id":"60edd13110225f80f9f3709b","session_id":"6196c1ec255d3a25c75b54cf","condition":"contingent","relevant_dimensions":["pattern","legs"],"bee_group":{"antennae":"X","wings":"X","pattern":"D","legs":"M"},"bonus":0.6000000000000005},{"rt":1842,"stimulus":"bees-with-color/bee-B1SM.svg","response":0,"trial_type":"image-button-response","trial_index":47,"time_elapsed":723996,"internal_node_id":"0.0-4.0-0.20","subject_id":"5ef1245c0171104d6d91d627","study_id":"60edd13110225f80f9f3709b","session_id":"6196c1ec255d3a25c75b54cf","condition":"contingent","relevant_dimensions":["pattern","legs"],"bee_group":{"antennae":"X","wings":"X","pattern":"D","legs":"M"},"action":"harvest","summary":"good-harvest","bonus":0.6000000000000005},{"rt":660,"stimulus":"\n                    <p><b>Action: <em>harvest</em></b></p>\n                    <p>This is the bee that you just saw.</p>\n                    <img src=\"bees-with-color/bee-B1SM.svg\" width=\"200\">\n                    <p><span class=\"greenText\"><b>Successful harvest!</b></span><br>Your pay has increased by $0.02. Your bonus pay is now $0.22.</p>\n            ","response":0,"trial_type":"html-button-response","trial_index":48,"time_elapsed":724657,"internal_node_id":"0.0-4.0-1.20","subject_id":"5ef1245c0171104d6d91d627","study_id":"60edd13110225f80f9f3709b","session_id":"6196c1ec255d3a25c75b54cf","condition":"contingent","relevant_dimensions":["pattern","legs"],"bee_group":{"antennae":"X","wings":"X","pattern":"D","legs":"M"},"bonus":0.6000000000000005},{"rt":1517,"stimulus":"bees-with-color/bee-B2SM.svg","response":0,"trial_type":"image-button-response","trial_index":49,"time_elapsed":726174,"internal_node_id":"0.0-4.0-0.21","subject_id":"5ef1245c0171104d6d91d627","study_id":"60edd13110225f80f9f3709b","session_id":"6196c1ec255d3a25c75b54cf","condition":"contingent","relevant_dimensions":["pattern","legs"],"bee_group":{"antennae":"X","wings":"X","pattern":"D","legs":"M"},"action":"harvest","summary":"good-harvest","bonus":0.6000000000000005},{"rt":731,"stimulus":"\n                    <p><b>Action: <em>harvest</em></b></p>\n                    <p>This is the bee that you just saw.</p>\n                    <img src=\"bees-with-color/bee-B2SM.svg\" width=\"200\">\n                    <p><span class=\"greenText\"><b>Successful harvest!</b></span><br>Your pay has increased by $0.02. Your bonus pay is now $0.24.</p>\n            ","response":0,"trial_type":"html-button-response","trial_index":50,"time_elapsed":726907,"internal_node_id":"0.0-4.0-1.21","subject_id":"5ef1245c0171104d6d91d627","study_id":"60edd13110225f80f9f3709b","session_id":"6196c1ec255d3a25c75b54cf","condition":"contingent","relevant_dimensions":["pattern","legs"],"bee_group":{"antennae":"X","wings":"X","pattern":"D","legs":"M"},"bonus":0.6000000000000005},{"rt":1055,"stimulus":"bees-with-color/bee-B2SF.svg","response":0,"trial_type":"image-button-response","trial_index":51,"time_elapsed":727962,"internal_node_id":"0.0-4.0-0.22","subject_id":"5ef1245c0171104d6d91d627","study_id":"60edd13110225f80f9f3709b","session_id":"6196c1ec255d3a25c75b54cf","condition":"contingent","relevant_dimensions":["pattern","legs"],"bee_group":{"antennae":"X","wings":"X","pattern":"D","legs":"M"},"action":"harvest","summary":"good-harvest","bonus":0.6000000000000005},{"rt":729,"stimulus":"\n                    <p><b>Action: <em>harvest</em></b></p>\n                    <p>This is the bee that you just saw.</p>\n                    <img src=\"bees-with-color/bee-B2SF.svg\" width=\"200\">\n                    <p><span class=\"greenText\"><b>Successful harvest!</b></span><br>Your pay has increased by $0.02. Your bonus pay is now $0.26.</p>\n            ","response":0,"trial_type":"html-button-response","trial_index":52,"time_elapsed":728692,"internal_node_id":"0.0-4.0-1.22","subject_id":"5ef1245c0171104d6d91d627","study_id":"60edd13110225f80f9f3709b","session_id":"6196c1ec255d3a25c75b54cf","condition":"contingent","relevant_dimensions":["pattern","legs"],"bee_group":{"antennae":"X","wings":"X","pattern":"D","legs":"M"},"bonus":0.6000000000000005},{"rt":1992,"stimulus":"bees-with-color/bee-B2DF.svg","response":1,"trial_type":"image-button-response","trial_index":53,"time_elapsed":730684,"internal_node_id":"0.0-4.0-0.23","subject_id":"5ef1245c0171104d6d91d627","study_id":"60edd13110225f80f9f3709b","session_id":"6196c1ec255d3a25c75b54cf","condition":"contingent","relevant_dimensions":["pattern","legs"],"bee_group":{"antennae":"X","wings":"X","pattern":"D","legs":"M"},"action":"avoid","summary":"bad-avoid","bonus":0.6000000000000005},{"rt":863,"stimulus":"\n                    <p><b>Action: <em>avoid</em></b></p>\n                    <p>This is the bee that you just saw.</p>\n                    <img src=\"bees-with-color/bee-B2DF.svg\" width=\"200\">\n                    <p><br>Your bonus pay is unchanged, and remains at $0.26.</p>\n            ","response":0,"trial_type":"html-button-response","trial_index":54,"time_elapsed":731549,"internal_node_id":"0.0-4.0-1.23","subject_id":"5ef1245c0171104d6d91d627","study_id":"60edd13110225f80f9f3709b","session_id":"6196c1ec255d3a25c75b54cf","condition":"contingent","relevant_dimensions":["pattern","legs"],"bee_group":{"antennae":"X","wings":"X","pattern":"D","legs":"M"},"bonus":0.6000000000000005},{"rt":3589,"stimulus":"bees-with-color/bee-A1DM.svg","response":0,"trial_type":"image-button-response","trial_index":55,"time_elapsed":735138,"internal_node_id":"0.0-4.0-0.24","subject_id":"5ef1245c0171104d6d91d627","study_id":"60edd13110225f80f9f3709b","session_id":"6196c1ec255d3a25c75b54cf","condition":"contingent","relevant_dimensions":["pattern","legs"],"bee_group":{"antennae":"X","wings":"X","pattern":"D","legs":"M"},"action":"harvest","summary":"bad-harvest","bonus":0.6000000000000005},{"rt":824,"stimulus":"\n                    <p><b>Action: <em>harvest</em></b></p>\n                    <p>This is the bee that you just saw.</p>\n                    <img src=\"bees-with-color/bee-A1DM.svg\" width=\"200\">\n                    <p><span class=\"redText\">Bad choice, the bee was angry.</span><br><b>You have been stung!</b><br>Your pay has been decreased by $0.10. Your bonus pay is now $0.16.</p>\n            ","response":0,"trial_type":"html-button-response","trial_index":56,"time_elapsed":735965,"internal_node_id":"0.0-4.0-1.24","subject_id":"5ef1245c0171104d6d91d627","study_id":"60edd13110225f80f9f3709b","session_id":"6196c1ec255d3a25c75b54cf","condition":"contingent","relevant_dimensions":["pattern","legs"],"bee_group":{"antennae":"X","wings":"X","pattern":"D","legs":"M"},"bonus":0.6000000000000005},{"rt":919,"stimulus":"bees-with-color/bee-A2DM.svg","response":1,"trial_type":"image-button-response","trial_index":57,"time_elapsed":736884,"internal_node_id":"0.0-4.0-0.25","subject_id":"5ef1245c0171104d6d91d627","study_id":"60edd13110225f80f9f3709b","session_id":"6196c1ec255d3a25c75b54cf","condition":"contingent","relevant_dimensions":["pattern","legs"],"bee_group":{"antennae":"X","wings":"X","pattern":"D","legs":"M"},"action":"avoid","summary":"good-avoid","bonus":0.6000000000000005},{"rt":691,"stimulus":"\n                    <p><b>Action: <em>avoid</em></b></p>\n                    <p>This is the bee that you just saw.</p>\n                    <img src=\"bees-with-color/bee-A2DM.svg\" width=\"200\">\n                    <p><br>Your bonus pay is unchanged, and remains at $0.16.</p>\n            ","response":0,"trial_type":"html-button-response","trial_index":58,"time_elapsed":737576,"internal_node_id":"0.0-4.0-1.25","subject_id":"5ef1245c0171104d6d91d627","study_id":"60edd13110225f80f9f3709b","session_id":"6196c1ec255d3a25c75b54cf","condition":"contingent","relevant_dimensions":["pattern","legs"],"bee_group":{"antennae":"X","wings":"X","pattern":"D","legs":"M"},"bonus":0.6000000000000005},{"rt":1110,"stimulus":"bees-with-color/bee-A1SM.svg","response":0,"trial_type":"image-button-response","trial_index":59,"time_elapsed":738687,"internal_node_id":"0.0-4.0-0.26","subject_id":"5ef1245c0171104d6d91d627","study_id":"60edd13110225f80f9f3709b","session_id":"6196c1ec255d3a25c75b54cf","condition":"contingent","relevant_dimensions":["pattern","legs"],"bee_group":{"antennae":"X","wings":"X","pattern":"D","legs":"M"},"action":"harvest","summary":"good-harvest","bonus":0.6000000000000005},{"rt":597,"stimulus":"\n                    <p><b>Action: <em>harvest</em></b></p>\n                    <p>This is the bee that you just saw.</p>\n                    <img src=\"bees-with-color/bee-A1SM.svg\" width=\"200\">\n                    <p><span class=\"greenText\"><b>Successful harvest!</b></span><br>Your pay has increased by $0.02. Your bonus pay is now $0.18.</p>\n            ","response":0,"trial_type":"html-button-response","trial_index":60,"time_elapsed":739284,"internal_node_id":"0.0-4.0-1.26","subject_id":"5ef1245c0171104d6d91d627","study_id":"60edd13110225f80f9f3709b","session_id":"6196c1ec255d3a25c75b54cf","condition":"contingent","relevant_dimensions":["pattern","legs"],"bee_group":{"antennae":"X","wings":"X","pattern":"D","legs":"M"},"bonus":0.6000000000000005},{"rt":1636,"stimulus":"bees-with-color/bee-A1DF.svg","response":1,"trial_type":"image-button-response","trial_index":61,"time_elapsed":740920,"internal_node_id":"0.0-4.0-0.27","subject_id":"5ef1245c0171104d6d91d627","study_id":"60edd13110225f80f9f3709b","session_id":"6196c1ec255d3a25c75b54cf","condition":"contingent","relevant_dimensions":["pattern","legs"],"bee_group":{"antennae":"X","wings":"X","pattern":"D","legs":"M"},"action":"avoid","summary":"bad-avoid","bonus":0.6000000000000005},{"rt":496,"stimulus":"\n                    <p><b>Action: <em>avoid</em></b></p>\n                    <p>This is the bee that you just saw.</p>\n                    <img src=\"bees-with-color/bee-A1DF.svg\" width=\"200\">\n                    <p><br>Your bonus pay is unchanged, and remains at $0.18.</p>\n            ","response":0,"trial_type":"html-button-response","trial_index":62,"time_elapsed":741417,"internal_node_id":"0.0-4.0-1.27","subject_id":"5ef1245c0171104d6d91d627","study_id":"60edd13110225f80f9f3709b","session_id":"6196c1ec255d3a25c75b54cf","condition":"contingent","relevant_dimensions":["pattern","legs"],"bee_group":{"antennae":"X","wings":"X","pattern":"D","legs":"M"},"bonus":0.6000000000000005},{"rt":912,"stimulus":"bees-with-color/bee-A2SM.svg","response":0,"trial_type":"image-button-response","trial_index":63,"time_elapsed":742328,"internal_node_id":"0.0-4.0-0.28","subject_id":"5ef1245c0171104d6d91d627","study_id":"60edd13110225f80f9f3709b","session_id":"6196c1ec255d3a25c75b54cf","condition":"contingent","relevant_dimensions":["pattern","legs"],"bee_group":{"antennae":"X","wings":"X","pattern":"D","legs":"M"},"action":"harvest","summary":"good-harvest","bonus":0.6000000000000005},{"rt":527,"stimulus":"\n                    <p><b>Action: <em>harvest</em></b></p>\n                    <p>This is the bee that you just saw.</p>\n                    <img src=\"bees-with-color/bee-A2SM.svg\" width=\"200\">\n                    <p><span class=\"greenText\"><b>Successful harvest!</b></span><br>Your pay has increased by $0.02. Your bonus pay is now $0.20.</p>\n            ","response":0,"trial_type":"html-button-response","trial_index":64,"time_elapsed":742857,"internal_node_id":"0.0-4.0-1.28","subject_id":"5ef1245c0171104d6d91d627","study_id":"60edd13110225f80f9f3709b","session_id":"6196c1ec255d3a25c75b54cf","condition":"contingent","relevant_dimensions":["pattern","legs"],"bee_group":{"antennae":"X","wings":"X","pattern":"D","legs":"M"},"bonus":0.6000000000000005},{"rt":826,"stimulus":"bees-with-color/bee-B1SF.svg","response":0,"trial_type":"image-button-response","trial_index":65,"time_elapsed":743683,"internal_node_id":"0.0-4.0-0.29","subject_id":"5ef1245c0171104d6d91d627","study_id":"60edd13110225f80f9f3709b","session_id":"6196c1ec255d3a25c75b54cf","condition":"contingent","relevant_dimensions":["pattern","legs"],"bee_group":{"antennae":"X","wings":"X","pattern":"D","legs":"M"},"action":"harvest","summary":"good-harvest","bonus":0.6000000000000005},{"rt":495,"stimulus":"\n                    <p><b>Action: <em>harvest</em></b></p>\n                    <p>This is the bee that you just saw.</p>\n                    <img src=\"bees-with-color/bee-B1SF.svg\" width=\"200\">\n                    <p><span class=\"greenText\"><b>Successful harvest!</b></span><br>Your pay has increased by $0.02. Your bonus pay is now $0.22.</p>\n            ","response":0,"trial_type":"html-button-response","trial_index":66,"time_elapsed":744179,"internal_node_id":"0.0-4.0-1.29","subject_id":"5ef1245c0171104d6d91d627","study_id":"60edd13110225f80f9f3709b","session_id":"6196c1ec255d3a25c75b54cf","condition":"contingent","relevant_dimensions":["pattern","legs"],"bee_group":{"antennae":"X","wings":"X","pattern":"D","legs":"M"},"bonus":0.6000000000000005},{"rt":912,"stimulus":"bees-with-color/bee-A2DF.svg","response":1,"trial_type":"image-button-response","trial_index":67,"time_elapsed":745091,"internal_node_id":"0.0-4.0-0.30","subject_id":"5ef1245c0171104d6d91d627","study_id":"60edd13110225f80f9f3709b","session_id":"6196c1ec255d3a25c75b54cf","condition":"contingent","relevant_dimensions":["pattern","legs"],"bee_group":{"antennae":"X","wings":"X","pattern":"D","legs":"M"},"action":"avoid","summary":"bad-avoid","bonus":0.6000000000000005},{"rt":801,"stimulus":"\n                    <p><b>Action: <em>avoid</em></b></p>\n                    <p>This is the bee that you just saw.</p>\n                    <img src=\"bees-with-color/bee-A2DF.svg\" width=\"200\">\n                    <p><br>Your bonus pay is unchanged, and remains at $0.22.</p>\n            ","response":0,"trial_type":"html-button-response","trial_index":68,"time_elapsed":745892,"internal_node_id":"0.0-4.0-1.30","subject_id":"5ef1245c0171104d6d91d627","study_id":"60edd13110225f80f9f3709b","session_id":"6196c1ec255d3a25c75b54cf","condition":"contingent","relevant_dimensions":["pattern","legs"],"bee_group":{"antennae":"X","wings":"X","pattern":"D","legs":"M"},"bonus":0.6000000000000005},{"rt":2724,"stimulus":"bees-with-color/bee-B1DF.svg","response":0,"trial_type":"image-button-response","trial_index":69,"time_elapsed":748616,"internal_node_id":"0.0-4.0-0.31","subject_id":"5ef1245c0171104d6d91d627","study_id":"60edd13110225f80f9f3709b","session_id":"6196c1ec255d3a25c75b54cf","condition":"contingent","relevant_dimensions":["pattern","legs"],"bee_group":{"antennae":"X","wings":"X","pattern":"D","legs":"M"},"action":"harvest","summary":"good-harvest","bonus":0.6000000000000005},{"rt":581,"stimulus":"\n                    <p><b>Action: <em>harvest</em></b></p>\n                    <p>This is the bee that you just saw.</p>\n                    <img src=\"bees-with-color/bee-B1DF.svg\" width=\"200\">\n                    <p><span class=\"greenText\"><b>Successful harvest!</b></span><br>Your pay has increased by $0.02. Your bonus pay is now $0.24.</p>\n            ","response":0,"trial_type":"html-button-response","trial_index":70,"time_elapsed":749198,"internal_node_id":"0.0-4.0-1.31","subject_id":"5ef1245c0171104d6d91d627","study_id":"60edd13110225f80f9f3709b","session_id":"6196c1ec255d3a25c75b54cf","condition":"contingent","relevant_dimensions":["pattern","legs"],"bee_group":{"antennae":"X","wings":"X","pattern":"D","legs":"M"},"bonus":0.6000000000000005},{"rt":928,"stimulus":"bees-with-color/bee-B2DF.svg","response":1,"trial_type":"image-button-response","trial_index":71,"time_elapsed":750126,"internal_node_id":"0.0-4.0-0.32","subject_id":"5ef1245c0171104d6d91d627","study_id":"60edd13110225f80f9f3709b","session_id":"6196c1ec255d3a25c75b54cf","condition":"contingent","relevant_dimensions":["pattern","legs"],"bee_group":{"antennae":"X","wings":"X","pattern":"D","legs":"M"},"action":"avoid","summary":"bad-avoid","bonus":0.6000000000000005},{"rt":456,"stimulus":"\n                    <p><b>Action: <em>avoid</em></b></p>\n                    <p>This is the bee that you just saw.</p>\n                    <img src=\"bees-with-color/bee-B2DF.svg\" width=\"200\">\n                    <p><br>Your bonus pay is unchanged, and remains at $0.24.</p>\n            ","response":0,"trial_type":"html-button-response","trial_index":72,"time_elapsed":750582,"internal_node_id":"0.0-4.0-1.32","subject_id":"5ef1245c0171104d6d91d627","study_id":"60edd13110225f80f9f3709b","session_id":"6196c1ec255d3a25c75b54cf","condition":"contingent","relevant_dimensions":["pattern","legs"],"bee_group":{"antennae":"X","wings":"X","pattern":"D","legs":"M"},"bonus":0.6000000000000005},{"rt":857,"stimulus":"bees-with-color/bee-A1SF.svg","response":0,"trial_type":"image-button-response","trial_index":73,"time_elapsed":751440,"internal_node_id":"0.0-4.0-0.33","subject_id":"5ef1245c0171104d6d91d627","study_id":"60edd13110225f80f9f3709b","session_id":"6196c1ec255d3a25c75b54cf","condition":"contingent","relevant_dimensions":["pattern","legs"],"bee_group":{"antennae":"X","wings":"X","pattern":"D","legs":"M"},"action":"harvest","summary":"good-harvest","bonus":0.6000000000000005},{"rt":401,"stimulus":"\n                    <p><b>Action: <em>harvest</em></b></p>\n                    <p>This is the bee that you just saw.</p>\n                    <img src=\"bees-with-color/bee-A1SF.svg\" width=\"200\">\n                    <p><span class=\"greenText\"><b>Successful harvest!</b></span><br>Your pay has increased by $0.02. Your bonus pay is now $0.26.</p>\n            ","response":0,"trial_type":"html-button-response","trial_index":74,"time_elapsed":751843,"internal_node_id":"0.0-4.0-1.33","subject_id":"5ef1245c0171104d6d91d627","study_id":"60edd13110225f80f9f3709b","session_id":"6196c1ec255d3a25c75b54cf","condition":"contingent","relevant_dimensions":["pattern","legs"],"bee_group":{"antennae":"X","wings":"X","pattern":"D","legs":"M"},"bonus":0.6000000000000005},{"rt":1534,"stimulus":"bees-with-color/bee-A2SF.svg","response":0,"trial_type":"image-button-response","trial_index":75,"time_elapsed":753377,"internal_node_id":"0.0-4.0-0.34","subject_id":"5ef1245c0171104d6d91d627","study_id":"60edd13110225f80f9f3709b","session_id":"6196c1ec255d3a25c75b54cf","condition":"contingent","relevant_dimensions":["pattern","legs"],"bee_group":{"antennae":"X","wings":"X","pattern":"D","legs":"M"},"action":"harvest","summary":"good-harvest","bonus":0.6000000000000005},{"rt":1297,"stimulus":"\n                    <p><b>Action: <em>harvest</em></b></p>\n                    <p>This is the bee that you just saw.</p>\n                    <img src=\"bees-with-color/bee-A2SF.svg\" width=\"200\">\n                    <p><span class=\"greenText\"><b>Successful harvest!</b></span><br>Your pay has increased by $0.02. Your bonus pay is now $0.28.</p>\n            ","response":0,"trial_type":"html-button-response","trial_index":76,"time_elapsed":754674,"internal_node_id":"0.0-4.0-1.34","subject_id":"5ef1245c0171104d6d91d627","study_id":"60edd13110225f80f9f3709b","session_id":"6196c1ec255d3a25c75b54cf","condition":"contingent","relevant_dimensions":["pattern","legs"],"bee_group":{"antennae":"X","wings":"X","pattern":"D","legs":"M"},"bonus":0.6000000000000005},{"rt":1203,"stimulus":"bees-with-color/bee-B2DM.svg","response":1,"trial_type":"image-button-response","trial_index":77,"time_elapsed":755878,"internal_node_id":"0.0-4.0-0.35","subject_id":"5ef1245c0171104d6d91d627","study_id":"60edd13110225f80f9f3709b","session_id":"6196c1ec255d3a25c75b54cf","condition":"contingent","relevant_dimensions":["pattern","legs"],"bee_group":{"antennae":"X","wings":"X","pattern":"D","legs":"M"},"action":"avoid","summary":"good-avoid","bonus":0.6000000000000005},{"rt":423,"stimulus":"\n                    <p><b>Action: <em>avoid</em></b></p>\n                    <p>This is the bee that you just saw.</p>\n                    <img src=\"bees-with-color/bee-B2DM.svg\" width=\"200\">\n                    <p><br>Your bonus pay is unchanged, and remains at $0.28.</p>\n            ","response":0,"trial_type":"html-button-response","trial_index":78,"time_elapsed":756303,"internal_node_id":"0.0-4.0-1.35","subject_id":"5ef1245c0171104d6d91d627","study_id":"60edd13110225f80f9f3709b","session_id":"6196c1ec255d3a25c75b54cf","condition":"contingent","relevant_dimensions":["pattern","legs"],"bee_group":{"antennae":"X","wings":"X","pattern":"D","legs":"M"},"bonus":0.6000000000000005},{"rt":898,"stimulus":"bees-with-color/bee-A1DM.svg","response":1,"trial_type":"image-button-response","trial_index":79,"time_elapsed":757200,"internal_node_id":"0.0-4.0-0.36","subject_id":"5ef1245c0171104d6d91d627","study_id":"60edd13110225f80f9f3709b","session_id":"6196c1ec255d3a25c75b54cf","condition":"contingent","relevant_dimensions":["pattern","legs"],"bee_group":{"antennae":"X","wings":"X","pattern":"D","legs":"M"},"action":"avoid","summary":"good-avoid","bonus":0.6000000000000005},{"rt":431,"stimulus":"\n                    <p><b>Action: <em>avoid</em></b></p>\n                    <p>This is the bee that you just saw.</p>\n                    <img src=\"bees-with-color/bee-A1DM.svg\" width=\"200\">\n                    <p><br>Your bonus pay is unchanged, and remains at $0.28.</p>\n            ","response":0,"trial_type":"html-button-response","trial_index":80,"time_elapsed":757633,"internal_node_id":"0.0-4.0-1.36","subject_id":"5ef1245c0171104d6d91d627","study_id":"60edd13110225f80f9f3709b","session_id":"6196c1ec255d3a25c75b54cf","condition":"contingent","relevant_dimensions":["pattern","legs"],"bee_group":{"antennae":"X","wings":"X","pattern":"D","legs":"M"},"bonus":0.6000000000000005},{"rt":589,"stimulus":"bees-with-color/bee-B2SM.svg","response":0,"trial_type":"image-button-response","trial_index":81,"time_elapsed":758222,"internal_node_id":"0.0-4.0-0.37","subject_id":"5ef1245c0171104d6d91d627","study_id":"60edd13110225f80f9f3709b","session_id":"6196c1ec255d3a25c75b54cf","condition":"contingent","relevant_dimensions":["pattern","legs"],"bee_group":{"antennae":"X","wings":"X","pattern":"D","legs":"M"},"action":"harvest","summary":"good-harvest","bonus":0.6000000000000005},{"rt":536,"stimulus":"\n                    <p><b>Action: <em>harvest</em></b></p>\n                    <p>This is the bee that you just saw.</p>\n                    <img src=\"bees-with-color/bee-B2SM.svg\" width=\"200\">\n                    <p><span class=\"greenText\"><b>Successful harvest!</b></span><br>Your pay has increased by $0.02. Your bonus pay is now $0.30.</p>\n            ","response":0,"trial_type":"html-button-response","trial_index":82,"time_elapsed":758759,"internal_node_id":"0.0-4.0-1.37","subject_id":"5ef1245c0171104d6d91d627","study_id":"60edd13110225f80f9f3709b","session_id":"6196c1ec255d3a25c75b54cf","condition":"contingent","relevant_dimensions":["pattern","legs"],"bee_group":{"antennae":"X","wings":"X","pattern":"D","legs":"M"},"bonus":0.6000000000000005},{"rt":1131,"stimulus":"bees-with-color/bee-A2DF.svg","response":1,"trial_type":"image-button-response","trial_index":83,"time_elapsed":759891,"internal_node_id":"0.0-4.0-0.38","subject_id":"5ef1245c0171104d6d91d627","study_id":"60edd13110225f80f9f3709b","session_id":"6196c1ec255d3a25c75b54cf","condition":"contingent","relevant_dimensions":["pattern","legs"],"bee_group":{"antennae":"X","wings":"X","pattern":"D","legs":"M"},"action":"avoid","summary":"bad-avoid","bonus":0.6000000000000005},{"rt":410,"stimulus":"\n                    <p><b>Action: <em>avoid</em></b></p>\n                    <p>This is the bee that you just saw.</p>\n                    <img src=\"bees-with-color/bee-A2DF.svg\" width=\"200\">\n                    <p><br>Your bonus pay is unchanged, and remains at $0.30.</p>\n            ","response":0,"trial_type":"html-button-response","trial_index":84,"time_elapsed":760300,"internal_node_id":"0.0-4.0-1.38","subject_id":"5ef1245c0171104d6d91d627","study_id":"60edd13110225f80f9f3709b","session_id":"6196c1ec255d3a25c75b54cf","condition":"contingent","relevant_dimensions":["pattern","legs"],"bee_group":{"antennae":"X","wings":"X","pattern":"D","legs":"M"},"bonus":0.6000000000000005},{"rt":771,"stimulus":"bees-with-color/bee-B1SF.svg","response":0,"trial_type":"image-button-response","trial_index":85,"time_elapsed":761070,"internal_node_id":"0.0-4.0-0.39","subject_id":"5ef1245c0171104d6d91d627","study_id":"60edd13110225f80f9f3709b","session_id":"6196c1ec255d3a25c75b54cf","condition":"contingent","relevant_dimensions":["pattern","legs"],"bee_group":{"antennae":"X","wings":"X","pattern":"D","legs":"M"},"action":"harvest","summary":"good-harvest","bonus":0.6000000000000005},{"rt":456,"stimulus":"\n                    <p><b>Action: <em>harvest</em></b></p>\n                    <p>This is the bee that you just saw.</p>\n                    <img src=\"bees-with-color/bee-B1SF.svg\" width=\"200\">\n                    <p><span class=\"greenText\"><b>Successful harvest!</b></span><br>Your pay has increased by $0.02. Your bonus pay is now $0.32.</p>\n            ","response":0,"trial_type":"html-button-response","trial_index":86,"time_elapsed":761527,"internal_node_id":"0.0-4.0-1.39","subject_id":"5ef1245c0171104d6d91d627","study_id":"60edd13110225f80f9f3709b","session_id":"6196c1ec255d3a25c75b54cf","condition":"contingent","relevant_dimensions":["pattern","legs"],"bee_group":{"antennae":"X","wings":"X","pattern":"D","legs":"M"},"bonus":0.6000000000000005},{"rt":1297,"stimulus":"bees-with-color/bee-A2DM.svg","response":1,"trial_type":"image-button-response","trial_index":87,"time_elapsed":762824,"internal_node_id":"0.0-4.0-0.40","subject_id":"5ef1245c0171104d6d91d627","study_id":"60edd13110225f80f9f3709b","session_id":"6196c1ec255d3a25c75b54cf","condition":"contingent","relevant_dimensions":["pattern","legs"],"bee_group":{"antennae":"X","wings":"X","pattern":"D","legs":"M"},"action":"avoid","summary":"good-avoid","bonus":0.6000000000000005},{"rt":466,"stimulus":"\n                    <p><b>Action: <em>avoid</em></b></p>\n                    <p>This is the bee that you just saw.</p>\n                    <img src=\"bees-with-color/bee-A2DM.svg\" width=\"200\">\n                    <p><br>Your bonus pay is unchanged, and remains at $0.32.</p>\n            ","response":0,"trial_type":"html-button-response","trial_index":88,"time_elapsed":763291,"internal_node_id":"0.0-4.0-1.40","subject_id":"5ef1245c0171104d6d91d627","study_id":"60edd13110225f80f9f3709b","session_id":"6196c1ec255d3a25c75b54cf","condition":"contingent","relevant_dimensions":["pattern","legs"],"bee_group":{"antennae":"X","wings":"X","pattern":"D","legs":"M"},"bonus":0.6000000000000005},{"rt":817,"stimulus":"bees-with-color/bee-A1DF.svg","response":0,"trial_type":"image-button-response","trial_index":89,"time_elapsed":764109,"internal_node_id":"0.0-4.0-0.41","subject_id":"5ef1245c0171104d6d91d627","study_id":"60edd13110225f80f9f3709b","session_id":"6196c1ec255d3a25c75b54cf","condition":"contingent","relevant_dimensions":["pattern","legs"],"bee_group":{"antennae":"X","wings":"X","pattern":"D","legs":"M"},"action":"harvest","summary":"good-harvest","bonus":0.6000000000000005},{"rt":472,"stimulus":"\n                    <p><b>Action: <em>harvest</em></b></p>\n                    <p>This is the bee that you just saw.</p>\n                    <img src=\"bees-with-color/bee-A1DF.svg\" width=\"200\">\n                    <p><span class=\"greenText\"><b>Successful harvest!</b></span><br>Your pay has increased by $0.02. Your bonus pay is now $0.34.</p>\n            ","response":0,"trial_type":"html-button-response","trial_index":90,"time_elapsed":764580,"internal_node_id":"0.0-4.0-1.41","subject_id":"5ef1245c0171104d6d91d627","study_id":"60edd13110225f80f9f3709b","session_id":"6196c1ec255d3a25c75b54cf","condition":"contingent","relevant_dimensions":["pattern","legs"],"bee_group":{"antennae":"X","wings":"X","pattern":"D","legs":"M"},"bonus":0.6000000000000005},{"rt":990,"stimulus":"bees-with-color/bee-A1SM.svg","response":0,"trial_type":"image-button-response","trial_index":91,"time_elapsed":765571,"internal_node_id":"0.0-4.0-0.42","subject_id":"5ef1245c0171104d6d91d627","study_id":"60edd13110225f80f9f3709b","session_id":"6196c1ec255d3a25c75b54cf","condition":"contingent","relevant_dimensions":["pattern","legs"],"bee_group":{"antennae":"X","wings":"X","pattern":"D","legs":"M"},"action":"harvest","summary":"good-harvest","bonus":0.6000000000000005},{"rt":836,"stimulus":"\n                    <p><b>Action: <em>harvest</em></b></p>\n                    <p>This is the bee that you just saw.</p>\n                    <img src=\"bees-with-color/bee-A1SM.svg\" width=\"200\">\n                    <p><span class=\"greenText\"><b>Successful harvest!</b></span><br>Your pay has increased by $0.02. Your bonus pay is now $0.36.</p>\n            ","response":0,"trial_type":"html-button-response","trial_index":92,"time_elapsed":766407,"internal_node_id":"0.0-4.0-1.42","subject_id":"5ef1245c0171104d6d91d627","study_id":"60edd13110225f80f9f3709b","session_id":"6196c1ec255d3a25c75b54cf","condition":"contingent","relevant_dimensions":["pattern","legs"],"bee_group":{"antennae":"X","wings":"X","pattern":"D","legs":"M"},"bonus":0.6000000000000005},{"rt":1037,"stimulus":"bees-with-color/bee-B1DF.svg","response":0,"trial_type":"image-button-response","trial_index":93,"time_elapsed":767444,"internal_node_id":"0.0-4.0-0.43","subject_id":"5ef1245c0171104d6d91d627","study_id":"60edd13110225f80f9f3709b","session_id":"6196c1ec255d3a25c75b54cf","condition":"contingent","relevant_dimensions":["pattern","legs"],"bee_group":{"antennae":"X","wings":"X","pattern":"D","legs":"M"},"action":"harvest","summary":"good-harvest","bonus":0.6000000000000005},{"rt":496,"stimulus":"\n                    <p><b>Action: <em>harvest</em></b></p>\n                    <p>This is the bee that you just saw.</p>\n                    <img src=\"bees-with-color/bee-B1DF.svg\" width=\"200\">\n                    <p><span class=\"greenText\"><b>Successful harvest!</b></span><br>Your pay has increased by $0.02. Your bonus pay is now $0.38.</p>\n            ","response":0,"trial_type":"html-button-response","trial_index":94,"time_elapsed":767941,"internal_node_id":"0.0-4.0-1.43","subject_id":"5ef1245c0171104d6d91d627","study_id":"60edd13110225f80f9f3709b","session_id":"6196c1ec255d3a25c75b54cf","condition":"contingent","relevant_dimensions":["pattern","legs"],"bee_group":{"antennae":"X","wings":"X","pattern":"D","legs":"M"},"bonus":0.6000000000000005},{"rt":1721,"stimulus":"bees-with-color/bee-B2SF.svg","response":0,"trial_type":"image-button-response","trial_index":95,"time_elapsed":769662,"internal_node_id":"0.0-4.0-0.44","subject_id":"5ef1245c0171104d6d91d627","study_id":"60edd13110225f80f9f3709b","session_id":"6196c1ec255d3a25c75b54cf","condition":"contingent","relevant_dimensions":["pattern","legs"],"bee_group":{"antennae":"X","wings":"X","pattern":"D","legs":"M"},"action":"harvest","summary":"good-harvest","bonus":0.6000000000000005},{"rt":464,"stimulus":"\n                    <p><b>Action: <em>harvest</em></b></p>\n                    <p>This is the bee that you just saw.</p>\n                    <img src=\"bees-with-color/bee-B2SF.svg\" width=\"200\">\n                    <p><span class=\"greenText\"><b>Successful harvest!</b></span><br>Your pay has increased by $0.02. Your bonus pay is now $0.40.</p>\n            ","response":0,"trial_type":"html-button-response","trial_index":96,"time_elapsed":770126,"internal_node_id":"0.0-4.0-1.44","subject_id":"5ef1245c0171104d6d91d627","study_id":"60edd13110225f80f9f3709b","session_id":"6196c1ec255d3a25c75b54cf","condition":"contingent","relevant_dimensions":["pattern","legs"],"bee_group":{"antennae":"X","wings":"X","pattern":"D","legs":"M"},"bonus":0.6000000000000005},{"rt":992,"stimulus":"bees-with-color/bee-A2SM.svg","response":0,"trial_type":"image-button-response","trial_index":97,"time_elapsed":771118,"internal_node_id":"0.0-4.0-0.45","subject_id":"5ef1245c0171104d6d91d627","study_id":"60edd13110225f80f9f3709b","session_id":"6196c1ec255d3a25c75b54cf","condition":"contingent","relevant_dimensions":["pattern","legs"],"bee_group":{"antennae":"X","wings":"X","pattern":"D","legs":"M"},"action":"harvest","summary":"good-harvest","bonus":0.6000000000000005},{"rt":644,"stimulus":"\n                    <p><b>Action: <em>harvest</em></b></p>\n                    <p>This is the bee that you just saw.</p>\n                    <img src=\"bees-with-color/bee-A2SM.svg\" width=\"200\">\n                    <p><span class=\"greenText\"><b>Successful harvest!</b></span><br>Your pay has increased by $0.02. Your bonus pay is now $0.42.</p>\n            ","response":0,"trial_type":"html-button-response","trial_index":98,"time_elapsed":771762,"internal_node_id":"0.0-4.0-1.45","subject_id":"5ef1245c0171104d6d91d627","study_id":"60edd13110225f80f9f3709b","session_id":"6196c1ec255d3a25c75b54cf","condition":"contingent","relevant_dimensions":["pattern","legs"],"bee_group":{"antennae":"X","wings":"X","pattern":"D","legs":"M"},"bonus":0.6000000000000005},{"rt":865,"stimulus":"bees-with-color/bee-B1DM.svg","response":1,"trial_type":"image-button-response","trial_index":99,"time_elapsed":772629,"internal_node_id":"0.0-4.0-0.46","subject_id":"5ef1245c0171104d6d91d627","study_id":"60edd13110225f80f9f3709b","session_id":"6196c1ec255d3a25c75b54cf","condition":"contingent","relevant_dimensions":["pattern","legs"],"bee_group":{"antennae":"X","wings":"X","pattern":"D","legs":"M"},"action":"avoid","summary":"good-avoid","bonus":0.6000000000000005},{"rt":416,"stimulus":"\n                    <p><b>Action: <em>avoid</em></b></p>\n                    <p>This is the bee that you just saw.</p>\n                    <img src=\"bees-with-color/bee-B1DM.svg\" width=\"200\">\n                    <p><br>Your bonus pay is unchanged, and remains at $0.42.</p>\n            ","response":0,"trial_type":"html-button-response","trial_index":100,"time_elapsed":773046,"internal_node_id":"0.0-4.0-1.46","subject_id":"5ef1245c0171104d6d91d627","study_id":"60edd13110225f80f9f3709b","session_id":"6196c1ec255d3a25c75b54cf","condition":"contingent","relevant_dimensions":["pattern","legs"],"bee_group":{"antennae":"X","wings":"X","pattern":"D","legs":"M"},"bonus":0.6000000000000005},{"rt":1172,"stimulus":"bees-with-color/bee-B1SM.svg","response":0,"trial_type":"image-button-response","trial_index":101,"time_elapsed":774220,"internal_node_id":"0.0-4.0-0.47","subject_id":"5ef1245c0171104d6d91d627","study_id":"60edd13110225f80f9f3709b","session_id":"6196c1ec255d3a25c75b54cf","condition":"contingent","relevant_dimensions":["pattern","legs"],"bee_group":{"antennae":"X","wings":"X","pattern":"D","legs":"M"},"action":"harvest","summary":"good-harvest","bonus":0.6000000000000005},{"rt":535,"stimulus":"\n                    <p><b>Action: <em>harvest</em></b></p>\n                    <p>This is the bee that you just saw.</p>\n                    <img src=\"bees-with-color/bee-B1SM.svg\" width=\"200\">\n                    <p><span class=\"greenText\"><b>Successful harvest!</b></span><br>Your pay has increased by $0.02. Your bonus pay is now $0.44.</p>\n            ","response":0,"trial_type":"html-button-response","trial_index":102,"time_elapsed":774755,"internal_node_id":"0.0-4.0-1.47","subject_id":"5ef1245c0171104d6d91d627","study_id":"60edd13110225f80f9f3709b","session_id":"6196c1ec255d3a25c75b54cf","condition":"contingent","relevant_dimensions":["pattern","legs"],"bee_group":{"antennae":"X","wings":"X","pattern":"D","legs":"M"},"bonus":0.6000000000000005},{"rt":847,"stimulus":"bees-with-color/bee-A1DM.svg","response":1,"trial_type":"image-button-response","trial_index":103,"time_elapsed":775603,"internal_node_id":"0.0-4.0-0.48","subject_id":"5ef1245c0171104d6d91d627","study_id":"60edd13110225f80f9f3709b","session_id":"6196c1ec255d3a25c75b54cf","condition":"contingent","relevant_dimensions":["pattern","legs"],"bee_group":{"antennae":"X","wings":"X","pattern":"D","legs":"M"},"action":"avoid","summary":"good-avoid","bonus":0.6000000000000005},{"rt":352,"stimulus":"\n                    <p><b>Action: <em>avoid</em></b></p>\n                    <p>This is the bee that you just saw.</p>\n                    <img src=\"bees-with-color/bee-A1DM.svg\" width=\"200\">\n                    <p><br>Your bonus pay is unchanged, and remains at $0.44.</p>\n            ","response":0,"trial_type":"html-button-response","trial_index":104,"time_elapsed":775957,"internal_node_id":"0.0-4.0-1.48","subject_id":"5ef1245c0171104d6d91d627","study_id":"60edd13110225f80f9f3709b","session_id":"6196c1ec255d3a25c75b54cf","condition":"contingent","relevant_dimensions":["pattern","legs"],"bee_group":{"antennae":"X","wings":"X","pattern":"D","legs":"M"},"bonus":0.6000000000000005},{"rt":1179,"stimulus":"bees-with-color/bee-B2SM.svg","response":0,"trial_type":"image-button-response","trial_index":105,"time_elapsed":777137,"internal_node_id":"0.0-4.0-0.49","subject_id":"5ef1245c0171104d6d91d627","study_id":"60edd13110225f80f9f3709b","session_id":"6196c1ec255d3a25c75b54cf","condition":"contingent","relevant_dimensions":["pattern","legs"],"bee_group":{"antennae":"X","wings":"X","pattern":"D","legs":"M"},"action":"harvest","summary":"good-harvest","bonus":0.6000000000000005},{"rt":536,"stimulus":"\n                    <p><b>Action: <em>harvest</em></b></p>\n                    <p>This is the bee that you just saw.</p>\n                    <img src=\"bees-with-color/bee-B2SM.svg\" width=\"200\">\n                    <p><span class=\"greenText\"><b>Successful harvest!</b></span><br>Your pay has increased by $0.02. Your bonus pay is now $0.46.</p>\n            ","response":0,"trial_type":"html-button-response","trial_index":106,"time_elapsed":777674,"internal_node_id":"0.0-4.0-1.49","subject_id":"5ef1245c0171104d6d91d627","study_id":"60edd13110225f80f9f3709b","session_id":"6196c1ec255d3a25c75b54cf","condition":"contingent","relevant_dimensions":["pattern","legs"],"bee_group":{"antennae":"X","wings":"X","pattern":"D","legs":"M"},"bonus":0.6000000000000005},{"rt":974,"stimulus":"bees-with-color/bee-A2DF.svg","response":1,"trial_type":"image-button-response","trial_index":107,"time_elapsed":778649,"internal_node_id":"0.0-4.0-0.50","subject_id":"5ef1245c0171104d6d91d627","study_id":"60edd13110225f80f9f3709b","session_id":"6196c1ec255d3a25c75b54cf","condition":"contingent","relevant_dimensions":["pattern","legs"],"bee_group":{"antennae":"X","wings":"X","pattern":"D","legs":"M"},"action":"avoid","summary":"bad-avoid","bonus":0.6000000000000005},{"rt":392,"stimulus":"\n                    <p><b>Action: <em>avoid</em></b></p>\n                    <p>This is the bee that you just saw.</p>\n                    <img src=\"bees-with-color/bee-A2DF.svg\" width=\"200\">\n                    <p><br>Your bonus pay is unchanged, and remains at $0.46.</p>\n            ","response":0,"trial_type":"html-button-response","trial_index":108,"time_elapsed":779041,"internal_node_id":"0.0-4.0-1.50","subject_id":"5ef1245c0171104d6d91d627","study_id":"60edd13110225f80f9f3709b","session_id":"6196c1ec255d3a25c75b54cf","condition":"contingent","relevant_dimensions":["pattern","legs"],"bee_group":{"antennae":"X","wings":"X","pattern":"D","legs":"M"},"bonus":0.6000000000000005},{"rt":905,"stimulus":"bees-with-color/bee-A2DM.svg","response":1,"trial_type":"image-button-response","trial_index":109,"time_elapsed":779947,"internal_node_id":"0.0-4.0-0.51","subject_id":"5ef1245c0171104d6d91d627","study_id":"60edd13110225f80f9f3709b","session_id":"6196c1ec255d3a25c75b54cf","condition":"contingent","relevant_dimensions":["pattern","legs"],"bee_group":{"antennae":"X","wings":"X","pattern":"D","legs":"M"},"action":"avoid","summary":"good-avoid","bonus":0.6000000000000005},{"rt":486,"stimulus":"\n                    <p><b>Action: <em>avoid</em></b></p>\n                    <p>This is the bee that you just saw.</p>\n                    <img src=\"bees-with-color/bee-A2DM.svg\" width=\"200\">\n                    <p><br>Your bonus pay is unchanged, and remains at $0.46.</p>\n            ","response":0,"trial_type":"html-button-response","trial_index":110,"time_elapsed":780432,"internal_node_id":"0.0-4.0-1.51","subject_id":"5ef1245c0171104d6d91d627","study_id":"60edd13110225f80f9f3709b","session_id":"6196c1ec255d3a25c75b54cf","condition":"contingent","relevant_dimensions":["pattern","legs"],"bee_group":{"antennae":"X","wings":"X","pattern":"D","legs":"M"},"bonus":0.6000000000000005},{"rt":685,"stimulus":"bees-with-color/bee-A2SF.svg","response":0,"trial_type":"image-button-response","trial_index":111,"time_elapsed":781118,"internal_node_id":"0.0-4.0-0.52","subject_id":"5ef1245c0171104d6d91d627","study_id":"60edd13110225f80f9f3709b","session_id":"6196c1ec255d3a25c75b54cf","condition":"contingent","relevant_dimensions":["pattern","legs"],"bee_group":{"antennae":"X","wings":"X","pattern":"D","legs":"M"},"action":"harvest","summary":"good-harvest","bonus":0.6000000000000005},{"rt":542,"stimulus":"\n                    <p><b>Action: <em>harvest</em></b></p>\n                    <p>This is the bee that you just saw.</p>\n                    <img src=\"bees-with-color/bee-A2SF.svg\" width=\"200\">\n                    <p><span class=\"greenText\"><b>Successful harvest!</b></span><br>Your pay has increased by $0.02. Your bonus pay is now $0.48.</p>\n            ","response":0,"trial_type":"html-button-response","trial_index":112,"time_elapsed":781661,"internal_node_id":"0.0-4.0-1.52","subject_id":"5ef1245c0171104d6d91d627","study_id":"60edd13110225f80f9f3709b","session_id":"6196c1ec255d3a25c75b54cf","condition":"contingent","relevant_dimensions":["pattern","legs"],"bee_group":{"antennae":"X","wings":"X","pattern":"D","legs":"M"},"bonus":0.6000000000000005},{"rt":1361,"stimulus":"bees-with-color/bee-B2DF.svg","response":1,"trial_type":"image-button-response","trial_index":113,"time_elapsed":783022,"internal_node_id":"0.0-4.0-0.53","subject_id":"5ef1245c0171104d6d91d627","study_id":"60edd13110225f80f9f3709b","session_id":"6196c1ec255d3a25c75b54cf","condition":"contingent","relevant_dimensions":["pattern","legs"],"bee_group":{"antennae":"X","wings":"X","pattern":"D","legs":"M"},"action":"avoid","summary":"bad-avoid","bonus":0.6000000000000005},{"rt":337,"stimulus":"\n                    <p><b>Action: <em>avoid</em></b></p>\n                    <p>This is the bee that you just saw.</p>\n                    <img src=\"bees-with-color/bee-B2DF.svg\" width=\"200\">\n                    <p><br>Your bonus pay is unchanged, and remains at $0.48.</p>\n            ","response":0,"trial_type":"html-button-response","trial_index":114,"time_elapsed":783361,"internal_node_id":"0.0-4.0-1.53","subject_id":"5ef1245c0171104d6d91d627","study_id":"60edd13110225f80f9f3709b","session_id":"6196c1ec255d3a25c75b54cf","condition":"contingent","relevant_dimensions":["pattern","legs"],"bee_group":{"antennae":"X","wings":"X","pattern":"D","legs":"M"},"bonus":0.6000000000000005},{"rt":503,"stimulus":"bees-with-color/bee-B1SF.svg","response":0,"trial_type":"image-button-response","trial_index":115,"time_elapsed":783864,"internal_node_id":"0.0-4.0-0.54","subject_id":"5ef1245c0171104d6d91d627","study_id":"60edd13110225f80f9f3709b","session_id":"6196c1ec255d3a25c75b54cf","condition":"contingent","relevant_dimensions":["pattern","legs"],"bee_group":{"antennae":"X","wings":"X","pattern":"D","legs":"M"},"action":"harvest","summary":"good-harvest","bonus":0.6000000000000005},{"rt":431,"stimulus":"\n                    <p><b>Action: <em>harvest</em></b></p>\n                    <p>This is the bee that you just saw.</p>\n                    <img src=\"bees-with-color/bee-B1SF.svg\" width=\"200\">\n                    <p><span class=\"greenText\"><b>Successful harvest!</b></span><br>Your pay has increased by $0.02. Your bonus pay is now $0.50.</p>\n            ","response":0,"trial_type":"html-button-response","trial_index":116,"time_elapsed":784297,"internal_node_id":"0.0-4.0-1.54","subject_id":"5ef1245c0171104d6d91d627","study_id":"60edd13110225f80f9f3709b","session_id":"6196c1ec255d3a25c75b54cf","condition":"contingent","relevant_dimensions":["pattern","legs"],"bee_group":{"antennae":"X","wings":"X","pattern":"D","legs":"M"},"bonus":0.6000000000000005},{"rt":1345,"stimulus":"bees-with-color/bee-A1SF.svg","response":0,"trial_type":"image-button-response","trial_index":117,"time_elapsed":785643,"internal_node_id":"0.0-4.0-0.55","subject_id":"5ef1245c0171104d6d91d627","study_id":"60edd13110225f80f9f3709b","session_id":"6196c1ec255d3a25c75b54cf","condition":"contingent","relevant_dimensions":["pattern","legs"],"bee_group":{"antennae":"X","wings":"X","pattern":"D","legs":"M"},"action":"harvest","summary":"good-harvest","bonus":0.6000000000000005},{"rt":424,"stimulus":"\n                    <p><b>Action: <em>harvest</em></b></p>\n                    <p>This is the bee that you just saw.</p>\n                    <img src=\"bees-with-color/bee-A1SF.svg\" width=\"200\">\n                    <p><span class=\"greenText\"><b>Successful harvest!</b></span><br>Your pay has increased by $0.02. Your bonus pay is now $0.52.</p>\n            ","response":0,"trial_type":"html-button-response","trial_index":118,"time_elapsed":786068,"internal_node_id":"0.0-4.0-1.55","subject_id":"5ef1245c0171104d6d91d627","study_id":"60edd13110225f80f9f3709b","session_id":"6196c1ec255d3a25c75b54cf","condition":"contingent","relevant_dimensions":["pattern","legs"],"bee_group":{"antennae":"X","wings":"X","pattern":"D","legs":"M"},"bonus":0.6000000000000005},{"rt":809,"stimulus":"bees-with-color/bee-A1SM.svg","response":0,"trial_type":"image-button-response","trial_index":119,"time_elapsed":786877,"internal_node_id":"0.0-4.0-0.56","subject_id":"5ef1245c0171104d6d91d627","study_id":"60edd13110225f80f9f3709b","session_id":"6196c1ec255d3a25c75b54cf","condition":"contingent","relevant_dimensions":["pattern","legs"],"bee_group":{"antennae":"X","wings":"X","pattern":"D","legs":"M"},"action":"harvest","summary":"good-harvest","bonus":0.6000000000000005},{"rt":409,"stimulus":"\n                    <p><b>Action: <em>harvest</em></b></p>\n                    <p>This is the bee that you just saw.</p>\n                    <img src=\"bees-with-color/bee-A1SM.svg\" width=\"200\">\n                    <p><span class=\"greenText\"><b>Successful harvest!</b></span><br>Your pay has increased by $0.02. Your bonus pay is now $0.54.</p>\n            ","response":0,"trial_type":"html-button-response","trial_index":120,"time_elapsed":787287,"internal_node_id":"0.0-4.0-1.56","subject_id":"5ef1245c0171104d6d91d627","study_id":"60edd13110225f80f9f3709b","session_id":"6196c1ec255d3a25c75b54cf","condition":"contingent","relevant_dimensions":["pattern","legs"],"bee_group":{"antennae":"X","wings":"X","pattern":"D","legs":"M"},"bonus":0.6000000000000005},{"rt":747,"stimulus":"bees-with-color/bee-B2SF.svg","response":0,"trial_type":"image-button-response","trial_index":121,"time_elapsed":788033,"internal_node_id":"0.0-4.0-0.57","subject_id":"5ef1245c0171104d6d91d627","study_id":"60edd13110225f80f9f3709b","session_id":"6196c1ec255d3a25c75b54cf","condition":"contingent","relevant_dimensions":["pattern","legs"],"bee_group":{"antennae":"X","wings":"X","pattern":"D","legs":"M"},"action":"harvest","summary":"good-harvest","bonus":0.6000000000000005},{"rt":449,"stimulus":"\n                    <p><b>Action: <em>harvest</em></b></p>\n                    <p>This is the bee that you just saw.</p>\n                    <img src=\"bees-with-color/bee-B2SF.svg\" width=\"200\">\n                    <p><span class=\"greenText\"><b>Successful harvest!</b></span><br>Your pay has increased by $0.02. Your bonus pay is now $0.56.</p>\n            ","response":0,"trial_type":"html-button-response","trial_index":122,"time_elapsed":788482,"internal_node_id":"0.0-4.0-1.57","subject_id":"5ef1245c0171104d6d91d627","study_id":"60edd13110225f80f9f3709b","session_id":"6196c1ec255d3a25c75b54cf","condition":"contingent","relevant_dimensions":["pattern","legs"],"bee_group":{"antennae":"X","wings":"X","pattern":"D","legs":"M"},"bonus":0.6000000000000005},{"rt":842,"stimulus":"bees-with-color/bee-B1DF.svg","response":1,"trial_type":"image-button-response","trial_index":123,"time_elapsed":789324,"internal_node_id":"0.0-4.0-0.58","subject_id":"5ef1245c0171104d6d91d627","study_id":"60edd13110225f80f9f3709b","session_id":"6196c1ec255d3a25c75b54cf","condition":"contingent","relevant_dimensions":["pattern","legs"],"bee_group":{"antennae":"X","wings":"X","pattern":"D","legs":"M"},"action":"avoid","summary":"bad-avoid","bonus":0.6000000000000005},{"rt":313,"stimulus":"\n                    <p><b>Action: <em>avoid</em></b></p>\n                    <p>This is the bee that you just saw.</p>\n                    <img src=\"bees-with-color/bee-B1DF.svg\" width=\"200\">\n                    <p><br>Your bonus pay is unchanged, and remains at $0.56.</p>\n            ","response":0,"trial_type":"html-button-response","trial_index":124,"time_elapsed":789638,"internal_node_id":"0.0-4.0-1.58","subject_id":"5ef1245c0171104d6d91d627","study_id":"60edd13110225f80f9f3709b","session_id":"6196c1ec255d3a25c75b54cf","condition":"contingent","relevant_dimensions":["pattern","legs"],"bee_group":{"antennae":"X","wings":"X","pattern":"D","legs":"M"},"bonus":0.6000000000000005},{"rt":936,"stimulus":"bees-with-color/bee-B1DM.svg","response":1,"trial_type":"image-button-response","trial_index":125,"time_elapsed":790574,"internal_node_id":"0.0-4.0-0.59","subject_id":"5ef1245c0171104d6d91d627","study_id":"60edd13110225f80f9f3709b","session_id":"6196c1ec255d3a25c75b54cf","condition":"contingent","relevant_dimensions":["pattern","legs"],"bee_group":{"antennae":"X","wings":"X","pattern":"D","legs":"M"},"action":"avoid","summary":"good-avoid","bonus":0.6000000000000005},{"rt":321,"stimulus":"\n                    <p><b>Action: <em>avoid</em></b></p>\n                    <p>This is the bee that you just saw.</p>\n                    <img src=\"bees-with-color/bee-B1DM.svg\" width=\"200\">\n                    <p><br>Your bonus pay is unchanged, and remains at $0.56.</p>\n            ","response":0,"trial_type":"html-button-response","trial_index":126,"time_elapsed":790897,"internal_node_id":"0.0-4.0-1.59","subject_id":"5ef1245c0171104d6d91d627","study_id":"60edd13110225f80f9f3709b","session_id":"6196c1ec255d3a25c75b54cf","condition":"contingent","relevant_dimensions":["pattern","legs"],"bee_group":{"antennae":"X","wings":"X","pattern":"D","legs":"M"},"bonus":0.6000000000000005},{"rt":527,"stimulus":"bees-with-color/bee-A2SM.svg","response":0,"trial_type":"image-button-response","trial_index":127,"time_elapsed":791425,"internal_node_id":"0.0-4.0-0.60","subject_id":"5ef1245c0171104d6d91d627","study_id":"60edd13110225f80f9f3709b","session_id":"6196c1ec255d3a25c75b54cf","condition":"contingent","relevant_dimensions":["pattern","legs"],"bee_group":{"antennae":"X","wings":"X","pattern":"D","legs":"M"},"action":"harvest","summary":"good-harvest","bonus":0.6000000000000005},{"rt":518,"stimulus":"\n                    <p><b>Action: <em>harvest</em></b></p>\n                    <p>This is the bee that you just saw.</p>\n                    <img src=\"bees-with-color/bee-A2SM.svg\" width=\"200\">\n                    <p><span class=\"greenText\"><b>Successful harvest!</b></span><br>Your pay has increased by $0.02. Your bonus pay is now $0.58.</p>\n            ","response":0,"trial_type":"html-button-response","trial_index":128,"time_elapsed":791943,"internal_node_id":"0.0-4.0-1.60","subject_id":"5ef1245c0171104d6d91d627","study_id":"60edd13110225f80f9f3709b","session_id":"6196c1ec255d3a25c75b54cf","condition":"contingent","relevant_dimensions":["pattern","legs"],"bee_group":{"antennae":"X","wings":"X","pattern":"D","legs":"M"},"bonus":0.6000000000000005},{"rt":709,"stimulus":"bees-with-color/bee-B1SM.svg","response":0,"trial_type":"image-button-response","trial_index":129,"time_elapsed":792653,"internal_node_id":"0.0-4.0-0.61","subject_id":"5ef1245c0171104d6d91d627","study_id":"60edd13110225f80f9f3709b","session_id":"6196c1ec255d3a25c75b54cf","condition":"contingent","relevant_dimensions":["pattern","legs"],"bee_group":{"antennae":"X","wings":"X","pattern":"D","legs":"M"},"action":"harvest","summary":"good-harvest","bonus":0.6000000000000005},{"rt":456,"stimulus":"\n                    <p><b>Action: <em>harvest</em></b></p>\n                    <p>This is the bee that you just saw.</p>\n                    <img src=\"bees-with-color/bee-B1SM.svg\" width=\"200\">\n                    <p><span class=\"greenText\"><b>Successful harvest!</b></span><br>Your pay has increased by $0.02. Your bonus pay is now $0.60.</p>\n            ","response":0,"trial_type":"html-button-response","trial_index":130,"time_elapsed":793109,"internal_node_id":"0.0-4.0-1.61","subject_id":"5ef1245c0171104d6d91d627","study_id":"60edd13110225f80f9f3709b","session_id":"6196c1ec255d3a25c75b54cf","condition":"contingent","relevant_dimensions":["pattern","legs"],"bee_group":{"antennae":"X","wings":"X","pattern":"D","legs":"M"},"bonus":0.6000000000000005},{"rt":1021,"stimulus":"bees-with-color/bee-A1DF.svg","response":1,"trial_type":"image-button-response","trial_index":131,"time_elapsed":794131,"internal_node_id":"0.0-4.0-0.62","subject_id":"5ef1245c0171104d6d91d627","study_id":"60edd13110225f80f9f3709b","session_id":"6196c1ec255d3a25c75b54cf","condition":"contingent","relevant_dimensions":["pattern","legs"],"bee_group":{"antennae":"X","wings":"X","pattern":"D","legs":"M"},"action":"avoid","summary":"bad-avoid","bonus":0.6000000000000005},{"rt":291,"stimulus":"\n                    <p><b>Action: <em>avoid</em></b></p>\n                    <p>This is the bee that you just saw.</p>\n                    <img src=\"bees-with-color/bee-A1DF.svg\" width=\"200\">\n                    <p><br>Your bonus pay is unchanged, and remains at $0.60.</p>\n            ","response":0,"trial_type":"html-button-response","trial_index":132,"time_elapsed":794422,"internal_node_id":"0.0-4.0-1.62","subject_id":"5ef1245c0171104d6d91d627","study_id":"60edd13110225f80f9f3709b","session_id":"6196c1ec255d3a25c75b54cf","condition":"contingent","relevant_dimensions":["pattern","legs"],"bee_group":{"antennae":"X","wings":"X","pattern":"D","legs":"M"},"bonus":0.6000000000000005},{"rt":966,"stimulus":"bees-with-color/bee-B2DM.svg","response":1,"trial_type":"image-button-response","trial_index":133,"time_elapsed":795388,"internal_node_id":"0.0-4.0-0.63","subject_id":"5ef1245c0171104d6d91d627","study_id":"60edd13110225f80f9f3709b","session_id":"6196c1ec255d3a25c75b54cf","condition":"contingent","relevant_dimensions":["pattern","legs"],"bee_group":{"antennae":"X","wings":"X","pattern":"D","legs":"M"},"action":"avoid","summary":"good-avoid","bonus":0.6000000000000005},{"rt":347,"stimulus":"\n                    <p><b>Action: <em>avoid</em></b></p>\n                    <p>This is the bee that you just saw.</p>\n                    <img src=\"bees-with-color/bee-B2DM.svg\" width=\"200\">\n                    <p><br>Your bonus pay is unchanged, and remains at $0.60.</p>\n            ","response":0,"trial_type":"html-button-response","trial_index":134,"time_elapsed":795735,"internal_node_id":"0.0-4.0-1.63","subject_id":"5ef1245c0171104d6d91d627","study_id":"60edd13110225f80f9f3709b","session_id":"6196c1ec255d3a25c75b54cf","condition":"contingent","relevant_dimensions":["pattern","legs"],"bee_group":{"antennae":"X","wings":"X","pattern":"D","legs":"M"},"bonus":0.6000000000000005},{"rt":6921,"stimulus":"You have completed the first part of this experiment.<br><br>You will now begin a shorter second part, in which you will receive no feedback.<br>The same rules regarding bonus pay apply.<br><br>Press any key to begin.","response":"os","trial_type":"html-keyboard-response","trial_index":135,"time_elapsed":802657,"internal_node_id":"0.0-5.0","subject_id":"5ef1245c0171104d6d91d627","study_id":"60edd13110225f80f9f3709b","session_id":"6196c1ec255d3a25c75b54cf","condition":"contingent","relevant_dimensions":["pattern","legs"],"bee_group":{"antennae":"X","wings":"X","pattern":"D","legs":"M"},"bonus":0.6000000000000005},{"rt":19365,"stimulus":"bees-with-color/bee-B2DM.svg","response":1,"trial_type":"image-button-response","trial_index":136,"time_elapsed":822022,"internal_node_id":"0.0-6.0-0.0","subject_id":"5ef1245c0171104d6d91d627","study_id":"60edd13110225f80f9f3709b","session_id":"6196c1ec255d3a25c75b54cf","condition":"contingent","relevant_dimensions":["pattern","legs"],"bee_group":{"antennae":"X","wings":"X","pattern":"D","legs":"M"},"bonus":0.6000000000000005},{"rt":1864,"stimulus":"bees-with-color/bee-A1SF.svg","response":1,"trial_type":"image-button-response","trial_index":137,"time_elapsed":823887,"internal_node_id":"0.0-6.0-0.1","subject_id":"5ef1245c0171104d6d91d627","study_id":"60edd13110225f80f9f3709b","session_id":"6196c1ec255d3a25c75b54cf","condition":"contingent","relevant_dimensions":["pattern","legs"],"bee_group":{"antennae":"X","wings":"X","pattern":"D","legs":"M"},"bonus":0.6000000000000005},{"rt":1528,"stimulus":"bees-with-color/bee-B2SF.svg","response":1,"trial_type":"image-button-response","trial_index":138,"time_elapsed":825414,"internal_node_id":"0.0-6.0-0.2","subject_id":"5ef1245c0171104d6d91d627","study_id":"60edd13110225f80f9f3709b","session_id":"6196c1ec255d3a25c75b54cf","condition":"contingent","relevant_dimensions":["pattern","legs"],"bee_group":{"antennae":"X","wings":"X","pattern":"D","legs":"M"},"bonus":0.6000000000000005},{"rt":1218,"stimulus":"bees-with-color/bee-A2SM.svg","response":1,"trial_type":"image-button-response","trial_index":139,"time_elapsed":826632,"internal_node_id":"0.0-6.0-0.3","subject_id":"5ef1245c0171104d6d91d627","study_id":"60edd13110225f80f9f3709b","session_id":"6196c1ec255d3a25c75b54cf","condition":"contingent","relevant_dimensions":["pattern","legs"],"bee_group":{"antennae":"X","wings":"X","pattern":"D","legs":"M"},"bonus":0.6000000000000005},{"rt":2659,"stimulus":"bees-with-color/bee-A2SF.svg","response":1,"trial_type":"image-button-response","trial_index":140,"time_elapsed":829292,"internal_node_id":"0.0-6.0-0.4","subject_id":"5ef1245c0171104d6d91d627","study_id":"60edd13110225f80f9f3709b","session_id":"6196c1ec255d3a25c75b54cf","condition":"contingent","relevant_dimensions":["pattern","legs"],"bee_group":{"antennae":"X","wings":"X","pattern":"D","legs":"M"},"bonus":0.6000000000000005},{"rt":330,"stimulus":"bees-with-color/bee-B2SM.svg","response":1,"trial_type":"image-button-response","trial_index":141,"time_elapsed":829622,"internal_node_id":"0.0-6.0-0.5","subject_id":"5ef1245c0171104d6d91d627","study_id":"60edd13110225f80f9f3709b","session_id":"6196c1ec255d3a25c75b54cf","condition":"contingent","relevant_dimensions":["pattern","legs"],"bee_group":{"antennae":"X","wings":"X","pattern":"D","legs":"M"},"bonus":0.6000000000000005},{"rt":235,"stimulus":"bees-with-color/bee-B1DF.svg","response":1,"trial_type":"image-button-response","trial_index":142,"time_elapsed":829858,"internal_node_id":"0.0-6.0-0.6","subject_id":"5ef1245c0171104d6d91d627","study_id":"60edd13110225f80f9f3709b","session_id":"6196c1ec255d3a25c75b54cf","condition":"contingent","relevant_dimensions":["pattern","legs"],"bee_group":{"antennae":"X","wings":"X","pattern":"D","legs":"M"},"bonus":0.6000000000000005},{"rt":206,"stimulus":"bees-with-color/bee-B1DM.svg","response":1,"trial_type":"image-button-response","trial_index":143,"time_elapsed":830065,"internal_node_id":"0.0-6.0-0.7","subject_id":"5ef1245c0171104d6d91d627","study_id":"60edd13110225f80f9f3709b","session_id":"6196c1ec255d3a25c75b54cf","condition":"contingent","relevant_dimensions":["pattern","legs"],"bee_group":{"antennae":"X","wings":"X","pattern":"D","legs":"M"},"bonus":0.6000000000000005},{"rt":211,"stimulus":"bees-with-color/bee-A2DF.svg","response":1,"trial_type":"image-button-response","trial_index":144,"time_elapsed":830276,"internal_node_id":"0.0-6.0-0.8","subject_id":"5ef1245c0171104d6d91d627","study_id":"60edd13110225f80f9f3709b","session_id":"6196c1ec255d3a25c75b54cf","condition":"contingent","relevant_dimensions":["pattern","legs"],"bee_group":{"antennae":"X","wings":"X","pattern":"D","legs":"M"},"bonus":0.6000000000000005},{"rt":228,"stimulus":"bees-with-color/bee-A1SM.svg","response":1,"trial_type":"image-button-response","trial_index":145,"time_elapsed":830504,"internal_node_id":"0.0-6.0-0.9","subject_id":"5ef1245c0171104d6d91d627","study_id":"60edd13110225f80f9f3709b","session_id":"6196c1ec255d3a25c75b54cf","condition":"contingent","relevant_dimensions":["pattern","legs"],"bee_group":{"antennae":"X","wings":"X","pattern":"D","legs":"M"},"bonus":0.6000000000000005},{"rt":219,"stimulus":"bees-with-color/bee-A1DF.svg","response":1,"trial_type":"image-button-response","trial_index":146,"time_elapsed":830724,"internal_node_id":"0.0-6.0-0.10","subject_id":"5ef1245c0171104d6d91d627","study_id":"60edd13110225f80f9f3709b","session_id":"6196c1ec255d3a25c75b54cf","condition":"contingent","relevant_dimensions":["pattern","legs"],"bee_group":{"antennae":"X","wings":"X","pattern":"D","legs":"M"},"bonus":0.6000000000000005},{"rt":204,"stimulus":"bees-with-color/bee-B1SF.svg","response":1,"trial_type":"image-button-response","trial_index":147,"time_elapsed":830928,"internal_node_id":"0.0-6.0-0.11","subject_id":"5ef1245c0171104d6d91d627","study_id":"60edd13110225f80f9f3709b","session_id":"6196c1ec255d3a25c75b54cf","condition":"contingent","relevant_dimensions":["pattern","legs"],"bee_group":{"antennae":"X","wings":"X","pattern":"D","legs":"M"},"bonus":0.6000000000000005},{"rt":198,"stimulus":"bees-with-color/bee-A2DM.svg","response":1,"trial_type":"image-button-response","trial_index":148,"time_elapsed":831126,"internal_node_id":"0.0-6.0-0.12","subject_id":"5ef1245c0171104d6d91d627","study_id":"60edd13110225f80f9f3709b","session_id":"6196c1ec255d3a25c75b54cf","condition":"contingent","relevant_dimensions":["pattern","legs"],"bee_group":{"antennae":"X","wings":"X","pattern":"D","legs":"M"},"bonus":0.6000000000000005},{"rt":180,"stimulus":"bees-with-color/bee-A1DM.svg","response":1,"trial_type":"image-button-response","trial_index":149,"time_elapsed":831307,"internal_node_id":"0.0-6.0-0.13","subject_id":"5ef1245c0171104d6d91d627","study_id":"60edd13110225f80f9f3709b","session_id":"6196c1ec255d3a25c75b54cf","condition":"contingent","relevant_dimensions":["pattern","legs"],"bee_group":{"antennae":"X","wings":"X","pattern":"D","legs":"M"},"bonus":0.6000000000000005},{"rt":197,"stimulus":"bees-with-color/bee-B2DF.svg","response":1,"trial_type":"image-button-response","trial_index":150,"time_elapsed":831504,"internal_node_id":"0.0-6.0-0.14","subject_id":"5ef1245c0171104d6d91d627","study_id":"60edd13110225f80f9f3709b","session_id":"6196c1ec255d3a25c75b54cf","condition":"contingent","relevant_dimensions":["pattern","legs"],"bee_group":{"antennae":"X","wings":"X","pattern":"D","legs":"M"},"bonus":0.6000000000000005},{"rt":195,"stimulus":"bees-with-color/bee-B1SM.svg","response":1,"trial_type":"image-button-response","trial_index":151,"time_elapsed":831700,"internal_node_id":"0.0-6.0-0.15","subject_id":"5ef1245c0171104d6d91d627","study_id":"60edd13110225f80f9f3709b","session_id":"6196c1ec255d3a25c75b54cf","condition":"contingent","relevant_dimensions":["pattern","legs"],"bee_group":{"antennae":"X","wings":"X","pattern":"D","legs":"M"},"bonus":0.6000000000000005},{"rt":195,"stimulus":"bees-with-color/bee-B1SM.svg","response":1,"trial_type":"image-button-response","trial_index":152,"time_elapsed":831897,"internal_node_id":"0.0-6.0-0.16","subject_id":"5ef1245c0171104d6d91d627","study_id":"60edd13110225f80f9f3709b","session_id":"6196c1ec255d3a25c75b54cf","condition":"contingent","relevant_dimensions":["pattern","legs"],"bee_group":{"antennae":"X","wings":"X","pattern":"D","legs":"M"},"bonus":0.6000000000000005},{"rt":197,"stimulus":"bees-with-color/bee-B2DF.svg","response":1,"trial_type":"image-button-response","trial_index":153,"time_elapsed":832094,"internal_node_id":"0.0-6.0-0.17","subject_id":"5ef1245c0171104d6d91d627","study_id":"60edd13110225f80f9f3709b","session_id":"6196c1ec255d3a25c75b54cf","condition":"contingent","relevant_dimensions":["pattern","legs"],"bee_group":{"antennae":"X","wings":"X","pattern":"D","legs":"M"},"bonus":0.6000000000000005},{"rt":171,"stimulus":"bees-with-color/bee-B2SF.svg","response":1,"trial_type":"image-button-response","trial_index":154,"time_elapsed":832266,"internal_node_id":"0.0-6.0-0.18","subject_id":"5ef1245c0171104d6d91d627","study_id":"60edd13110225f80f9f3709b","session_id":"6196c1ec255d3a25c75b54cf","condition":"contingent","relevant_dimensions":["pattern","legs"],"bee_group":{"antennae":"X","wings":"X","pattern":"D","legs":"M"},"bonus":0.6000000000000005},{"rt":252,"stimulus":"bees-with-color/bee-B2DM.svg","response":1,"trial_type":"image-button-response","trial_index":155,"time_elapsed":832518,"internal_node_id":"0.0-6.0-0.19","subject_id":"5ef1245c0171104d6d91d627","study_id":"60edd13110225f80f9f3709b","session_id":"6196c1ec255d3a25c75b54cf","condition":"contingent","relevant_dimensions":["pattern","legs"],"bee_group":{"antennae":"X","wings":"X","pattern":"D","legs":"M"},"bonus":0.6000000000000005},{"rt":236,"stimulus":"bees-with-color/bee-A1DF.svg","response":1,"trial_type":"image-button-response","trial_index":156,"time_elapsed":832755,"internal_node_id":"0.0-6.0-0.20","subject_id":"5ef1245c0171104d6d91d627","study_id":"60edd13110225f80f9f3709b","session_id":"6196c1ec255d3a25c75b54cf","condition":"contingent","relevant_dimensions":["pattern","legs"],"bee_group":{"antennae":"X","wings":"X","pattern":"D","legs":"M"},"bonus":0.6000000000000005},{"rt":195,"stimulus":"bees-with-color/bee-B2SM.svg","response":1,"trial_type":"image-button-response","trial_index":157,"time_elapsed":832950,"internal_node_id":"0.0-6.0-0.21","subject_id":"5ef1245c0171104d6d91d627","study_id":"60edd13110225f80f9f3709b","session_id":"6196c1ec255d3a25c75b54cf","condition":"contingent","relevant_dimensions":["pattern","legs"],"bee_group":{"antennae":"X","wings":"X","pattern":"D","legs":"M"},"bonus":0.6000000000000005},{"rt":237,"stimulus":"bees-with-color/bee-A2SM.svg","response":1,"trial_type":"image-button-response","trial_index":158,"time_elapsed":833188,"internal_node_id":"0.0-6.0-0.22","subject_id":"5ef1245c0171104d6d91d627","study_id":"60edd13110225f80f9f3709b","session_id":"6196c1ec255d3a25c75b54cf","condition":"contingent","relevant_dimensions":["pattern","legs"],"bee_group":{"antennae":"X","wings":"X","pattern":"D","legs":"M"},"bonus":0.6000000000000005},{"rt":180,"stimulus":"bees-with-color/bee-A1DM.svg","response":1,"trial_type":"image-button-response","trial_index":159,"time_elapsed":833368,"internal_node_id":"0.0-6.0-0.23","subject_id":"5ef1245c0171104d6d91d627","study_id":"60edd13110225f80f9f3709b","session_id":"6196c1ec255d3a25c75b54cf","condition":"contingent","relevant_dimensions":["pattern","legs"],"bee_group":{"antennae":"X","wings":"X","pattern":"D","legs":"M"},"bonus":0.6000000000000005},{"rt":182,"stimulus":"bees-with-color/bee-B1DF.svg","response":1,"trial_type":"image-button-response","trial_index":160,"time_elapsed":833550,"internal_node_id":"0.0-6.0-0.24","subject_id":"5ef1245c0171104d6d91d627","study_id":"60edd13110225f80f9f3709b","session_id":"6196c1ec255d3a25c75b54cf","condition":"contingent","relevant_dimensions":["pattern","legs"],"bee_group":{"antennae":"X","wings":"X","pattern":"D","legs":"M"},"bonus":0.6000000000000005},{"rt":211,"stimulus":"bees-with-color/bee-A2DM.svg","response":1,"trial_type":"image-button-response","trial_index":161,"time_elapsed":833763,"internal_node_id":"0.0-6.0-0.25","subject_id":"5ef1245c0171104d6d91d627","study_id":"60edd13110225f80f9f3709b","session_id":"6196c1ec255d3a25c75b54cf","condition":"contingent","relevant_dimensions":["pattern","legs"],"bee_group":{"antennae":"X","wings":"X","pattern":"D","legs":"M"},"bonus":0.6000000000000005},{"rt":179,"stimulus":"bees-with-color/bee-A2DF.svg","response":1,"trial_type":"image-button-response","trial_index":162,"time_elapsed":833943,"internal_node_id":"0.0-6.0-0.26","subject_id":"5ef1245c0171104d6d91d627","study_id":"60edd13110225f80f9f3709b","session_id":"6196c1ec255d3a25c75b54cf","condition":"contingent","relevant_dimensions":["pattern","legs"],"bee_group":{"antennae":"X","wings":"X","pattern":"D","legs":"M"},"bonus":0.6000000000000005},{"rt":182,"stimulus":"bees-with-color/bee-B1SF.svg","response":1,"trial_type":"image-button-response","trial_index":163,"time_elapsed":834124,"internal_node_id":"0.0-6.0-0.27","subject_id":"5ef1245c0171104d6d91d627","study_id":"60edd13110225f80f9f3709b","session_id":"6196c1ec255d3a25c75b54cf","condition":"contingent","relevant_dimensions":["pattern","legs"],"bee_group":{"antennae":"X","wings":"X","pattern":"D","legs":"M"},"bonus":0.6000000000000005},{"rt":195,"stimulus":"bees-with-color/bee-B1DM.svg","response":1,"trial_type":"image-button-response","trial_index":164,"time_elapsed":834320,"internal_node_id":"0.0-6.0-0.28","subject_id":"5ef1245c0171104d6d91d627","study_id":"60edd13110225f80f9f3709b","session_id":"6196c1ec255d3a25c75b54cf","condition":"contingent","relevant_dimensions":["pattern","legs"],"bee_group":{"antennae":"X","wings":"X","pattern":"D","legs":"M"},"bonus":0.6000000000000005},{"rt":204,"stimulus":"bees-with-color/bee-A1SM.svg","response":1,"trial_type":"image-button-response","trial_index":165,"time_elapsed":834524,"internal_node_id":"0.0-6.0-0.29","subject_id":"5ef1245c0171104d6d91d627","study_id":"60edd13110225f80f9f3709b","session_id":"6196c1ec255d3a25c75b54cf","condition":"contingent","relevant_dimensions":["pattern","legs"],"bee_group":{"antennae":"X","wings":"X","pattern":"D","legs":"M"},"bonus":0.6000000000000005},{"rt":230,"stimulus":"bees-with-color/bee-A1SF.svg","response":1,"trial_type":"image-button-response","trial_index":166,"time_elapsed":834754,"internal_node_id":"0.0-6.0-0.30","subject_id":"5ef1245c0171104d6d91d627","study_id":"60edd13110225f80f9f3709b","session_id":"6196c1ec255d3a25c75b54cf","condition":"contingent","relevant_dimensions":["pattern","legs"],"bee_group":{"antennae":"X","wings":"X","pattern":"D","legs"