[{"success":true,"trial_type":"fullscreen","trial_index":0,"time_elapsed":7614,"internal_node_id":"0.0-0.0","subject_id":"616175dbc12b4681198a540f","study_id":"6197b3f67c2b5cd3b6d9596a","session_id":"619be3214ccf3be7ba4bd16e","condition":"contingent","relevant_dimensions":["antennae","legs"],"bee_group":{"antennae":"A","wings":"X","pattern":"X","legs":"F"},"bonus":0.08},{"success":true,"timeout":false,"failed_images":[],"failed_audio":[],"failed_video":[],"trial_type":"preload","trial_index":1,"time_elapsed":12649,"internal_node_id":"0.0-1.0","subject_id":"616175dbc12b4681198a540f","study_id":"6197b3f67c2b5cd3b6d9596a","session_id":"619be3214ccf3be7ba4bd16e","condition":"contingent","relevant_dimensions":["antennae","legs"],"bee_group":{"antennae":"A","wings":"X","pattern":"X","legs":"F"},"bonus":0.08},{"rt":2796.5999999046326,"stimulus":"Welcome! Press any key to begin.","response":" ","trial_type":"html-keyboard-response","trial_index":2,"time_elapsed":15450,"internal_node_id":"0.0-2.0","subject_id":"616175dbc12b4681198a540f","study_id":"6197b3f67c2b5cd3b6d9596a","session_id":"619be3214ccf3be7ba4bd16e","condition":"contingent","relevant_dimensions":["antennae","legs"],"bee_group":{"antennae":"A","wings":"X","pattern":"X","legs":"F"},"bonus":0.08},{"view_history":[{"page_index":0,"viewing_time":9960.5},{"page_index":1,"viewing_time":23924.800000071526},{"page_index":2,"viewing_time":20850.399999976158},{"page_index":3,"viewing_time":35526.299999952316},{"page_index":4,"viewing_time":9094.600000023842},{"page_index":5,"viewing_time":12697.399999976158},{"page_index":6,"viewing_time":13244.200000047684},{"page_index":7,"viewing_time":7989.200000047684},{"page_index":8,"viewing_time":7554.399999976158},{"page_index":9,"viewing_time":6188.399999976158},{"page_index":10,"viewing_time":10784.600000023842},{"page_index":11,"viewing_time":12657.600000023842},{"page_index":12,"viewing_time":25581.5},{"page_index":13,"viewing_time":1456.1999999284744},{"page_index":14,"viewing_time":5160}],"rt":202671.90000009537,"trial_type":"instructions","trial_index":3,"time_elapsed":218125,"internal_node_id":"0.0-3.0-0.0","subject_id":"616175dbc12b4681198a540f","study_id":"6197b3f67c2b5cd3b6d9596a","session_id":"619be3214ccf3be7ba4bd16e","condition":"contingent","relevant_dimensions":["antennae","legs"],"bee_group":{"antennae":"A","wings":"X","pattern":"X","legs":"F"},"bonus":0.08},{"rt":37694.699999928474,"response":{"Q0":["Two or six legs","Stripes or spots on body","Stinger or no stinger","Single or double wings","Antennae or no antennae"]},"question_order":[0],"trial_type":"survey-multi-select","trial_index":4,"time_elapsed":255832,"internal_node_id":"0.0-3.0-1.0","subject_id":"616175dbc12b4681198a540f","study_id":"6197b3f67c2b5cd3b6d9596a","session_id":"619be3214ccf3be7ba4bd16e","condition":"contingent","relevant_dimensions":["antennae","legs"],"bee_group":{"antennae":"A","wings":"X","pattern":"X","legs":"F"},"correct":false,"bonus":0.08},{"rt":157574.39999997616,"response":{"Q1":"Yes.","Q2":"Based on the order in which you see the bees.","Q3":"You learn if it was friendly or dangerous, but do not alter your bonus."},"question_order":[0,1,2],"trial_type":"survey-multi-choice","trial_index":5,"time_elapsed":413414,"internal_node_id":"0.0-3.0-2.0","subject_id":"616175dbc12b4681198a540f","study_id":"6197b3f67c2b5cd3b6d9596a","session_id":"619be3214ccf3be7ba4bd16e","condition":"contingent","relevant_dimensions":["antennae","legs"],"bee_group":{"antennae":"A","wings":"X","pattern":"X","legs":"F"},"correct":false,"bonus":0.08},{"rt":7242.700000047684,"stimulus":"<p>You did not answer all comprehension questions correctly.<br>Press <b>continue</b> to review the instructions again.</p>","response":0,"trial_type":"html-button-response","trial_index":6,"time_elapsed":420663,"internal_node_id":"0.0-3.0-3.0","subject_id":"616175dbc12b4681198a540f","study_id":"6197b3f67c2b5cd3b6d9596a","session_id":"619be3214ccf3be7ba4bd16e","condition":"contingent","relevant_dimensions":["antennae","legs"],"bee_group":{"antennae":"A","wings":"X","pattern":"X","legs":"F"},"bonus":0.08},{"view_history":[{"page_index":0,"viewing_time":6699.5},{"page_index":1,"viewing_time":20752.5},{"page_index":2,"viewing_time":17079.699999928474},{"page_index":3,"viewing_time":48677.800000071526},{"page_index":4,"viewing_time":9176},{"page_index":5,"viewing_time":17784.399999976158},{"page_index":6,"viewing_time":27087.700000047684},{"page_index":7,"viewing_time":7802},{"page_index":8,"viewing_time":4622.899999976158},{"page_index":9,"viewing_time":4480},{"page_index":10,"viewing_time":3711.899999976158},{"page_index":11,"viewing_time":17792.5},{"page_index":12,"viewing_time":2823.399999976158},{"page_index":13,"viewing_time":1359.3000000715256},{"page_index":14,"viewing_time":2344.7999999523163}],"rt":192197.29999995232,"trial_type":"instructions","trial_index":7,"time_elapsed":612863,"internal_node_id":"0.0-3.0-4.0-0.0","subject_id":"616175dbc12b4681198a540f","study_id":"6197b3f67c2b5cd3b6d9596a","session_id":"619be3214ccf3be7ba4bd16e","condition":"contingent","relevant_dimensions":["antennae","legs"],"bee_group":{"antennae":"A","wings":"X","pattern":"X","legs":"F"},"bonus":0.08},{"rt":39612.199999928474,"response":{"Q0":["Two or six legs","Stripes or spots on body","Single or double wings","Antennae or no antennae"]},"question_order":[0],"trial_type":"survey-multi-select","trial_index":8,"time_elapsed":652522,"internal_node_id":"0.0-3.0-4.0-1.0","subject_id":"616175dbc12b4681198a540f","study_id":"6197b3f67c2b5cd3b6d9596a","session_id":"619be3214ccf3be7ba4bd16e","condition":"contingent","relevant_dimensions":["antennae","legs"],"bee_group":{"antennae":"A","wings":"X","pattern":"X","legs":"F"},"correct":true,"bonus":0.08},{"rt":66092.5,"response":{"Q1":"No.","Q2":"Based on the four features of the bee.","Q3":"You do not learn if it was friendly or dangerous, and do not alter your bonus."},"question_order":[0,1,2],"trial_type":"survey-multi-choice","trial_index":9,"time_elapsed":718626,"internal_node_id":"0.0-3.0-4.0-2.0","subject_id":"616175dbc12b4681198a540f","study_id":"6197b3f67c2b5cd3b6d9596a","session_id":"619be3214ccf3be7ba4bd16e","condition":"contingent","relevant_dimensions":["antennae","legs"],"bee_group":{"antennae":"A","wings":"X","pattern":"X","legs":"F"},"correct":true,"bonus":0.08},{"rt":6281.800000071526,"stimulus":"<p>Congrats, you got everything right<br>When you're ready, click the button below to continue to the experiment.</p>","response":0,"trial_type":"html-button-response","trial_index":10,"time_elapsed":724918,"internal_node_id":"0.0-3.0-4.0-3.0","subject_id":"616175dbc12b4681198a540f","study_id":"6197b3f67c2b5cd3b6d9596a","session_id":"619be3214ccf3be7ba4bd16e","condition":"contingent","relevant_dimensions":["antennae","legs"],"bee_group":{"antennae":"A","wings":"X","pattern":"X","legs":"F"},"bonus":0.08},{"rt":10398.099999904633,"stimulus":"bees-with-color/bee-A2DF.svg","response":0,"trial_type":"image-button-response","trial_index":11,"time_elapsed":735325,"internal_node_id":"0.0-4.0-0.0","subject_id":"616175dbc12b4681198a540f","study_id":"6197b3f67c2b5cd3b6d9596a","session_id":"619be3214ccf3be7ba4bd16e","condition":"contingent","relevant_dimensions":["antennae","legs"],"bee_group":{"antennae":"A","wings":"X","pattern":"X","legs":"F"},"action":"harvest","summary":"bad-harvest","bonus":0.08},{"rt":14927.199999928474,"stimulus":"\n                    <p><b>Action: <em>harvest</em></b></p>\n                    <p>This is the bee that you just saw.</p>\n                    <img src=\"bees-with-color/bee-A2DF.svg\" width=\"200\">\n                    <p><span class=\"redText\">Bad choice, the bee was angry.</span><br><b>You have been stung!</b><br>Your pay has been decreased by $0.10. Your bonus pay is now $0.44.</p>\n            ","response":0,"trial_type":"html-button-response","trial_index":12,"time_elapsed":750261,"internal_node_id":"0.0-4.0-1.0","subject_id":"616175dbc12b4681198a540f","study_id":"6197b3f67c2b5cd3b6d9596a","session_id":"619be3214ccf3be7ba4bd16e","condition":"contingent","relevant_dimensions":["antennae","legs"],"bee_group":{"antennae":"A","wings":"X","pattern":"X","legs":"F"},"bonus":0.08},{"rt":13191.200000047684,"stimulus":"bees-with-color/bee-B2SM.svg","response":1,"trial_type":"image-button-response","trial_index":13,"time_elapsed":763464,"internal_node_id":"0.0-4.0-0.1","subject_id":"616175dbc12b4681198a540f","study_id":"6197b3f67c2b5cd3b6d9596a","session_id":"619be3214ccf3be7ba4bd16e","condition":"contingent","relevant_dimensions":["antennae","legs"],"bee_group":{"antennae":"A","wings":"X","pattern":"X","legs":"F"},"action":"avoid","summary":"bad-avoid","bonus":0.08},{"rt":17634.700000047684,"stimulus":"\n                    <p><b>Action: <em>avoid</em></b></p>\n                    <p>This is the bee that you just saw.</p>\n                    <img src=\"bees-with-color/bee-B2SM.svg\" width=\"200\">\n                    <p><br>Your bonus pay is unchanged, and remains at $0.44.</p>\n            ","response":0,"trial_type":"html-button-response","trial_index":14,"time_elapsed":781111,"internal_node_id":"0.0-4.0-1.1","subject_id":"616175dbc12b4681198a540f","study_id":"6197b3f67c2b5cd3b6d9596a","session_id":"619be3214ccf3be7ba4bd16e","condition":"contingent","relevant_dimensions":["antennae","legs"],"bee_group":{"antennae":"A","wings":"X","pattern":"X","legs":"F"},"bonus":0.08},{"rt":17240.300000071526,"stimulus":"bees-with-color/bee-A1SM.svg","response":0,"trial_type":"image-button-response","trial_index":15,"time_elapsed":798364,"internal_node_id":"0.0-4.0-0.2","subject_id":"616175dbc12b4681198a540f","study_id":"6197b3f67c2b5cd3b6d9596a","session_id":"619be3214ccf3be7ba4bd16e","condition":"contingent","relevant_dimensions":["antennae","legs"],"bee_group":{"antennae":"A","wings":"X","pattern":"X","legs":"F"},"action":"harvest","summary":"good-harvest","bonus":0.08},{"rt":5827.899999976158,"stimulus":"\n                    <p><b>Action: <em>harvest</em></b></p>\n                    <p>This is the bee that you just saw.</p>\n                    <img src=\"bees-with-color/bee-A1SM.svg\" width=\"200\">\n                    <p><span class=\"greenText\"><b>Successful harvest!</b></span><br>Your pay has increased by $0.02. Your bonus pay is now $0.46.</p>\n            ","response":0,"trial_type":"html-button-response","trial_index":16,"time_elapsed":804200,"internal_node_id":"0.0-4.0-1.2","subject_id":"616175dbc12b4681198a540f","study_id":"6197b3f67c2b5cd3b6d9596a","session_id":"619be3214ccf3be7ba4bd16e","condition":"contingent","relevant_dimensions":["antennae","legs"],"bee_group":{"antennae":"A","wings":"X","pattern":"X","legs":"F"},"bonus":0.08},{"rt":3675.899999976158,"stimulus":"bees-with-color/bee-B1DF.svg","response":1,"trial_type":"image-button-response","trial_index":17,"time_elapsed":807884,"internal_node_id":"0.0-4.0-0.3","subject_id":"616175dbc12b4681198a540f","study_id":"6197b3f67c2b5cd3b6d9596a","session_id":"619be3214ccf3be7ba4bd16e","condition":"contingent","relevant_dimensions":["antennae","legs"],"bee_group":{"antennae":"A","wings":"X","pattern":"X","legs":"F"},"action":"avoid","summary":"bad-avoid","bonus":0.08},{"rt":3513.899999976158,"stimulus":"\n                    <p><b>Action: <em>avoid</em></b></p>\n                    <p>This is the bee that you just saw.</p>\n                    <img src=\"bees-with-color/bee-B1DF.svg\" width=\"200\">\n                    <p><br>Your bonus pay is unchanged, and remains at $0.46.</p>\n            ","response":0,"trial_type":"html-button-response","trial_index":18,"time_elapsed":811404,"internal_node_id":"0.0-4.0-1.3","subject_id":"616175dbc12b4681198a540f","study_id":"6197b3f67c2b5cd3b6d9596a","session_id":"619be3214ccf3be7ba4bd16e","condition":"contingent","relevant_dimensions":["antennae","legs"],"bee_group":{"antennae":"A","wings":"X","pattern":"X","legs":"F"},"bonus":0.08},{"rt":7935.200000047684,"stimulus":"bees-with-color/bee-A2DM.svg","response":1,"trial_type":"image-button-response","trial_index":19,"time_elapsed":819349,"internal_node_id":"0.0-4.0-0.4","subject_id":"616175dbc12b4681198a540f","study_id":"6197b3f67c2b5cd3b6d9596a","session_id":"619be3214ccf3be7ba4bd16e","condition":"contingent","relevant_dimensions":["antennae","legs"],"bee_group":{"antennae":"A","wings":"X","pattern":"X","legs":"F"},"action":"avoid","summary":"bad-avoid","bonus":0.08},{"rt":1920.6000000238419,"stimulus":"\n                    <p><b>Action: <em>avoid</em></b></p>\n                    <p>This is the bee that you just saw.</p>\n                    <img src=\"bees-with-color/bee-A2DM.svg\" width=\"200\">\n                    <p><br>Your bonus pay is unchanged, and remains at $0.46.</p>\n            ","response":0,"trial_type":"html-button-response","trial_index":20,"time_elapsed":821279,"internal_node_id":"0.0-4.0-1.4","subject_id":"616175dbc12b4681198a540f","study_id":"6197b3f67c2b5cd3b6d9596a","session_id":"619be3214ccf3be7ba4bd16e","condition":"contingent","relevant_dimensions":["antennae","legs"],"bee_group":{"antennae":"A","wings":"X","pattern":"X","legs":"F"},"bonus":0.08},{"rt":7151.399999976158,"stimulus":"bees-with-color/bee-A1SF.svg","response":0,"trial_type":"image-button-response","trial_index":21,"time_elapsed":828442,"internal_node_id":"0.0-4.0-0.5","subject_id":"616175dbc12b4681198a540f","study_id":"6197b3f67c2b5cd3b6d9596a","session_id":"619be3214ccf3be7ba4bd16e","condition":"contingent","relevant_dimensions":["antennae","legs"],"bee_group":{"antennae":"A","wings":"X","pattern":"X","legs":"F"},"action":"harvest","summary":"bad-harvest","bonus":0.08},{"rt":2064,"stimulus":"\n                    <p><b>Action: <em>harvest</em></b></p>\n                    <p>This is the bee that you just saw.</p>\n                    <img src=\"bees-with-color/bee-A1SF.svg\" width=\"200\">\n                    <p><span class=\"redText\">Bad choice, the bee was angry.</span><br><b>You have been stung!</b><br>Your pay has been decreased by $0.10. Your bonus pay is now $0.36.</p>\n            ","response":0,"trial_type":"html-button-response","trial_index":22,"time_elapsed":830515,"internal_node_id":"0.0-4.0-1.5","subject_id":"616175dbc12b4681198a540f","study_id":"6197b3f67c2b5cd3b6d9596a","session_id":"619be3214ccf3be7ba4bd16e","condition":"contingent","relevant_dimensions":["antennae","legs"],"bee_group":{"antennae":"A","wings":"X","pattern":"X","legs":"F"},"bonus":0.08},{"rt":6616.399999976158,"stimulus":"bees-with-color/bee-B1DM.svg","response":0,"trial_type":"image-button-response","trial_index":23,"time_elapsed":837145,"internal_node_id":"0.0-4.0-0.6","subject_id":"616175dbc12b4681198a540f","study_id":"6197b3f67c2b5cd3b6d9596a","session_id":"619be3214ccf3be7ba4bd16e","condition":"contingent","relevant_dimensions":["antennae","legs"],"bee_group":{"antennae":"A","wings":"X","pattern":"X","legs":"F"},"action":"harvest","summary":"good-harvest","bonus":0.08},{"rt":1854.5,"stimulus":"\n                    <p><b>Action: <em>harvest</em></b></p>\n                    <p>This is the bee that you just saw.</p>\n                    <img src=\"bees-with-color/bee-B1DM.svg\" width=\"200\">\n                    <p><span class=\"greenText\"><b>Successful harvest!</b></span><br>Your pay has increased by $0.02. Your bonus pay is now $0.38.</p>\n            ","response":0,"trial_type":"html-button-response","trial_index":24,"time_elapsed":839014,"internal_node_id":"0.0-4.0-1.6","subject_id":"616175dbc12b4681198a540f","study_id":"6197b3f67c2b5cd3b6d9596a","session_id":"619be3214ccf3be7ba4bd16e","condition":"contingent","relevant_dimensions":["antennae","legs"],"bee_group":{"antennae":"A","wings":"X","pattern":"X","legs":"F"},"bonus":0.08},{"rt":2911.4000000953674,"stimulus":"bees-with-color/bee-B2SF.svg","response":0,"trial_type":"image-button-response","trial_index":25,"time_elapsed":841933,"internal_node_id":"0.0-4.0-0.7","subject_id":"616175dbc12b4681198a540f","study_id":"6197b3f67c2b5cd3b6d9596a","session_id":"619be3214ccf3be7ba4bd16e","condition":"contingent","relevant_dimensions":["antennae","legs"],"bee_group":{"antennae":"A","wings":"X","pattern":"X","legs":"F"},"action":"harvest","summary":"good-harvest","bonus":0.08},{"rt":1466,"stimulus":"\n                    <p><b>Action: <em>harvest</em></b></p>\n                    <p>This is the bee that you just saw.</p>\n                    <img src=\"bees-with-color/bee-B2SF.svg\" width=\"200\">\n                    <p><span class=\"greenText\"><b>Successful harvest!</b></span><br>Your pay has increased by $0.02. Your bonus pay is now $0.40.</p>\n            ","response":0,"trial_type":"html-button-response","trial_index":26,"time_elapsed":843408,"internal_node_id":"0.0-4.0-1.7","subject_id":"616175dbc12b4681198a540f","study_id":"6197b3f67c2b5cd3b6d9596a","session_id":"619be3214ccf3be7ba4bd16e","condition":"contingent","relevant_dimensions":["antennae","legs"],"bee_group":{"antennae":"A","wings":"X","pattern":"X","legs":"F"},"bonus":0.08},{"rt":5965.5,"stimulus":"bees-with-color/bee-B2DF.svg","response":0,"trial_type":"image-button-response","trial_index":27,"time_elapsed":849384,"internal_node_id":"0.0-4.0-0.8","subject_id":"616175dbc12b4681198a540f","study_id":"6197b3f67c2b5cd3b6d9596a","session_id":"619be3214ccf3be7ba4bd16e","condition":"contingent","relevant_dimensions":["antennae","legs"],"bee_group":{"antennae":"A","wings":"X","pattern":"X","legs":"F"},"action":"harvest","summary":"good-harvest","bonus":0.08},{"rt":1313.7000000476837,"stimulus":"\n                    <p><b>Action: <em>harvest</em></b></p>\n                    <p>This is the bee that you just saw.</p>\n                    <img src=\"bees-with-color/bee-B2DF.svg\" width=\"200\">\n                    <p><span class=\"greenText\"><b>Successful harvest!</b></span><br>Your pay has increased by $0.02. Your bonus pay is now $0.42.</p>\n            ","response":0,"trial_type":"html-button-response","trial_index":28,"time_elapsed":850709,"internal_node_id":"0.0-4.0-1.8","subject_id":"616175dbc12b4681198a540f","study_id":"6197b3f67c2b5cd3b6d9596a","session_id":"619be3214ccf3be7ba4bd16e","condition":"contingent","relevant_dimensions":["antennae","legs"],"bee_group":{"antennae":"A","wings":"X","pattern":"X","legs":"F"},"bonus":0.08},{"rt":2138.600000023842,"stimulus":"bees-with-color/bee-B2DM.svg","response":0,"trial_type":"image-button-response","trial_index":29,"time_elapsed":852858,"internal_node_id":"0.0-4.0-0.9","subject_id":"616175dbc12b4681198a540f","study_id":"6197b3f67c2b5cd3b6d9596a","session_id":"619be3214ccf3be7ba4bd16e","condition":"contingent","relevant_dimensions":["antennae","legs"],"bee_group":{"antennae":"A","wings":"X","pattern":"X","legs":"F"},"action":"harvest","summary":"good-harvest","bonus":0.08},{"rt":1115.7000000476837,"stimulus":"\n                    <p><b>Action: <em>harvest</em></b></p>\n                    <p>This is the bee that you just saw.</p>\n                    <img src=\"bees-with-color/bee-B2DM.svg\" width=\"200\">\n                    <p><span class=\"greenText\"><b>Successful harvest!</b></span><br>Your pay has increased by $0.02. Your bonus pay is now $0.44.</p>\n            ","response":0,"trial_type":"html-button-response","trial_index":30,"time_elapsed":853982,"internal_node_id":"0.0-4.0-1.9","subject_id":"616175dbc12b4681198a540f","study_id":"6197b3f67c2b5cd3b6d9596a","session_id":"619be3214ccf3be7ba4bd16e","condition":"contingent","relevant_dimensions":["antennae","legs"],"bee_group":{"antennae":"A","wings":"X","pattern":"X","legs":"F"},"bonus":0.08},{"rt":4639,"stimulus":"bees-with-color/bee-A1DF.svg","response":0,"trial_type":"image-button-response","trial_index":31,"time_elapsed":858631,"internal_node_id":"0.0-4.0-0.10","subject_id":"616175dbc12b4681198a540f","study_id":"6197b3f67c2b5cd3b6d9596a","session_id":"619be3214ccf3be7ba4bd16e","condition":"contingent","relevant_dimensions":["antennae","legs"],"bee_group":{"antennae":"A","wings":"X","pattern":"X","legs":"F"},"action":"harvest","summary":"bad-harvest","bonus":0.08},{"rt":1266.5,"stimulus":"\n                    <p><b>Action: <em>harvest</em></b></p>\n                    <p>This is the bee that you just saw.</p>\n                    <img src=\"bees-with-color/bee-A1DF.svg\" width=\"200\">\n                    <p><span class=\"redText\">Bad choice, the bee was angry.</span><br><b>You have been stung!</b><br>Your pay has been decreased by $0.10. Your bonus pay is now $0.34.</p>\n            ","response":0,"trial_type":"html-button-response","trial_index":32,"time_elapsed":859909,"internal_node_id":"0.0-4.0-1.10","subject_id":"616175dbc12b4681198a540f","study_id":"6197b3f67c2b5cd3b6d9596a","session_id":"619be3214ccf3be7ba4bd16e","condition":"contingent","relevant_dimensions":["antennae","legs"],"bee_group":{"antennae":"A","wings":"X","pattern":"X","legs":"F"},"bonus":0.08},{"rt":2666.0999999046326,"stimulus":"bees-with-color/bee-A1DM.svg","response":1,"trial_type":"image-button-response","trial_index":33,"time_elapsed":862581,"internal_node_id":"0.0-4.0-0.11","subject_id":"616175dbc12b4681198a540f","study_id":"6197b3f67c2b5cd3b6d9596a","session_id":"619be3214ccf3be7ba4bd16e","condition":"contingent","relevant_dimensions":["antennae","legs"],"bee_group":{"antennae":"A","wings":"X","pattern":"X","legs":"F"},"action":"avoid","summary":"bad-avoid","bonus":0.08},{"rt":1032.6000000238419,"stimulus":"\n                    <p><b>Action: <em>avoid</em></b></p>\n                    <p>This is the bee that you just saw.</p>\n                    <img src=\"bees-with-color/bee-A1DM.svg\" width=\"200\">\n                    <p><br>Your bonus pay is unchanged, and remains at $0.34.</p>\n            ","response":0,"trial_type":"html-button-response","trial_index":34,"time_elapsed":863622,"internal_node_id":"0.0-4.0-1.11","subject_id":"616175dbc12b4681198a540f","study_id":"6197b3f67c2b5cd3b6d9596a","session_id":"619be3214ccf3be7ba4bd16e","condition":"contingent","relevant_dimensions":["antennae","legs"],"bee_group":{"antennae":"A","wings":"X","pattern":"X","legs":"F"},"bonus":0.08},{"rt":2612.100000023842,"stimulus":"bees-with-color/bee-B1SF.svg","response":0,"trial_type":"image-button-response","trial_index":35,"time_elapsed":866241,"internal_node_id":"0.0-4.0-0.12","subject_id":"616175dbc12b4681198a540f","study_id":"6197b3f67c2b5cd3b6d9596a","session_id":"619be3214ccf3be7ba4bd16e","condition":"contingent","relevant_dimensions":["antennae","legs"],"bee_group":{"antennae":"A","wings":"X","pattern":"X","legs":"F"},"action":"harvest","summary":"good-harvest","bonus":0.08},{"rt":1151.7999999523163,"stimulus":"\n                    <p><b>Action: <em>harvest</em></b></p>\n                    <p>This is the bee that you just saw.</p>\n                    <img src=\"bees-with-color/bee-B1SF.svg\" width=\"200\">\n                    <p><span class=\"greenText\"><b>Successful harvest!</b></span><br>Your pay has increased by $0.02. Your bonus pay is now $0.36.</p>\n            ","response":0,"trial_type":"html-button-response","trial_index":36,"time_elapsed":867399,"internal_node_id":"0.0-4.0-1.12","subject_id":"616175dbc12b4681198a540f","study_id":"6197b3f67c2b5cd3b6d9596a","session_id":"619be3214ccf3be7ba4bd16e","condition":"contingent","relevant_dimensions":["antennae","legs"],"bee_group":{"antennae":"A","wings":"X","pattern":"X","legs":"F"},"bonus":0.08},{"rt":3359,"stimulus":"bees-with-color/bee-A2SF.svg","response":0,"trial_type":"image-button-response","trial_index":37,"time_elapsed":870766,"internal_node_id":"0.0-4.0-0.13","subject_id":"616175dbc12b4681198a540f","study_id":"6197b3f67c2b5cd3b6d9596a","session_id":"619be3214ccf3be7ba4bd16e","condition":"contingent","relevant_dimensions":["antennae","legs"],"bee_group":{"antennae":"A","wings":"X","pattern":"X","legs":"F"},"action":"harvest","summary":"bad-harvest","bonus":0.08},{"rt":1432.3999999761581,"stimulus":"\n                    <p><b>Action: <em>harvest</em></b></p>\n                    <p>This is the bee that you just saw.</p>\n                    <img src=\"bees-with-color/bee-A2SF.svg\" width=\"200\">\n                    <p><span class=\"redText\">Bad choice, the bee was angry.</span><br><b>You have been stung!</b><br>Your pay has been decreased by $0.10. Your bonus pay is now $0.26.</p>\n            ","response":0,"trial_type":"html-button-response","trial_index":38,"time_elapsed":872206,"internal_node_id":"0.0-4.0-1.13","subject_id":"616175dbc12b4681198a540f","study_id":"6197b3f67c2b5cd3b6d9596a","session_id":"619be3214ccf3be7ba4bd16e","condition":"contingent","relevant_dimensions":["antennae","legs"],"bee_group":{"antennae":"A","wings":"X","pattern":"X","legs":"F"},"bonus":0.08},{"rt":2736.2999999523163,"stimulus":"bees-with-color/bee-A2SM.svg","response":1,"trial_type":"image-button-response","trial_index":39,"time_elapsed":874950,"internal_node_id":"0.0-4.0-0.14","subject_id":"616175dbc12b4681198a540f","study_id":"6197b3f67c2b5cd3b6d9596a","session_id":"619be3214ccf3be7ba4bd16e","condition":"contingent","relevant_dimensions":["antennae","legs"],"bee_group":{"antennae":"A","wings":"X","pattern":"X","legs":"F"},"action":"avoid","summary":"bad-avoid","bonus":0.08},{"rt":1289.5,"stimulus":"\n                    <p><b>Action: <em>avoid</em></b></p>\n                    <p>This is the bee that you just saw.</p>\n                    <img src=\"bees-with-color/bee-A2SM.svg\" width=\"200\">\n                    <p><br>Your bonus pay is unchanged, and remains at $0.26.</p>\n            ","response":0,"trial_type":"html-button-response","trial_index":40,"time_elapsed":876246,"internal_node_id":"0.0-4.0-1.14","subject_id":"616175dbc12b4681198a540f","study_id":"6197b3f67c2b5cd3b6d9596a","session_id":"619be3214ccf3be7ba4bd16e","condition":"contingent","relevant_dimensions":["antennae","legs"],"bee_group":{"antennae":"A","wings":"X","pattern":"X","legs":"F"},"bonus":0.08},{"rt":2660.399999976158,"stimulus":"bees-with-color/bee-B1SM.svg","response":0,"trial_type":"image-button-response","trial_index":41,"time_elapsed":878918,"internal_node_id":"0.0-4.0-0.15","subject_id":"616175dbc12b4681198a540f","study_id":"6197b3f67c2b5cd3b6d9596a","session_id":"619be3214ccf3be7ba4bd16e","condition":"contingent","relevant_dimensions":["antennae","legs"],"bee_group":{"antennae":"A","wings":"X","pattern":"X","legs":"F"},"action":"harvest","summary":"good-harvest","bonus":0.08},{"rt":1513.5,"stimulus":"\n                    <p><b>Action: <em>harvest</em></b></p>\n                    <p>This is the bee that you just saw.</p>\n                    <img src=\"bees-with-color/bee-B1SM.svg\" width=\"200\">\n                    <p><span class=\"greenText\"><b>Successful harvest!</b></span><br>Your pay has increased by $0.02. Your bonus pay is now $0.28.</p>\n            ","response":0,"trial_type":"html-button-response","trial_index":42,"time_elapsed":880437,"internal_node_id":"0.0-4.0-1.15","subject_id":"616175dbc12b4681198a540f","study_id":"6197b3f67c2b5cd3b6d9596a","session_id":"619be3214ccf3be7ba4bd16e","condition":"contingent","relevant_dimensions":["antennae","legs"],"bee_group":{"antennae":"A","wings":"X","pattern":"X","legs":"F"},"bonus":0.08},{"rt":5707.200000047684,"stimulus":"bees-with-color/bee-A1DM.svg","response":0,"trial_type":"image-button-response","trial_index":43,"time_elapsed":886151,"internal_node_id":"0.0-4.0-0.16","subject_id":"616175dbc12b4681198a540f","study_id":"6197b3f67c2b5cd3b6d9596a","session_id":"619be3214ccf3be7ba4bd16e","condition":"contingent","relevant_dimensions":["antennae","legs"],"bee_group":{"antennae":"A","wings":"X","pattern":"X","legs":"F"},"action":"harvest","summary":"good-harvest","bonus":0.08},{"rt":1296.8999999761581,"stimulus":"\n                    <p><b>Action: <em>harvest</em></b></p>\n                    <p>This is the bee that you just saw.</p>\n                    <img src=\"bees-with-color/bee-A1DM.svg\" width=\"200\">\n                    <p><span class=\"greenText\"><b>Successful harvest!</b></span><br>Your pay has increased by $0.02. Your bonus pay is now $0.30.</p>\n            ","response":0,"trial_type":"html-button-response","trial_index":44,"time_elapsed":887454,"internal_node_id":"0.0-4.0-1.16","subject_id":"616175dbc12b4681198a540f","study_id":"6197b3f67c2b5cd3b6d9596a","session_id":"619be3214ccf3be7ba4bd16e","condition":"contingent","relevant_dimensions":["antennae","legs"],"bee_group":{"antennae":"A","wings":"X","pattern":"X","legs":"F"},"bonus":0.08},{"rt":3833.600000023842,"stimulus":"bees-with-color/bee-A2DF.svg","response":1,"trial_type":"image-button-response","trial_index":45,"time_elapsed":891295,"internal_node_id":"0.0-4.0-0.17","subject_id":"616175dbc12b4681198a540f","study_id":"6197b3f67c2b5cd3b6d9596a","session_id":"619be3214ccf3be7ba4bd16e","condition":"contingent","relevant_dimensions":["antennae","legs"],"bee_group":{"antennae":"A","wings":"X","pattern":"X","legs":"F"},"action":"avoid","summary":"good-avoid","bonus":0.08},{"rt":2078.899999976158,"stimulus":"\n                    <p><b>Action: <em>avoid</em></b></p>\n                    <p>This is the bee that you just saw.</p>\n                    <img src=\"bees-with-color/bee-A2DF.svg\" width=\"200\">\n                    <p><br>Your bonus pay is unchanged, and remains at $0.30.</p>\n            ","response":0,"trial_type":"html-button-response","trial_index":46,"time_elapsed":893386,"internal_node_id":"0.0-4.0-1.17","subject_id":"616175dbc12b4681198a540f","study_id":"6197b3f67c2b5cd3b6d9596a","session_id":"619be3214ccf3be7ba4bd16e","condition":"contingent","relevant_dimensions":["antennae","legs"],"bee_group":{"antennae":"A","wings":"X","pattern":"X","legs":"F"},"bonus":0.08},{"rt":2843.399999976158,"stimulus":"bees-with-color/bee-B1SF.svg","response":0,"trial_type":"image-button-response","trial_index":47,"time_elapsed":896237,"internal_node_id":"0.0-4.0-0.18","subject_id":"616175dbc12b4681198a540f","study_id":"6197b3f67c2b5cd3b6d9596a","session_id":"619be3214ccf3be7ba4bd16e","condition":"contingent","relevant_dimensions":["antennae","legs"],"bee_group":{"antennae":"A","wings":"X","pattern":"X","legs":"F"},"action":"harvest","summary":"good-harvest","bonus":0.08},{"rt":1383.8999999761581,"stimulus":"\n                    <p><b>Action: <em>harvest</em></b></p>\n                    <p>This is the bee that you just saw.</p>\n                    <img src=\"bees-with-color/bee-B1SF.svg\" width=\"200\">\n                    <p><span class=\"greenText\"><b>Successful harvest!</b></span><br>Your pay has increased by $0.02. Your bonus pay is now $0.32.</p>\n            ","response":0,"trial_type":"html-button-response","trial_index":48,"time_elapsed":897628,"internal_node_id":"0.0-4.0-1.18","subject_id":"616175dbc12b4681198a540f","study_id":"6197b3f67c2b5cd3b6d9596a","session_id":"619be3214ccf3be7ba4bd16e","condition":"contingent","relevant_dimensions":["antennae","legs"],"bee_group":{"antennae":"A","wings":"X","pattern":"X","legs":"F"},"bonus":0.08},{"rt":1779.5,"stimulus":"bees-with-color/bee-A1SF.svg","response":0,"trial_type":"image-button-response","trial_index":49,"time_elapsed":899419,"internal_node_id":"0.0-4.0-0.19","subject_id":"616175dbc12b4681198a540f","study_id":"6197b3f67c2b5cd3b6d9596a","session_id":"619be3214ccf3be7ba4bd16e","condition":"contingent","relevant_dimensions":["antennae","legs"],"bee_group":{"antennae":"A","wings":"X","pattern":"X","legs":"F"},"action":"harvest","summary":"bad-harvest","bonus":0.08},{"rt":2215.2000000476837,"stimulus":"\n                    <p><b>Action: <em>harvest</em></b></p>\n                    <p>This is the bee that you just saw.</p>\n                    <img src=\"bees-with-color/bee-A1SF.svg\" width=\"200\">\n                    <p><span class=\"redText\">Bad choice, the bee was angry.</span><br><b>You have been stung!</b><br>Your pay has been decreased by $0.10. Your bonus pay is now $0.22.</p>\n            ","response":0,"trial_type":"html-button-response","trial_index":50,"time_elapsed":901645,"internal_node_id":"0.0-4.0-1.19","subject_id":"616175dbc12b4681198a540f","study_id":"6197b3f67c2b5cd3b6d9596a","session_id":"619be3214ccf3be7ba4bd16e","condition":"contingent","relevant_dimensions":["antennae","legs"],"bee_group":{"antennae":"A","wings":"X","pattern":"X","legs":"F"},"bonus":0.08},{"rt":4259.199999928474,"stimulus":"bees-with-color/bee-B1DM.svg","response":0,"trial_type":"image-button-response","trial_index":51,"time_elapsed":905910,"internal_node_id":"0.0-4.0-0.20","subject_id":"616175dbc12b4681198a540f","study_id":"6197b3f67c2b5cd3b6d9596a","session_id":"619be3214ccf3be7ba4bd16e","condition":"contingent","relevant_dimensions":["antennae","legs"],"bee_group":{"antennae":"A","wings":"X","pattern":"X","legs":"F"},"action":"harvest","summary":"good-harvest","bonus":0.08},{"rt":1555.8999999761581,"stimulus":"\n                    <p><b>Action: <em>harvest</em></b></p>\n                    <p>This is the bee that you just saw.</p>\n                    <img src=\"bees-with-color/bee-B1DM.svg\" width=\"200\">\n                    <p><span class=\"greenText\"><b>Successful harvest!</b></span><br>Your pay has increased by $0.02. Your bonus pay is now $0.24.</p>\n            ","response":0,"trial_type":"html-button-response","trial_index":52,"time_elapsed":907476,"internal_node_id":"0.0-4.0-1.20","subject_id":"616175dbc12b4681198a540f","study_id":"6197b3f67c2b5cd3b6d9596a","session_id":"619be3214ccf3be7ba4bd16e","condition":"contingent","relevant_dimensions":["antennae","legs"],"bee_group":{"antennae":"A","wings":"X","pattern":"X","legs":"F"},"bonus":0.08},{"rt":2067.399999976158,"stimulus":"bees-with-color/bee-B2SM.svg","response":1,"trial_type":"image-button-response","trial_index":53,"time_elapsed":909552,"internal_node_id":"0.0-4.0-0.21","subject_id":"616175dbc12b4681198a540f","study_id":"6197b3f67c2b5cd3b6d9596a","session_id":"619be3214ccf3be7ba4bd16e","condition":"contingent","relevant_dimensions":["antennae","legs"],"bee_group":{"antennae":"A","wings":"X","pattern":"X","legs":"F"},"action":"avoid","summary":"bad-avoid","bonus":0.08},{"rt":1166.8999999761581,"stimulus":"\n                    <p><b>Action: <em>avoid</em></b></p>\n                    <p>This is the bee that you just saw.</p>\n                    <img src=\"bees-with-color/bee-B2SM.svg\" width=\"200\">\n                    <p><br>Your bonus pay is unchanged, and remains at $0.24.</p>\n            ","response":0,"trial_type":"html-button-response","trial_index":54,"time_elapsed":910725,"internal_node_id":"0.0-4.0-1.21","subject_id":"616175dbc12b4681198a540f","study_id":"6197b3f67c2b5cd3b6d9596a","session_id":"619be3214ccf3be7ba4bd16e","condition":"contingent","relevant_dimensions":["antennae","legs"],"bee_group":{"antennae":"A","wings":"X","pattern":"X","legs":"F"},"bonus":0.08},{"rt":1596.8000000715256,"stimulus":"bees-with-color/bee-B2SF.svg","response":1,"trial_type":"image-button-response","trial_index":55,"time_elapsed":912334,"internal_node_id":"0.0-4.0-0.22","subject_id":"616175dbc12b4681198a540f","study_id":"6197b3f67c2b5cd3b6d9596a","session_id":"619be3214ccf3be7ba4bd16e","condition":"contingent","relevant_dimensions":["antennae","legs"],"bee_group":{"antennae":"A","wings":"X","pattern":"X","legs":"F"},"action":"avoid","summary":"bad-avoid","bonus":0.08},{"rt":1199.8999999761581,"stimulus":"\n                    <p><b>Action: <em>avoid</em></b></p>\n                    <p>This is the bee that you just saw.</p>\n                    <img src=\"bees-with-color/bee-B2SF.svg\" width=\"200\">\n                    <p><br>Your bonus pay is unchanged, and remains at $0.24.</p>\n            ","response":0,"trial_type":"html-button-response","trial_index":56,"time_elapsed":913540,"internal_node_id":"0.0-4.0-1.22","subject_id":"616175dbc12b4681198a540f","study_id":"6197b3f67c2b5cd3b6d9596a","session_id":"619be3214ccf3be7ba4bd16e","condition":"contingent","relevant_dimensions":["antennae","legs"],"bee_group":{"antennae":"A","wings":"X","pattern":"X","legs":"F"},"bonus":0.08},{"rt":2620.100000023842,"stimulus":"bees-with-color/bee-B2DF.svg","response":0,"trial_type":"image-button-response","trial_index":57,"time_elapsed":916166,"internal_node_id":"0.0-4.0-0.23","subject_id":"616175dbc12b4681198a540f","study_id":"6197b3f67c2b5cd3b6d9596a","session_id":"619be3214ccf3be7ba4bd16e","condition":"contingent","relevant_dimensions":["antennae","legs"],"bee_group":{"antennae":"A","wings":"X","pattern":"X","legs":"F"},"action":"harvest","summary":"good-harvest","bonus":0.08},{"rt":1236.8999999761581,"stimulus":"\n                    <p><b>Action: <em>harvest</em></b></p>\n                    <p>This is the bee that you just saw.</p>\n                    <img src=\"bees-with-color/bee-B2DF.svg\" width=\"200\">\n                    <p><span class=\"greenText\"><b>Successful harvest!</b></span><br>Your pay has increased by $0.02. Your bonus pay is now $0.26.</p>\n            ","response":0,"trial_type":"html-button-response","trial_index":58,"time_elapsed":917411,"internal_node_id":"0.0-4.0-1.23","subject_id":"616175dbc12b4681198a540f","study_id":"6197b3f67c2b5cd3b6d9596a","session_id":"619be3214ccf3be7ba4bd16e","condition":"contingent","relevant_dimensions":["antennae","legs"],"bee_group":{"antennae":"A","wings":"X","pattern":"X","legs":"F"},"bonus":0.08},{"rt":5711.399999976158,"stimulus":"bees-with-color/bee-A1SM.svg","response":0,"trial_type":"image-button-response","trial_index":59,"time_elapsed":923132,"internal_node_id":"0.0-4.0-0.24","subject_id":"616175dbc12b4681198a540f","study_id":"6197b3f67c2b5cd3b6d9596a","session_id":"619be3214ccf3be7ba4bd16e","condition":"contingent","relevant_dimensions":["antennae","legs"],"bee_group":{"antennae":"A","wings":"X","pattern":"X","legs":"F"},"action":"harvest","summary":"good-harvest","bonus":0.08},{"rt":1283.3999999761581,"stimulus":"\n                    <p><b>Action: <em>harvest</em></b></p>\n                    <p>This is the bee that you just saw.</p>\n                    <img src=\"bees-with-color/bee-A1SM.svg\" width=\"200\">\n                    <p><span class=\"greenText\"><b>Successful harvest!</b></span><br>Your pay has increased by $0.02. Your bonus pay is now $0.28.</p>\n            ","response":0,"trial_type":"html-button-response","trial_index":60,"time_elapsed":924421,"internal_node_id":"0.0-4.0-1.24","subject_id":"616175dbc12b4681198a540f","study_id":"6197b3f67c2b5cd3b6d9596a","session_id":"619be3214ccf3be7ba4bd16e","condition":"contingent","relevant_dimensions":["antennae","legs"],"bee_group":{"antennae":"A","wings":"X","pattern":"X","legs":"F"},"bonus":0.08},{"rt":2465.399999976158,"stimulus":"bees-with-color/bee-B2DM.svg","response":1,"trial_type":"image-button-response","trial_index":61,"time_elapsed":926896,"internal_node_id":"0.0-4.0-0.25","subject_id":"616175dbc12b4681198a540f","study_id":"6197b3f67c2b5cd3b6d9596a","session_id":"619be3214ccf3be7ba4bd16e","condition":"contingent","relevant_dimensions":["antennae","legs"],"bee_group":{"antennae":"A","wings":"X","pattern":"X","legs":"F"},"action":"avoid","summary":"bad-avoid","bonus":0.08},{"rt":1353.8999999761581,"stimulus":"\n                    <p><b>Action: <em>avoid</em></b></p>\n                    <p>This is the bee that you just saw.</p>\n                    <img src=\"bees-with-color/bee-B2DM.svg\" width=\"200\">\n                    <p><br>Your bonus pay is unchanged, and remains at $0.28.</p>\n            ","response":0,"trial_type":"html-button-response","trial_index":62,"time_elapsed":928258,"internal_node_id":"0.0-4.0-1.25","subject_id":"616175dbc12b4681198a540f","study_id":"6197b3f67c2b5cd3b6d9596a","session_id":"619be3214ccf3be7ba4bd16e","condition":"contingent","relevant_dimensions":["antennae","legs"],"bee_group":{"antennae":"A","wings":"X","pattern":"X","legs":"F"},"bonus":0.08},{"rt":4480.5,"stimulus":"bees-with-color/bee-B1DF.svg","response":0,"trial_type":"image-button-response","trial_index":63,"time_elapsed":932749,"internal_node_id":"0.0-4.0-0.26","subject_id":"616175dbc12b4681198a540f","study_id":"6197b3f67c2b5cd3b6d9596a","session_id":"619be3214ccf3be7ba4bd16e","condition":"contingent","relevant_dimensions":["antennae","legs"],"bee_group":{"antennae":"A","wings":"X","pattern":"X","legs":"F"},"action":"harvest","summary":"good-harvest","bonus":0.08},{"rt":1476,"stimulus":"\n                    <p><b>Action: <em>harvest</em></b></p>\n                    <p>This is the bee that you just saw.</p>\n                    <img src=\"bees-with-color/bee-B1DF.svg\" width=\"200\">\n                    <p><span class=\"greenText\"><b>Successful harvest!</b></span><br>Your pay has increased by $0.02. Your bonus pay is now $0.30.</p>\n            ","response":0,"trial_type":"html-button-response","trial_index":64,"time_elapsed":934231,"internal_node_id":"0.0-4.0-1.26","subject_id":"616175dbc12b4681198a540f","study_id":"6197b3f67c2b5cd3b6d9596a","session_id":"619be3214ccf3be7ba4bd16e","condition":"contingent","relevant_dimensions":["antennae","legs"],"bee_group":{"antennae":"A","wings":"X","pattern":"X","legs":"F"},"bonus":0.08},{"rt":2053.7999999523163,"stimulus":"bees-with-color/bee-B1SM.svg","response":1,"trial_type":"image-button-response","trial_index":65,"time_elapsed":936296,"internal_node_id":"0.0-4.0-0.27","subject_id":"616175dbc12b4681198a540f","study_id":"6197b3f67c2b5cd3b6d9596a","session_id":"619be3214ccf3be7ba4bd16e","condition":"contingent","relevant_dimensions":["antennae","legs"],"bee_group":{"antennae":"A","wings":"X","pattern":"X","legs":"F"},"action":"avoid","summary":"bad-avoid","bonus":0.08},{"rt":1164.8999999761581,"stimulus":"\n                    <p><b>Action: <em>avoid</em></b></p>\n                    <p>This is the bee that you just saw.</p>\n                    <img src=\"bees-with-color/bee-B1SM.svg\" width=\"200\">\n                    <p><br>Your bonus pay is unchanged, and remains at $0.30.</p>\n            ","response":0,"trial_type":"html-button-response","trial_index":66,"time_elapsed":937469,"internal_node_id":"0.0-4.0-1.27","subject_id":"616175dbc12b4681198a540f","study_id":"6197b3f67c2b5cd3b6d9596a","session_id":"619be3214ccf3be7ba4bd16e","condition":"contingent","relevant_dimensions":["antennae","legs"],"bee_group":{"antennae":"A","wings":"X","pattern":"X","legs":"F"},"bonus":0.08},{"rt":4879.799999952316,"stimulus":"bees-with-color/bee-A1DF.svg","response":0,"trial_type":"image-button-response","trial_index":67,"time_elapsed":942356,"internal_node_id":"0.0-4.0-0.28","subject_id":"616175dbc12b4681198a540f","study_id":"6197b3f67c2b5cd3b6d9596a","session_id":"619be3214ccf3be7ba4bd16e","condition":"contingent","relevant_dimensions":["antennae","legs"],"bee_group":{"antennae":"A","wings":"X","pattern":"X","legs":"F"},"action":"harvest","summary":"bad-harvest","bonus":0.08},{"rt":1283.6999999284744,"stimulus":"\n                    <p><b>Action: <em>harvest</em></b></p>\n                    <p>This is the bee that you just saw.</p>\n                    <img src=\"bees-with-color/bee-A1DF.svg\" width=\"200\">\n                    <p><span class=\"redText\">Bad choice, the bee was angry.</span><br><b>You have been stung!</b><br>Your pay has been decreased by $0.10. Your bonus pay is now $0.20.</p>\n            ","response":0,"trial_type":"html-button-response","trial_index":68,"time_elapsed":943648,"internal_node_id":"0.0-4.0-1.28","subject_id":"616175dbc12b4681198a540f","study_id":"6197b3f67c2b5cd3b6d9596a","session_id":"619be3214ccf3be7ba4bd16e","condition":"contingent","relevant_dimensions":["antennae","legs"],"bee_group":{"antennae":"A","wings":"X","pattern":"X","legs":"F"},"bonus":0.08},{"rt":5532.799999952316,"stimulus":"bees-with-color/bee-A2SF.svg","response":1,"trial_type":"image-button-response","trial_index":69,"time_elapsed":949188,"internal_node_id":"0.0-4.0-0.29","subject_id":"616175dbc12b4681198a540f","study_id":"6197b3f67c2b5cd3b6d9596a","session_id":"619be3214ccf3be7ba4bd16e","condition":"contingent","relevant_dimensions":["antennae","legs"],"bee_group":{"antennae":"A","wings":"X","pattern":"X","legs":"F"},"action":"avoid","summary":"good-avoid","bonus":0.08},{"rt":1292.3999999761581,"stimulus":"\n                    <p><b>Action: <em>avoid</em></b></p>\n                    <p>This is the bee that you just saw.</p>\n                    <img src=\"bees-with-color/bee-A2SF.svg\" width=\"200\">\n                    <p><br>Your bonus pay is unchanged, and remains at $0.20.</p>\n            ","response":0,"trial_type":"html-button-response","trial_index":70,"time_elapsed":950490,"internal_node_id":"0.0-4.0-1.29","subject_id":"616175dbc12b4681198a540f","study_id":"6197b3f67c2b5cd3b6d9596a","session_id":"619be3214ccf3be7ba4bd16e","condition":"contingent","relevant_dimensions":["antennae","legs"],"bee_group":{"antennae":"A","wings":"X","pattern":"X","legs":"F"},"bonus":0.08},{"rt":2417.7999999523163,"stimulus":"bees-with-color/bee-A2SM.svg","response":1,"trial_type":"image-button-response","trial_index":71,"time_elapsed":952917,"internal_node_id":"0.0-4.0-0.30","subject_id":"616175dbc12b4681198a540f","study_id":"6197b3f67c2b5cd3b6d9596a","session_id":"619be3214ccf3be7ba4bd16e","condition":"contingent","relevant_dimensions":["antennae","legs"],"bee_group":{"antennae":"A","wings":"X","pattern":"X","legs":"F"},"action":"avoid","summary":"bad-avoid","bonus":0.08},{"rt":990.7000000476837,"stimulus":"\n                    <p><b>Action: <em>avoid</em></b></p>\n                    <p>This is the bee that you just saw.</p>\n                    <img src=\"bees-with-color/bee-A2SM.svg\" width=\"200\">\n                    <p><br>Your bonus pay is unchanged, and remains at $0.20.</p>\n            ","response":0,"trial_type":"html-button-response","trial_index":72,"time_elapsed":953914,"internal_node_id":"0.0-4.0-1.30","subject_id":"616175dbc12b4681198a540f","study_id":"6197b3f67c2b5cd3b6d9596a","session_id":"619be3214ccf3be7ba4bd16e","condition":"contingent","relevant_dimensions":["antennae","legs"],"bee_group":{"antennae":"A","wings":"X","pattern":"X","legs":"F"},"bonus":0.08},{"rt":4123.299999952316,"stimulus":"bees-with-color/bee-A2DM.svg","response":0,"trial_type":"image-button-response","trial_index":73,"time_elapsed":958044,"internal_node_id":"0.0-4.0-0.31","subject_id":"616175dbc12b4681198a540f","study_id":"6197b3f67c2b5cd3b6d9596a","session_id":"619be3214ccf3be7ba4bd16e","condition":"contingent","relevant_dimensions":["antennae","legs"],"bee_group":{"antennae":"A","wings":"X","pattern":"X","legs":"F"},"action":"harvest","summary":"good-harvest","bonus":0.08},{"rt":1196.5,"stimulus":"\n                    <p><b>Action: <em>harvest</em></b></p>\n                    <p>This is the bee that you just saw.</p>\n                    <img src=\"bees-with-color/bee-A2DM.svg\" width=\"200\">\n                    <p><span class=\"greenText\"><b>Successful harvest!</b></span><br>Your pay has increased by $0.02. Your bonus pay is now $0.22.</p>\n            ","response":0,"trial_type":"html-button-response","trial_index":74,"time_elapsed":959247,"internal_node_id":"0.0-4.0-1.31","subject_id":"616175dbc12b4681198a540f","study_id":"6197b3f67c2b5cd3b6d9596a","session_id":"619be3214ccf3be7ba4bd16e","condition":"contingent","relevant_dimensions":["antennae","legs"],"bee_group":{"antennae":"A","wings":"X","pattern":"X","legs":"F"},"bonus":0.08},{"rt":2261.2000000476837,"stimulus":"bees-with-color/bee-B2SF.svg","response":1,"trial_type":"image-button-response","trial_index":75,"time_elapsed":961517,"internal_node_id":"0.0-4.0-0.32","subject_id":"616175dbc12b4681198a540f","study_id":"6197b3f67c2b5cd3b6d9596a","session_id":"619be3214ccf3be7ba4bd16e","condition":"contingent","relevant_dimensions":["antennae","legs"],"bee_group":{"antennae":"A","wings":"X","pattern":"X","legs":"F"},"action":"avoid","summary":"bad-avoid","bonus":0.08},{"rt":1308.6000000238419,"stimulus":"\n                    <p><b>Action: <em>avoid</em></b></p>\n                    <p>This is the bee that you just saw.</p>\n                    <img src=\"bees-with-color/bee-B2SF.svg\" width=\"200\">\n                    <p><br>Your bonus pay is unchanged, and remains at $0.22.</p>\n            ","response":0,"trial_type":"html-button-response","trial_index":76,"time_elapsed":962836,"internal_node_id":"0.0-4.0-1.32","subject_id":"616175dbc12b4681198a540f","study_id":"6197b3f67c2b5cd3b6d9596a","session_id":"619be3214ccf3be7ba4bd16e","condition":"contingent","relevant_dimensions":["antennae","legs"],"bee_group":{"antennae":"A","wings":"X","pattern":"X","legs":"F"},"bonus":0.08},{"rt":2901.399999976158,"stimulus":"bees-with-color/bee-A1DM.svg","response":0,"trial_type":"image-button-response","trial_index":77,"time_elapsed":965745,"internal_node_id":"0.0-4.0-0.33","subject_id":"616175dbc12b4681198a540f","study_id":"6197b3f67c2b5cd3b6d9596a","session_id":"619be3214ccf3be7ba4bd16e","condition":"contingent","relevant_dimensions":["antennae","legs"],"bee_group":{"antennae":"A","wings":"X","pattern":"X","legs":"F"},"action":"harvest","summary":"good-harvest","bonus":0.08},{"rt":1381.8999999761581,"stimulus":"\n                    <p><b>Action: <em>harvest</em></b></p>\n                    <p>This is the bee that you just saw.</p>\n                    <img src=\"bees-with-color/bee-A1DM.svg\" width=\"200\">\n                    <p><span class=\"greenText\"><b>Successful harvest!</b></span><br>Your pay has increased by $0.02. Your bonus pay is now $0.24.</p>\n            ","response":0,"trial_type":"html-button-response","trial_index":78,"time_elapsed":967134,"internal_node_id":"0.0-4.0-1.33","subject_id":"616175dbc12b4681198a540f","study_id":"6197b3f67c2b5cd3b6d9596a","session_id":"619be3214ccf3be7ba4bd16e","condition":"contingent","relevant_dimensions":["antennae","legs"],"bee_group":{"antennae":"A","wings":"X","pattern":"X","legs":"F"},"bonus":0.08},{"rt":3260.8000000715256,"stimulus":"bees-with-color/bee-A1SF.svg","response":1,"trial_type":"image-button-response","trial_index":79,"time_elapsed":970408,"internal_node_id":"0.0-4.0-0.34","subject_id":"616175dbc12b4681198a540f","study_id":"6197b3f67c2b5cd3b6d9596a","session_id":"619be3214ccf3be7ba4bd16e","condition":"contingent","relevant_dimensions":["antennae","legs"],"bee_group":{"antennae":"A","wings":"X","pattern":"X","legs":"F"},"action":"avoid","summary":"good-avoid","bonus":0.08},{"rt":1837.5,"stimulus":"\n                    <p><b>Action: <em>avoid</em></b></p>\n                    <p>This is the bee that you just saw.</p>\n                    <img src=\"bees-with-color/bee-A1SF.svg\" width=\"200\">\n                    <p><br>Your bonus pay is unchanged, and remains at $0.24.</p>\n            ","response":0,"trial_type":"html-button-response","trial_index":80,"time_elapsed":972252,"internal_node_id":"0.0-4.0-1.34","subject_id":"616175dbc12b4681198a540f","study_id":"6197b3f67c2b5cd3b6d9596a","session_id":"619be3214ccf3be7ba4bd16e","condition":"contingent","relevant_dimensions":["antennae","legs"],"bee_group":{"antennae":"A","wings":"X","pattern":"X","legs":"F"},"bonus":0.08},{"rt":4425.699999928474,"stimulus":"bees-with-color/bee-B1DF.svg","response":0,"trial_type":"image-button-response","trial_index":81,"time_elapsed":976686,"internal_node_id":"0.0-4.0-0.35","subject_id":"616175dbc12b4681198a540f","study_id":"6197b3f67c2b5cd3b6d9596a","session_id":"619be3214ccf3be7ba4bd16e","condition":"contingent","relevant_dimensions":["antennae","legs"],"bee_group":{"antennae":"A","wings":"X","pattern":"X","legs":"F"},"action":"harvest","summary":"good-harvest","bonus":0.08},{"rt":1346.7999999523163,"stimulus":"\n                    <p><b>Action: <em>harvest</em></b></p>\n                    <p>This is the bee that you just saw.</p>\n                    <img src=\"bees-with-color/bee-B1DF.svg\" width=\"200\">\n                    <p><span class=\"greenText\"><b>Successful harvest!</b></span><br>Your pay has increased by $0.02. Your bonus pay is now $0.26.</p>\n            ","response":0,"trial_type":"html-button-response","trial_index":82,"time_elapsed":978042,"internal_node_id":"0.0-4.0-1.35","subject_id":"616175dbc12b4681198a540f","study_id":"6197b3f67c2b5cd3b6d9596a","session_id":"619be3214ccf3be7ba4bd16e","condition":"contingent","relevant_dimensions":["antennae","legs"],"bee_group":{"antennae":"A","wings":"X","pattern":"X","legs":"F"},"bonus":0.08},{"rt":2591.399999976158,"stimulus":"bees-with-color/bee-A2DM.svg","response":0,"trial_type":"image-button-response","trial_index":83,"time_elapsed":980641,"internal_node_id":"0.0-4.0-0.36","subject_id":"616175dbc12b4681198a540f","study_id":"6197b3f67c2b5cd3b6d9596a","session_id":"619be3214ccf3be7ba4bd16e","condition":"contingent","relevant_dimensions":["antennae","legs"],"bee_group":{"antennae":"A","wings":"X","pattern":"X","legs":"F"},"action":"harvest","summary":"good-harvest","bonus":0.08},{"rt":1289.2999999523163,"stimulus":"\n                    <p><b>Action: <em>harvest</em></b></p>\n                    <p>This is the bee that you just saw.</p>\n                    <img src=\"bees-with-color/bee-A2DM.svg\" width=\"200\">\n                    <p><span class=\"greenText\"><b>Successful harvest!</b></span><br>Your pay has increased by $0.02. Your bonus pay is now $0.28.</p>\n            ","response":0,"trial_type":"html-button-response","trial_index":84,"time_elapsed":981941,"internal_node_id":"0.0-4.0-1.36","subject_id":"616175dbc12b4681198a540f","study_id":"6197b3f67c2b5cd3b6d9596a","session_id":"619be3214ccf3be7ba4bd16e","condition":"contingent","relevant_dimensions":["antennae","legs"],"bee_group":{"antennae":"A","wings":"X","pattern":"X","legs":"F"},"bonus":0.08},{"rt":2943.399999976158,"stimulus":"bees-with-color/bee-B2DM.svg","response":0,"trial_type":"image-button-response","trial_index":85,"time_elapsed":984894,"internal_node_id":"0.0-4.0-0.37","subject_id":"616175dbc12b4681198a540f","study_id":"6197b3f67c2b5cd3b6d9596a","session_id":"619be3214ccf3be7ba4bd16e","condition":"contingent","relevant_dimensions":["antennae","legs"],"bee_group":{"antennae":"A","wings":"X","pattern":"X","legs":"F"},"action":"harvest","summary":"good-harvest","bonus":0.08},{"rt":1361.5,"stimulus":"\n                    <p><b>Action: <em>harvest</em></b></p>\n                    <p>This is the bee that you just saw.</p>\n                    <img src=\"bees-with-color/bee-B2DM.svg\" width=\"200\">\n                    <p><span class=\"greenText\"><b>Successful harvest!</b></span><br>Your pay has increased by $0.02. Your bonus pay is now $0.30.</p>\n            ","response":0,"trial_type":"html-button-response","trial_index":86,"time_elapsed":986259,"internal_node_id":"0.0-4.0-1.37","subject_id":"616175dbc12b4681198a540f","study_id":"6197b3f67c2b5cd3b6d9596a","session_id":"619be3214ccf3be7ba4bd16e","condition":"contingent","relevant_dimensions":["antennae","legs"],"bee_group":{"antennae":"A","wings":"X","pattern":"X","legs":"F"},"bonus":0.08},{"rt":1315.8000000715256,"stimulus":"bees-with-color/bee-A1DF.svg","response":0,"trial_type":"image-button-response","trial_index":87,"time_elapsed":987581,"internal_node_id":"0.0-4.0-0.38","subject_id":"616175dbc12b4681198a540f","study_id":"6197b3f67c2b5cd3b6d9596a","session_id":"619be3214ccf3be7ba4bd16e","condition":"contingent","relevant_dimensions":["antennae","legs"],"bee_group":{"antennae":"A","wings":"X","pattern":"X","legs":"F"},"action":"harvest","summary":"bad-harvest","bonus":0.08},{"rt":5661.300000071526,"stimulus":"\n                    <p><b>Action: <em>harvest</em></b></p>\n                    <p>This is the bee that you just saw.</p>\n                    <img src=\"bees-with-color/bee-A1DF.svg\" width=\"200\">\n                    <p><span class=\"redText\">Bad choice, the bee was angry.</span><br><b>You have been stung!</b><br>Your pay has been decreased by $0.10. Your bonus pay is now $0.20.</p>\n            ","response":0,"trial_type":"html-button-response","trial_index":88,"time_elapsed":993254,"internal_node_id":"0.0-4.0-1.38","subject_id":"616175dbc12b4681198a540f","study_id":"6197b3f67c2b5cd3b6d9596a","session_id":"619be3214ccf3be7ba4bd16e","condition":"contingent","relevant_dimensions":["antennae","legs"],"bee_group":{"antennae":"A","wings":"X","pattern":"X","legs":"F"},"bonus":0.08},{"rt":6951.5,"stimulus":"bees-with-color/bee-B1SM.svg","response":1,"trial_type":"image-button-response","trial_index":89,"time_elapsed":1000213,"internal_node_id":"0.0-4.0-0.39","subject_id":"616175dbc12b4681198a540f","study_id":"6197b3f67c2b5cd3b6d9596a","session_id":"619be3214ccf3be7ba4bd16e","condition":"contingent","relevant_dimensions":["antennae","legs"],"bee_group":{"antennae":"A","wings":"X","pattern":"X","legs":"F"},"action":"avoid","summary":"bad-avoid","bonus":0.08},{"rt":1473.5,"stimulus":"\n                    <p><b>Action: <em>avoid</em></b></p>\n                    <p>This is the bee that you just saw.</p>\n                    <img src=\"bees-with-color/bee-B1SM.svg\" width=\"200\">\n                    <p><br>Your bonus pay is unchanged, and remains at $0.20.</p>\n            ","response":0,"trial_type":"html-button-response","trial_index":90,"time_elapsed":1001696,"internal_node_id":"0.0-4.0-1.39","subject_id":"616175dbc12b4681198a540f","study_id":"6197b3f67c2b5cd3b6d9596a","session_id":"619be3214ccf3be7ba4bd16e","condition":"contingent","relevant_dimensions":["antennae","legs"],"bee_group":{"antennae":"A","wings":"X","pattern":"X","legs":"F"},"bonus":0.08},{"rt":2680.899999976158,"stimulus":"bees-with-color/bee-A2SM.svg","response":1,"trial_type":"image-button-response","trial_index":91,"time_elapsed":1004387,"internal_node_id":"0.0-4.0-0.40","subject_id":"616175dbc12b4681198a540f","study_id":"6197b3f67c2b5cd3b6d9596a","session_id":"619be3214ccf3be7ba4bd16e","condition":"contingent","relevant_dimensions":["antennae","legs"],"bee_group":{"antennae":"A","wings":"X","pattern":"X","legs":"F"},"action":"avoid","summary":"bad-avoid","bonus":0.08},{"rt":1173.3999999761581,"stimulus":"\n                    <p><b>Action: <em>avoid</em></b></p>\n                    <p>This is the bee that you just saw.</p>\n                    <img src=\"bees-with-color/bee-A2SM.svg\" width=\"200\">\n                    <p><br>Your bonus pay is unchanged, and remains at $0.20.</p>\n            ","response":0,"trial_type":"html-button-response","trial_index":92,"time_elapsed":1005571,"internal_node_id":"0.0-4.0-1.40","subject_id":"616175dbc12b4681198a540f","study_id":"6197b3f67c2b5cd3b6d9596a","session_id":"619be3214ccf3be7ba4bd16e","condition":"contingent","relevant_dimensions":["antennae","legs"],"bee_group":{"antennae":"A","wings":"X","pattern":"X","legs":"F"},"bonus":0.08},{"rt":2658.5,"stimulus":"bees-with-color/bee-B1SF.svg","response":1,"trial_type":"image-button-response","trial_index":93,"time_elapsed":1008247,"internal_node_id":"0.0-4.0-0.41","subject_id":"616175dbc12b4681198a540f","study_id":"6197b3f67c2b5cd3b6d9596a","session_id":"619be3214ccf3be7ba4bd16e","condition":"contingent","relevant_dimensions":["antennae","legs"],"bee_group":{"antennae":"A","wings":"X","pattern":"X","legs":"F"},"action":"avoid","summary":"bad-avoid","bonus":0.08},{"rt":1051.5999999046326,"stimulus":"\n                    <p><b>Action: <em>avoid</em></b></p>\n                    <p>This is the bee that you just saw.</p>\n                    <img src=\"bees-with-color/bee-B1SF.svg\" width=\"200\">\n                    <p><br>Your bonus pay is unchanged, and remains at $0.20.</p>\n            ","response":0,"trial_type":"html-button-response","trial_index":94,"time_elapsed":1009312,"internal_node_id":"0.0-4.0-1.41","subject_id":"616175dbc12b4681198a540f","study_id":"6197b3f67c2b5cd3b6d9596a","session_id":"619be3214ccf3be7ba4bd16e","condition":"contingent","relevant_dimensions":["antennae","legs"],"bee_group":{"antennae":"A","wings":"X","pattern":"X","legs":"F"},"bonus":0.08},{"rt":1851.5,"stimulus":"bees-with-color/bee-A1SM.svg","response":1,"trial_type":"image-button-response","trial_index":95,"time_elapsed":1011172,"internal_node_id":"0.0-4.0-0.42","subject_id":"616175dbc12b4681198a540f","study_id":"6197b3f67c2b5cd3b6d9596a","session_id":"619be3214ccf3be7ba4bd16e","condition":"contingent","relevant_dimensions":["antennae","legs"],"bee_group":{"antennae":"A","wings":"X","pattern":"X","legs":"F"},"action":"avoid","summary":"bad-avoid","bonus":0.08},{"rt":1354.7000000476837,"stimulus":"\n                    <p><b>Action: <em>avoid</em></b></p>\n                    <p>This is the bee that you just saw.</p>\n                    <img src=\"bees-with-color/bee-A1SM.svg\" width=\"200\">\n                    <p><br>Your bonus pay is unchanged, and remains at $0.20.</p>\n            ","response":0,"trial_type":"html-button-response","trial_index":96,"time_elapsed":1012532,"internal_node_id":"0.0-4.0-1.42","subject_id":"616175dbc12b4681198a540f","study_id":"6197b3f67c2b5cd3b6d9596a","session_id":"619be3214ccf3be7ba4bd16e","condition":"contingent","relevant_dimensions":["antennae","legs"],"bee_group":{"antennae":"A","wings":"X","pattern":"X","legs":"F"},"bonus":0.08},{"rt":2169.5,"stimulus":"bees-with-color/bee-B2SM.svg","response":1,"trial_type":"image-button-response","trial_index":97,"time_elapsed":1014709,"internal_node_id":"0.0-4.0-0.43","subject_id":"616175dbc12b4681198a540f","study_id":"6197b3f67c2b5cd3b6d9596a","session_id":"619be3214ccf3be7ba4bd16e","condition":"contingent","relevant_dimensions":["antennae","legs"],"bee_group":{"antennae":"A","wings":"X","pattern":"X","legs":"F"},"action":"avoid","summary":"bad-avoid","bonus":0.08},{"rt":889.3999999761581,"stimulus":"\n                    <p><b>Action: <em>avoid</em></b></p>\n                    <p>This is the bee that you just saw.</p>\n                    <img src=\"bees-with-color/bee-B2SM.svg\" width=\"200\">\n                    <p><br>Your bonus pay is unchanged, and remains at $0.20.</p>\n            ","response":0,"trial_type":"html-button-response","trial_index":98,"time_elapsed":1015605,"internal_node_id":"0.0-4.0-1.43","subject_id":"616175dbc12b4681198a540f","study_id":"6197b3f67c2b5cd3b6d9596a","session_id":"619be3214ccf3be7ba4bd16e","condition":"contingent","relevant_dimensions":["antennae","legs"],"bee_group":{"antennae":"A","wings":"X","pattern":"X","legs":"F"},"bonus":0.08},{"rt":1871.2999999523163,"stimulus":"bees-with-color/bee-B2DF.svg","response":0,"trial_type":"image-button-response","trial_index":99,"time_elapsed":1017485,"internal_node_id":"0.0-4.0-0.44","subject_id":"616175dbc12b4681198a540f","study_id":"6197b3f67c2b5cd3b6d9596a","session_id":"619be3214ccf3be7ba4bd16e","condition":"contingent","relevant_dimensions":["antennae","legs"],"bee_group":{"antennae":"A","wings":"X","pattern":"X","legs":"F"},"action":"harvest","summary":"good-harvest","bonus":0.08},{"rt":1303,"stimulus":"\n                    <p><b>Action: <em>harvest</em></b></p>\n                    <p>This is the bee that you just saw.</p>\n                    <img src=\"bees-with-color/bee-B2DF.svg\" width=\"200\">\n                    <p><span class=\"greenText\"><b>Successful harvest!</b></span><br>Your pay has increased by $0.02. Your bonus pay is now $0.22.</p>\n            ","response":0,"trial_type":"html-button-response","trial_index":100,"time_elapsed":1018796,"internal_node_id":"0.0-4.0-1.44","subject_id":"616175dbc12b4681198a540f","study_id":"6197b3f67c2b5cd3b6d9596a","session_id":"619be3214ccf3be7ba4bd16e","condition":"contingent","relevant_dimensions":["antennae","legs"],"bee_group":{"antennae":"A","wings":"X","pattern":"X","legs":"F"},"bonus":0.08},{"rt":1083.1999999284744,"stimulus":"bees-with-color/bee-A2DF.svg","response":0,"trial_type":"image-button-response","trial_index":101,"time_elapsed":1019888,"internal_node_id":"0.0-4.0-0.45","subject_id":"616175dbc12b4681198a540f","study_id":"6197b3f67c2b5cd3b6d9596a","session_id":"619be3214ccf3be7ba4bd16e","condition":"contingent","relevant_dimensions":["antennae","legs"],"bee_group":{"antennae":"A","wings":"X","pattern":"X","legs":"F"},"action":"harvest","summary":"bad-harvest","bonus":0.08},{"rt":1959.3000000715256,"stimulus":"\n                    <p><b>Action: <em>harvest</em></b></p>\n                    <p>This is the bee that you just saw.</p>\n                    <img src=\"bees-with-color/bee-A2DF.svg\" width=\"200\">\n                    <p><span class=\"redText\">Bad choice, the bee was angry.</span><br><b>You have been stung!</b><br>Your pay has been decreased by $0.10. Your bonus pay is now $0.12.</p>\n            ","response":0,"trial_type":"html-button-response","trial_index":102,"time_elapsed":1021853,"internal_node_id":"0.0-4.0-1.45","subject_id":"616175dbc12b4681198a540f","study_id":"6197b3f67c2b5cd3b6d9596a","session_id":"619be3214ccf3be7ba4bd16e","condition":"contingent","relevant_dimensions":["antennae","legs"],"bee_group":{"antennae":"A","wings":"X","pattern":"X","legs":"F"},"bonus":0.08},{"rt":3061.5,"stimulus":"bees-with-color/bee-A2SF.svg","response":1,"trial_type":"image-button-response","trial_index":103,"time_elapsed":1024920,"internal_node_id":"0.0-4.0-0.46","subject_id":"616175dbc12b4681198a540f","study_id":"6197b3f67c2b5cd3b6d9596a","session_id":"619be3214ccf3be7ba4bd16e","condition":"contingent","relevant_dimensions":["antennae","legs"],"bee_group":{"antennae":"A","wings":"X","pattern":"X","legs":"F"},"action":"avoid","summary":"good-avoid","bonus":0.08},{"rt":1477.8000000715256,"stimulus":"\n                    <p><b>Action: <em>avoid</em></b></p>\n                    <p>This is the bee that you just saw.</p>\n                    <img src=\"bees-with-color/bee-A2SF.svg\" width=\"200\">\n                    <p><br>Your bonus pay is unchanged, and remains at $0.12.</p>\n            ","response":0,"trial_type":"html-button-response","trial_index":104,"time_elapsed":1026407,"internal_node_id":"0.0-4.0-1.46","subject_id":"616175dbc12b4681198a540f","study_id":"6197b3f67c2b5cd3b6d9596a","session_id":"619be3214ccf3be7ba4bd16e","condition":"contingent","relevant_dimensions":["antennae","legs"],"bee_group":{"antennae":"A","wings":"X","pattern":"X","legs":"F"},"bonus":0.08},{"rt":1870.0999999046326,"stimulus":"bees-with-color/bee-B1DM.svg","response":0,"trial_type":"image-button-response","trial_index":105,"time_elapsed":1028284,"internal_node_id":"0.0-4.0-0.47","subject_id":"616175dbc12b4681198a540f","study_id":"6197b3f67c2b5cd3b6d9596a","session_id":"619be3214ccf3be7ba4bd16e","condition":"contingent","relevant_dimensions":["antennae","legs"],"bee_group":{"antennae":"A","wings":"X","pattern":"X","legs":"F"},"action":"harvest","summary":"good-harvest","bonus":0.08},{"rt":965.1000000238419,"stimulus":"\n                    <p><b>Action: <em>harvest</em></b></p>\n                    <p>This is the bee that you just saw.</p>\n                    <img src=\"bees-with-color/bee-B1DM.svg\" width=\"200\">\n                    <p><span class=\"greenText\"><b>Successful harvest!</b></span><br>Your pay has increased by $0.02. Your bonus pay is now $0.14.</p>\n            ","response":0,"trial_type":"html-button-response","trial_index":106,"time_elapsed":1029255,"internal_node_id":"0.0-4.0-1.47","subject_id":"616175dbc12b4681198a540f","study_id":"6197b3f67c2b5cd3b6d9596a","session_id":"619be3214ccf3be7ba4bd16e","condition":"contingent","relevant_dimensions":["antennae","legs"],"bee_group":{"antennae":"A","wings":"X","pattern":"X","legs":"F"},"bonus":0.08},{"rt":4127.700000047684,"stimulus":"bees-with-color/bee-A1DM.svg","response":0,"trial_type":"image-button-response","trial_index":107,"time_elapsed":1033390,"internal_node_id":"0.0-4.0-0.48","subject_id":"616175dbc12b4681198a540f","study_id":"6197b3f67c2b5cd3b6d9596a","session_id":"619be3214ccf3be7ba4bd16e","condition":"contingent","relevant_dimensions":["antennae","legs"],"bee_group":{"antennae":"A","wings":"X","pattern":"X","legs":"F"},"action":"harvest","summary":"good-harvest","bonus":0.08},{"rt":1890.3999999761581,"stimulus":"\n                    <p><b>Action: <em>harvest</em></b></p>\n                    <p>This is the bee that you just saw.</p>\n                    <img src=\"bees-with-color/bee-A1DM.svg\" width=\"200\">\n                    <p><span class=\"greenText\"><b>Successful harvest!</b></span><br>Your pay has increased by $0.02. Your bonus pay is now $0.16.</p>\n            ","response":0,"trial_type":"html-button-response","trial_index":108,"time_elapsed":1035287,"internal_node_id":"0.0-4.0-1.48","subject_id":"616175dbc12b4681198a540f","study_id":"6197b3f67c2b5cd3b6d9596a","session_id":"619be3214ccf3be7ba4bd16e","condition":"contingent","relevant_dimensions":["antennae","legs"],"bee_group":{"antennae":"A","wings":"X","pattern":"X","legs":"F"},"bonus":0.08},{"rt":2417.8000000715256,"stimulus":"bees-with-color/bee-A2SM.svg","response":1,"trial_type":"image-button-response","trial_index":109,"time_elapsed":1037715,"internal_node_id":"0.0-4.0-0.49","subject_id":"616175dbc12b4681198a540f","study_id":"6197b3f67c2b5cd3b6d9596a","session_id":"619be3214ccf3be7ba4bd16e","condition":"contingent","relevant_dimensions":["antennae","legs"],"bee_group":{"antennae":"A","wings":"X","pattern":"X","legs":"F"},"action":"avoid","summary":"bad-avoid","bonus":0.08},{"rt":7217.700000047684,"stimulus":"\n                    <p><b>Action: <em>avoid</em></b></p>\n                    <p>This is the bee that you just saw.</p>\n                    <img src=\"bees-with-color/bee-A2SM.svg\" width=\"200\">\n                    <p><br>Your bonus pay is unchanged, and remains at $0.16.</p>\n            ","response":0,"trial_type":"html-button-response","trial_index":110,"time_elapsed":1044943,"internal_node_id":"0.0-4.0-1.49","subject_id":"616175dbc12b4681198a540f","study_id":"6197b3f67c2b5cd3b6d9596a","session_id":"619be3214ccf3be7ba4bd16e","condition":"contingent","relevant_dimensions":["antennae","legs"],"bee_group":{"antennae":"A","wings":"X","pattern":"X","legs":"F"},"bonus":0.08},{"rt":3069.1999999284744,"stimulus":"bees-with-color/bee-A1SF.svg","response":0,"trial_type":"image-button-response","trial_index":111,"time_elapsed":1048020,"internal_node_id":"0.0-4.0-0.50","subject_id":"616175dbc12b4681198a540f","study_id":"6197b3f67c2b5cd3b6d9596a","session_id":"619be3214ccf3be7ba4bd16e","condition":"contingent","relevant_dimensions":["antennae","legs"],"bee_group":{"antennae":"A","wings":"X","pattern":"X","legs":"F"},"action":"harvest","summary":"bad-harvest","bonus":0.08},{"rt":1493.5999999046326,"stimulus":"\n                    <p><b>Action: <em>harvest</em></b></p>\n                    <p>This is the bee that you just saw.</p>\n                    <img src=\"bees-with-color/bee-A1SF.svg\" width=\"200\">\n                    <p><span class=\"redText\">Bad choice, the bee was angry.</span><br><b>You have been stung!</b><br>Your pay has been decreased by $0.10. Your bonus pay is now $0.06.</p>\n            ","response":0,"trial_type":"html-button-response","trial_index":112,"time_elapsed":1049520,"internal_node_id":"0.0-4.0-1.50","subject_id":"616175dbc12b4681198a540f","study_id":"6197b3f67c2b5cd3b6d9596a","session_id":"619be3214ccf3be7ba4bd16e","condition":"contingent","relevant_dimensions":["antennae","legs"],"bee_group":{"antennae":"A","wings":"X","pattern":"X","legs":"F"},"bonus":0.08},{"rt":2785.3000000715256,"stimulus":"bees-with-color/bee-A1DF.svg","response":0,"trial_type":"image-button-response","trial_index":113,"time_elapsed":1052318,"internal_node_id":"0.0-4.0-0.51","subject_id":"616175dbc12b4681198a540f","study_id":"6197b3f67c2b5cd3b6d9596a","session_id":"619be3214ccf3be7ba4bd16e","condition":"contingent","relevant_dimensions":["antennae","legs"],"bee_group":{"antennae":"A","wings":"X","pattern":"X","legs":"F"},"action":"harvest","summary":"bad-harvest","bonus":0.08},{"rt":976.8999999761581,"stimulus":"\n                    <p><b>Action: <em>harvest</em></b></p>\n                    <p>This is the bee that you just saw.</p>\n                    <img src=\"bees-with-color/bee-A1DF.svg\" width=\"200\">\n                    <p><span class=\"redText\">Bad choice, the bee was angry.</span><br><b>You have been stung!</b><br>Your pay has been decreased by $0.10. Your bonus pay is now $0.00.</p>\n            ","response":0,"trial_type":"html-button-response","trial_index":114,"time_elapsed":1053301,"internal_node_id":"0.0-4.0-1.51","subject_id":"616175dbc12b4681198a540f","study_id":"6197b3f67c2b5cd3b6d9596a","session_id":"619be3214ccf3be7ba4bd16e","condition":"contingent","relevant_dimensions":["antennae","legs"],"bee_group":{"antennae":"A","wings":"X","pattern":"X","legs":"F"},"bonus":0.08},{"rt":3433.600000023842,"stimulus":"bees-with-color/bee-B2DF.svg","response":1,"trial_type":"image-button-response","trial_index":115,"time_elapsed":1056743,"internal_node_id":"0.0-4.0-0.52","subject_id":"616175dbc12b4681198a540f","study_id":"6197b3f67c2b5cd3b6d9596a","session_id":"619be3214ccf3be7ba4bd16e","condition":"contingent","relevant_dimensions":["antennae","legs"],"bee_group":{"antennae":"A","wings":"X","pattern":"X","legs":"F"},"action":"avoid","summary":"bad-avoid","bonus":0.08},{"rt":1314.1000000238419,"stimulus":"\n                    <p><b>Action: <em>avoid</em></b></p>\n                    <p>This is the bee that you just saw.</p>\n                    <img src=\"bees-with-color/bee-B2DF.svg\" width=\"200\">\n                    <p><br>Your bonus pay is unchanged, and remains at $0.00.</p>\n            ","response":0,"trial_type":"html-button-response","trial_index":116,"time_elapsed":1058069,"internal_node_id":"0.0-4.0-1.52","subject_id":"616175dbc12b4681198a540f","study_id":"6197b3f67c2b5cd3b6d9596a","session_id":"619be3214ccf3be7ba4bd16e","condition":"contingent","relevant_dimensions":["antennae","legs"],"bee_group":{"antennae":"A","wings":"X","pattern":"X","legs":"F"},"bonus":0.08},{"rt":5363.700000047684,"stimulus":"bees-with-color/bee-B2DM.svg","response":0,"trial_type":"image-button-response","trial_index":117,"time_elapsed":1063438,"internal_node_id":"0.0-4.0-0.53","subject_id":"616175dbc12b4681198a540f","study_id":"6197b3f67c2b5cd3b6d9596a","session_id":"619be3214ccf3be7ba4bd16e","condition":"contingent","relevant_dimensions":["antennae","legs"],"bee_group":{"antennae":"A","wings":"X","pattern":"X","legs":"F"},"action":"harvest","summary":"good-harvest","bonus":0.08},{"rt":1242,"stimulus":"\n                    <p><b>Action: <em>harvest</em></b></p>\n                    <p>This is the bee that you just saw.</p>\n                    <img src=\"bees-with-color/bee-B2DM.svg\" width=\"200\">\n                    <p><span class=\"greenText\"><b>Successful harvest!</b></span><br>Your pay has increased by $0.02. Your bonus pay is now $0.02.</p>\n            ","response":0,"trial_type":"html-button-response","trial_index":118,"time_elapsed":1064689,"internal_node_id":"0.0-4.0-1.53","subject_id":"616175dbc12b4681198a540f","study_id":"6197b3f67c2b5cd3b6d9596a","session_id":"619be3214ccf3be7ba4bd16e","condition":"contingent","relevant_dimensions":["antennae","legs"],"bee_group":{"antennae":"A","wings":"X","pattern":"X","legs":"F"},"bonus":0.08},{"rt":3892.3000000715256,"stimulus":"bees-with-color/bee-A2DM.svg","response":0,"trial_type":"image-button-response","trial_index":119,"time_elapsed":1068588,"internal_node_id":"0.0-4.0-0.54","subject_id":"616175dbc12b4681198a540f","study_id":"6197b3f67c2b5cd3b6d9596a","session_id":"619be3214ccf3be7ba4bd16e","condition":"contingent","relevant_dimensions":["antennae","legs"],"bee_group":{"antennae":"A","wings":"X","pattern":"X","legs":"F"},"action":"harvest","summary":"good-harvest","bonus":0.08},{"rt":1216.2999999523163,"stimulus":"\n                    <p><b>Action: <em>harvest</em></b></p>\n                    <p>This is the bee that you just saw.</p>\n                    <img src=\"bees-with-color/bee-A2DM.svg\" width=\"200\">\n                    <p><span class=\"greenText\"><b>Successful harvest!</b></span><br>Your pay has increased by $0.02. Your bonus pay is now $0.04.</p>\n            ","response":0,"trial_type":"html-button-response","trial_index":120,"time_elapsed":1069813,"internal_node_id":"0.0-4.0-1.54","subject_id":"616175dbc12b4681198a540f","study_id":"6197b3f67c2b5cd3b6d9596a","session_id":"619be3214ccf3be7ba4bd16e","condition":"contingent","relevant_dimensions":["antennae","legs"],"bee_group":{"antennae":"A","wings":"X","pattern":"X","legs":"F"},"bonus":0.08},{"rt":1860.1999999284744,"stimulus":"bees-with-color/bee-B1SM.svg","response":1,"trial_type":"image-button-response","trial_index":121,"time_elapsed":1071679,"internal_node_id":"0.0-4.0-0.55","subject_id":"616175dbc12b4681198a540f","study_id":"6197b3f67c2b5cd3b6d9596a","session_id":"619be3214ccf3be7ba4bd16e","condition":"contingent","relevant_dimensions":["antennae","legs"],"bee_group":{"antennae":"A","wings":"X","pattern":"X","legs":"F"},"action":"avoid","summary":"bad-avoid","bonus":0.08},{"rt":1245.5999999046326,"stimulus":"\n                    <p><b>Action: <em>avoid</em></b></p>\n                    <p>This is the bee that you just saw.</p>\n                    <img src=\"bees-with-color/bee-B1SM.svg\" width=\"200\">\n                    <p><br>Your bonus pay is unchanged, and remains at $0.04.</p>\n            ","response":0,"trial_type":"html-button-response","trial_index":122,"time_elapsed":1072933,"internal_node_id":"0.0-4.0-1.55","subject_id":"616175dbc12b4681198a540f","study_id":"6197b3f67c2b5cd3b6d9596a","session_id":"619be3214ccf3be7ba4bd16e","condition":"contingent","relevant_dimensions":["antennae","legs"],"bee_group":{"antennae":"A","wings":"X","pattern":"X","legs":"F"},"bonus":0.08},{"rt":1530.7000000476837,"stimulus":"bees-with-color/bee-B2SF.svg","response":1,"trial_type":"image-button-response","trial_index":123,"time_elapsed":1074470,"internal_node_id":"0.0-4.0-0.56","subject_id":"616175dbc12b4681198a540f","study_id":"6197b3f67c2b5cd3b6d9596a","session_id":"619be3214ccf3be7ba4bd16e","condition":"contingent","relevant_dimensions":["antennae","legs"],"bee_group":{"antennae":"A","wings":"X","pattern":"X","legs":"F"},"action":"avoid","summary":"bad-avoid","bonus":0.08},{"rt":1267.7999999523163,"stimulus":"\n                    <p><b>Action: <em>avoid</em></b></p>\n                    <p>This is the bee that you just saw.</p>\n                    <img src=\"bees-with-color/bee-B2SF.svg\" width=\"200\">\n                    <p><br>Your bonus pay is unchanged, and remains at $0.04.</p>\n            ","response":0,"trial_type":"html-button-response","trial_index":124,"time_elapsed":1075748,"internal_node_id":"0.0-4.0-1.56","subject_id":"616175dbc12b4681198a540f","study_id":"6197b3f67c2b5cd3b6d9596a","session_id":"619be3214ccf3be7ba4bd16e","condition":"contingent","relevant_dimensions":["antennae","legs"],"bee_group":{"antennae":"A","wings":"X","pattern":"X","legs":"F"},"bonus":0.08},{"rt":2316.399999976158,"stimulus":"bees-with-color/bee-A2SF.svg","response":1,"trial_type":"image-button-response","trial_index":125,"time_elapsed":1078070,"internal_node_id":"0.0-4.0-0.57","subject_id":"616175dbc12b4681198a540f","study_id":"6197b3f67c2b5cd3b6d9596a","session_id":"619be3214ccf3be7ba4bd16e","condition":"contingent","relevant_dimensions":["antennae","legs"],"bee_group":{"antennae":"A","wings":"X","pattern":"X","legs":"F"},"action":"avoid","summary":"good-avoid","bonus":0.08},{"rt":1170.0999999046326,"stimulus":"\n                    <p><b>Action: <em>avoid</em></b></p>\n                    <p>This is the bee that you just saw.</p>\n                    <img src=\"bees-with-color/bee-A2SF.svg\" width=\"200\">\n                    <p><br>Your bonus pay is unchanged, and remains at $0.04.</p>\n            ","response":0,"trial_type":"html-button-response","trial_index":126,"time_elapsed":1079252,"internal_node_id":"0.0-4.0-1.57","subject_id":"616175dbc12b4681198a540f","study_id":"6197b3f67c2b5cd3b6d9596a","session_id":"619be3214ccf3be7ba4bd16e","condition":"contingent","relevant_dimensions":["antennae","legs"],"bee_group":{"antennae":"A","wings":"X","pattern":"X","legs":"F"},"bonus":0.08},{"rt":1549.4000000953674,"stimulus":"bees-with-color/bee-B1DM.svg","response":0,"trial_type":"image-button-response","trial_index":127,"time_elapsed":1080812,"internal_node_id":"0.0-4.0-0.58","subject_id":"616175dbc12b4681198a540f","study_id":"6197b3f67c2b5cd3b6d9596a","session_id":"619be3214ccf3be7ba4bd16e","condition":"contingent","relevant_dimensions":["antennae","legs"],"bee_group":{"antennae":"A","wings":"X","pattern":"X","legs":"F"},"action":"harvest","summary":"good-harvest","bonus":0.08},{"rt":1476.2000000476837,"stimulus":"\n                    <p><b>Action: <em>harvest</em></b></p>\n                    <p>This is the bee that you just saw.</p>\n                    <img src=\"bees-with-color/bee-B1DM.svg\" width=\"200\">\n                    <p><span class=\"greenText\"><b>Successful harvest!</b></span><br>Your pay has increased by $0.02. Your bonus pay is now $0.06.</p>\n            ","response":0,"trial_type":"html-button-response","trial_index":128,"time_elapsed":1082294,"internal_node_id":"0.0-4.0-1.58","subject_id":"616175dbc12b4681198a540f","study_id":"6197b3f67c2b5cd3b6d9596a","session_id":"619be3214ccf3be7ba4bd16e","condition":"contingent","relevant_dimensions":["antennae","legs"],"bee_group":{"antennae":"A","wings":"X","pattern":"X","legs":"F"},"bonus":0.08},{"rt":2088.2999999523163,"stimulus":"bees-with-color/bee-B1DF.svg","response":0,"trial_type":"image-button-response","trial_index":129,"time_elapsed":1084389,"internal_node_id":"0.0-4.0-0.59","subject_id":"616175dbc12b4681198a540f","study_id":"6197b3f67c2b5cd3b6d9596a","session_id":"619be3214ccf3be7ba4bd16e","condition":"contingent","relevant_dimensions":["antennae","legs"],"bee_group":{"antennae":"A","wings":"X","pattern":"X","legs":"F"},"action":"harvest","summary":"good-harvest","bonus":0.08},{"rt":1599.1000000238419,"stimulus":"\n                    <p><b>Action: <em>harvest</em></b></p>\n                    <p>This is the bee that you just saw.</p>\n                    <img src=\"bees-with-color/bee-B1DF.svg\" width=\"200\">\n                    <p><span class=\"greenText\"><b>Successful harvest!</b></span><br>Your pay has increased by $0.02. Your bonus pay is now $0.08.</p>\n            ","response":0,"trial_type":"html-button-response","trial_index":130,"time_elapsed":1085995,"internal_node_id":"0.0-4.0-1.59","subject_id":"616175dbc12b4681198a540f","study_id":"6197b3f67c2b5cd3b6d9596a","session_id":"619be3214ccf3be7ba4bd16e","condition":"contingent","relevant_dimensions":["antennae","legs"],"bee_group":{"antennae":"A","wings":"X","pattern":"X","legs":"F"},"bonus":0.08},{"rt":2886,"stimulus":"bees-with-color/bee-B1SF.svg","response":1,"trial_type":"image-button-response","trial_index":131,"time_elapsed":1088886,"internal_node_id":"0.0-4.0-0.60","subject_id":"616175dbc12b4681198a540f","study_id":"6197b3f67c2b5cd3b6d9596a","session_id":"619be3214ccf3be7ba4bd16e","condition":"contingent","relevant_dimensions":["antennae","legs"],"bee_group":{"antennae":"A","wings":"X","pattern":"X","legs":"F"},"action":"avoid","summary":"bad-avoid","bonus":0.08},{"rt":1007.2999999523163,"stimulus":"\n                    <p><b>Action: <em>avoid</em></b></p>\n                    <p>This is the bee that you just saw.</p>\n                    <img src=\"bees-with-color/bee-B1SF.svg\" width=\"200\">\n                    <p><br>Your bonus pay is unchanged, and remains at $0.08.</p>\n            ","response":0,"trial_type":"html-button-response","trial_index":132,"time_elapsed":1089902,"internal_node_id":"0.0-4.0-1.60","subject_id":"616175dbc12b4681198a540f","study_id":"6197b3f67c2b5cd3b6d9596a","session_id":"619be3214ccf3be7ba4bd16e","condition":"contingent","relevant_dimensions":["antennae","legs"],"bee_group":{"antennae":"A","wings":"X","pattern":"X","legs":"F"},"bonus":0.08},{"rt":1380.1000000238419,"stimulus":"bees-with-color/bee-B2SM.svg","response":1,"trial_type":"image-button-response","trial_index":133,"time_elapsed":1091293,"internal_node_id":"0.0-4.0-0.61","subject_id":"616175dbc12b4681198a540f","study_id":"6197b3f67c2b5cd3b6d9596a","session_id":"619be3214ccf3be7ba4bd16e","condition":"contingent","relevant_dimensions":["antennae","legs"],"bee_group":{"antennae":"A","wings":"X","pattern":"X","legs":"F"},"action":"avoid","summary":"bad-avoid","bonus":0.08},{"rt":1058.2000000476837,"stimulus":"\n                    <p><b>Action: <em>avoid</em></b></p>\n                    <p>This is the bee that you just saw.</p>\n                    <img src=\"bees-with-color/bee-B2SM.svg\" width=\"200\">\n                    <p><br>Your bonus pay is unchanged, and remains at $0.08.</p>\n            ","response":0,"trial_type":"html-button-response","trial_index":134,"time_elapsed":1092358,"internal_node_id":"0.0-4.0-1.61","subject_id":"616175dbc12b4681198a540f","study_id":"6197b3f67c2b5cd3b6d9596a","session_id":"619be3214ccf3be7ba4bd16e","condition":"contingent","relevant_dimensions":["antennae","legs"],"bee_group":{"antennae":"A","wings":"X","pattern":"X","legs":"F"},"bonus":0.08},{"rt":1641.6000000238419,"stimulus":"bees-with-color/bee-A1SM.svg","response":1,"trial_type":"image-button-response","trial_index":135,"time_elapsed":1094005,"internal_node_id":"0.0-4.0-0.62","subject_id":"616175dbc12b4681198a540f","study_id":"6197b3f67c2b5cd3b6d9596a","session_id":"619be3214ccf3be7ba4bd16e","condition":"contingent","relevant_dimensions":["antennae","legs"],"bee_group":{"antennae":"A","wings":"X","pattern":"X","legs":"F"},"action":"avoid","summary":"bad-avoid","bonus":0.08},{"rt":1333.1999999284744,"stimulus":"\n                    <p><b>Action: <em>avoid</em></b></p>\n                    <p>This is the bee that you just saw.</p>\n                    <img src=\"bees-with-color/bee-A1SM.svg\" width=\"200\">\n                    <p><br>Your bonus pay is unchanged, and remains at $0.08.</p>\n            ","response":0,"trial_type":"html-button-response","trial_index":136,"time_elapsed":1095345,"internal_node_id":"0.0-4.0-1.62","subject_id":"616175dbc12b4681198a540f","study_id":"6197b3f67c2b5cd3b6d9596a","session_id":"619be3214ccf3be7ba4bd16e","condition":"contingent","relevant_dimensions":["antennae","legs"],"bee_group":{"antennae":"A","wings":"X","pattern":"X","legs":"F"},"bonus":0.08},{"rt":3516.5,"stimulus":"bees-with-color/bee-A2DF.svg","response":0,"trial_type":"image-button-response","trial_index":137,"time_elapsed":1098868,"internal_node_id":"0.0-4.0-0.63","subject_id":"616175dbc12b4681198a540f","study_id":"6197b3f67c2b5cd3b6d9596a","session_id":"619be3214ccf3be7ba4bd16e","condition":"contingent","relevant_dimensions":["antennae","legs"],"bee_group":{"antennae":"A","wings":"X","pattern":"X","legs":"F"},"action":"harvest","summary":"bad-harvest","bonus":0.08},{"rt":1450.5,"stimulus":"\n                    <p><b>Action: <em>harvest</em></b></p>\n                    <p>This is the bee that you just saw.</p>\n                    <img src=\"bees-with-color/bee-A2DF.svg\" width=\"200\">\n                    <p><span class=\"redText\">Bad choice, the bee was angry.</span><br><b>You have been stung!</b><br>Your pay has been decreased by $0.10. Your bonus pay is now $0.00.</p>\n            ","response":0,"trial_type":"html-button-response","trial_index":138,"time_elapsed":1100327,"internal_node_id":"0.0-4.0-1.63","subject_id":"616175dbc12b4681198a540f","study_id":"6197b3f67c2b5cd3b6d9596a","session_id":"619be3214ccf3be7ba4bd16e","condition":"contingent","relevant_dimensions":["antennae","legs"],"bee_group":{"antennae":"A","wings":"X","pattern":"X","legs":"F"},"bonus":0.08},{"rt":12991.600000023842,"stimulus":"You have completed the first part of this experiment.<br><br>You will now begin a shorter second part, in which you will receive no feedback.<br>The same rules regarding bonus pay apply.<br><br>Press any key to begin.","response":"m","trial_type":"html-keyboard-response","trial_index":139,"time_elapsed":1113326,"internal_node_id":"0.0-5.0","subject_id":"616175dbc12b4681198a540f","study_id":"6197b3f67c2b5cd3b6d9596a","session_id":"619be3214ccf3be7ba4bd16e","condition":"contingent","relevant_dimensions":["antennae","legs"],"bee_group":{"antennae":"A","wings":"X","pattern":"X","legs":"F"},"bonus":0.08},{"rt":3485.100000023842,"stimulus":"bees-with-color/bee-A2SF.svg","response":0,"trial_type":"image-button-response","trial_index":140,"time_elapsed":1116857,"internal_node_id":"0.0-6.0-0.0","subject_id":"616175dbc12b4681198a540f","study_id":"6197b3f67c2b5cd3b6d9596a","session_id":"619be3214ccf3be7ba4bd16e","condition":"contingent","relevant_dimensions":["antennae","legs"],"bee_group":{"antennae":"A","wings":"X","pattern":"X","legs":"F"},"bonus":0.08},{"rt":5752.200000047684,"stimulus":"bees-with-color/bee-B2SM.svg","response":0,"trial_type":"image-button-response","trial_index":141,"time_elapsed":1122622,"internal_node_id":"0.0-6.0-0.1","subject_id":"616175dbc12b4681198a540f","study_id":"6197b3f67c2b5cd3b6d9596a","session_id":"619be3214ccf3be7ba4bd16e","condition":"contingent","relevant_dimensions":["antennae","legs"],"bee_group":{"antennae":"A","wings":"X","pattern":"X","legs":"F"},"bonus":0.08},{"rt":3461.5,"stimulus":"bees-with-color/bee-A2DF.svg","response":0,"trial_type":"image-button-response","trial_index":142,"time_elapsed":1126092,"internal_node_id":"0.0-6.0-0.2","subject_id":"616175dbc12b4681198a540f","study_id":"6197b3f67c2b5cd3b6d9596a","session_id":"619be3214ccf3be7ba4bd16e","condition":"contingent","relevant_dimensions":["antennae","legs"],"bee_group":{"antennae":"A","wings":"X","pattern":"X","legs":"F"},"bonus":0.08},{"rt":3216,"stimulus":"bees-with-color/bee-B2DM.svg","response":1,"trial_type":"image-button-response","trial_index":143,"time_elapsed":1129316,"internal_node_id":"0.0-6.0-0.3","subject_id":"616175dbc12b4681198a540f","study_id":"6197b3f67c2b5cd3b6d9596a","session_id":"619be3214ccf3be7ba4bd16e","condition":"contingent","relevant_dimensions":["antennae","legs"],"bee_group":{"antennae":"A","wings":"X","pattern":"X","legs":"F"},"bonus":0.08},{"rt":1663.1000000238419,"stimulus":"bees-with-color/bee-A1DM.svg","response":0,"trial_type":"image-button-response","trial_index":144,"time_elapsed":1130990,"internal_node_id":"0.0-6.0-0.4","subject_id":"616175dbc12b4681198a540f","study_id":"6197b3f67c2b5cd3b6d9596a","session_id":"619be3214ccf3be7ba4bd16e","condition":"contingent","relevant_dimensions":["antennae","legs"],"bee_group":{"antennae":"A","wings":"X","pattern":"X","legs":"F"},"bonus":0.08},{"rt":5622.600000023842,"stimulus":"bees-with-color/bee-B2SF.svg","response":1,"trial_type":"image-button-response","trial_index":145,"time_elapsed":1136620,"internal_node_id":"0.0-6.0-0.5","subject_id":"616175dbc12b4681198a540f","study_id":"6197b3f67c2b5cd3b6d9596a","session_id":"619be3214ccf3be7ba4bd16e","condition":"contingent","relevant_dimensions":["antennae","legs"],"bee_group":{"antennae":"A","wings":"X","pattern":"X","legs":"F"},"bonus":0.08},{"rt":1461.4000000953674,"stimulus":"bees-with-color/bee-B1DF.svg","response":0,"trial_type":"image-button-response","trial_index":146,"time_elapsed":1138090,"internal_node_id":"0.0-6.0-0.6","subject_id":"616175dbc12b4681198a540f","study_id":"6197b3f67c2b5cd3b6d9596a","session_id":"619be3214ccf3be7ba4bd16e","condition":"contingent","relevant_dimensions":["antennae","legs"],"bee_group":{"antennae":"A","wings":"X","pattern":"X","legs":"F"},"bonus":0.08},{"rt":2712.9000000953674,"stimulus":"bees-with-color/bee-B1SM.svg","response":1,"trial_type":"image-button-response","trial_index":147,"time_elapsed":1140815,"internal_node_id":"0.0-6.0-0.7","subject_id":"616175dbc12b4681198a540f","study_id":"6197b3f67c2b5cd3b6d9596a","session_id":"619be3214ccf3be7ba4bd16e","condition":"contingent","relevant_dimensions":["antennae","legs"],"bee_group":{"antennae":"A","wings":"X","pattern":"X","legs":"F"},"bonus":0.08},{"rt":801.1000000238419,"stimulus":"bees-with-color/bee-A1SF.svg","response":1,"trial_type":"image-button-response","trial_index":148,"time_elapsed":1141627,"internal_node_id":"0.0-6.0-0.8","subject_id":"616175dbc12b4681198a540f","study_id":"6197b3f67c2b5cd3b6d9596a","session_id":"619be3214ccf3be7ba4bd16e","condition":"contingent","relevant_dimensions":["antennae","legs"],"bee_group":{"antennae":"A","wings":"X","pattern":"X","legs":"F"},"bonus":0.08},{"rt":991,"stimulus":"bees-with-color/bee-A2SM.svg","response":1,"trial_type":"image-button-response","trial_index":149,"time_elapsed":1142628,"internal_node_id":"0.0-6.0-0.9","subject_id":"616175dbc12b4681198a540f","study_id":"6197b3f67c2b5cd3b6d9596a","session_id":"619be3214ccf3be7ba4bd16e","condition":"contingent","relevant_dimensions":["antennae","legs"],"bee_group":{"antennae":"A","wings":"X","pattern":"X","legs":"F"},"bonus":0.08},{"rt":1165.5,"stimulus":"bees-with-color/bee-B1DM.svg","response":0,"trial_type":"image-button-response","trial_index":150,"time_elapsed":1143803,"internal_node_id":"0.0-6.0-0.10","subject_id":"616175dbc12b4681198a540f","study_id":"6197b3f67c2b5cd3b6d9596a","session_id":"619be3214ccf3be7ba4bd16e","condition":"contingent","relevant_dimensions":["antennae","legs"],"bee_group":{"antennae":"A","wings":"X","pattern":"X","legs":"F"},"bonus":0.08},{"rt":1568,"stimulus":"bees-with-color/bee-B2DF.svg","response":0,"trial_type":"image-button-response","trial_index":151,"time_elapsed":1145377,"internal_node_id":"0.0-6.0-0.11","subject_id":"616175dbc12b4681198a540f","study_id":"6197b3f67c2b5cd3b6d9596a","session_id":"619be3214ccf3be7ba4bd16e","condition":"contingent","relevant_dimensions":["antennae","legs"],"bee_group":{"antennae":"A","wings":"X","pattern":"X","legs":"F"},"bonus":0.08},{"rt":1576.1000000238419,"stimulus":"bees-with-color/bee-A1SM.svg","response":1,"trial_type":"image-button-response","trial_index":152,"time_elapsed":1146964,"internal_node_id":"0.0-6.0-0.12","subject_id":"616175dbc12b4681198a540f","study_id":"6197b3f67c2b5cd3b6d9596a","session_id":"619be3214ccf3be7ba4bd16e","condition":"contingent","relevant_dimensions":["antennae","legs"],"bee_group":{"antennae":"A","wings":"X","pattern":"X","legs":"F"},"bonus":0.08},{"rt":3123.5,"stimulus":"bees-with-color/bee-B1SF.svg","response":1,"trial_type":"image-button-response","trial_index":153,"time_elapsed":1150096,"internal_node_id":"0.0-6.0-0.13","subject_id":"616175dbc12b4681198a540f","study_id":"6197b3f67c2b5cd3b6d9596a","session_id":"619be3214ccf3be7ba4bd16e","condition":"contingent","relevant_dimensions":["antennae","legs"],"bee_group":{"antennae":"A","wings":"X","pattern":"X","legs":"F"},"bonus":0.08},{"rt":4681.100000023842,"stimulus":"bees-with-color/bee-A2DM.svg","response":1,"trial_type":"image-button-response","trial_index":154,"time_elapsed":1154789,"internal_node_id":"0.0-6.0-0.14","subject_id":"616175dbc12b4681198a540f","study_id":"6197b3f67c2b5cd3b6d9596a","session_id":"619be3214ccf3be7ba4bd16e","condition":"contingent","relevant_dimensions":["antennae","legs"],"bee_group":{"antennae":"A","wings":"X","pattern":"X","legs":"F"},"bonus":0.08},{"rt":1979.8999999761581,"stimulus":"bees-with-color/bee-A1DF.svg","response":1,"trial_type":"image-button-response","trial_index":155,"time_elapsed":1156780,"internal_node_id":"0.0-6.0-0.15","subject_id":"616175dbc12b4681198a540f","study_id":"6197b3f67c2b5cd3b6d9596a","session_id":"619be3214ccf3be7ba4bd16e","condition":"contingent","relevant_dimensions":["antennae","legs"],"bee_group":{"antennae":"A","wings":"X","pattern":"X","legs":"F"},"bonus":0.08},{"rt":1679.1000000238419,"stimulus":"bees-with-color/bee-B2DF.svg","response":0,"trial_type":"image-button-response","trial_index":156,"time_elapsed":1158471,"internal_node_id":"0.0-6.0-0.16","subject_id":"616175dbc12b4681198a540f","study_id":"6197b3f67c2b5cd3b6d9596a","session_id":"619be3214ccf3be7ba4bd16e","condition":"contingent","relevant_dimensions":["antennae","legs"],"bee_group":{"antennae":"A","wings":"X","pattern":"X","legs":"F"},"bonus":0.08},{"rt":1634.0999999046326,"stimulus":"bees-with-color/bee-A2DF.svg","response":1,"trial_type":"image-button-response","trial_index":157,"time_elapsed":1160117,"internal_node_id":"0.0-6.0-0.17","subject_id":"616175dbc12b4681198a540f","study_id":"6197b3f67c2b5cd3b6d9596a","session_id":"619be3214ccf3be7ba4bd16e","condition":"contingent","relevant_dimensions":["antennae","legs"],"bee_group":{"antennae":"A","wings":"X","pattern":"X","legs":"F"},"bonus":0.08},{"rt":1621.2000000476837,"stimulus":"bees-with-color/bee-A2SF.svg","response":1,"trial_type":"image-button-response","trial_index":158,"time_elapsed":1161749,"internal_node_id":"0.0-6.0-0.18","subject_id":"616175dbc12b4681198a540f","study_id":"6197b3f67c2b5cd3b6d9596a","session_id":"619be3214ccf3be7ba4bd16e","condition":"contingent","relevant_dimensions":["antennae","legs"],"bee_group":{"antennae":"A","wings":"X","pattern":"X","legs":"F"},"bonus":0.08},{"rt":2522,"stimulus":"bees-with-color/bee-A1DM.svg","response":0,"trial_type":"image-button-response","trial_index":159,"time_elapsed":1164277,"internal_node_id":"0.0-6.0-0.19","subject_id":"616175dbc12b4681198a540f","study_id":"6197b3f67c2b5cd3b6d9596a","session_id":"619be3214ccf3be7ba4bd16e","condition":"contingent","relevant_dimensions":["antennae","legs"],"bee_group":{"antennae":"A","wings":"X","pattern":"X","legs":"F"},"bonus":0.08},{"rt":965.8000000715256,"stimulus":"bees-with-color/bee-A2DM.svg","response":0,"trial_type":"image-button-response","trial_index":160,"time_elapsed":1165252,"internal_node_id":"0.0-6.0-0.20","subject_id":"616175dbc12b4681198a540f","study_id":"6197b3f67c2b5cd3b6d9596a","session_id":"619be3214ccf3be7ba4bd16e","condition":"contingent","relevant_dimensions":["antennae","legs"],"bee_group":{"antennae":"A","wings":"X","pattern":"X","legs":"F"},"bonus":0.08},{"rt":1427.2000000476837,"stimulus":"bees-with-color/bee-B1SM.svg","response":1,"trial_type":"image-button-response","trial_index":161,"time_elapsed":1166686,"internal_node_id":"0.0-6.0-0.21","subject_id":"616175dbc12b4681198a540f","study_id":"6197b3f67c2b5cd3b6d9596a","session_id":"619be3214ccf3be7ba4bd16e","condition":"contingent","relevant_dimensions":["antennae","legs"],"bee_group":{"antennae":"A","wings":"X","pattern":"X","legs":"F"},"bonus":0.08},{"rt":1518.6999999284744,"stimulus":"bees-with-color/bee-A1SM.svg","response":1,"trial_type":"image-button-response","trial_index":162,"time_elapsed":1168216,"internal_node_id":"0.0-6.0-0.22","subject_id":"616175dbc12b4681198a540f","study_id":"6197b3f67c2b5cd3b6d9596a","session_id":"619be3214ccf3be7ba4bd16e","condition":"contingent","relevant_dimensions":["antennae","legs"],"bee_group":{"antennae":"A","wings":"X","pattern":"X","legs":"F"},"bonus":0.08},{"rt":2532.2000000476837,"stimulus":"bees-with-color/bee-B1DF.svg","response":0,"trial_type":"image-button-response","trial_index":163,"time_elapsed":1170755,"internal_node_id":"0.0-6.0-0.23","subject_id":"616175dbc12b4681198a540f","study_id":"6197b3f67c2b5cd3b6d9596a","session_id":"619be3214ccf3be7ba4bd16e","condition":"contingent","relevant_dimensions":["antennae","legs"],"bee_group":{"antennae":"A","wings":"X","pattern":"X","legs":"F"},"bonus":0.08},{"rt":963.8000000715256,"stimulus":"bees-with-color/bee-B1DM.svg","response":1,"trial_type":"image-button-response","trial_index":164,"time_elapsed":1171724,"internal_node_id":"0.0-6.0-0.24","subject_id":"616175dbc12b4681198a540f","study_id":"6197b3f67c2b5cd3b6d9596a","session_id":"619be3214ccf3be7ba4bd16e","condition":"contingent","relevant_dimensions":["antennae","legs"],"bee_group":{"antennae":"A","wings":"X","pattern":"X","legs":"F"},"bonus":0.08},{"rt":1925.8000000715256,"stimulus":"bees-with-color/bee-A2SM.svg","response":1,"trial_type":"image-button-response","trial_index":165,"time_elapsed":1173664,"internal_node_id":"0.0-6.0-0.25","subject_id":"616175dbc12b4681198a540f","study_id":"6197b3f67c2b5cd3b6d9596a","session_id":"619be3214ccf3be7ba4bd16e","condition":"contingent","relevant_dimensions":["antennae","legs"],"bee_group":{"antennae":"A","wings":"X","pattern":"