[{"success":true,"trial_type":"fullscreen","trial_index":0,"time_elapsed":4047,"internal_node_id":"0.0-0.0","subject_id":"5fca9266ba48b36c6e8198e3","study_id":"6197b3f67c2b5cd3b6d9596a","session_id":"619be58dd6fb45cc95cda2ad","condition":"contingent","relevant_dimensions":["antennae","wings"],"bee_group":{"antennae":"B","wings":"1","pattern":"X","legs":"X"},"bonus":0.48000000000000087},{"success":true,"timeout":false,"failed_images":[],"failed_audio":[],"failed_video":[],"trial_type":"preload","trial_index":1,"time_elapsed":6536,"internal_node_id":"0.0-1.0","subject_id":"5fca9266ba48b36c6e8198e3","study_id":"6197b3f67c2b5cd3b6d9596a","session_id":"619be58dd6fb45cc95cda2ad","condition":"contingent","relevant_dimensions":["antennae","wings"],"bee_group":{"antennae":"B","wings":"1","pattern":"X","legs":"X"},"bonus":0.48000000000000087},{"rt":1307.5,"stimulus":"Welcome! Press any key to begin.","response":"enter","trial_type":"html-keyboard-response","trial_index":2,"time_elapsed":7846,"internal_node_id":"0.0-2.0","subject_id":"5fca9266ba48b36c6e8198e3","study_id":"6197b3f67c2b5cd3b6d9596a","session_id":"619be58dd6fb45cc95cda2ad","condition":"contingent","relevant_dimensions":["antennae","wings"],"bee_group":{"antennae":"B","wings":"1","pattern":"X","legs":"X"},"bonus":0.48000000000000087},{"view_history":[{"page_index":0,"viewing_time":2774.8000000715256},{"page_index":1,"viewing_time":13207.799999952316},{"page_index":2,"viewing_time":8282.700000047684},{"page_index":3,"viewing_time":14221.399999976158},{"page_index":4,"viewing_time":5071.799999952316},{"page_index":5,"viewing_time":11336.5},{"page_index":6,"viewing_time":8935.200000047684},{"page_index":7,"viewing_time":4040.2999999523163},{"page_index":6,"viewing_time":9559.899999976158},{"page_index":7,"viewing_time":5161.400000095367},{"page_index":8,"viewing_time":4144.199999928474},{"page_index":9,"viewing_time":3342.5},{"page_index":10,"viewing_time":2247.2000000476837},{"page_index":11,"viewing_time":6511.899999976158},{"page_index":12,"viewing_time":5282.700000047684},{"page_index":13,"viewing_time":1319.6999999284744},{"page_index":14,"viewing_time":1735.6000000238419}],"rt":107176,"trial_type":"instructions","trial_index":3,"time_elapsed":115022,"internal_node_id":"0.0-3.0-0.0","subject_id":"5fca9266ba48b36c6e8198e3","study_id":"6197b3f67c2b5cd3b6d9596a","session_id":"619be58dd6fb45cc95cda2ad","condition":"contingent","relevant_dimensions":["antennae","wings"],"bee_group":{"antennae":"B","wings":"1","pattern":"X","legs":"X"},"bonus":0.48000000000000087},{"rt":11349.5,"response":{"Q0":["Two or six legs","Stripes or spots on body","Single or double wings","Antennae or no antennae"]},"question_order":[0],"trial_type":"survey-multi-select","trial_index":4,"time_elapsed":126382,"internal_node_id":"0.0-3.0-1.0","subject_id":"5fca9266ba48b36c6e8198e3","study_id":"6197b3f67c2b5cd3b6d9596a","session_id":"619be58dd6fb45cc95cda2ad","condition":"contingent","relevant_dimensions":["antennae","wings"],"bee_group":{"antennae":"B","wings":"1","pattern":"X","legs":"X"},"correct":true,"bonus":0.48000000000000087},{"rt":21147.300000071526,"response":{"Q1":"No.","Q2":"Based on the four features of the bee.","Q3":"You do not learn if it was friendly or dangerous, and do not alter your bonus."},"question_order":[0,1,2],"trial_type":"survey-multi-choice","trial_index":5,"time_elapsed":147534,"internal_node_id":"0.0-3.0-2.0","subject_id":"5fca9266ba48b36c6e8198e3","study_id":"6197b3f67c2b5cd3b6d9596a","session_id":"619be58dd6fb45cc95cda2ad","condition":"contingent","relevant_dimensions":["antennae","wings"],"bee_group":{"antennae":"B","wings":"1","pattern":"X","legs":"X"},"correct":true,"bonus":0.48000000000000087},{"rt":1341.8999999761581,"stimulus":"<p>Congrats, you got everything right<br>When you're ready, click the button below to continue to the experiment.</p>","response":0,"trial_type":"html-button-response","trial_index":6,"time_elapsed":148879,"internal_node_id":"0.0-3.0-3.0","subject_id":"5fca9266ba48b36c6e8198e3","study_id":"6197b3f67c2b5cd3b6d9596a","session_id":"619be58dd6fb45cc95cda2ad","condition":"contingent","relevant_dimensions":["antennae","wings"],"bee_group":{"antennae":"B","wings":"1","pattern":"X","legs":"X"},"bonus":0.48000000000000087},{"rt":3209.5,"stimulus":"bees-with-color/bee-B1SF.svg","response":0,"trial_type":"image-button-response","trial_index":7,"time_elapsed":152090,"internal_node_id":"0.0-4.0-0.0","subject_id":"5fca9266ba48b36c6e8198e3","study_id":"6197b3f67c2b5cd3b6d9596a","session_id":"619be58dd6fb45cc95cda2ad","condition":"contingent","relevant_dimensions":["antennae","wings"],"bee_group":{"antennae":"B","wings":"1","pattern":"X","legs":"X"},"action":"harvest","summary":"bad-harvest","bonus":0.48000000000000087},{"rt":8776.700000047684,"stimulus":"\n                    <p><b>Action: <em>harvest</em></b></p>\n                    <p>This is the bee that you just saw.</p>\n                    <img src=\"bees-with-color/bee-B1SF.svg\" width=\"200\">\n                    <p><span class=\"redText\">Bad choice, the bee was angry.</span><br><b>You have been stung!</b><br>Your pay has been decreased by $0.10. Your bonus pay is now $0.44.</p>\n            ","response":0,"trial_type":"html-button-response","trial_index":8,"time_elapsed":160872,"internal_node_id":"0.0-4.0-1.0","subject_id":"5fca9266ba48b36c6e8198e3","study_id":"6197b3f67c2b5cd3b6d9596a","session_id":"619be58dd6fb45cc95cda2ad","condition":"contingent","relevant_dimensions":["antennae","wings"],"bee_group":{"antennae":"B","wings":"1","pattern":"X","legs":"X"},"bonus":0.48000000000000087},{"rt":1793.6999999284744,"stimulus":"bees-with-color/bee-A1DF.svg","response":0,"trial_type":"image-button-response","trial_index":9,"time_elapsed":162670,"internal_node_id":"0.0-4.0-0.1","subject_id":"5fca9266ba48b36c6e8198e3","study_id":"6197b3f67c2b5cd3b6d9596a","session_id":"619be58dd6fb45cc95cda2ad","condition":"contingent","relevant_dimensions":["antennae","wings"],"bee_group":{"antennae":"B","wings":"1","pattern":"X","legs":"X"},"action":"harvest","summary":"good-harvest","bonus":0.48000000000000087},{"rt":2061.399999976158,"stimulus":"\n                    <p><b>Action: <em>harvest</em></b></p>\n                    <p>This is the bee that you just saw.</p>\n                    <img src=\"bees-with-color/bee-A1DF.svg\" width=\"200\">\n                    <p><span class=\"greenText\"><b>Successful harvest!</b></span><br>Your pay has increased by $0.02. Your bonus pay is now $0.46.</p>\n            ","response":0,"trial_type":"html-button-response","trial_index":10,"time_elapsed":164735,"internal_node_id":"0.0-4.0-1.1","subject_id":"5fca9266ba48b36c6e8198e3","study_id":"6197b3f67c2b5cd3b6d9596a","session_id":"619be58dd6fb45cc95cda2ad","condition":"contingent","relevant_dimensions":["antennae","wings"],"bee_group":{"antennae":"B","wings":"1","pattern":"X","legs":"X"},"bonus":0.48000000000000087},{"rt":5052.200000047684,"stimulus":"bees-with-color/bee-A2DM.svg","response":0,"trial_type":"image-button-response","trial_index":11,"time_elapsed":169792,"internal_node_id":"0.0-4.0-0.2","subject_id":"5fca9266ba48b36c6e8198e3","study_id":"6197b3f67c2b5cd3b6d9596a","session_id":"619be58dd6fb45cc95cda2ad","condition":"contingent","relevant_dimensions":["antennae","wings"],"bee_group":{"antennae":"B","wings":"1","pattern":"X","legs":"X"},"action":"harvest","summary":"good-harvest","bonus":0.48000000000000087},{"rt":3557,"stimulus":"\n                    <p><b>Action: <em>harvest</em></b></p>\n                    <p>This is the bee that you just saw.</p>\n                    <img src=\"bees-with-color/bee-A2DM.svg\" width=\"200\">\n                    <p><span class=\"greenText\"><b>Successful harvest!</b></span><br>Your pay has increased by $0.02. Your bonus pay is now $0.48.</p>\n            ","response":0,"trial_type":"html-button-response","trial_index":12,"time_elapsed":173353,"internal_node_id":"0.0-4.0-1.2","subject_id":"5fca9266ba48b36c6e8198e3","study_id":"6197b3f67c2b5cd3b6d9596a","session_id":"619be58dd6fb45cc95cda2ad","condition":"contingent","relevant_dimensions":["antennae","wings"],"bee_group":{"antennae":"B","wings":"1","pattern":"X","legs":"X"},"bonus":0.48000000000000087},{"rt":2114,"stimulus":"bees-with-color/bee-B2DF.svg","response":1,"trial_type":"image-button-response","trial_index":13,"time_elapsed":175469,"internal_node_id":"0.0-4.0-0.3","subject_id":"5fca9266ba48b36c6e8198e3","study_id":"6197b3f67c2b5cd3b6d9596a","session_id":"619be58dd6fb45cc95cda2ad","condition":"contingent","relevant_dimensions":["antennae","wings"],"bee_group":{"antennae":"B","wings":"1","pattern":"X","legs":"X"},"action":"avoid","summary":"bad-avoid","bonus":0.48000000000000087},{"rt":3977.5,"stimulus":"\n                    <p><b>Action: <em>avoid</em></b></p>\n                    <p>This is the bee that you just saw.</p>\n                    <img src=\"bees-with-color/bee-B2DF.svg\" width=\"200\">\n                    <p><br>Your bonus pay is unchanged, and remains at $0.48.</p>\n            ","response":0,"trial_type":"html-button-response","trial_index":14,"time_elapsed":179449,"internal_node_id":"0.0-4.0-1.3","subject_id":"5fca9266ba48b36c6e8198e3","study_id":"6197b3f67c2b5cd3b6d9596a","session_id":"619be58dd6fb45cc95cda2ad","condition":"contingent","relevant_dimensions":["antennae","wings"],"bee_group":{"antennae":"B","wings":"1","pattern":"X","legs":"X"},"bonus":0.48000000000000087},{"rt":2261.7000000476837,"stimulus":"bees-with-color/bee-B1DM.svg","response":0,"trial_type":"image-button-response","trial_index":15,"time_elapsed":181713,"internal_node_id":"0.0-4.0-0.4","subject_id":"5fca9266ba48b36c6e8198e3","study_id":"6197b3f67c2b5cd3b6d9596a","session_id":"619be58dd6fb45cc95cda2ad","condition":"contingent","relevant_dimensions":["antennae","wings"],"bee_group":{"antennae":"B","wings":"1","pattern":"X","legs":"X"},"action":"harvest","summary":"bad-harvest","bonus":0.48000000000000087},{"rt":1065.2000000476837,"stimulus":"\n                    <p><b>Action: <em>harvest</em></b></p>\n                    <p>This is the bee that you just saw.</p>\n                    <img src=\"bees-with-color/bee-B1DM.svg\" width=\"200\">\n                    <p><span class=\"redText\">Bad choice, the bee was angry.</span><br><b>You have been stung!</b><br>Your pay has been decreased by $0.10. Your bonus pay is now $0.38.</p>\n            ","response":0,"trial_type":"html-button-response","trial_index":16,"time_elapsed":182781,"internal_node_id":"0.0-4.0-1.4","subject_id":"5fca9266ba48b36c6e8198e3","study_id":"6197b3f67c2b5cd3b6d9596a","session_id":"619be58dd6fb45cc95cda2ad","condition":"contingent","relevant_dimensions":["antennae","wings"],"bee_group":{"antennae":"B","wings":"1","pattern":"X","legs":"X"},"bonus":0.48000000000000087},{"rt":1092.6000000238419,"stimulus":"bees-with-color/bee-A2DF.svg","response":0,"trial_type":"image-button-response","trial_index":17,"time_elapsed":183877,"internal_node_id":"0.0-4.0-0.5","subject_id":"5fca9266ba48b36c6e8198e3","study_id":"6197b3f67c2b5cd3b6d9596a","session_id":"619be58dd6fb45cc95cda2ad","condition":"contingent","relevant_dimensions":["antennae","wings"],"bee_group":{"antennae":"B","wings":"1","pattern":"X","legs":"X"},"action":"harvest","summary":"good-harvest","bonus":0.48000000000000087},{"rt":704.8999999761581,"stimulus":"\n                    <p><b>Action: <em>harvest</em></b></p>\n                    <p>This is the bee that you just saw.</p>\n                    <img src=\"bees-with-color/bee-A2DF.svg\" width=\"200\">\n                    <p><span class=\"greenText\"><b>Successful harvest!</b></span><br>Your pay has increased by $0.02. Your bonus pay is now $0.40.</p>\n            ","response":0,"trial_type":"html-button-response","trial_index":18,"time_elapsed":184585,"internal_node_id":"0.0-4.0-1.5","subject_id":"5fca9266ba48b36c6e8198e3","study_id":"6197b3f67c2b5cd3b6d9596a","session_id":"619be58dd6fb45cc95cda2ad","condition":"contingent","relevant_dimensions":["antennae","wings"],"bee_group":{"antennae":"B","wings":"1","pattern":"X","legs":"X"},"bonus":0.48000000000000087},{"rt":1284.3000000715256,"stimulus":"bees-with-color/bee-B2SM.svg","response":0,"trial_type":"image-button-response","trial_index":19,"time_elapsed":185872,"internal_node_id":"0.0-4.0-0.6","subject_id":"5fca9266ba48b36c6e8198e3","study_id":"6197b3f67c2b5cd3b6d9596a","session_id":"619be58dd6fb45cc95cda2ad","condition":"contingent","relevant_dimensions":["antennae","wings"],"bee_group":{"antennae":"B","wings":"1","pattern":"X","legs":"X"},"action":"harvest","summary":"good-harvest","bonus":0.48000000000000087},{"rt":656.5,"stimulus":"\n                    <p><b>Action: <em>harvest</em></b></p>\n                    <p>This is the bee that you just saw.</p>\n                    <img src=\"bees-with-color/bee-B2SM.svg\" width=\"200\">\n                    <p><span class=\"greenText\"><b>Successful harvest!</b></span><br>Your pay has increased by $0.02. Your bonus pay is now $0.42.</p>\n            ","response":0,"trial_type":"html-button-response","trial_index":20,"time_elapsed":186532,"internal_node_id":"0.0-4.0-1.6","subject_id":"5fca9266ba48b36c6e8198e3","study_id":"6197b3f67c2b5cd3b6d9596a","session_id":"619be58dd6fb45cc95cda2ad","condition":"contingent","relevant_dimensions":["antennae","wings"],"bee_group":{"antennae":"B","wings":"1","pattern":"X","legs":"X"},"bonus":0.48000000000000087},{"rt":2434.3000000715256,"stimulus":"bees-with-color/bee-A2SF.svg","response":1,"trial_type":"image-button-response","trial_index":21,"time_elapsed":188970,"internal_node_id":"0.0-4.0-0.7","subject_id":"5fca9266ba48b36c6e8198e3","study_id":"6197b3f67c2b5cd3b6d9596a","session_id":"619be58dd6fb45cc95cda2ad","condition":"contingent","relevant_dimensions":["antennae","wings"],"bee_group":{"antennae":"B","wings":"1","pattern":"X","legs":"X"},"action":"avoid","summary":"bad-avoid","bonus":0.48000000000000087},{"rt":1464.1999999284744,"stimulus":"\n                    <p><b>Action: <em>avoid</em></b></p>\n                    <p>This is the bee that you just saw.</p>\n                    <img src=\"bees-with-color/bee-A2SF.svg\" width=\"200\">\n                    <p><br>Your bonus pay is unchanged, and remains at $0.42.</p>\n            ","response":0,"trial_type":"html-button-response","trial_index":22,"time_elapsed":190438,"internal_node_id":"0.0-4.0-1.7","subject_id":"5fca9266ba48b36c6e8198e3","study_id":"6197b3f67c2b5cd3b6d9596a","session_id":"619be58dd6fb45cc95cda2ad","condition":"contingent","relevant_dimensions":["antennae","wings"],"bee_group":{"antennae":"B","wings":"1","pattern":"X","legs":"X"},"bonus":0.48000000000000087},{"rt":1828.3000000715256,"stimulus":"bees-with-color/bee-B1SM.svg","response":1,"trial_type":"image-button-response","trial_index":23,"time_elapsed":192271,"internal_node_id":"0.0-4.0-0.8","subject_id":"5fca9266ba48b36c6e8198e3","study_id":"6197b3f67c2b5cd3b6d9596a","session_id":"619be58dd6fb45cc95cda2ad","condition":"contingent","relevant_dimensions":["antennae","wings"],"bee_group":{"antennae":"B","wings":"1","pattern":"X","legs":"X"},"action":"avoid","summary":"good-avoid","bonus":0.48000000000000087},{"rt":585.9000000953674,"stimulus":"\n                    <p><b>Action: <em>avoid</em></b></p>\n                    <p>This is the bee that you just saw.</p>\n                    <img src=\"bees-with-color/bee-B1SM.svg\" width=\"200\">\n                    <p><br>Your bonus pay is unchanged, and remains at $0.42.</p>\n            ","response":0,"trial_type":"html-button-response","trial_index":24,"time_elapsed":192861,"internal_node_id":"0.0-4.0-1.8","subject_id":"5fca9266ba48b36c6e8198e3","study_id":"6197b3f67c2b5cd3b6d9596a","session_id":"619be58dd6fb45cc95cda2ad","condition":"contingent","relevant_dimensions":["antennae","wings"],"bee_group":{"antennae":"B","wings":"1","pattern":"X","legs":"X"},"bonus":0.48000000000000087},{"rt":3263,"stimulus":"bees-with-color/bee-A1SF.svg","response":1,"trial_type":"image-button-response","trial_index":25,"time_elapsed":196128,"internal_node_id":"0.0-4.0-0.9","subject_id":"5fca9266ba48b36c6e8198e3","study_id":"6197b3f67c2b5cd3b6d9596a","session_id":"619be58dd6fb45cc95cda2ad","condition":"contingent","relevant_dimensions":["antennae","wings"],"bee_group":{"antennae":"B","wings":"1","pattern":"X","legs":"X"},"action":"avoid","summary":"bad-avoid","bonus":0.48000000000000087},{"rt":783.7999999523163,"stimulus":"\n                    <p><b>Action: <em>avoid</em></b></p>\n                    <p>This is the bee that you just saw.</p>\n                    <img src=\"bees-with-color/bee-A1SF.svg\" width=\"200\">\n                    <p><br>Your bonus pay is unchanged, and remains at $0.42.</p>\n            ","response":0,"trial_type":"html-button-response","trial_index":26,"time_elapsed":196914,"internal_node_id":"0.0-4.0-1.9","subject_id":"5fca9266ba48b36c6e8198e3","study_id":"6197b3f67c2b5cd3b6d9596a","session_id":"619be58dd6fb45cc95cda2ad","condition":"contingent","relevant_dimensions":["antennae","wings"],"bee_group":{"antennae":"B","wings":"1","pattern":"X","legs":"X"},"bonus":0.48000000000000087},{"rt":838.7000000476837,"stimulus":"bees-with-color/bee-A2SM.svg","response":0,"trial_type":"image-button-response","trial_index":27,"time_elapsed":197757,"internal_node_id":"0.0-4.0-0.10","subject_id":"5fca9266ba48b36c6e8198e3","study_id":"6197b3f67c2b5cd3b6d9596a","session_id":"619be58dd6fb45cc95cda2ad","condition":"contingent","relevant_dimensions":["antennae","wings"],"bee_group":{"antennae":"B","wings":"1","pattern":"X","legs":"X"},"action":"harvest","summary":"good-harvest","bonus":0.48000000000000087},{"rt":707,"stimulus":"\n                    <p><b>Action: <em>harvest</em></b></p>\n                    <p>This is the bee that you just saw.</p>\n                    <img src=\"bees-with-color/bee-A2SM.svg\" width=\"200\">\n                    <p><span class=\"greenText\"><b>Successful harvest!</b></span><br>Your pay has increased by $0.02. Your bonus pay is now $0.44.</p>\n            ","response":0,"trial_type":"html-button-response","trial_index":28,"time_elapsed":198467,"internal_node_id":"0.0-4.0-1.10","subject_id":"5fca9266ba48b36c6e8198e3","study_id":"6197b3f67c2b5cd3b6d9596a","session_id":"619be58dd6fb45cc95cda2ad","condition":"contingent","relevant_dimensions":["antennae","wings"],"bee_group":{"antennae":"B","wings":"1","pattern":"X","legs":"X"},"bonus":0.48000000000000087},{"rt":1276.3999999761581,"stimulus":"bees-with-color/bee-B1DF.svg","response":0,"trial_type":"image-button-response","trial_index":29,"time_elapsed":199745,"internal_node_id":"0.0-4.0-0.11","subject_id":"5fca9266ba48b36c6e8198e3","study_id":"6197b3f67c2b5cd3b6d9596a","session_id":"619be58dd6fb45cc95cda2ad","condition":"contingent","relevant_dimensions":["antennae","wings"],"bee_group":{"antennae":"B","wings":"1","pattern":"X","legs":"X"},"action":"harvest","summary":"bad-harvest","bonus":0.48000000000000087},{"rt":684.7000000476837,"stimulus":"\n                    <p><b>Action: <em>harvest</em></b></p>\n                    <p>This is the bee that you just saw.</p>\n                    <img src=\"bees-with-color/bee-B1DF.svg\" width=\"200\">\n                    <p><span class=\"redText\">Bad choice, the bee was angry.</span><br><b>You have been stung!</b><br>Your pay has been decreased by $0.10. Your bonus pay is now $0.34.</p>\n            ","response":0,"trial_type":"html-button-response","trial_index":30,"time_elapsed":200433,"internal_node_id":"0.0-4.0-1.11","subject_id":"5fca9266ba48b36c6e8198e3","study_id":"6197b3f67c2b5cd3b6d9596a","session_id":"619be58dd6fb45cc95cda2ad","condition":"contingent","relevant_dimensions":["antennae","wings"],"bee_group":{"antennae":"B","wings":"1","pattern":"X","legs":"X"},"bonus":0.48000000000000087},{"rt":912.8999999761581,"stimulus":"bees-with-color/bee-A1DM.svg","response":0,"trial_type":"image-button-response","trial_index":31,"time_elapsed":201347,"internal_node_id":"0.0-4.0-0.12","subject_id":"5fca9266ba48b36c6e8198e3","study_id":"6197b3f67c2b5cd3b6d9596a","session_id":"619be58dd6fb45cc95cda2ad","condition":"contingent","relevant_dimensions":["antennae","wings"],"bee_group":{"antennae":"B","wings":"1","pattern":"X","legs":"X"},"action":"harvest","summary":"good-harvest","bonus":0.48000000000000087},{"rt":581,"stimulus":"\n                    <p><b>Action: <em>harvest</em></b></p>\n                    <p>This is the bee that you just saw.</p>\n                    <img src=\"bees-with-color/bee-A1DM.svg\" width=\"200\">\n                    <p><span class=\"greenText\"><b>Successful harvest!</b></span><br>Your pay has increased by $0.02. Your bonus pay is now $0.36.</p>\n            ","response":0,"trial_type":"html-button-response","trial_index":32,"time_elapsed":201931,"internal_node_id":"0.0-4.0-1.12","subject_id":"5fca9266ba48b36c6e8198e3","study_id":"6197b3f67c2b5cd3b6d9596a","session_id":"619be58dd6fb45cc95cda2ad","condition":"contingent","relevant_dimensions":["antennae","wings"],"bee_group":{"antennae":"B","wings":"1","pattern":"X","legs":"X"},"bonus":0.48000000000000087},{"rt":522.7000000476837,"stimulus":"bees-with-color/bee-A1SM.svg","response":0,"trial_type":"image-button-response","trial_index":33,"time_elapsed":202456,"internal_node_id":"0.0-4.0-0.13","subject_id":"5fca9266ba48b36c6e8198e3","study_id":"6197b3f67c2b5cd3b6d9596a","session_id":"619be58dd6fb45cc95cda2ad","condition":"contingent","relevant_dimensions":["antennae","wings"],"bee_group":{"antennae":"B","wings":"1","pattern":"X","legs":"X"},"action":"harvest","summary":"good-harvest","bonus":0.48000000000000087},{"rt":573.2000000476837,"stimulus":"\n                    <p><b>Action: <em>harvest</em></b></p>\n                    <p>This is the bee that you just saw.</p>\n                    <img src=\"bees-with-color/bee-A1SM.svg\" width=\"200\">\n                    <p><span class=\"greenText\"><b>Successful harvest!</b></span><br>Your pay has increased by $0.02. Your bonus pay is now $0.38.</p>\n            ","response":0,"trial_type":"html-button-response","trial_index":34,"time_elapsed":203033,"internal_node_id":"0.0-4.0-1.13","subject_id":"5fca9266ba48b36c6e8198e3","study_id":"6197b3f67c2b5cd3b6d9596a","session_id":"619be58dd6fb45cc95cda2ad","condition":"contingent","relevant_dimensions":["antennae","wings"],"bee_group":{"antennae":"B","wings":"1","pattern":"X","legs":"X"},"bonus":0.48000000000000087},{"rt":714.3000000715256,"stimulus":"bees-with-color/bee-B2SF.svg","response":0,"trial_type":"image-button-response","trial_index":35,"time_elapsed":203750,"internal_node_id":"0.0-4.0-0.14","subject_id":"5fca9266ba48b36c6e8198e3","study_id":"6197b3f67c2b5cd3b6d9596a","session_id":"619be58dd6fb45cc95cda2ad","condition":"contingent","relevant_dimensions":["antennae","wings"],"bee_group":{"antennae":"B","wings":"1","pattern":"X","legs":"X"},"action":"harvest","summary":"good-harvest","bonus":0.48000000000000087},{"rt":734.8999999761581,"stimulus":"\n                    <p><b>Action: <em>harvest</em></b></p>\n                    <p>This is the bee that you just saw.</p>\n                    <img src=\"bees-with-color/bee-B2SF.svg\" width=\"200\">\n                    <p><span class=\"greenText\"><b>Successful harvest!</b></span><br>Your pay has increased by $0.02. Your bonus pay is now $0.40.</p>\n            ","response":0,"trial_type":"html-button-response","trial_index":36,"time_elapsed":204487,"internal_node_id":"0.0-4.0-1.14","subject_id":"5fca9266ba48b36c6e8198e3","study_id":"6197b3f67c2b5cd3b6d9596a","session_id":"619be58dd6fb45cc95cda2ad","condition":"contingent","relevant_dimensions":["antennae","wings"],"bee_group":{"antennae":"B","wings":"1","pattern":"X","legs":"X"},"bonus":0.48000000000000087},{"rt":1135.6000000238419,"stimulus":"bees-with-color/bee-B2DM.svg","response":1,"trial_type":"image-button-response","trial_index":37,"time_elapsed":205626,"internal_node_id":"0.0-4.0-0.15","subject_id":"5fca9266ba48b36c6e8198e3","study_id":"6197b3f67c2b5cd3b6d9596a","session_id":"619be58dd6fb45cc95cda2ad","condition":"contingent","relevant_dimensions":["antennae","wings"],"bee_group":{"antennae":"B","wings":"1","pattern":"X","legs":"X"},"action":"avoid","summary":"bad-avoid","bonus":0.48000000000000087},{"rt":600.9000000953674,"stimulus":"\n                    <p><b>Action: <em>avoid</em></b></p>\n                    <p>This is the bee that you just saw.</p>\n                    <img src=\"bees-with-color/bee-B2DM.svg\" width=\"200\">\n                    <p><br>Your bonus pay is unchanged, and remains at $0.40.</p>\n            ","response":0,"trial_type":"html-button-response","trial_index":38,"time_elapsed":206230,"internal_node_id":"0.0-4.0-1.15","subject_id":"5fca9266ba48b36c6e8198e3","study_id":"6197b3f67c2b5cd3b6d9596a","session_id":"619be58dd6fb45cc95cda2ad","condition":"contingent","relevant_dimensions":["antennae","wings"],"bee_group":{"antennae":"B","wings":"1","pattern":"X","legs":"X"},"bonus":0.48000000000000087},{"rt":2729.100000023842,"stimulus":"bees-with-color/bee-A1SM.svg","response":0,"trial_type":"image-button-response","trial_index":39,"time_elapsed":208961,"internal_node_id":"0.0-4.0-0.16","subject_id":"5fca9266ba48b36c6e8198e3","study_id":"6197b3f67c2b5cd3b6d9596a","session_id":"619be58dd6fb45cc95cda2ad","condition":"contingent","relevant_dimensions":["antennae","wings"],"bee_group":{"antennae":"B","wings":"1","pattern":"X","legs":"X"},"action":"harvest","summary":"good-harvest","bonus":0.48000000000000087},{"rt":892.4000000953674,"stimulus":"\n                    <p><b>Action: <em>harvest</em></b></p>\n                    <p>This is the bee that you just saw.</p>\n                    <img src=\"bees-with-color/bee-A1SM.svg\" width=\"200\">\n                    <p><span class=\"greenText\"><b>Successful harvest!</b></span><br>Your pay has increased by $0.02. Your bonus pay is now $0.42.</p>\n            ","response":0,"trial_type":"html-button-response","trial_index":40,"time_elapsed":209855,"internal_node_id":"0.0-4.0-1.16","subject_id":"5fca9266ba48b36c6e8198e3","study_id":"6197b3f67c2b5cd3b6d9596a","session_id":"619be58dd6fb45cc95cda2ad","condition":"contingent","relevant_dimensions":["antennae","wings"],"bee_group":{"antennae":"B","wings":"1","pattern":"X","legs":"X"},"bonus":0.48000000000000087},{"rt":1147.9000000953674,"stimulus":"bees-with-color/bee-B2SM.svg","response":0,"trial_type":"image-button-response","trial_index":41,"time_elapsed":211006,"internal_node_id":"0.0-4.0-0.17","subject_id":"5fca9266ba48b36c6e8198e3","study_id":"6197b3f67c2b5cd3b6d9596a","session_id":"619be58dd6fb45cc95cda2ad","condition":"contingent","relevant_dimensions":["antennae","wings"],"bee_group":{"antennae":"B","wings":"1","pattern":"X","legs":"X"},"action":"harvest","summary":"good-harvest","bonus":0.48000000000000087},{"rt":708.3999999761581,"stimulus":"\n                    <p><b>Action: <em>harvest</em></b></p>\n                    <p>This is the bee that you just saw.</p>\n                    <img src=\"bees-with-color/bee-B2SM.svg\" width=\"200\">\n                    <p><span class=\"greenText\"><b>Successful harvest!</b></span><br>Your pay has increased by $0.02. Your bonus pay is now $0.44.</p>\n            ","response":0,"trial_type":"html-button-response","trial_index":42,"time_elapsed":211716,"internal_node_id":"0.0-4.0-1.17","subject_id":"5fca9266ba48b36c6e8198e3","study_id":"6197b3f67c2b5cd3b6d9596a","session_id":"619be58dd6fb45cc95cda2ad","condition":"contingent","relevant_dimensions":["antennae","wings"],"bee_group":{"antennae":"B","wings":"1","pattern":"X","legs":"X"},"bonus":0.48000000000000087},{"rt":2396.7000000476837,"stimulus":"bees-with-color/bee-B2DF.svg","response":1,"trial_type":"image-button-response","trial_index":43,"time_elapsed":214116,"internal_node_id":"0.0-4.0-0.18","subject_id":"5fca9266ba48b36c6e8198e3","study_id":"6197b3f67c2b5cd3b6d9596a","session_id":"619be58dd6fb45cc95cda2ad","condition":"contingent","relevant_dimensions":["antennae","wings"],"bee_group":{"antennae":"B","wings":"1","pattern":"X","legs":"X"},"action":"avoid","summary":"bad-avoid","bonus":0.48000000000000087},{"rt":603.7000000476837,"stimulus":"\n                    <p><b>Action: <em>avoid</em></b></p>\n                    <p>This is the bee that you just saw.</p>\n                    <img src=\"bees-with-color/bee-B2DF.svg\" width=\"200\">\n                    <p><br>Your bonus pay is unchanged, and remains at $0.44.</p>\n            ","response":0,"trial_type":"html-button-response","trial_index":44,"time_elapsed":214723,"internal_node_id":"0.0-4.0-1.18","subject_id":"5fca9266ba48b36c6e8198e3","study_id":"6197b3f67c2b5cd3b6d9596a","session_id":"619be58dd6fb45cc95cda2ad","condition":"contingent","relevant_dimensions":["antennae","wings"],"bee_group":{"antennae":"B","wings":"1","pattern":"X","legs":"X"},"bonus":0.48000000000000087},{"rt":1788,"stimulus":"bees-with-color/bee-B2SF.svg","response":1,"trial_type":"image-button-response","trial_index":45,"time_elapsed":216514,"internal_node_id":"0.0-4.0-0.19","subject_id":"5fca9266ba48b36c6e8198e3","study_id":"6197b3f67c2b5cd3b6d9596a","session_id":"619be58dd6fb45cc95cda2ad","condition":"contingent","relevant_dimensions":["antennae","wings"],"bee_group":{"antennae":"B","wings":"1","pattern":"X","legs":"X"},"action":"avoid","summary":"bad-avoid","bonus":0.48000000000000087},{"rt":544.7999999523163,"stimulus":"\n                    <p><b>Action: <em>avoid</em></b></p>\n                    <p>This is the bee that you just saw.</p>\n                    <img src=\"bees-with-color/bee-B2SF.svg\" width=\"200\">\n                    <p><br>Your bonus pay is unchanged, and remains at $0.44.</p>\n            ","response":0,"trial_type":"html-button-response","trial_index":46,"time_elapsed":217062,"internal_node_id":"0.0-4.0-1.19","subject_id":"5fca9266ba48b36c6e8198e3","study_id":"6197b3f67c2b5cd3b6d9596a","session_id":"619be58dd6fb45cc95cda2ad","condition":"contingent","relevant_dimensions":["antennae","wings"],"bee_group":{"antennae":"B","wings":"1","pattern":"X","legs":"X"},"bonus":0.48000000000000087},{"rt":1347.3999999761581,"stimulus":"bees-with-color/bee-B1SF.svg","response":1,"trial_type":"image-button-response","trial_index":47,"time_elapsed":218413,"internal_node_id":"0.0-4.0-0.20","subject_id":"5fca9266ba48b36c6e8198e3","study_id":"6197b3f67c2b5cd3b6d9596a","session_id":"619be58dd6fb45cc95cda2ad","condition":"contingent","relevant_dimensions":["antennae","wings"],"bee_group":{"antennae":"B","wings":"1","pattern":"X","legs":"X"},"action":"avoid","summary":"good-avoid","bonus":0.48000000000000087},{"rt":604.9000000953674,"stimulus":"\n                    <p><b>Action: <em>avoid</em></b></p>\n                    <p>This is the bee that you just saw.</p>\n                    <img src=\"bees-with-color/bee-B1SF.svg\" width=\"200\">\n                    <p><br>Your bonus pay is unchanged, and remains at $0.44.</p>\n            ","response":0,"trial_type":"html-button-response","trial_index":48,"time_elapsed":219022,"internal_node_id":"0.0-4.0-1.20","subject_id":"5fca9266ba48b36c6e8198e3","study_id":"6197b3f67c2b5cd3b6d9596a","session_id":"619be58dd6fb45cc95cda2ad","condition":"contingent","relevant_dimensions":["antennae","wings"],"bee_group":{"antennae":"B","wings":"1","pattern":"X","legs":"X"},"bonus":0.48000000000000087},{"rt":1133.8000000715256,"stimulus":"bees-with-color/bee-A1DF.svg","response":0,"trial_type":"image-button-response","trial_index":49,"time_elapsed":220158,"internal_node_id":"0.0-4.0-0.21","subject_id":"5fca9266ba48b36c6e8198e3","study_id":"6197b3f67c2b5cd3b6d9596a","session_id":"619be58dd6fb45cc95cda2ad","condition":"contingent","relevant_dimensions":["antennae","wings"],"bee_group":{"antennae":"B","wings":"1","pattern":"X","legs":"X"},"action":"harvest","summary":"good-harvest","bonus":0.48000000000000087},{"rt":771.8999999761581,"stimulus":"\n                    <p><b>Action: <em>harvest</em></b></p>\n                    <p>This is the bee that you just saw.</p>\n                    <img src=\"bees-with-color/bee-A1DF.svg\" width=\"200\">\n                    <p><span class=\"greenText\"><b>Successful harvest!</b></span><br>Your pay has increased by $0.02. Your bonus pay is now $0.46.</p>\n            ","response":0,"trial_type":"html-button-response","trial_index":50,"time_elapsed":220932,"internal_node_id":"0.0-4.0-1.21","subject_id":"5fca9266ba48b36c6e8198e3","study_id":"6197b3f67c2b5cd3b6d9596a","session_id":"619be58dd6fb45cc95cda2ad","condition":"contingent","relevant_dimensions":["antennae","wings"],"bee_group":{"antennae":"B","wings":"1","pattern":"X","legs":"X"},"bonus":0.48000000000000087},{"rt":1072.3999999761581,"stimulus":"bees-with-color/bee-B1DF.svg","response":0,"trial_type":"image-button-response","trial_index":51,"time_elapsed":222007,"internal_node_id":"0.0-4.0-0.22","subject_id":"5fca9266ba48b36c6e8198e3","study_id":"6197b3f67c2b5cd3b6d9596a","session_id":"619be58dd6fb45cc95cda2ad","condition":"contingent","relevant_dimensions":["antennae","wings"],"bee_group":{"antennae":"B","wings":"1","pattern":"X","legs":"X"},"action":"harvest","summary":"bad-harvest","bonus":0.48000000000000087},{"rt":860.7999999523163,"stimulus":"\n                    <p><b>Action: <em>harvest</em></b></p>\n                    <p>This is the bee that you just saw.</p>\n                    <img src=\"bees-with-color/bee-B1DF.svg\" width=\"200\">\n                    <p><span class=\"redText\">Bad choice, the bee was angry.</span><br><b>You have been stung!</b><br>Your pay has been decreased by $0.10. Your bonus pay is now $0.36.</p>\n            ","response":0,"trial_type":"html-button-response","trial_index":52,"time_elapsed":222870,"internal_node_id":"0.0-4.0-1.22","subject_id":"5fca9266ba48b36c6e8198e3","study_id":"6197b3f67c2b5cd3b6d9596a","session_id":"619be58dd6fb45cc95cda2ad","condition":"contingent","relevant_dimensions":["antennae","wings"],"bee_group":{"antennae":"B","wings":"1","pattern":"X","legs":"X"},"bonus":0.48000000000000087},{"rt":930.9000000953674,"stimulus":"bees-with-color/bee-A2DM.svg","response":0,"trial_type":"image-button-response","trial_index":53,"time_elapsed":223803,"internal_node_id":"0.0-4.0-0.23","subject_id":"5fca9266ba48b36c6e8198e3","study_id":"6197b3f67c2b5cd3b6d9596a","session_id":"619be58dd6fb45cc95cda2ad","condition":"contingent","relevant_dimensions":["antennae","wings"],"bee_group":{"antennae":"B","wings":"1","pattern":"X","legs":"X"},"action":"harvest","summary":"good-harvest","bonus":0.48000000000000087},{"rt":554.3000000715256,"stimulus":"\n                    <p><b>Action: <em>harvest</em></b></p>\n                    <p>This is the bee that you just saw.</p>\n                    <img src=\"bees-with-color/bee-A2DM.svg\" width=\"200\">\n                    <p><span class=\"greenText\"><b>Successful harvest!</b></span><br>Your pay has increased by $0.02. Your bonus pay is now $0.38.</p>\n            ","response":0,"trial_type":"html-button-response","trial_index":54,"time_elapsed":224358,"internal_node_id":"0.0-4.0-1.23","subject_id":"5fca9266ba48b36c6e8198e3","study_id":"6197b3f67c2b5cd3b6d9596a","session_id":"619be58dd6fb45cc95cda2ad","condition":"contingent","relevant_dimensions":["antennae","wings"],"bee_group":{"antennae":"B","wings":"1","pattern":"X","legs":"X"},"bonus":0.48000000000000087},{"rt":471.59999990463257,"stimulus":"bees-with-color/bee-A1SF.svg","response":0,"trial_type":"image-button-response","trial_index":55,"time_elapsed":224831,"internal_node_id":"0.0-4.0-0.24","subject_id":"5fca9266ba48b36c6e8198e3","study_id":"6197b3f67c2b5cd3b6d9596a","session_id":"619be58dd6fb45cc95cda2ad","condition":"contingent","relevant_dimensions":["antennae","wings"],"bee_group":{"antennae":"B","wings":"1","pattern":"X","legs":"X"},"action":"harvest","summary":"good-harvest","bonus":0.48000000000000087},{"rt":452.09999990463257,"stimulus":"\n                    <p><b>Action: <em>harvest</em></b></p>\n                    <p>This is the bee that you just saw.</p>\n                    <img src=\"bees-with-color/bee-A1SF.svg\" width=\"200\">\n                    <p><span class=\"greenText\"><b>Successful harvest!</b></span><br>Your pay has increased by $0.02. Your bonus pay is now $0.40.</p>\n            ","response":0,"trial_type":"html-button-response","trial_index":56,"time_elapsed":225285,"internal_node_id":"0.0-4.0-1.24","subject_id":"5fca9266ba48b36c6e8198e3","study_id":"6197b3f67c2b5cd3b6d9596a","session_id":"619be58dd6fb45cc95cda2ad","condition":"contingent","relevant_dimensions":["antennae","wings"],"bee_group":{"antennae":"B","wings":"1","pattern":"X","legs":"X"},"bonus":0.48000000000000087},{"rt":590.1000000238419,"stimulus":"bees-with-color/bee-A2SF.svg","response":0,"trial_type":"image-button-response","trial_index":57,"time_elapsed":225876,"internal_node_id":"0.0-4.0-0.25","subject_id":"5fca9266ba48b36c6e8198e3","study_id":"6197b3f67c2b5cd3b6d9596a","session_id":"619be58dd6fb45cc95cda2ad","condition":"contingent","relevant_dimensions":["antennae","wings"],"bee_group":{"antennae":"B","wings":"1","pattern":"X","legs":"X"},"action":"harvest","summary":"good-harvest","bonus":0.48000000000000087},{"rt":579.5,"stimulus":"\n                    <p><b>Action: <em>harvest</em></b></p>\n                    <p>This is the bee that you just saw.</p>\n                    <img src=\"bees-with-color/bee-A2SF.svg\" width=\"200\">\n                    <p><span class=\"greenText\"><b>Successful harvest!</b></span><br>Your pay has increased by $0.02. Your bonus pay is now $0.42.</p>\n            ","response":0,"trial_type":"html-button-response","trial_index":58,"time_elapsed":226459,"internal_node_id":"0.0-4.0-1.25","subject_id":"5fca9266ba48b36c6e8198e3","study_id":"6197b3f67c2b5cd3b6d9596a","session_id":"619be58dd6fb45cc95cda2ad","condition":"contingent","relevant_dimensions":["antennae","wings"],"bee_group":{"antennae":"B","wings":"1","pattern":"X","legs":"X"},"bonus":0.48000000000000087},{"rt":1180,"stimulus":"bees-with-color/bee-B1SM.svg","response":0,"trial_type":"image-button-response","trial_index":59,"time_elapsed":227640,"internal_node_id":"0.0-4.0-0.26","subject_id":"5fca9266ba48b36c6e8198e3","study_id":"6197b3f67c2b5cd3b6d9596a","session_id":"619be58dd6fb45cc95cda2ad","condition":"contingent","relevant_dimensions":["antennae","wings"],"bee_group":{"antennae":"B","wings":"1","pattern":"X","legs":"X"},"action":"harvest","summary":"bad-harvest","bonus":0.48000000000000087},{"rt":790.3999999761581,"stimulus":"\n                    <p><b>Action: <em>harvest</em></b></p>\n                    <p>This is the bee that you just saw.</p>\n                    <img src=\"bees-with-color/bee-B1SM.svg\" width=\"200\">\n                    <p><span class=\"redText\">Bad choice, the bee was angry.</span><br><b>You have been stung!</b><br>Your pay has been decreased by $0.10. Your bonus pay is now $0.32.</p>\n            ","response":0,"trial_type":"html-button-response","trial_index":60,"time_elapsed":228434,"internal_node_id":"0.0-4.0-1.26","subject_id":"5fca9266ba48b36c6e8198e3","study_id":"6197b3f67c2b5cd3b6d9596a","session_id":"619be58dd6fb45cc95cda2ad","condition":"contingent","relevant_dimensions":["antennae","wings"],"bee_group":{"antennae":"B","wings":"1","pattern":"X","legs":"X"},"bonus":0.48000000000000087},{"rt":502.7999999523163,"stimulus":"bees-with-color/bee-B1DM.svg","response":0,"trial_type":"image-button-response","trial_index":61,"time_elapsed":228938,"internal_node_id":"0.0-4.0-0.27","subject_id":"5fca9266ba48b36c6e8198e3","study_id":"6197b3f67c2b5cd3b6d9596a","session_id":"619be58dd6fb45cc95cda2ad","condition":"contingent","relevant_dimensions":["antennae","wings"],"bee_group":{"antennae":"B","wings":"1","pattern":"X","legs":"X"},"action":"harvest","summary":"bad-harvest","bonus":0.48000000000000087},{"rt":709.3999999761581,"stimulus":"\n                    <p><b>Action: <em>harvest</em></b></p>\n                    <p>This is the bee that you just saw.</p>\n                    <img src=\"bees-with-color/bee-B1DM.svg\" width=\"200\">\n                    <p><span class=\"redText\">Bad choice, the bee was angry.</span><br><b>You have been stung!</b><br>Your pay has been decreased by $0.10. Your bonus pay is now $0.22.</p>\n            ","response":0,"trial_type":"html-button-response","trial_index":62,"time_elapsed":229649,"internal_node_id":"0.0-4.0-1.27","subject_id":"5fca9266ba48b36c6e8198e3","study_id":"6197b3f67c2b5cd3b6d9596a","session_id":"619be58dd6fb45cc95cda2ad","condition":"contingent","relevant_dimensions":["antennae","wings"],"bee_group":{"antennae":"B","wings":"1","pattern":"X","legs":"X"},"bonus":0.48000000000000087},{"rt":629.2999999523163,"stimulus":"bees-with-color/bee-A2SM.svg","response":0,"trial_type":"image-button-response","trial_index":63,"time_elapsed":230281,"internal_node_id":"0.0-4.0-0.28","subject_id":"5fca9266ba48b36c6e8198e3","study_id":"6197b3f67c2b5cd3b6d9596a","session_id":"619be58dd6fb45cc95cda2ad","condition":"contingent","relevant_dimensions":["antennae","wings"],"bee_group":{"antennae":"B","wings":"1","pattern":"X","legs":"X"},"action":"harvest","summary":"good-harvest","bonus":0.48000000000000087},{"rt":720.6000000238419,"stimulus":"\n                    <p><b>Action: <em>harvest</em></b></p>\n                    <p>This is the bee that you just saw.</p>\n                    <img src=\"bees-with-color/bee-A2SM.svg\" width=\"200\">\n                    <p><span class=\"greenText\"><b>Successful harvest!</b></span><br>Your pay has increased by $0.02. Your bonus pay is now $0.24.</p>\n            ","response":0,"trial_type":"html-button-response","trial_index":64,"time_elapsed":231005,"internal_node_id":"0.0-4.0-1.28","subject_id":"5fca9266ba48b36c6e8198e3","study_id":"6197b3f67c2b5cd3b6d9596a","session_id":"619be58dd6fb45cc95cda2ad","condition":"contingent","relevant_dimensions":["antennae","wings"],"bee_group":{"antennae":"B","wings":"1","pattern":"X","legs":"X"},"bonus":0.48000000000000087},{"rt":1789.1000000238419,"stimulus":"bees-with-color/bee-B2DM.svg","response":0,"trial_type":"image-button-response","trial_index":65,"time_elapsed":232797,"internal_node_id":"0.0-4.0-0.29","subject_id":"5fca9266ba48b36c6e8198e3","study_id":"6197b3f67c2b5cd3b6d9596a","session_id":"619be58dd6fb45cc95cda2ad","condition":"contingent","relevant_dimensions":["antennae","wings"],"bee_group":{"antennae":"B","wings":"1","pattern":"X","legs":"X"},"action":"harvest","summary":"good-harvest","bonus":0.48000000000000087},{"rt":698.6999999284744,"stimulus":"\n                    <p><b>Action: <em>harvest</em></b></p>\n                    <p>This is the bee that you just saw.</p>\n                    <img src=\"bees-with-color/bee-B2DM.svg\" width=\"200\">\n                    <p><span class=\"greenText\"><b>Successful harvest!</b></span><br>Your pay has increased by $0.02. Your bonus pay is now $0.26.</p>\n            ","response":0,"trial_type":"html-button-response","trial_index":66,"time_elapsed":233498,"internal_node_id":"0.0-4.0-1.29","subject_id":"5fca9266ba48b36c6e8198e3","study_id":"6197b3f67c2b5cd3b6d9596a","session_id":"619be58dd6fb45cc95cda2ad","condition":"contingent","relevant_dimensions":["antennae","wings"],"bee_group":{"antennae":"B","wings":"1","pattern":"X","legs":"X"},"bonus":0.48000000000000087},{"rt":1078.1999999284744,"stimulus":"bees-with-color/bee-A1DM.svg","response":0,"trial_type":"image-button-response","trial_index":67,"time_elapsed":234581,"internal_node_id":"0.0-4.0-0.30","subject_id":"5fca9266ba48b36c6e8198e3","study_id":"6197b3f67c2b5cd3b6d9596a","session_id":"619be58dd6fb45cc95cda2ad","condition":"contingent","relevant_dimensions":["antennae","wings"],"bee_group":{"antennae":"B","wings":"1","pattern":"X","legs":"X"},"action":"harvest","summary":"good-harvest","bonus":0.48000000000000087},{"rt":713,"stimulus":"\n                    <p><b>Action: <em>harvest</em></b></p>\n                    <p>This is the bee that you just saw.</p>\n                    <img src=\"bees-with-color/bee-A1DM.svg\" width=\"200\">\n                    <p><span class=\"greenText\"><b>Successful harvest!</b></span><br>Your pay has increased by $0.02. Your bonus pay is now $0.28.</p>\n            ","response":0,"trial_type":"html-button-response","trial_index":68,"time_elapsed":235297,"internal_node_id":"0.0-4.0-1.30","subject_id":"5fca9266ba48b36c6e8198e3","study_id":"6197b3f67c2b5cd3b6d9596a","session_id":"619be58dd6fb45cc95cda2ad","condition":"contingent","relevant_dimensions":["antennae","wings"],"bee_group":{"antennae":"B","wings":"1","pattern":"X","legs":"X"},"bonus":0.48000000000000087},{"rt":1373.1000000238419,"stimulus":"bees-with-color/bee-A2DF.svg","response":0,"trial_type":"image-button-response","trial_index":69,"time_elapsed":236673,"internal_node_id":"0.0-4.0-0.31","subject_id":"5fca9266ba48b36c6e8198e3","study_id":"6197b3f67c2b5cd3b6d9596a","session_id":"619be58dd6fb45cc95cda2ad","condition":"contingent","relevant_dimensions":["antennae","wings"],"bee_group":{"antennae":"B","wings":"1","pattern":"X","legs":"X"},"action":"harvest","summary":"good-harvest","bonus":0.48000000000000087},{"rt":790.7000000476837,"stimulus":"\n                    <p><b>Action: <em>harvest</em></b></p>\n                    <p>This is the bee that you just saw.</p>\n                    <img src=\"bees-with-color/bee-A2DF.svg\" width=\"200\">\n                    <p><span class=\"greenText\"><b>Successful harvest!</b></span><br>Your pay has increased by $0.02. Your bonus pay is now $0.30.</p>\n            ","response":0,"trial_type":"html-button-response","trial_index":70,"time_elapsed":237466,"internal_node_id":"0.0-4.0-1.31","subject_id":"5fca9266ba48b36c6e8198e3","study_id":"6197b3f67c2b5cd3b6d9596a","session_id":"619be58dd6fb45cc95cda2ad","condition":"contingent","relevant_dimensions":["antennae","wings"],"bee_group":{"antennae":"B","wings":"1","pattern":"X","legs":"X"},"bonus":0.48000000000000087},{"rt":997.3999999761581,"stimulus":"bees-with-color/bee-B2SM.svg","response":1,"trial_type":"image-button-response","trial_index":71,"time_elapsed":238464,"internal_node_id":"0.0-4.0-0.32","subject_id":"5fca9266ba48b36c6e8198e3","study_id":"6197b3f67c2b5cd3b6d9596a","session_id":"619be58dd6fb45cc95cda2ad","condition":"contingent","relevant_dimensions":["antennae","wings"],"bee_group":{"antennae":"B","wings":"1","pattern":"X","legs":"X"},"action":"avoid","summary":"bad-avoid","bonus":0.48000000000000087},{"rt":534.8999999761581,"stimulus":"\n                    <p><b>Action: <em>avoid</em></b></p>\n                    <p>This is the bee that you just saw.</p>\n                    <img src=\"bees-with-color/bee-B2SM.svg\" width=\"200\">\n                    <p><br>Your bonus pay is unchanged, and remains at $0.30.</p>\n            ","response":0,"trial_type":"html-button-response","trial_index":72,"time_elapsed":239000,"internal_node_id":"0.0-4.0-1.32","subject_id":"5fca9266ba48b36c6e8198e3","study_id":"6197b3f67c2b5cd3b6d9596a","session_id":"619be58dd6fb45cc95cda2ad","condition":"contingent","relevant_dimensions":["antennae","wings"],"bee_group":{"antennae":"B","wings":"1","pattern":"X","legs":"X"},"bonus":0.48000000000000087},{"rt":979.6000000238419,"stimulus":"bees-with-color/bee-B2DF.svg","response":0,"trial_type":"image-button-response","trial_index":73,"time_elapsed":239983,"internal_node_id":"0.0-4.0-0.33","subject_id":"5fca9266ba48b36c6e8198e3","study_id":"6197b3f67c2b5cd3b6d9596a","session_id":"619be58dd6fb45cc95cda2ad","condition":"contingent","relevant_dimensions":["antennae","wings"],"bee_group":{"antennae":"B","wings":"1","pattern":"X","legs":"X"},"action":"harvest","summary":"good-harvest","bonus":0.48000000000000087},{"rt":641.2999999523163,"stimulus":"\n                    <p><b>Action: <em>harvest</em></b></p>\n                    <p>This is the bee that you just saw.</p>\n                    <img src=\"bees-with-color/bee-B2DF.svg\" width=\"200\">\n                    <p><span class=\"greenText\"><b>Successful harvest!</b></span><br>Your pay has increased by $0.02. Your bonus pay is now $0.32.</p>\n            ","response":0,"trial_type":"html-button-response","trial_index":74,"time_elapsed":240629,"internal_node_id":"0.0-4.0-1.33","subject_id":"5fca9266ba48b36c6e8198e3","study_id":"6197b3f67c2b5cd3b6d9596a","session_id":"619be58dd6fb45cc95cda2ad","condition":"contingent","relevant_dimensions":["antennae","wings"],"bee_group":{"antennae":"B","wings":"1","pattern":"X","legs":"X"},"bonus":0.48000000000000087},{"rt":1211.7999999523163,"stimulus":"bees-with-color/bee-B1SM.svg","response":1,"trial_type":"image-button-response","trial_index":75,"time_elapsed":241844,"internal_node_id":"0.0-4.0-0.34","subject_id":"5fca9266ba48b36c6e8198e3","study_id":"6197b3f67c2b5cd3b6d9596a","session_id":"619be58dd6fb45cc95cda2ad","condition":"contingent","relevant_dimensions":["antennae","wings"],"bee_group":{"antennae":"B","wings":"1","pattern":"X","legs":"X"},"action":"avoid","summary":"good-avoid","bonus":0.48000000000000087},{"rt":601.0999999046326,"stimulus":"\n                    <p><b>Action: <em>avoid</em></b></p>\n                    <p>This is the bee that you just saw.</p>\n                    <img src=\"bees-with-color/bee-B1SM.svg\" width=\"200\">\n                    <p><br>Your bonus pay is unchanged, and remains at $0.32.</p>\n            ","response":0,"trial_type":"html-button-response","trial_index":76,"time_elapsed":242448,"internal_node_id":"0.0-4.0-1.34","subject_id":"5fca9266ba48b36c6e8198e3","study_id":"6197b3f67c2b5cd3b6d9596a","session_id":"619be58dd6fb45cc95cda2ad","condition":"contingent","relevant_dimensions":["antennae","wings"],"bee_group":{"antennae":"B","wings":"1","pattern":"X","legs":"X"},"bonus":0.48000000000000087},{"rt":1360,"stimulus":"bees-with-color/bee-A1SM.svg","response":1,"trial_type":"image-button-response","trial_index":77,"time_elapsed":243811,"internal_node_id":"0.0-4.0-0.35","subject_id":"5fca9266ba48b36c6e8198e3","study_id":"6197b3f67c2b5cd3b6d9596a","session_id":"619be58dd6fb45cc95cda2ad","condition":"contingent","relevant_dimensions":["antennae","wings"],"bee_group":{"antennae":"B","wings":"1","pattern":"X","legs":"X"},"action":"avoid","summary":"bad-avoid","bonus":0.48000000000000087},{"rt":655.7999999523163,"stimulus":"\n                    <p><b>Action: <em>avoid</em></b></p>\n                    <p>This is the bee that you just saw.</p>\n                    <img src=\"bees-with-color/bee-A1SM.svg\" width=\"200\">\n                    <p><br>Your bonus pay is unchanged, and remains at $0.32.</p>\n            ","response":0,"trial_type":"html-button-response","trial_index":78,"time_elapsed":244470,"internal_node_id":"0.0-4.0-1.35","subject_id":"5fca9266ba48b36c6e8198e3","study_id":"6197b3f67c2b5cd3b6d9596a","session_id":"619be58dd6fb45cc95cda2ad","condition":"contingent","relevant_dimensions":["antennae","wings"],"bee_group":{"antennae":"B","wings":"1","pattern":"X","legs":"X"},"bonus":0.48000000000000087},{"rt":924.8999999761581,"stimulus":"bees-with-color/bee-A2DM.svg","response":0,"trial_type":"image-button-response","trial_index":79,"time_elapsed":245398,"internal_node_id":"0.0-4.0-0.36","subject_id":"5fca9266ba48b36c6e8198e3","study_id":"6197b3f67c2b5cd3b6d9596a","session_id":"619be58dd6fb45cc95cda2ad","condition":"contingent","relevant_dimensions":["antennae","wings"],"bee_group":{"antennae":"B","wings":"1","pattern":"X","legs":"X"},"action":"harvest","summary":"good-harvest","bonus":0.48000000000000087},{"rt":869.1000000238419,"stimulus":"\n                    <p><b>Action: <em>harvest</em></b></p>\n                    <p>This is the bee that you just saw.</p>\n                    <img src=\"bees-with-color/bee-A2DM.svg\" width=\"200\">\n                    <p><span class=\"greenText\"><b>Successful harvest!</b></span><br>Your pay has increased by $0.02. Your bonus pay is now $0.34.</p>\n            ","response":0,"trial_type":"html-button-response","trial_index":80,"time_elapsed":246269,"internal_node_id":"0.0-4.0-1.36","subject_id":"5fca9266ba48b36c6e8198e3","study_id":"6197b3f67c2b5cd3b6d9596a","session_id":"619be58dd6fb45cc95cda2ad","condition":"contingent","relevant_dimensions":["antennae","wings"],"bee_group":{"antennae":"B","wings":"1","pattern":"X","legs":"X"},"bonus":0.48000000000000087},{"rt":2849.100000023842,"stimulus":"bees-with-color/bee-B1DM.svg","response":1,"trial_type":"image-button-response","trial_index":81,"time_elapsed":249120,"internal_node_id":"0.0-4.0-0.37","subject_id":"5fca9266ba48b36c6e8198e3","study_id":"6197b3f67c2b5cd3b6d9596a","session_id":"619be58dd6fb45cc95cda2ad","condition":"contingent","relevant_dimensions":["antennae","wings"],"bee_group":{"antennae":"B","wings":"1","pattern":"X","legs":"X"},"action":"avoid","summary":"good-avoid","bonus":0.48000000000000087},{"rt":491.09999990463257,"stimulus":"\n                    <p><b>Action: <em>avoid</em></b></p>\n                    <p>This is the bee that you just saw.</p>\n                    <img src=\"bees-with-color/bee-B1DM.svg\" width=\"200\">\n                    <p><br>Your bonus pay is unchanged, and remains at $0.34.</p>\n            ","response":0,"trial_type":"html-button-response","trial_index":82,"time_elapsed":249612,"internal_node_id":"0.0-4.0-1.37","subject_id":"5fca9266ba48b36c6e8198e3","study_id":"6197b3f67c2b5cd3b6d9596a","session_id":"619be58dd6fb45cc95cda2ad","condition":"contingent","relevant_dimensions":["antennae","wings"],"bee_group":{"antennae":"B","wings":"1","pattern":"X","legs":"X"},"bonus":0.48000000000000087},{"rt":1844,"stimulus":"bees-with-color/bee-A2SM.svg","response":1,"trial_type":"image-button-response","trial_index":83,"time_elapsed":251459,"internal_node_id":"0.0-4.0-0.38","subject_id":"5fca9266ba48b36c6e8198e3","study_id":"6197b3f67c2b5cd3b6d9596a","session_id":"619be58dd6fb45cc95cda2ad","condition":"contingent","relevant_dimensions":["antennae","wings"],"bee_group":{"antennae":"B","wings":"1","pattern":"X","legs":"X"},"action":"avoid","summary":"bad-avoid","bonus":0.48000000000000087},{"rt":453.89999997615814,"stimulus":"\n                    <p><b>Action: <em>avoid</em></b></p>\n                    <p>This is the bee that you just saw.</p>\n                    <img src=\"bees-with-color/bee-A2SM.svg\" width=\"200\">\n                    <p><br>Your bonus pay is unchanged, and remains at $0.34.</p>\n            ","response":0,"trial_type":"html-button-response","trial_index":84,"time_elapsed":251916,"internal_node_id":"0.0-4.0-1.38","subject_id":"5fca9266ba48b36c6e8198e3","study_id":"6197b3f67c2b5cd3b6d9596a","session_id":"619be58dd6fb45cc95cda2ad","condition":"contingent","relevant_dimensions":["antennae","wings"],"bee_group":{"antennae":"B","wings":"1","pattern":"X","legs":"X"},"bonus":0.48000000000000087},{"rt":1578.2000000476837,"stimulus":"bees-with-color/bee-A1SF.svg","response":1,"trial_type":"image-button-response","trial_index":85,"time_elapsed":253497,"internal_node_id":"0.0-4.0-0.39","subject_id":"5fca9266ba48b36c6e8198e3","study_id":"6197b3f67c2b5cd3b6d9596a","session_id":"619be58dd6fb45cc95cda2ad","condition":"contingent","relevant_dimensions":["antennae","wings"],"bee_group":{"antennae":"B","wings":"1","pattern":"X","legs":"X"},"action":"avoid","summary":"bad-avoid","bonus":0.48000000000000087},{"rt":656.5,"stimulus":"\n                    <p><b>Action: <em>avoid</em></b></p>\n                    <p>This is the bee that you just saw.</p>\n                    <img src=\"bees-with-color/bee-A1SF.svg\" width=\"200\">\n                    <p><br>Your bonus pay is unchanged, and remains at $0.34.</p>\n            ","response":0,"trial_type":"html-button-response","trial_index":86,"time_elapsed":254156,"internal_node_id":"0.0-4.0-1.39","subject_id":"5fca9266ba48b36c6e8198e3","study_id":"6197b3f67c2b5cd3b6d9596a","session_id":"619be58dd6fb45cc95cda2ad","condition":"contingent","relevant_dimensions":["antennae","wings"],"bee_group":{"antennae":"B","wings":"1","pattern":"X","legs":"X"},"bonus":0.48000000000000087},{"rt":1606.1000000238419,"stimulus":"bees-with-color/bee-A2DF.svg","response":0,"trial_type":"image-button-response","trial_index":87,"time_elapsed":255765,"internal_node_id":"0.0-4.0-0.40","subject_id":"5fca9266ba48b36c6e8198e3","study_id":"6197b3f67c2b5cd3b6d9596a","session_id":"619be58dd6fb45cc95cda2ad","condition":"contingent","relevant_dimensions":["antennae","wings"],"bee_group":{"antennae":"B","wings":"1","pattern":"X","legs":"X"},"action":"harvest","summary":"good-harvest","bonus":0.48000000000000087},{"rt":792,"stimulus":"\n                    <p><b>Action: <em>harvest</em></b></p>\n                    <p>This is the bee that you just saw.</p>\n                    <img src=\"bees-with-color/bee-A2DF.svg\" width=\"200\">\n                    <p><span class=\"greenText\"><b>Successful harvest!</b></span><br>Your pay has increased by $0.02. Your bonus pay is now $0.36.</p>\n            ","response":0,"trial_type":"html-button-response","trial_index":88,"time_elapsed":256558,"internal_node_id":"0.0-4.0-1.40","subject_id":"5fca9266ba48b36c6e8198e3","study_id":"6197b3f67c2b5cd3b6d9596a","session_id":"619be58dd6fb45cc95cda2ad","condition":"contingent","relevant_dimensions":["antennae","wings"],"bee_group":{"antennae":"B","wings":"1","pattern":"X","legs":"X"},"bonus":0.48000000000000087},{"rt":2300.2999999523163,"stimulus":"bees-with-color/bee-B1DF.svg","response":0,"trial_type":"image-button-response","trial_index":89,"time_elapsed":258861,"internal_node_id":"0.0-4.0-0.41","subject_id":"5fca9266ba48b36c6e8198e3","study_id":"6197b3f67c2b5cd3b6d9596a","session_id":"619be58dd6fb45cc95cda2ad","condition":"contingent","relevant_dimensions":["antennae","wings"],"bee_group":{"antennae":"B","wings":"1","pattern":"X","legs":"X"},"action":"harvest","summary":"bad-harvest","bonus":0.48000000000000087},{"rt":975.3999999761581,"stimulus":"\n                    <p><b>Action: <em>harvest</em></b></p>\n                    <p>This is the bee that you just saw.</p>\n                    <img src=\"bees-with-color/bee-B1DF.svg\" width=\"200\">\n                    <p><span class=\"redText\">Bad choice, the bee was angry.</span><br><b>You have been stung!</b><br>Your pay has been decreased by $0.10. Your bonus pay is now $0.26.</p>\n            ","response":0,"trial_type":"html-button-response","trial_index":90,"time_elapsed":259838,"internal_node_id":"0.0-4.0-1.41","subject_id":"5fca9266ba48b36c6e8198e3","study_id":"6197b3f67c2b5cd3b6d9596a","session_id":"619be58dd6fb45cc95cda2ad","condition":"contingent","relevant_dimensions":["antennae","wings"],"bee_group":{"antennae":"B","wings":"1","pattern":"X","legs":"X"},"bonus":0.48000000000000087},{"rt":778.2000000476837,"stimulus":"bees-with-color/bee-B2DM.svg","response":0,"trial_type":"image-button-response","trial_index":91,"time_elapsed":260618,"internal_node_id":"0.0-4.0-0.42","subject_id":"5fca9266ba48b36c6e8198e3","study_id":"6197b3f67c2b5cd3b6d9596a","session_id":"619be58dd6fb45cc95cda2ad","condition":"contingent","relevant_dimensions":["antennae","wings"],"bee_group":{"antennae":"B","wings":"1","pattern":"X","legs":"X"},"action":"harvest","summary":"good-harvest","bonus":0.48000000000000087},{"rt":552.3999999761581,"stimulus":"\n                    <p><b>Action: <em>harvest</em></b></p>\n                    <p>This is the bee that you just saw.</p>\n                    <img src=\"bees-with-color/bee-B2DM.svg\" width=\"200\">\n                    <p><span class=\"greenText\"><b>Successful harvest!</b></span><br>Your pay has increased by $0.02. Your bonus pay is now $0.28.</p>\n            ","response":0,"trial_type":"html-button-response","trial_index":92,"time_elapsed":261173,"internal_node_id":"0.0-4.0-1.42","subject_id":"5fca9266ba48b36c6e8198e3","study_id":"6197b3f67c2b5cd3b6d9596a","session_id":"619be58dd6fb45cc95cda2ad","condition":"contingent","relevant_dimensions":["antennae","wings"],"bee_group":{"antennae":"B","wings":"1","pattern":"X","legs":"X"},"bonus":0.48000000000000087},{"rt":664.6000000238419,"stimulus":"bees-with-color/bee-A2SF.svg","response":0,"trial_type":"image-button-response","trial_index":93,"time_elapsed":261841,"internal_node_id":"0.0-4.0-0.43","subject_id":"5fca9266ba48b36c6e8198e3","study_id":"6197b3f67c2b5cd3b6d9596a","session_id":"619be58dd6fb45cc95cda2ad","condition":"contingent","relevant_dimensions":["antennae","wings"],"bee_group":{"antennae":"B","wings":"1","pattern":"X","legs":"X"},"action":"harvest","summary":"good-harvest","bonus":0.48000000000000087},{"rt":734,"stimulus":"\n                    <p><b>Action: <em>harvest</em></b></p>\n                    <p>This is the bee that you just saw.</p>\n                    <img src=\"bees-with-color/bee-A2SF.svg\" width=\"200\">\n                    <p><span class=\"greenText\"><b>Successful harvest!</b></span><br>Your pay has increased by $0.02. Your bonus pay is now $0.30.</p>\n            ","response":0,"trial_type":"html-button-response","trial_index":94,"time_elapsed":262579,"internal_node_id":"0.0-4.0-1.43","subject_id":"5fca9266ba48b36c6e8198e3","study_id":"6197b3f67c2b5cd3b6d9596a","session_id":"619be58dd6fb45cc95cda2ad","condition":"contingent","relevant_dimensions":["antennae","wings"],"bee_group":{"antennae":"B","wings":"1","pattern":"X","legs":"X"},"bonus":0.48000000000000087},{"rt":1513.8999999761581,"stimulus":"bees-with-color/bee-A1DF.svg","response":0,"trial_type":"image-button-response","trial_index":95,"time_elapsed":264096,"internal_node_id":"0.0-4.0-0.44","subject_id":"5fca9266ba48b36c6e8198e3","study_id":"6197b3f67c2b5cd3b6d9596a","session_id":"619be58dd6fb45cc95cda2ad","condition":"contingent","relevant_dimensions":["antennae","wings"],"bee_group":{"antennae":"B","wings":"1","pattern":"X","legs":"X"},"action":"harvest","summary":"good-harvest","bonus":0.48000000000000087},{"rt":571.5,"stimulus":"\n                    <p><b>Action: <em>harvest</em></b></p>\n                    <p>This is the bee that you just saw.</p>\n                    <img src=\"bees-with-color/bee-A1DF.svg\" width=\"200\">\n                    <p><span class=\"greenText\"><b>Successful harvest!</b></span><br>Your pay has increased by $0.02. Your bonus pay is now $0.32.</p>\n            ","response":0,"trial_type":"html-button-response","trial_index":96,"time_elapsed":264671,"internal_node_id":"0.0-4.0-1.44","subject_id":"5fca9266ba48b36c6e8198e3","study_id":"6197b3f67c2b5cd3b6d9596a","session_id":"619be58dd6fb45cc95cda2ad","condition":"contingent","relevant_dimensions":["antennae","wings"],"bee_group":{"antennae":"B","wings":"1","pattern":"X","legs":"X"},"bonus":0.48000000000000087},{"rt":671,"stimulus":"bees-with-color/bee-A1DM.svg","response":1,"trial_type":"image-button-response","trial_index":97,"time_elapsed":265346,"internal_node_id":"0.0-4.0-0.45","subject_id":"5fca9266ba48b36c6e8198e3","study_id":"6197b3f67c2b5cd3b6d9596a","session_id":"619be58dd6fb45cc95cda2ad","condition":"contingent","relevant_dimensions":["antennae","wings"],"bee_group":{"antennae":"B","wings":"1","pattern":"X","legs":"X"},"action":"avoid","summary":"bad-avoid","bonus":0.48000000000000087},{"rt":480.7999999523163,"stimulus":"\n                    <p><b>Action: <em>avoid</em></b></p>\n                    <p>This is the bee that you just saw.</p>\n                    <img src=\"bees-with-color/bee-A1DM.svg\" width=\"200\">\n                    <p><br>Your bonus pay is unchanged, and remains at $0.32.</p>\n            ","response":0,"trial_type":"html-button-response","trial_index":98,"time_elapsed":265831,"internal_node_id":"0.0-4.0-1.45","subject_id":"5fca9266ba48b36c6e8198e3","study_id":"6197b3f67c2b5cd3b6d9596a","session_id":"619be58dd6fb45cc95cda2ad","condition":"contingent","relevant_dimensions":["antennae","wings"],"bee_group":{"antennae":"B","wings":"1","pattern":"X","legs":"X"},"bonus":0.48000000000000087},{"rt":1719.3000000715256,"stimulus":"bees-with-color/bee-B1SF.svg","response":1,"trial_type":"image-button-response","trial_index":99,"time_elapsed":267554,"internal_node_id":"0.0-4.0-0.46","subject_id":"5fca9266ba48b36c6e8198e3","study_id":"6197b3f67c2b5cd3b6d9596a","session_id":"619be58dd6fb45cc95cda2ad","condition":"contingent","relevant_dimensions":["antennae","wings"],"bee_group":{"antennae":"B","wings":"1","pattern":"X","legs":"X"},"action":"avoid","summary":"good-avoid","bonus":0.48000000000000087},{"rt":464.5,"stimulus":"\n                    <p><b>Action: <em>avoid</em></b></p>\n                    <p>This is the bee that you just saw.</p>\n                    <img src=\"bees-with-color/bee-B1SF.svg\" width=\"200\">\n                    <p><br>Your bonus pay is unchanged, and remains at $0.32.</p>\n            ","response":0,"trial_type":"html-button-response","trial_index":100,"time_elapsed":268022,"internal_node_id":"0.0-4.0-1.46","subject_id":"5fca9266ba48b36c6e8198e3","study_id":"6197b3f67c2b5cd3b6d9596a","session_id":"619be58dd6fb45cc95cda2ad","condition":"contingent","relevant_dimensions":["antennae","wings"],"bee_group":{"antennae":"B","wings":"1","pattern":"X","legs":"X"},"bonus":0.48000000000000087},{"rt":3052.6999999284744,"stimulus":"bees-with-color/bee-B2SF.svg","response":0,"trial_type":"image-button-response","trial_index":101,"time_elapsed":271078,"internal_node_id":"0.0-4.0-0.47","subject_id":"5fca9266ba48b36c6e8198e3","study_id":"6197b3f67c2b5cd3b6d9596a","session_id":"619be58dd6fb45cc95cda2ad","condition":"contingent","relevant_dimensions":["antennae","wings"],"bee_group":{"antennae":"B","wings":"1","pattern":"X","legs":"X"},"action":"harvest","summary":"good-harvest","bonus":0.48000000000000087},{"rt":670.8000000715256,"stimulus":"\n                    <p><b>Action: <em>harvest</em></b></p>\n                    <p>This is the bee that you just saw.</p>\n                    <img src=\"bees-with-color/bee-B2SF.svg\" width=\"200\">\n                    <p><span class=\"greenText\"><b>Successful harvest!</b></span><br>Your pay has increased by $0.02. Your bonus pay is now $0.34.</p>\n            ","response":0,"trial_type":"html-button-response","trial_index":102,"time_elapsed":271752,"internal_node_id":"0.0-4.0-1.47","subject_id":"5fca9266ba48b36c6e8198e3","study_id":"6197b3f67c2b5cd3b6d9596a","session_id":"619be58dd6fb45cc95cda2ad","condition":"contingent","relevant_dimensions":["antennae","wings"],"bee_group":{"antennae":"B","wings":"1","pattern":"X","legs":"X"},"bonus":0.48000000000000087},{"rt":3296.2000000476837,"stimulus":"bees-with-color/bee-A2DM.svg","response":1,"trial_type":"image-button-response","trial_index":103,"time_elapsed":275051,"internal_node_id":"0.0-4.0-0.48","subject_id":"5fca9266ba48b36c6e8198e3","study_id":"6197b3f67c2b5cd3b6d9596a","session_id":"619be58dd6fb45cc95cda2ad","condition":"contingent","relevant_dimensions":["antennae","wings"],"bee_group":{"antennae":"B","wings":"1","pattern":"X","legs":"X"},"action":"avoid","summary":"bad-avoid","bonus":0.48000000000000087},{"rt":970.2000000476837,"stimulus":"\n                    <p><b>Action: <em>avoid</em></b></p>\n                    <p>This is the bee that you just saw.</p>\n                    <img src=\"bees-with-color/bee-A2DM.svg\" width=\"200\">\n                    <p><br>Your bonus pay is unchanged, and remains at $0.34.</p>\n            ","response":0,"trial_type":"html-button-response","trial_index":104,"time_elapsed":276023,"internal_node_id":"0.0-4.0-1.48","subject_id":"5fca9266ba48b36c6e8198e3","study_id":"6197b3f67c2b5cd3b6d9596a","session_id":"619be58dd6fb45cc95cda2ad","condition":"contingent","relevant_dimensions":["antennae","wings"],"bee_group":{"antennae":"B","wings":"1","pattern":"X","legs":"X"},"bonus":0.48000000000000087},{"rt":1000.3999999761581,"stimulus":"bees-with-color/bee-B1SF.svg","response":1,"trial_type":"image-button-response","trial_index":105,"time_elapsed":277027,"internal_node_id":"0.0-4.0-0.49","subject_id":"5fca9266ba48b36c6e8198e3","study_id":"6197b3f67c2b5cd3b6d9596a","session_id":"619be58dd6fb45cc95cda2ad","condition":"contingent","relevant_dimensions":["antennae","wings"],"bee_group":{"antennae":"B","wings":"1","pattern":"X","legs":"X"},"action":"avoid","summary":"good-avoid","bonus":0.48000000000000087},{"rt":448,"stimulus":"\n                    <p><b>Action: <em>avoid</em></b></p>\n                    <p>This is the bee that you just saw.</p>\n                    <img src=\"bees-with-color/bee-B1SF.svg\" width=\"200\">\n                    <p><br>Your bonus pay is unchanged, and remains at $0.34.</p>\n            ","response":0,"trial_type":"html-button-response","trial_index":106,"time_elapsed":277477,"internal_node_id":"0.0-4.0-1.49","subject_id":"5fca9266ba48b36c6e8198e3","study_id":"6197b3f67c2b5cd3b6d9596a","session_id":"619be58dd6fb45cc95cda2ad","condition":"contingent","relevant_dimensions":["antennae","wings"],"bee_group":{"antennae":"B","wings":"1","pattern":"X","legs":"X"},"bonus":0.48000000000000087},{"rt":1886.3000000715256,"stimulus":"bees-with-color/bee-B2SF.svg","response":0,"trial_type":"image-button-response","trial_index":107,"time_elapsed":279366,"internal_node_id":"0.0-4.0-0.50","subject_id":"5fca9266ba48b36c6e8198e3","study_id":"6197b3f67c2b5cd3b6d9596a","session_id":"619be58dd6fb45cc95cda2ad","condition":"contingent","relevant_dimensions":["antennae","wings"],"bee_group":{"antennae":"B","wings":"1","pattern":"X","legs":"X"},"action":"harvest","summary":"good-harvest","bonus":0.48000000000000087},{"rt":1042.5,"stimulus":"\n                    <p><b>Action: <em>harvest</em></b></p>\n                    <p>This is the bee that you just saw.</p>\n                    <img src=\"bees-with-color/bee-B2SF.svg\" width=\"200\">\n                    <p><span class=\"greenText\"><b>Successful harvest!</b></span><br>Your pay has increased by $0.02. Your bonus pay is now $0.36.</p>\n            ","response":0,"trial_type":"html-button-response","trial_index":108,"time_elapsed":280411,"internal_node_id":"0.0-4.0-1.50","subject_id":"5fca9266ba48b36c6e8198e3","study_id":"6197b3f67c2b5cd3b6d9596a","session_id":"619be58dd6fb45cc95cda2ad","condition":"contingent","relevant_dimensions":["antennae","wings"],"bee_group":{"antennae":"B","wings":"1","pattern":"X","legs":"X"},"bonus":0.48000000000000087},{"rt":2929.399999976158,"stimulus":"bees-with-color/bee-B2DF.svg","response":0,"trial_type":"image-button-response","trial_index":109,"time_elapsed":283342,"internal_node_id":"0.0-4.0-0.51","subject_id":"5fca9266ba48b36c6e8198e3","study_id":"6197b3f67c2b5cd3b6d9596a","session_id":"619be58dd6fb45cc95cda2ad","condition":"contingent","relevant_dimensions":["antennae","wings"],"bee_group":{"antennae":"B","wings":"1","pattern":"X","legs":"X"},"action":"harvest","summary":"good-harvest","bonus":0.48000000000000087},{"rt":797.2999999523163,"stimulus":"\n                    <p><b>Action: <em>harvest</em></b></p>\n                    <p>This is the bee that you just saw.</p>\n                    <img src=\"bees-with-color/bee-B2DF.svg\" width=\"200\">\n                    <p><span class=\"greenText\"><b>Successful harvest!</b></span><br>Your pay has increased by $0.02. Your bonus pay is now $0.38.</p>\n            ","response":0,"trial_type":"html-button-response","trial_index":110,"time_elapsed":284142,"internal_node_id":"0.0-4.0-1.51","subject_id":"5fca9266ba48b36c6e8198e3","study_id":"6197b3f67c2b5cd3b6d9596a","session_id":"619be58dd6fb45cc95cda2ad","condition":"contingent","relevant_dimensions":["antennae","wings"],"bee_group":{"antennae":"B","wings":"1","pattern":"X","legs":"X"},"bonus":0.48000000000000087},{"rt":1851.6999999284744,"stimulus":"bees-with-color/bee-A2SM.svg","response":1,"trial_type":"image-button-response","trial_index":111,"time_elapsed":285997,"internal_node_id":"0.0-4.0-0.52","subject_id":"5fca9266ba48b36c6e8198e3","study_id":"6197b3f67c2b5cd3b6d9596a","session_id":"619be58dd6fb45cc95cda2ad","condition":"contingent","relevant_dimensions":["antennae","wings"],"bee_group":{"antennae":"B","wings":"1","pattern":"X","legs":"X"},"action":"avoid","summary":"bad-avoid","bonus":0.48000000000000087},{"rt":818.3999999761581,"stimulus":"\n                    <p><b>Action: <em>avoid</em></b></p>\n                    <p>This is the bee that you just saw.</p>\n                    <img src=\"bees-with-color/bee-A2SM.svg\" width=\"200\">\n                    <p><br>Your bonus pay is unchanged, and remains at $0.38.</p>\n            ","response":0,"trial_type":"html-button-response","trial_index":112,"time_elapsed":286819,"internal_node_id":"0.0-4.0-1.52","subject_id":"5fca9266ba48b36c6e8198e3","study_id":"6197b3f67c2b5cd3b6d9596a","session_id":"619be58dd6fb45cc95cda2ad","condition":"contingent","relevant_dimensions":["antennae","wings"],"bee_group":{"antennae":"B","wings":"1","pattern":"X","legs":"X"},"bonus":0.48000000000000087},{"rt":4303.099999904633,"stimulus":"bees-with-color/bee-A1DM.svg","response":0,"trial_type":"image-button-response","trial_index":113,"time_elapsed":291125,"internal_node_id":"0.0-4.0-0.53","subject_id":"5fca9266ba48b36c6e8198e3","study_id":"6197b3f67c2b5cd3b6d9596a","session_id":"619be58dd6fb45cc95cda2ad","condition":"contingent","relevant_dimensions":["antennae","wings"],"bee_group":{"antennae":"B","wings":"1","pattern":"X","legs":"X"},"action":"harvest","summary":"good-harvest","bonus":0.48000000000000087},{"rt":951.7000000476837,"stimulus":"\n                    <p><b>Action: <em>harvest</em></b></p>\n                    <p>This is the bee that you just saw.</p>\n                    <img src=\"bees-with-color/bee-A1DM.svg\" width=\"200\">\n                    <p><span class=\"greenText\"><b>Successful harvest!</b></span><br>Your pay has increased by $0.02. Your bonus pay is now $0.40.</p>\n            ","response":0,"trial_type":"html-button-response","trial_index":114,"time_elapsed":292079,"internal_node_id":"0.0-4.0-1.53","subject_id":"5fca9266ba48b36c6e8198e3","study_id":"6197b3f67c2b5cd3b6d9596a","session_id":"619be58dd6fb45cc95cda2ad","condition":"contingent","relevant_dimensions":["antennae","wings"],"bee_group":{"antennae":"B","wings":"1","pattern":"X","legs":"X"},"bonus":0.48000000000000087},{"rt":998.8999999761581,"stimulus":"bees-with-color/bee-B1SM.svg","response":1,"trial_type":"image-button-response","trial_index":115,"time_elapsed":293082,"internal_node_id":"0.0-4.0-0.54","subject_id":"5fca9266ba48b36c6e8198e3","study_id":"6197b3f67c2b5cd3b6d9596a","session_id":"619be58dd6fb45cc95cda2ad","condition":"contingent","relevant_dimensions":["antennae","wings"],"bee_group":{"antennae":"B","wings":"1","pattern":"X","legs":"X"},"action":"avoid","summary":"good-avoid","bonus":0.48000000000000087},{"rt":525.7999999523163,"stimulus":"\n                    <p><b>Action: <em>avoid</em></b></p>\n                    <p>This is the bee that you just saw.</p>\n                    <img src=\"bees-with-color/bee-B1SM.svg\" width=\"200\">\n                    <p><br>Your bonus pay is unchanged, and remains at $0.40.</p>\n            ","response":0,"trial_type":"html-button-response","trial_index":116,"time_elapsed":293610,"internal_node_id":"0.0-4.0-1.54","subject_id":"5fca9266ba48b36c6e8198e3","study_id":"6197b3f67c2b5cd3b6d9596a","session_id":"619be58dd6fb45cc95cda2ad","condition":"contingent","relevant_dimensions":["antennae","wings"],"bee_group":{"antennae":"B","wings":"1","pattern":"X","legs":"X"},"bonus":0.48000000000000087},{"rt":1627.0999999046326,"stimulus":"bees-with-color/bee-A2DF.svg","response":1,"trial_type":"image-button-response","trial_index":117,"time_elapsed":295240,"internal_node_id":"0.0-4.0-0.55","subject_id":"5fca9266ba48b36c6e8198e3","study_id":"6197b3f67c2b5cd3b6d9596a","session_id":"619be58dd6fb45cc95cda2ad","condition":"contingent","relevant_dimensions":["antennae","wings"],"bee_group":{"antennae":"B","wings":"1","pattern":"X","legs":"X"},"action":"avoid","summary":"bad-avoid","bonus":0.48000000000000087},{"rt":487.60000002384186,"stimulus":"\n                    <p><b>Action: <em>avoid</em></b></p>\n                    <p>This is the bee that you just saw.</p>\n                    <img src=\"bees-with-color/bee-A2DF.svg\" width=\"200\">\n                    <p><br>Your bonus pay is unchanged, and remains at $0.40.</p>\n            ","response":0,"trial_type":"html-button-response","trial_index":118,"time_elapsed":295731,"internal_node_id":"0.0-4.0-1.55","subject_id":"5fca9266ba48b36c6e8198e3","study_id":"6197b3f67c2b5cd3b6d9596a","session_id":"619be58dd6fb45cc95cda2ad","condition":"contingent","relevant_dimensions":["antennae","wings"],"bee_group":{"antennae":"B","wings":"1","pattern":"X","legs":"X"},"bonus":0.48000000000000087},{"rt":2237.3000000715256,"stimulus":"bees-with-color/bee-A1SF.svg","response":0,"trial_type":"image-button-response","trial_index":119,"time_elapsed":297972,"internal_node_id":"0.0-4.0-0.56","subject_id":"5fca9266ba48b36c6e8198e3","study_id":"6197b3f67c2b5cd3b6d9596a","session_id":"619be58dd6fb45cc95cda2ad","condition":"contingent","relevant_dimensions":["antennae","wings"],"bee_group":{"antennae":"B","wings":"1","pattern":"X","legs":"X"},"action":"harvest","summary":"good-harvest","bonus":0.48000000000000087},{"rt":859.8999999761581,"stimulus":"\n                    <p><b>Action: <em>harvest</em></b></p>\n                    <p>This is the bee that you just saw.</p>\n                    <img src=\"bees-with-color/bee-A1SF.svg\" width=\"200\">\n                    <p><span class=\"greenText\"><b>Successful harvest!</b></span><br>Your pay has increased by $0.02. Your bonus pay is now $0.42.</p>\n            ","response":0,"trial_type":"html-button-response","trial_index":120,"time_elapsed":298836,"internal_node_id":"0.0-4.0-1.56","subject_id":"5fca9266ba48b36c6e8198e3","study_id":"6197b3f67c2b5cd3b6d9596a","session_id":"619be58dd6fb45cc95cda2ad","condition":"contingent","relevant_dimensions":["antennae","wings"],"bee_group":{"antennae":"B","wings":"1","pattern":"X","legs":"X"},"bonus":0.48000000000000087},{"rt":1632.5,"stimulus":"bees-with-color/bee-B2SM.svg","response":0,"trial_type":"image-button-response","trial_index":121,"time_elapsed":300471,"internal_node_id":"0.0-4.0-0.57","subject_id":"5fca9266ba48b36c6e8198e3","study_id":"6197b3f67c2b5cd3b6d9596a","session_id":"619be58dd6fb45cc95cda2ad","condition":"contingent","relevant_dimensions":["antennae","wings"],"bee_group":{"antennae":"B","wings":"1","pattern":"X","legs":"X"},"action":"harvest","summary":"good-harvest","bonus":0.48000000000000087},{"rt":947.0999999046326,"stimulus":"\n                    <p><b>Action: <em>harvest</em></b></p>\n                    <p>This is the bee that you just saw.</p>\n                    <img src=\"bees-with-color/bee-B2SM.svg\" width=\"200\">\n                    <p><span class=\"greenText\"><b>Successful harvest!</b></span><br>Your pay has increased by $0.02. Your bonus pay is now $0.44.</p>\n            ","response":0,"trial_type":"html-button-response","trial_index":122,"time_elapsed":301419,"internal_node_id":"0.0-4.0-1.57","subject_id":"5fca9266ba48b36c6e8198e3","study_id":"6197b3f67c2b5cd3b6d9596a","session_id":"619be58dd6fb45cc95cda2ad","condition":"contingent","relevant_dimensions":["antennae","wings"],"bee_group":{"antennae":"B","wings":"1","pattern":"X","legs":"X"},"bonus":0.48000000000000087},{"rt":960.3999999761581,"stimulus":"bees-with-color/bee-A1SM.svg","response":1,"trial_type":"image-button-response","trial_index":123,"time_elapsed":302382,"internal_node_id":"0.0-4.0-0.58","subject_id":"5fca9266ba48b36c6e8198e3","study_id":"6197b3f67c2b5cd3b6d9596a","session_id":"619be58dd6fb45cc95cda2ad","condition":"contingent","relevant_dimensions":["antennae","wings"],"bee_group":{"antennae":"B","wings":"1","pattern":"X","legs":"X"},"action":"avoid","summary":"bad-avoid","bonus":0.48000000000000087},{"rt":654.6999999284744,"stimulus":"\n                    <p><b>Action: <em>avoid</em></b></p>\n                    <p>This is the bee that you just saw.</p>\n                    <img src=\"bees-with-color/bee-A1SM.svg\" width=\"200\">\n                    <p><br>Your bonus pay is unchanged, and remains at $0.44.</p>\n            ","response":0,"trial_type":"html-button-response","trial_index":124,"time_elapsed":303040,"internal_node_id":"0.0-4.0-1.58","subject_id":"5fca9266ba48b36c6e8198e3","study_id":"6197b3f67c2b5cd3b6d9596a","session_id":"619be58dd6fb45cc95cda2ad","condition":"contingent","relevant_dimensions":["antennae","wings"],"bee_group":{"antennae":"B","wings":"1","pattern":"X","legs":"X"},"bonus":0.48000000000000087},{"rt":2655,"stimulus":"bees-with-color/bee-B2DM.svg","response":1,"trial_type":"image-button-response","trial_index":125,"time_elapsed":305697,"internal_node_id":"0.0-4.0-0.59","subject_id":"5fca9266ba48b36c6e8198e3","study_id":"6197b3f67c2b5cd3b6d9596a","session_id":"619be58dd6fb45cc95cda2ad","condition":"contingent","relevant_dimensions":["antennae","wings"],"bee_group":{"antennae":"B","wings":"1","pattern":"X","legs":"X"},"action":"avoid","summary":"bad-avoid","bonus":0.48000000000000087},{"rt":697.2999999523163,"stimulus":"\n                    <p><b>Action: <em>avoid</em></b></p>\n                    <p>This is the bee that you just saw.</p>\n                    <img src=\"bees-with-color/bee-B2DM.svg\" width=\"200\">\n                    <p><br>Your bonus pay is unchanged, and remains at $0.44.</p>\n            ","response":0,"trial_type":"html-button-response","trial_index":126,"time_elapsed":306398,"internal_node_id":"0.0-4.0-1.59","subject_id":"5fca9266ba48b36c6e8198e3","study_id":"6197b3f67c2b5cd3b6d9596a","session_id":"619be58dd6fb45cc95cda2ad","condition":"contingent","relevant_dimensions":["antennae","wings"],"bee_group":{"antennae":"B","wings":"1","pattern":"X","legs":"X"},"bonus":0.48000000000000087},{"rt":1017.3999999761581,"stimulus":"bees-with-color/bee-B1DF.svg","response":1,"trial_type":"image-button-response","trial_index":127,"time_elapsed":307416,"internal_node_id":"0.0-4.0-0.60","subject_id":"5fca9266ba48b36c6e8198e3","study_id":"6197b3f67c2b5cd3b6d9596a","session_id":"619be58dd6fb45cc95cda2ad","condition":"contingent","relevant_dimensions":["antennae","wings"],"bee_group":{"antennae":"B","wings":"1","pattern":"X","legs":"X"},"action":"avoid","summary":"good-avoid","bonus":0.48000000000000087},{"rt":421.7000000476837,"stimulus":"\n                    <p><b>Action: <em>avoid</em></b></p>\n                    <p>This is the bee that you just saw.</p>\n                    <img src=\"bees-with-color/bee-B1DF.svg\" width=\"200\">\n                    <p><br>Your bonus pay is unchanged, and remains at $0.44.</p>\n            ","response":0,"trial_type":"html-button-response","trial_index":128,"time_elapsed":307839,"internal_node_id":"0.0-4.0-1.60","subject_id":"5fca9266ba48b36c6e8198e3","study_id":"6197b3f67c2b5cd3b6d9596a","session_id":"619be58dd6fb45cc95cda2ad","condition":"contingent","relevant_dimensions":["antennae","wings"],"bee_group":{"antennae":"B","wings":"1","pattern":"X","legs":"X"},"bonus":0.48000000000000087},{"rt":1323.9000000953674,"stimulus":"bees-with-color/bee-B1DM.svg","response":0,"trial_type":"image-button-response","trial_index":129,"time_elapsed":309165,"internal_node_id":"0.0-4.0-0.61","subject_id":"5fca9266ba48b36c6e8198e3","study_id":"6197b3f67c2b5cd3b6d9596a","session_id":"619be58dd6fb45cc95cda2ad","condition":"contingent","relevant_dimensions":["antennae","wings"],"bee_group":{"antennae":"B","wings":"1","pattern":"X","legs":"X"},"action":"harvest","summary":"bad-harvest","bonus":0.48000000000000087},{"rt":730.6999999284744,"stimulus":"\n                    <p><b>Action: <em>harvest</em></b></p>\n                    <p>This is the bee that you just saw.</p>\n                    <img src=\"bees-with-color/bee-B1DM.svg\" width=\"200\">\n                    <p><span class=\"redText\">Bad choice, the bee was angry.</span><br><b>You have been stung!</b><br>Your pay has been decreased by $0.10. Your bonus pay is now $0.34.</p>\n            ","response":0,"trial_type":"html-button-response","trial_index":130,"time_elapsed":309897,"internal_node_id":"0.0-4.0-1.61","subject_id":"5fca9266ba48b36c6e8198e3","study_id":"6197b3f67c2b5cd3b6d9596a","session_id":"619be58dd6fb45cc95cda2ad","condition":"contingent","relevant_dimensions":["antennae","wings"],"bee_group":{"antennae":"B","wings":"1","pattern":"X","legs":"X"},"bonus":0.48000000000000087},{"rt":805.3000000715256,"stimulus":"bees-with-color/bee-A1DF.svg","response":0,"trial_type":"image-button-response","trial_index":131,"time_elapsed":310705,"internal_node_id":"0.0-4.0-0.62","subject_id":"5fca9266ba48b36c6e8198e3","study_id":"6197b3f67c2b5cd3b6d9596a","session_id":"619be58dd6fb45cc95cda2ad","condition":"contingent","relevant_dimensions":["antennae","wings"],"bee_group":{"antennae":"B","wings":"1","pattern":"X","legs":"X"},"action":"harvest","summary":"good-harvest","bonus":0.48000000000000087},{"rt":712.3000000715256,"stimulus":"\n                    <p><b>Action: <em>harvest</em></b></p>\n                    <p>This is the bee that you just saw.</p>\n                    <img src=\"bees-with-color/bee-A1DF.svg\" width=\"200\">\n                    <p><span class=\"greenText\"><b>Successful harvest!</b></span><br>Your pay has increased by $0.02. Your bonus pay is now $0.36.</p>\n            ","response":0,"trial_type":"html-button-response","trial_index":132,"time_elapsed":311420,"internal_node_id":"0.0-4.0-1.62","subject_id":"5fca9266ba48b36c6e8198e3","study_id":"6197b3f67c2b5cd3b6d9596a","session_id":"619be58dd6fb45cc95cda2ad","condition":"contingent","relevant_dimensions":["antennae","wings"],"bee_group":{"antennae":"B","wings":"1","pattern":"X","legs":"X"},"bonus":0.48000000000000087},{"rt":505.7000000476837,"stimulus":"bees-with-color/bee-A2SF.svg","response":0,"trial_type":"image-button-response","trial_index":133,"time_elapsed":311927,"internal_node_id":"0.0-4.0-0.63","subject_id":"5fca9266ba48b36c6e8198e3","study_id":"6197b3f67c2b5cd3b6d9596a","session_id":"619be58dd6fb45cc95cda2ad","condition":"contingent","relevant_dimensions":["antennae","wings"],"bee_group":{"antennae":"B","wings":"1","pattern":"X","legs":"X"},"action":"harvest","summary":"good-harvest","bonus":0.48000000000000087},{"rt":684.8999999761581,"stimulus":"\n                    <p><b>Action: <em>harvest</em></b></p>\n                    <p>This is the bee that you just saw.</p>\n                    <img src=\"bees-with-color/bee-A2SF.svg\" width=\"200\">\n                    <p><span class=\"greenText\"><b>Successful harvest!</b></span><br>Your pay has increased by $0.02. Your bonus pay is now $0.38.</p>\n            ","response":0,"trial_type":"html-button-response","trial_index":134,"time_elapsed":312614,"internal_node_id":"0.0-4.0-1.63","subject_id":"5fca9266ba48b36c6e8198e3","study_id":"6197b3f67c2b5cd3b6d9596a","session_id":"619be58dd6fb45cc95cda2ad","condition":"contingent","relevant_dimensions":["antennae","wings"],"bee_group":{"antennae":"B","wings":"1","pattern":"X","legs":"X"},"bonus":0.48000000000000087},{"rt":5466.400000095367,"stimulus":"You have completed the first part of this experiment.<br><br>You will now begin a shorter second part, in which you will receive no feedback.<br>The same rules regarding bonus pay apply.<br><br>Press any key to begin.","response":" ","trial_type":"html-keyboard-response","trial_index":135,"time_elapsed":318084,"internal_node_id":"0.0-5.0","subject_id":"5fca9266ba48b36c6e8198e3","study_id":"6197b3f67c2b5cd3b6d9596a","session_id":"619be58dd6fb45cc95cda2ad","condition":"contingent","relevant_dimensions":["antennae","wings"],"bee_group":{"antennae":"B","wings":"1","pattern":"X","legs":"X"},"bonus":0.48000000000000087},{"rt":2764.600000023842,"stimulus":"bees-with-color/bee-A1SM.svg","response":0,"trial_type":"image-button-response","trial_index":136,"time_elapsed":320857,"internal_node_id":"0.0-6.0-0.0","subject_id":"5fca9266ba48b36c6e8198e3","study_id":"6197b3f67c2b5cd3b6d9596a","session_id":"619be58dd6fb45cc95cda2ad","condition":"contingent","relevant_dimensions":["antennae","wings"],"bee_group":{"antennae":"B","wings":"1","pattern":"X","legs":"X"},"bonus":0.48000000000000087},{"rt":1410.3000000715256,"stimulus":"bees-with-color/bee-B1DF.svg","response":1,"trial_type":"image-button-response","trial_index":137,"time_elapsed":322272,"internal_node_id":"0.0-6.0-0.1","subject_id":"5fca9266ba48b36c6e8198e3","study_id":"6197b3f67c2b5cd3b6d9596a","session_id":"619be58dd6fb45cc95cda2ad","condition":"contingent","relevant_dimensions":["antennae","wings"],"bee_group":{"antennae":"B","wings":"1","pattern":"X","legs":"X"},"bonus":0.48000000000000087},{"rt":1105.5,"stimulus":"bees-with-color/bee-B2SM.svg","response":1,"trial_type":"image-button-response","trial_index":138,"time_elapsed":323382,"internal_node_id":"0.0-6.0-0.2","subject_id":"5fca9266ba48b36c6e8198e3","study_id":"6197b3f67c2b5cd3b6d9596a","session_id":"619be58dd6fb45cc95cda2ad","condition":"contingent","relevant_dimensions":["antennae","wings"],"bee_group":{"antennae":"B","wings":"1","pattern":"X","legs":"X"},"bonus":0.48000000000000087},{"rt":1083.6999999284744,"stimulus":"bees-with-color/bee-A1DF.svg","response":1,"trial_type":"image-button-response","trial_index":139,"time_elapsed":324469,"internal_node_id":"0.0-6.0-0.3","subject_id":"5fca9266ba48b36c6e8198e3","study_id":"6197b3f67c2b5cd3b6d9596a","session_id":"619be58dd6fb45cc95cda2ad","condition":"contingent","relevant_dimensions":["antennae","wings"],"bee_group":{"antennae":"B","wings":"1","pattern":"X","legs":"X"},"bonus":0.48000000000000087},{"rt":2466.399999976158,"stimulus":"bees-with-color/bee-A2SF.svg","response":0,"trial_type":"image-button-response","trial_index":140,"time_elapsed":326940,"internal_node_id":"0.0-6.0-0.4","subject_id":"5fca9266ba48b36c6e8198e3","study_id":"6197b3f67c2b5cd3b6d9596a","session_id":"619be58dd6fb45cc95cda2ad","condition":"contingent","relevant_dimensions":["antennae","wings"],"bee_group":{"antennae":"B","wings":"1","pattern":"X","legs":"X"},"bonus":0.48000000000000087},{"rt":1667.5,"stimulus":"bees-with-color/bee-A1SF.svg","response":0,"trial_type":"image-button-response","trial_index":141,"time_elapsed":328609,"internal_node_id":"0.0-6.0-0.5","subject_id":"5fca9266ba48b36c6e8198e3","study_id":"6197b3f67c2b5cd3b6d9596a","session_id":"619be58dd6fb45cc95cda2ad","condition":"contingent","relevant_dimensions":["antennae","wings"],"bee_group":{"antennae":"B","wings":"1","pattern":"X","legs":"X"},"bonus":0.48000000000000087},{"rt":1003.6000000238419,"stimulus":"bees-with-color/bee-A2SM.svg","response":1,"trial_type":"image-button-response","trial_index":142,"time_elapsed":329618,"internal_node_id":"0.0-6.0-0.6","subject_id":"5fca9266ba48b36c6e8198e3","study_id":"6197b3f67c2b5cd3b6d9596a","session_id":"619be58dd6fb45cc95cda2ad","condition":"contingent","relevant_dimensions":["antennae","wings"],"bee_group":{"antennae":"B","wings":"1","pattern":"X","legs":"X"},"bonus":0.48000000000000087},{"rt":423.10000002384186,"stimulus":"bees-with-color/bee-B1SM.svg","response":1,"trial_type":"image-button-response","trial_index":143,"time_elapsed":330046,"internal_node_id":"0.0-6.0-0.7","subject_id":"5fca9266ba48b36c6e8198e3","study_id":"6197b3f67c2b5cd3b6d9596a","session_id":"619be58dd6fb45cc95cda2ad","condition":"contingent","relevant_dimensions":["antennae","wings"],"bee_group":{"antennae":"B","wings":"1","pattern":"X","legs":"X"},"bonus":0.48000000000000087},{"rt":668.8000000715256,"stimulus":"bees-with-color/bee-B2DM.svg","response":1,"trial_type":"image-button-response","trial_index":144,"time_elapsed":330718,"internal_node_id":"0.0-6.0-0.8","subject_id":"5fca9266ba48b36c6e8198e3","study_id":"6197b3f67c2b5cd3b6d9596a","session_id":"619be58dd6fb45cc95cda2ad","condition":"contingent","relevant_dimensions":["antennae","wings"],"bee_group":{"antennae":"B","wings":"1","pattern":"X","legs":"X"},"bonus":0.48000000000000087},{"rt":856,"stimulus":"bees-with-color/bee-A2DF.svg","response":1,"trial_type":"image-button-response","trial_index":145,"time_elapsed":331577,"internal_node_id":"0.0-6.0-0.9","subject_id":"5fca9266ba48b36c6e8198e3","study_id":"6197b3f67c2b5cd3b6d9596a","session_id":"619be58dd6fb45cc95cda2ad","condition":"contingent","relevant_dimensions":["antennae","wings"],"bee_group":{"antennae":"B","wings":"1","pattern":"X","legs":"X"},"bonus":0.48000000000000087},{"rt":1006.2999999523163,"stimulus":"bees-with-color/bee-B2SF.svg","response":1,"trial_type":"image-button-response","trial_index":146,"time_elapsed":332587,"internal_node_id":"0.0-6.0-0.10","subject_id":"5fca9266ba48b36c6e8198e3","study_id":"6197b3f67c2b5cd3b6d9596a","session_id":"619be58dd6fb45cc95cda2ad","condition":"contingent","relevant_dimensions":["antennae","wings"],"bee_group":{"antennae":"B","wings":"1","pattern":"X","legs":"X"},"bonus":0.48000000000000087},{"rt":972.1000000238419,"stimulus":"bees-with-color/bee-A2DM.svg","response":1,"trial_type":"image-button-response","trial_index":147,"time_elapsed":333563,"internal_node_id":"0.0-6.0-0.11","subject_id":"5fca9266ba48b36c6e8198e3","study_id":"6197b3f67c2b5cd3b6d9596a","session_id":"619be58dd6fb45cc95cda2ad","condition":"contingent","relevant_dimensions":["antennae","wings"],"bee_group":{"antennae":"B","wings":"1","pattern":"X","legs":"X"},"bonus":0.48000000000000087},{"rt":1999.5,"stimulus":"bees-with-color/bee-A1DM.svg","response":0,"trial_type":"image-button-response","trial_index":148,"time_elapsed":335567,"internal_node_id":"0.0-6.0-0.12","subject_id":"5fca9266ba48b36c6e8198e3","study_id":"6197b3f67c2b5cd3b6d9596a","session_id":"619be58dd6fb45cc95cda2ad","condition":"contingent","relevant_dimensions":["antennae","wings"],"bee_group":{"antennae":"B","wings":"1","pattern":"X","legs":"X"},"bonus":0.48000000000000087},{"rt":1181.0999999046326,"stimulus":"bees-with-color/bee-B2DF.svg","response":0,"trial_type":"image-button-response","trial_index":149,"time_elapsed":336752,"internal_node_id":"0.0-6.0-0.13","subject_id":"5fca9266ba48b36c6e8198e3","study_id":"6197b3f67c2b5cd3b6d9596a","session_id":"619be58dd6fb45cc95cda2ad","condition":"contingent","relevant_dimensions":["antennae","wings"],"bee_group":{"antennae":"B","wings":"1","pattern":"X","legs":"X"},"bonus":0.48000000000000087},{"rt":761.2999999523163,"stimulus":"bees-with-color/bee-B1DM.svg","response":1,"trial_type":"image-button-response","trial_index":150,"time_elapsed":337517,"internal_node_id":"0.0-6.0-0.14","subject_id":"5fca9266ba48b36c6e8198e3","study_id":"6197b3f67c2b5cd3b6d9596a","session_id":"619be58dd6fb45cc95cda2ad","condition":"contingent","relevant_dimensions":["antennae","wings"],"bee_group":{"antennae":"B","wings":"1","pattern":"X","legs":"X"},"bonus":0.48000000000000087},{"rt":368,"stimulus":"bees-with-color/bee-B1SF.svg","response":1,"trial_type":"image-button-response","trial_index":151,"time_elapsed":337889,"internal_node_id":"0.0-6.0-0.15","subject_id":"5fca9266ba48b36c6e8198e3","study_id":"6197b3f67c2b5cd3b6d9596a","session_id":"619be58dd6fb45cc95cda2ad","condition":"contingent","relevant_dimensions":["antennae","wings"],"bee_group":{"antennae":"B","wings":"1","pattern":"X","legs":"X"},"bonus":0.48000000000000087},{"rt":2534.100000023842,"stimulus":"bees-with-color/bee-B2DF.svg","response":0,"trial_type":"image-button-response","trial_index":152,"time_elapsed":340427,"internal_node_id":"0.0-6.0-0.16","subject_id":"5fca9266ba48b36c6e8198e3","study_id":"6197b3f67c2b5cd3b6d9596a","session_id":"619be58dd6fb45cc95cda2ad","condition":"contingent","relevant_dimensions":["antennae","wings"],"bee_group":{"antennae":"B","wings":"1","pattern":"X","legs":"X"},"bonus":0.48000000000000087},{"rt":725.2999999523163,"stimulus":"bees-with-color/bee-B1SF.svg","response":1,"trial_type":"image-button-response","trial_index":153,"time_elapsed":341155,"internal_node_id":"0.0-6.0-0.17","subject_id":"5fca9266ba48b36c6e8198e3","study_id":"6197b3f67c2b5cd3b6d9596a","session_id":"619be58dd6fb45cc95cda2ad","condition":"contingent","relevant_dimensions":["antennae","wings"],"bee_group":{"antennae":"B","wings":"1","pattern":"X","legs":"X"},"bonus":0.48000000000000087},{"rt":817.8999999761581,"stimulus":"bees-with-color/bee-A1SF.svg","response":1,"trial_type":"image-button-response","trial_index":154,"time_elapsed":341976,"internal_node_id":"0.0-6.0-0.18","subject_id":"5fca9266ba48b36c6e8198e3","study_id":"6197b3f67c2b5cd3b6d9596a","session_id":"619be58dd6fb45cc95cda2ad","condition":"contingent","relevant_dimensions":["antennae","wings"],"bee_group":{"antennae":"B","wings":"1","pattern":"X","legs":"X"},"bonus":0.48000000000000087},{"rt":1615,"stimulus":"bees-with-color/bee-B1DM.svg","response":0,"trial_type":"image-button-response","trial_index":155,"time_elapsed":343592,"internal_node_id":"0.0-6.0-0.19","subject_id":"5fca9266ba48b36c6e8198e3","study_id":"6197b3f67c2b5cd3b6d9596a","session_id":"619be58dd6fb45cc95cda2ad","condition":"contingent","relevant_dimensions":["antennae","wings"],"bee_group":{"antennae":"B","wings":"1","pattern":"X","legs":"X"},"bonus":0.48000000000000087},{"rt":1693.8000000715256,"stimulus":"bees-with-color/bee-A1DM.svg","response":1,"trial_type":"image-button-response","trial_index":156,"time_elapsed":345289,"internal_node_id":"0.0-6.0-0.20","subject_id":"5fca9266ba48b36c6e8198e3","study_id":"6197b3f67c2b5cd3b6d9596a","session_id":"619be58dd6fb45cc95cda2ad","condition":"contingent","relevant_dimensions":["antennae","wings"],"bee_group":{"antennae":"B","wings":"1","pattern":"X","legs":"X"},"bonus":0.48000000000000087},{"rt":1706,"stimulus":"bees-with-color/bee-A2SF.svg","response":1,"trial_type":"image-button-response","trial_index":157,"time_elapsed":346996,"internal_node_id":"0.0-6.0-0.21","subject_id":"5fca9266ba48b36c6e8198e3","study_id":"6197b3f67c2b5cd3b6d9596a","session_id":"619be58dd6fb45cc95cda2ad","condition":"contingent","relevant_dimensions":["antennae","wings"],"bee_group":{"antennae":"B","wings":"1","pattern":"X","legs":"X"},"bonus":0.48000000000000087},{"rt":1158.7000000476837,"stimulus":"bees-with-color/bee-A2DM.svg","response":0,"trial_type":"image-button-response","trial_index":158,"time_elapsed":348157,"internal_node_id":"0.0-6.0-0.22","subject_id":"5fca9266ba48b36c6e8198e3","study_id":"6197b3f67c2b5cd3b6d9596a","session_id":"619be58dd6fb45cc95cda2ad","condition":"contingent","relevant_dimensions":["antennae","wings"],"bee_group":{"antennae":"B","wings":"1","pattern":"X","legs":"X"},"bonus":0.48000000000000087},{"rt":1366.2999999523163,"stimulus":"bees-with-color/bee-B2DM.svg","response":1,"trial_type":"image-button-response","trial_index":159,"time_elapsed":349526,"internal_node_id":"0.0-6.0-0.23","subject_id":"5fca9266ba48b36c6e8198e3","study_id":"6197b3f67c2b5cd3b6d9596a","session_id":"619be58dd6fb45cc95cda2ad","condition":"contingent","relevant_dimensions":["antennae","wings"],"bee_group":{"antennae":"B","wings":"1","pattern":"X","legs":"X"},"bonus":0.48000000000000087},{"rt":1401.5,"stimulus":"bees-with-color/bee-B2SF.svg","response":1,"trial_type":"image-button-response","trial_index":160,"time_elapsed":350931,"internal_node_id":"0.0-6.0-0.24","subject_id":"5fca9266ba48b36c6e8198e3","study_id":"6197b3f67c2b5cd3b6d9596a","session_id":"619be58dd6fb45cc95cda2ad","condition":"contingent","relevant_dimensions":["antennae","wings"],"bee_group":{"antennae":"B","wings":"1","pattern":"X","legs":"X"},"bonus":0.48000000000000087},{"rt":945,"stimulus":"bees-with-color/bee-B2SM.svg","response":0,"trial_type":"image-button-response","trial_index":161,"time_elapsed":351879,"internal_node_id":"0.0-6.0-0.25","subject_id":"5fca9266ba48b36c6e8198e3","study_id":"6197b3f67c2b5cd3b6d9596a","session_id":"619be58dd6fb45cc95cda2ad","condition":"contingent","relevant_dimensions":["antennae","wings"],"bee_group":{"antennae":"B","wings":"1","pattern":"X","legs":"X"},"bonus":0.48000000000000087},{"rt":944.6000000238419,"stimulus":"bees-with-color/bee-A2SM.